File: N132962/Quantification/20 keV/Glass Mount IIIB/GM IIIB K230[1][4].msa
#FORMAT      : EMSA/MAS Spectral Data File
#VERSION     : 1.0
#TITLE       : GM IIIB K230[1][all]
#DATE        : 10-SEP-2025
#TIME        : 19:12
#OWNER       : Unknown
#NPOINTS     : 4096
#NCOLUMNS    : 1
#XUNITS      : eV
#YUNITS      : counts
#DATATYPE    : Y
#XPERCHAN    : 9.99778
#OFFSET      : 1.69135
#BEAMKV      : 20
#SIGNALTYPE  : EDS
#ELEVANGLE   : 35
#AZIMANGLE   : 0
#LIVETIME    : 240.1645
#REALTIME    : 264.427
#PROBECUR    : 1.21918
#TAUWIND     : 0
#TDEADLYR    : 0
#TACTLYR     : 0.045
#TALWIND     : 0.025
#CHOFFSET    : 0.0
#XLABEL      : Energy (eV)
#YLABEL      : Counts
#XPOSITION   : 4.59057
#YPOSITION   : -1.16702
#ZPOSITION   : 34.0016
#EDSDET      : SD
##SPECIMEN   : GM IIIB K230[1][all]
##D2STDCMP   : K230,(O:24.49),(Al:2.65),(Si:14.02),(Zn:4.02),(Ba:8.96),(Ta:4.09),(Pb:41.77)
##DET_HASH   : 12273538-fd48-a23f-0a19-f1e6fa85caef
##CALIB_HASH : 6abaa72c-aa41-8738-0be9-f592914732f3
##WORKING    : 15.0 mm
##DET_NAME   : EDAX All
##DET_MODE   : MediumLE
#SPECTRUM    :
22,
21,
10,
24,
148,
643,
1863,
4198,
8764,
10749,
7506,
5806,
5887,
6418,
7946,
17633,
54493,
98985,
72387,
23429,
9184,
7056,
6419,
7221,
6891,
6762,
7118,
6872,
7029,
7146,
7551,
7859,
11384,
18400,
21628,
15917,
9810,
7670,
7293,
7276,
7460,
7625,
7992,
8388,
9117,
9162,
9164,
11172,
19225,
30600,
31141,
20135,
12518,
10431,
11264,
20451,
57088,
126512,
164164,
118534,
56673,
27265,
16633,
10580,
8101,
7617,
7362,
7176,
6983,
7087,
7335,
7893,
8842,
9810,
11100,
16161,
33959,
70382,
102361,
98630,
79382,
72806,
62206,
37814,
17194,
8748,
7495,
8672,
10019,
9784,
7995,
6464,
5592,
5306,
5284,
5372,
5476,
5591,
5625,
5727,
5884,
6254,
6490,
6677,
6467,
6203,
5683,
5506,
5203,
5062,
5090,
5044,
5052,
5129,
5155,
5182,
5284,
5103,
5143,
4890,
4953,
4757,
4953,
4996,
4896,
4893,
4939,
4982,
4913,
4996,
5020,
5232,
5236,
5126,
5083,
5079,
4924,
4854,
4920,
4950,
4841,
4787,
4889,
4852,
5059,
5794,
7902,
11967,
16446,
18149,
15641,
10943,
7298,
5365,
4851,
4707,
4688,
5107,
5895,
7648,
9795,
11064,
10518,
8686,
7061,
6086,
5334,
4864,
4610,
4886,
5500,
6038,
6504,
6121,
5295,
4663,
4218,
4008,
4058,
4004,
4097,
4084,
4321,
4695,
4834,
4767,
4434,
4132,
3885,
3864,
3874,
3974,
4029,
3969,
4028,
3847,
3697,
3787,
3735,
3677,
3604,
3592,
3526,
3493,
3462,
3488,
3537,
3424,
3432,
3447,
3523,
3504,
3668,
3701,
3680,
3594,
3432,
3394,
3279,
3231,
3186,
3223,
3285,
3188,
3157,
3248,
3022,
3146,
2977,
3142,
3072,
3095,
3130,
2932,
3114,
3042,
3041,
3083,
3025,
3073,
2992,
3033,
2914,
2840,
2933,
2845,
2869,
2977,
3128,
2997,
2914,
2880,
2872,
2832,
2765,
2715,
2678,
2619,
2566,
2557,
2619,
2470,
2615,
2537,
2613,
2613,
2754,
2884,
3265,
3750,
4151,
4541,
4440,
3987,
3365,
2927,
2660,
2522,
2417,
2415,
2441,
2435,
2557,
2938,
3525,
4640,
5758,
6554,
6657,
5998,
4639,
3627,
2854,
2451,
2290,
2169,
2163,
2137,
2112,
2132,
2017,
2157,
2250,
2253,
2411,
2503,
2547,
2697,
2636,
2672,
2805,
2852,
2661,
2610,
2560,
2401,
2475,
2611,
2681,
2661,
2745,
2638,
2499,
2310,
2117,
1913,
1885,
1843,
1753,
1845,
1792,
1796,
1694,
1773,
1762,
1719,
1687,
1717,
1717,
1698,
1664,
1690,
1735,
1696,
1829,
2218,
2646,
3468,
4611,
6162,
7568,
8421,
8045,
7207,
5441,
3885,
2714,
2078,
1819,
1565,
1570,
1510,
1561,
1494,
1539,
1557,
1445,
1432,
1377,
1349,
1357,
1365,
1347,
1377,
1464,
1431,
1330,
1381,
1363,
1381,
1334,
1283,
1224,
1203,
1247,
1199,
1254,
1205,
1150,
1132,
1153,
1130,
1141,
1116,
1120,
1053,
1097,
1150,
1084,
1145,
1131,
1169,
1193,
1076,
1194,
1131,
1126,
1180,
1106,
1104,
1146,
1107,
1087,
1143,
1137,
1364,
1735,
2134,
2761,
3177,
3439,
3360,
3037,
2422,
1865,
1476,
1172,
1113,
1007,
1010,
944,
931,
1011,
1020,
915,
930,
905,
842,
867,
809,
790,
755,
775,
736,
710,
700,
744,
701,
662,
702,
662,
693,
661,
669,
626,
662,
645,
657,
687,
639,
654,
671,
566,
583,
615,
618,
596,
544,
553,
633,
593,
588,
571,
597,
561,
558,
547,
565,
555,
519,
545,
541,
533,
521,
542,
486,
533,
557,
586,
636,
672,
633,
679,
596,
600,
557,
475,
506,
491,
456,
472,
452,
464,
454,
484,
447,
437,
439,
402,
411,
425,
378,
339,
347,
336,
364,
343,
346,
346,
345,
348,
309,
338,
297,
298,
309,
361,
358,
334,
302,
311,
288,
301,
306,
270,
291,
279,
274,
277,
263,
259,
256,
241,
282,
233,
257,
248,
275,
224,
235,
224,
263,
197,
237,
249,
209,
232,
198,
232,
205,
189,
206,
203,
207,
185,
182,
188,
175,
144,
189,
198,
170,
173,
165,
155,
174,
159,
166,
152,
148,
171,
147,
163,
166,
153,
153,
137,
138,
124,
114,
141,
147,
117,
94,
132,
116,
113,
110,
122,
120,
105,
96,
98,
113,
92,
74,
86,
81,
73,
85,
78,
79,
85,
90,
101,
84,
71,
86,
73,
74,
68,
74,
57,
66,
59,
50,
57,
58,
50,
64,
57,
60,
66,
52,
43,
48,
45,
38,
37,
46,
23,
31,
41,
33,
38,
24,
35,
17,
29,
24,
21,
26,
15,
18,
18,
23,
16,
15,
11,
14,
12,
10,
13,
6,
7,
8,
4,
6,
3,
2,
3,
6,
5,
4,
2,
1,
1,
3,
0,
1,
0,
4,
5,
1,
4,
3,
1,
3,
2,
3,
5,
3,
1,
2,
3,
2,
4,
1,
1,
5,
2,
2,
2,
4,
2,
3,
3,
2,
3,
2,
4,
1,
2,
1,
2,
1,
3,
2,
1,
1,
4,
1,
3,
0,
6,
4,
3,
1,
1,
3,
2,
0,
4,
4,
4,
2,
0,
0,
4,
5,
1,
4,
4,
2,
0,
3,
4,
1,
2,
1,
1,
4,
4,
1,
3,
1,
1,
1,
1,
2,
3,
1,
1,
1,
0,
1,
2,
0,
0,
1,
1,
1,
2,
2,
1,
0,
2,
1,
0,
0,
1,
0,
0,
1,
3,
1,
0,
1,
0,
1,
1,
2,
0,
0,
1,
0,
2,
1,
1,
0,
1,
0,
1,
1,
0,
0,
2,
1,
3,
1,
0,
2,
0,
1,
0,
0,
0,
0,
0,
1,
0,
2,
0,
0,
2,
0,
0,
0,
0,
0,
0,
2,
0,
0,
0,
0,
3,
0,
0,
0,
1,
1,
0,
0,
1,
0,
0,
0,
2,
0,
1,
1,
2,
1,
0,
0,
1,
0,
1,
2,
0,
0,
0,
1,
1,
2,
0,
0,
0,
0,
1,
0,
1,
0,
1,
1,
1,
0,
0,
0,
0,
0,
1,
1,
0,
0,
1,
0,
0,
1,
0,
0,
0,
0,
0,
1,
0,
0,
0,
0,
0,
0,
0,
0,
0,
0,
1,
1,
1,
0,
0,
0,
1,
0,
1,
0,
0,
0,
1,
1,
0,
1,
0,
1,
0,
0,
0,
0,
1,
0,
0,
0,
0,
0,
0,
1,
0,
0,
0,
0,
0,
0,
0,
0,
0,
0,
1,
0,
0,
0,
0,
0,
0,
0,
0,
0,
0,
1,
0,
0,
0,
0,
0,
1,
0,
0,
0,
1,
0,
0,
0,
0,
0,
0,
0,
0,
0,
0,
1,
0,
0,
0,
0,
0,
0,
0,
0,
0,
0,
0,
0,
0,
0,
0,
0,
0,
1,
0,
1,
0,
0,
0,
1,
0,
0,
0,
0,
0,
0,
0,
0,
0,
0,
0,
0,
0,
0,
0,
0,
0,
1,
0,
0,
0,
0,
0,
0,
0,
0,
0,
0,
0,
0,
0,
0,
0,
0,
0,
0,
0,
0,
0,
0,
0,
0,
0,
0,
0,
0,
0,
1,
0,
0,
0,
0,
0,
0,
0,
0,
0,
0,
0,
0,
0,
0,
0,
0,
0,
0,
0,
0,
0,
0,
0,
0,
0,
0,
0,
0,
0,
0,
0,
0,
0,
0,
0,
0,
0,
0,
0,
0,
0,
0,
0,
0,
0,
0,
0,
0,
0,
0,
0,
0,
0,
0,
0,
0,
0,
0,
0,
0,
0,
0,
0,
0,
0,
0,
0,
0,
0,
0,
0,
0,
0,
0,
0,
0,
0,
0,
0,
0,
0,
0,
0,
0,
0,
0,
0,
0,
0,
0,
0,
0,
0,
0,
0,
0,
0,
0,
0,
0,
0,
0,
0,
0,
0,
0,
0,
0,
0,
0,
0,
0,
0,
0,
0,
0,
0,
0,
0,
0,
0,
0,
0,
0,
0,
0,
0,
0,
0,
0,
0,
0,
0,
0,
0,
0,
0,
0,
0,
0,
0,
0,
0,
0,
0,
0,
0,
0,
0,
0,
0,
0,
0,
0,
0,
0,
0,
0,
0,
0,
0,
0,
0,
0,
0,
0,
0,
0,
0,
0,
0,
0,
0,
0,
0,
0,
0,
0,
0,
0,
0,
0,
0,
0,
0,
0,
0,
0,
0,
0,
0,
0,
0,
0,
0,
0,
0,
0,
0,
0,
0,
0,
0,
0,
0,
0,
0,
0,
0,
0,
0,
0,
0,
0,
0,
0,
0,
0,
0,
0,
0,
0,
0,
0,
0,
0,
0,
0,
0,
0,
0,
0,
0,
0,
0,
0,
0,
0,
0,
0,
0,
0,
0,
0,
0,
0,
0,
0,
0,
0,
0,
0,
0,
0,
0,
0,
0,
0,
0,
0,
0,
0,
0,
0,
0,
0,
0,
0,
0,
0,
0,
0,
0,
0,
0,
0,
0,
0,
0,
0,
0,
0,
0,
0,
0,
0,
0,
0,
0,
0,
0,
0,
0,
0,
0,
0,
0,
0,
0,
0,
0,
0,
0,
0,
0,
0,
0,
0,
0,
0,
0,
0,
0,
0,
0,
#ENDOFDATA   :