File: N132962/Quantification/20 keV/Glass Mount IIIB/GM IIIB K919[0][4].msa
#FORMAT      : EMSA/MAS Spectral Data File
#VERSION     : 1.0
#TITLE       : GM IIIB K919[0][all]
#DATE        : 10-SEP-2025
#TIME        : 16:02
#OWNER       : Unknown
#NPOINTS     : 4096
#NCOLUMNS    : 1
#XUNITS      : eV
#YUNITS      : counts
#DATATYPE    : Y
#XPERCHAN    : 9.99778
#OFFSET      : 1.69135
#BEAMKV      : 20
#SIGNALTYPE  : EDS
#ELEVANGLE   : 35
#AZIMANGLE   : 0
#LIVETIME    : 239.8969
#REALTIME    : 261.298
#PROBECUR    : 1.22368
#TAUWIND     : 0
#TDEADLYR    : 0
#TACTLYR     : 0.045
#TALWIND     : 0.025
#CHOFFSET    : 0.0
#XLABEL      : Energy (eV)
#YLABEL      : Counts
#XPOSITION   : 13.80211
#YPOSITION   : 11.98048
#ZPOSITION   : 34.06144
#EDSDET      : SD
##SPECIMEN   : GM IIIB K919[0][all]
##D2STDCMP   : K919,(O:31.86),(Si:20.1),(Cr:0.68),(Mn:1.9),(Fe:2.1),(Co:2.13),(Ni:2.36),(Cu:2.4),(Ba:34.03),(Ce:2.44)
##DET_HASH   : 12273538-fd48-a23f-0a19-f1e6fa85caef
##CALIB_HASH : 6abaa72c-aa41-8738-0be9-f592914732f3
##WORKING    : 15.0 mm
##DET_NAME   : EDAX All
##DET_MODE   : MediumLE
#SPECTRUM    :
19,
16,
10,
30,
129,
534,
1431,
3301,
6848,
8496,
6400,
5539,
6191,
7362,
11133,
31941,
111023,
205424,
149625,
46193,
15432,
10684,
9458,
10257,
11127,
12297,
13860,
11783,
10506,
9891,
10025,
10780,
9377,
6930,
6030,
5755,
5135,
4732,
4598,
4556,
4615,
4704,
4981,
5053,
4929,
5060,
5275,
5473,
5788,
6154,
6353,
6363,
6458,
6602,
7730,
15790,
52190,
128714,
173026,
123690,
51647,
19847,
10540,
6725,
5121,
4711,
4634,
4748,
4785,
4794,
4895,
4851,
4853,
5128,
5276,
5467,
5654,
5473,
5283,
4914,
5019,
4964,
4987,
5061,
5027,
5080,
5074,
5015,
5057,
5281,
5326,
5537,
5219,
5096,
4901,
4864,
4884,
4830,
4990,
5022,
5030,
4959,
4884,
4946,
4946,
4704,
4885,
4618,
4890,
4689,
4708,
4698,
4572,
4602,
4663,
4688,
4525,
4489,
4499,
4514,
4393,
4525,
4469,
4536,
4388,
4455,
4211,
4216,
4355,
4546,
5107,
5954,
6190,
5683,
5125,
4572,
4315,
3979,
4038,
3984,
4107,
4211,
4426,
5038,
5855,
8748,
17480,
33910,
52189,
59076,
48587,
28847,
13965,
6706,
4448,
4096,
4370,
5719,
10030,
18062,
27852,
33518,
31018,
23192,
15580,
10734,
7614,
5727,
5188,
5935,
8323,
10936,
12570,
11402,
8837,
6922,
5517,
4845,
4738,
5283,
5682,
5722,
5839,
6464,
6749,
6417,
5625,
4634,
3806,
3310,
3177,
3521,
4126,
4913,
5962,
7099,
7882,
7673,
6521,
5008,
3782,
3025,
2816,
2531,
2620,
2386,
2438,
2445,
2550,
2800,
3530,
4789,
6226,
7248,
7132,
6026,
4556,
3636,
2891,
2484,
2316,
2248,
2193,
2147,
2193,
2186,
2390,
2601,
3550,
4715,
5677,
5929,
5429,
4409,
3566,
2949,
2694,
2418,
2203,
2008,
1920,
1959,
1906,
1946,
2133,
2444,
3223,
4240,
5230,
5757,
5150,
4212,
3303,
2722,
2423,
2345,
2231,
1977,
1868,
1789,
1823,
1720,
1759,
1877,
2247,
2865,
3648,
4321,
4608,
4140,
3401,
2686,
2253,
2028,
2008,
2096,
1978,
1882,
1806,
1629,
1597,
1521,
1467,
1433,
1505,
1512,
1416,
1501,
1461,
1480,
1483,
1463,
1470,
1530,
1606,
1644,
1724,
1853,
1674,
1548,
1495,
1374,
1361,
1377,
1310,
1364,
1262,
1351,
1253,
1327,
1309,
1359,
1317,
1244,
1223,
1215,
1233,
1267,
1230,
1240,
1181,
1200,
1215,
1202,
1266,
1194,
1121,
1125,
1183,
1177,
1057,
1117,
1140,
1145,
1094,
1108,
1117,
1097,
1092,
1071,
1095,
1042,
1073,
1040,
1020,
1001,
987,
1044,
995,
974,
995,
973,
959,
973,
981,
950,
953,
927,
946,
953,
1002,
984,
976,
900,
913,
866,
838,
881,
915,
877,
849,
856,
841,
835,
829,
869,
857,
748,
807,
838,
866,
757,
760,
745,
818,
758,
814,
752,
815,
706,
717,
674,
714,
711,
664,
670,
691,
677,
690,
679,
673,
658,
692,
583,
646,
632,
621,
648,
632,
627,
655,
633,
589,
584,
612,
607,
576,
615,
545,
590,
586,
595,
534,
547,
531,
548,
566,
518,
555,
539,
573,
554,
504,
473,
505,
500,
546,
463,
492,
474,
487,
514,
464,
449,
435,
458,
421,
450,
439,
445,
413,
421,
411,
423,
418,
388,
414,
417,
399,
392,
409,
409,
383,
392,
396,
346,
382,
380,
389,
327,
363,
368,
375,
376,
338,
368,
384,
342,
286,
322,
303,
343,
304,
308,
318,
313,
318,
285,
285,
328,
268,
262,
270,
315,
268,
243,
251,
265,
259,
278,
286,
267,
238,
254,
240,
250,
240,
220,
259,
237,
225,
244,
209,
228,
248,
215,
221,
203,
193,
217,
203,
196,
184,
201,
157,
196,
179,
199,
183,
211,
181,
179,
199,
163,
167,
169,
175,
144,
179,
172,
175,
139,
165,
155,
137,
143,
161,
153,
146,
140,
156,
134,
117,
134,
157,
127,
122,
114,
138,
117,
123,
120,
112,
118,
119,
110,
103,
113,
122,
111,
100,
107,
99,
101,
103,
99,
86,
105,
87,
99,
64,
97,
83,
70,
74,
101,
56,
78,
68,
69,
69,
72,
67,
79,
72,
68,
69,
56,
50,
58,
63,
62,
42,
57,
67,
49,
56,
48,
54,
48,
41,
48,
41,
42,
48,
46,
38,
43,
33,
39,
46,
31,
32,
25,
46,
30,
22,
40,
30,
29,
28,
21,
23,
24,
22,
24,
25,
27,
32,
21,
19,
20,
22,
14,
15,
16,
15,
16,
14,
9,
8,
11,
4,
18,
8,
16,
9,
5,
3,
7,
6,
7,
1,
8,
1,
2,
2,
4,
2,
1,
2,
0,
3,
0,
2,
1,
2,
1,
0,
0,
1,
2,
3,
3,
1,
1,
1,
1,
2,
0,
1,
1,
0,
1,
2,
1,
0,
1,
0,
1,
1,
2,
0,
1,
2,
0,
3,
1,
0,
1,
0,
2,
1,
1,
0,
2,
1,
1,
0,
0,
0,
2,
0,
2,
1,
3,
2,
0,
1,
2,
1,
1,
0,
1,
0,
0,
1,
0,
0,
0,
0,
0,
0,
1,
0,
0,
1,
1,
0,
0,
3,
0,
0,
1,
0,
0,
1,
3,
0,
1,
2,
0,
0,
0,
0,
1,
2,
0,
2,
0,
0,
1,
0,
0,
1,
0,
0,
0,
0,
0,
0,
1,
0,
0,
0,
0,
0,
0,
0,
0,
1,
0,
0,
1,
0,
0,
0,
0,
0,
0,
0,
0,
0,
0,
1,
0,
0,
0,
0,
0,
0,
0,
0,
0,
0,
0,
0,
0,
0,
0,
0,
0,
1,
0,
0,
0,
1,
0,
0,
0,
0,
0,
0,
0,
0,
0,
0,
0,
0,
0,
0,
0,
0,
0,
0,
0,
0,
0,
0,
0,
0,
0,
0,
0,
1,
0,
0,
0,
0,
1,
0,
0,
0,
0,
0,
0,
0,
0,
0,
0,
0,
0,
0,
0,
1,
0,
0,
0,
0,
0,
1,
0,
0,
0,
0,
0,
0,
1,
0,
0,
1,
1,
0,
0,
0,
0,
0,
0,
0,
0,
0,
0,
0,
0,
0,
0,
0,
0,
0,
0,
0,
0,
0,
0,
0,
0,
0,
0,
0,
0,
0,
0,
0,
0,
0,
0,
0,
0,
0,
0,
0,
0,
0,
0,
0,
0,
0,
0,
2,
0,
0,
0,
0,
0,
0,
0,
0,
1,
0,
0,
0,
0,
0,
0,
0,
0,
0,
0,
0,
0,
0,
0,
0,
0,
0,
0,
0,
0,
0,
0,
0,
0,
0,
0,
0,
0,
0,
0,
0,
0,
0,
0,
0,
0,
0,
0,
0,
0,
0,
0,
0,
0,
0,
0,
0,
0,
0,
0,
0,
0,
0,
0,
0,
0,
0,
0,
0,
0,
0,
0,
0,
0,
0,
0,
0,
1,
0,
1,
0,
0,
0,
0,
0,
0,
0,
0,
0,
0,
0,
0,
0,
0,
0,
0,
0,
0,
0,
0,
0,
0,
0,
0,
0,
0,
0,
0,
0,
0,
0,
0,
0,
0,
0,
0,
0,
0,
0,
0,
0,
0,
0,
0,
0,
0,
0,
0,
0,
0,
0,
0,
0,
0,
0,
0,
0,
0,
0,
0,
0,
0,
0,
0,
0,
0,
0,
0,
0,
0,
0,
0,
0,
0,
0,
0,
0,
0,
0,
0,
0,
0,
0,
0,
0,
0,
0,
0,
0,
0,
0,
0,
0,
0,
0,
0,
0,
0,
0,
0,
0,
0,
0,
0,
0,
0,
0,
0,
0,
0,
0,
0,
0,
0,
0,
0,
0,
0,
0,
0,
0,
0,
0,
0,
0,
0,
0,
0,
0,
0,
0,
0,
0,
0,
0,
0,
0,
0,
0,
0,
0,
0,
0,
0,
0,
0,
0,
0,
0,
0,
0,
0,
0,
0,
0,
0,
0,
0,
0,
0,
0,
0,
0,
0,
0,
0,
0,
0,
0,
0,
0,
0,
0,
0,
0,
0,
0,
0,
0,
0,
0,
0,
0,
0,
0,
0,
0,
0,
0,
0,
0,
0,
0,
0,
0,
0,
0,
0,
0,
0,
0,
0,
0,
0,
0,
0,
0,
0,
0,
0,
0,
0,
0,
0,
0,
0,
0,
0,
0,
0,
0,
0,
0,
0,
0,
0,
0,
0,
0,
0,
0,
0,
0,
0,
0,
0,
0,
0,
0,
0,
0,
0,
0,
0,
0,
0,
0,
0,
0,
0,
0,
0,
0,
0,
0,
0,
0,
0,
0,
0,
0,
0,
0,
0,
0,
0,
0,
0,
0,
0,
0,
0,
0,
0,
0,
0,
0,
0,
0,
0,
0,
0,
0,
0,
0,
0,
0,
0,
0,
0,
0,
0,
0,
0,
0,
0,
0,
0,
0,
0,
0,
0,
0,
0,
0,
0,
0,
0,
0,
0,
0,
0,
0,
0,
0,
0,
0,
0,
0,
0,
0,
0,
0,
0,
0,
0,
0,
0,
0,
0,
0,
0,
0,
0,
0,
0,
0,
0,
0,
0,
0,
0,
0,
0,
0,
0,
0,
0,
#ENDOFDATA   :