File: N132962/Quantification/20 keV/Glass Mount IIIB/GM IIIB K1070[1][4].msa
#FORMAT      : EMSA/MAS Spectral Data File
#VERSION     : 1.0
#TITLE       : GM IIIB K1070[1][all]
#DATE        : 10-SEP-2025
#TIME        : 16:51
#OWNER       : Unknown
#NPOINTS     : 4096
#NCOLUMNS    : 1
#XUNITS      : eV
#YUNITS      : counts
#DATATYPE    : Y
#XPERCHAN    : 9.99778
#OFFSET      : 1.69135
#BEAMKV      : 20
#SIGNALTYPE  : EDS
#ELEVANGLE   : 35
#AZIMANGLE   : 0
#LIVETIME    : 240.181
#REALTIME    : 260.006
#PROBECUR    : 1.22416
#TAUWIND     : 0
#TDEADLYR    : 0
#TACTLYR     : 0.045
#TALWIND     : 0.025
#CHOFFSET    : 0.0
#XLABEL      : Energy (eV)
#YLABEL      : Counts
#XPOSITION   : 1.33771
#YPOSITION   : 13.46562
#ZPOSITION   : 34.06144
#EDSDET      : SD
##SPECIMEN   : GM IIIB K1070[1][all]
##D2STDCMP   : K1070,(O:34.31),(Mg:7.54),(Si:18.7),(Ca:8.93),(Zn:10.04),(Ba:11.2),(Pb:9.28)
##DET_HASH   : 12273538-fd48-a23f-0a19-f1e6fa85caef
##CALIB_HASH : 6abaa72c-aa41-8738-0be9-f592914732f3
##WORKING    : 15.0 mm
##DET_NAME   : EDAX All
##DET_MODE   : MediumLE
#SPECTRUM    :
25,
24,
13,
30,
103,
455,
1086,
2850,
6983,
9410,
7314,
5229,
4661,
4894,
7053,
20801,
73390,
136313,
99447,
28218,
6852,
4448,
4222,
4483,
4498,
5006,
5735,
5620,
5876,
6673,
6944,
7978,
16015,
34148,
42808,
27508,
11935,
6319,
5917,
8006,
20045,
44365,
52761,
31595,
12098,
5916,
5340,
5305,
5538,
6057,
5993,
6109,
6189,
6330,
7385,
15636,
51933,
128847,
174625,
124929,
52467,
20746,
11217,
7115,
5314,
5036,
4812,
4487,
4582,
4452,
4647,
4635,
4844,
5130,
5591,
6745,
10241,
17395,
23914,
23146,
19331,
17480,
15660,
10852,
6540,
4927,
4728,
5110,
5475,
5415,
5051,
4561,
4412,
4250,
4311,
4260,
4198,
4211,
4238,
4294,
4369,
4420,
4483,
4327,
4392,
4331,
4171,
3889,
3976,
3999,
3897,
3948,
3971,
3756,
3933,
3959,
3982,
4285,
4564,
6007,
11124,
23605,
41347,
52358,
43685,
25772,
11710,
5607,
4065,
3902,
4428,
5394,
7350,
9277,
9598,
8158,
5738,
4318,
3425,
3204,
3379,
3343,
3314,
3370,
3679,
4587,
7149,
12239,
17870,
20065,
16802,
10948,
6143,
3913,
3230,
3012,
3056,
3474,
4640,
6859,
9380,
10947,
10474,
8198,
6292,
4883,
4047,
3503,
3172,
3432,
4347,
5047,
5324,
4982,
4015,
3168,
2822,
2606,
2628,
2551,
2649,
2746,
2966,
3249,
3638,
3438,
3226,
2853,
2503,
2446,
2441,
2527,
2732,
2834,
2706,
2551,
2394,
2257,
2280,
2224,
2253,
2199,
2140,
2122,
2067,
2112,
2076,
2074,
2049,
2029,
2133,
2132,
2163,
2208,
2218,
2132,
2039,
1969,
1934,
1938,
1933,
1929,
1856,
1792,
1825,
1926,
1849,
1786,
1790,
1901,
1824,
1754,
1795,
1821,
1804,
1784,
1779,
1694,
1802,
1672,
1704,
1696,
1700,
1720,
1637,
1655,
1615,
1646,
1710,
1700,
1710,
1618,
1621,
1580,
1526,
1590,
1539,
1512,
1467,
1544,
1538,
1472,
1487,
1431,
1454,
1438,
1454,
1383,
1407,
1403,
1413,
1393,
1355,
1378,
1397,
1361,
1415,
1383,
1390,
1295,
1413,
1462,
1704,
2460,
4001,
6501,
9140,
11133,
11037,
9304,
6556,
4126,
2613,
1697,
1447,
1298,
1220,
1230,
1191,
1184,
1174,
1159,
1150,
1171,
1250,
1263,
1219,
1120,
1213,
1128,
1110,
1119,
1080,
1130,
1232,
1412,
1739,
2001,
2291,
2338,
2210,
1835,
1559,
1286,
1125,
1060,
997,
991,
1026,
905,
920,
977,
968,
973,
902,
885,
888,
875,
985,
912,
906,
904,
920,
881,
979,
958,
1140,
1205,
1405,
1725,
1900,
2128,
2090,
1784,
1559,
1216,
1022,
834,
780,
740,
805,
761,
715,
716,
789,
733,
766,
765,
736,
715,
681,
734,
689,
712,
673,
757,
690,
693,
672,
666,
674,
639,
630,
631,
630,
658,
613,
597,
632,
615,
569,
559,
627,
602,
625,
555,
575,
586,
567,
580,
550,
598,
546,
587,
590,
529,
539,
565,
541,
544,
524,
505,
504,
507,
537,
557,
633,
768,
833,
905,
942,
912,
829,
719,
617,
545,
485,
485,
469,
463,
454,
454,
438,
448,
453,
409,
422,
416,
409,
403,
398,
421,
422,
402,
385,
359,
348,
387,
347,
349,
335,
364,
353,
357,
350,
363,
362,
318,
292,
324,
315,
296,
306,
309,
300,
285,
296,
272,
270,
316,
305,
320,
277,
287,
250,
293,
277,
258,
279,
242,
259,
260,
240,
251,
269,
272,
272,
261,
258,
266,
266,
270,
260,
272,
232,
243,
263,
230,
217,
207,
210,
234,
214,
185,
192,
196,
208,
205,
211,
187,
194,
196,
178,
199,
186,
163,
161,
158,
159,
163,
161,
159,
140,
173,
141,
167,
147,
143,
149,
141,
139,
134,
158,
142,
144,
125,
125,
148,
114,
119,
116,
113,
114,
121,
132,
112,
99,
128,
121,
127,
110,
101,
112,
95,
118,
106,
119,
107,
82,
100,
93,
74,
91,
93,
104,
96,
95,
74,
97,
98,
86,
85,
75,
84,
67,
68,
85,
78,
57,
68,
70,
51,
67,
50,
74,
68,
57,
78,
58,
66,
67,
54,
61,
44,
45,
52,
46,
33,
44,
48,
53,
40,
50,
64,
35,
32,
47,
35,
43,
26,
46,
38,
46,
42,
35,
36,
34,
31,
40,
36,
38,
31,
34,
26,
29,
30,
18,
24,
21,
18,
17,
22,
24,
26,
23,
12,
29,
21,
23,
17,
18,
16,
19,
15,
12,
10,
18,
11,
18,
4,
15,
15,
6,
5,
12,
7,
8,
7,
7,
5,
5,
4,
3,
5,
1,
2,
4,
1,
3,
2,
1,
0,
2,
0,
0,
0,
1,
0,
1,
0,
1,
0,
0,
0,
0,
2,
1,
0,
0,
0,
3,
0,
0,
1,
0,
1,
1,
2,
1,
0,
0,
1,
2,
1,
0,
0,
0,
0,
0,
0,
1,
0,
1,
1,
2,
2,
0,
0,
2,
0,
0,
1,
1,
0,
0,
0,
0,
0,
2,
1,
0,
0,
0,
2,
0,
1,
1,
0,
1,
1,
2,
0,
1,
0,
0,
1,
0,
2,
0,
0,
0,
0,
0,
1,
0,
5,
0,
0,
0,
0,
0,
0,
1,
0,
0,
1,
0,
0,
0,
0,
0,
0,
0,
2,
0,
0,
0,
0,
0,
1,
0,
0,
0,
0,
0,
0,
0,
0,
0,
0,
0,
0,
0,
0,
0,
0,
0,
0,
0,
1,
0,
0,
0,
0,
0,
0,
0,
0,
1,
0,
0,
0,
0,
1,
0,
0,
0,
0,
0,
0,
1,
0,
0,
0,
0,
1,
0,
0,
0,
0,
1,
1,
0,
0,
0,
0,
1,
0,
0,
0,
0,
0,
0,
0,
0,
1,
0,
0,
0,
0,
0,
0,
0,
0,
0,
0,
0,
2,
0,
1,
0,
0,
0,
0,
0,
0,
0,
0,
0,
0,
0,
0,
0,
0,
0,
0,
0,
0,
0,
0,
0,
0,
0,
0,
0,
0,
0,
0,
0,
0,
0,
0,
0,
0,
0,
0,
0,
0,
0,
0,
0,
0,
0,
0,
0,
0,
0,
0,
0,
0,
0,
0,
0,
0,
0,
0,
0,
0,
0,
0,
0,
0,
0,
0,
0,
0,
0,
0,
0,
0,
1,
0,
0,
0,
0,
1,
0,
0,
0,
0,
0,
0,
0,
0,
0,
0,
0,
0,
0,
0,
0,
0,
0,
0,
0,
0,
0,
0,
0,
0,
0,
0,
0,
0,
0,
0,
0,
0,
0,
0,
0,
0,
0,
0,
0,
0,
0,
0,
0,
0,
0,
0,
1,
0,
0,
0,
0,
0,
0,
0,
0,
0,
0,
0,
0,
0,
0,
0,
0,
0,
0,
0,
0,
0,
0,
0,
0,
0,
0,
0,
0,
0,
0,
0,
0,
0,
1,
0,
0,
0,
0,
0,
0,
0,
0,
0,
0,
0,
0,
0,
0,
0,
0,
0,
0,
0,
0,
0,
0,
0,
0,
0,
0,
0,
0,
0,
0,
0,
0,
0,
0,
0,
0,
0,
0,
0,
0,
0,
0,
0,
0,
0,
0,
0,
0,
0,
0,
0,
0,
0,
0,
0,
0,
0,
0,
0,
0,
0,
0,
0,
0,
0,
0,
0,
0,
0,
0,
0,
0,
0,
0,
0,
0,
0,
0,
0,
0,
0,
0,
0,
0,
0,
0,
0,
0,
0,
0,
0,
0,
0,
0,
0,
0,
0,
0,
0,
0,
0,
0,
0,
0,
0,
0,
0,
0,
0,
0,
0,
0,
0,
0,
0,
0,
0,
0,
0,
0,
0,
0,
0,
0,
0,
0,
1,
0,
0,
0,
0,
0,
0,
0,
0,
0,
0,
0,
0,
0,
0,
0,
0,
0,
0,
0,
0,
0,
0,
0,
0,
0,
0,
0,
0,
0,
0,
0,
0,
0,
0,
0,
0,
0,
0,
0,
0,
0,
0,
0,
0,
0,
0,
0,
0,
0,
0,
0,
0,
0,
0,
0,
0,
0,
0,
0,
0,
0,
0,
0,
0,
0,
0,
0,
0,
0,
0,
0,
0,
0,
0,
0,
0,
0,
0,
0,
0,
0,
0,
0,
0,
0,
0,
0,
0,
0,
0,
0,
0,
0,
0,
0,
0,
0,
0,
0,
0,
0,
0,
0,
0,
0,
0,
0,
0,
0,
0,
0,
0,
0,
0,
0,
0,
0,
0,
0,
0,
0,
0,
0,
0,
0,
0,
0,
0,
0,
0,
0,
0,
0,
0,
0,
0,
0,
0,
0,
0,
0,
0,
0,
0,
0,
0,
0,
0,
0,
0,
0,
0,
0,
0,
0,
0,
0,
0,
0,
0,
0,
0,
0,
0,
0,
0,
0,
0,
0,
0,
0,
0,
0,
0,
0,
0,
0,
0,
0,
0,
0,
0,
0,
0,
0,
0,
0,
0,
0,
0,
0,
0,
0,
0,
0,
0,
0,
0,
0,
0,
0,
0,
0,
0,
0,
0,
0,
0,
0,
0,
0,
0,
0,
0,
0,
0,
0,
0,
0,
0,
0,
0,
#ENDOFDATA   :