File: N132962/Quantification/20 keV/Glass Mount IIIB/GM IIIB K373[3][4].msa
#FORMAT      : EMSA/MAS Spectral Data File
#VERSION     : 1.0
#TITLE       : GM IIIB K373[3][all]
#DATE        : 10-SEP-2025
#TIME        : 18:15
#OWNER       : Unknown
#NPOINTS     : 4096
#NCOLUMNS    : 1
#XUNITS      : eV
#YUNITS      : counts
#DATATYPE    : Y
#XPERCHAN    : 9.99778
#OFFSET      : 1.69135
#BEAMKV      : 20
#SIGNALTYPE  : EDS
#ELEVANGLE   : 35
#AZIMANGLE   : 0
#LIVETIME    : 240.199
#REALTIME    : 260.193
#PROBECUR    : 1.22475
#TAUWIND     : 0
#TDEADLYR    : 0
#TACTLYR     : 0.045
#TALWIND     : 0.025
#CHOFFSET    : 0.0
#XLABEL      : Energy (eV)
#YLABEL      : Counts
#XPOSITION   : 4.41407
#YPOSITION   : 2.30917
#ZPOSITION   : 34.00159
#EDSDET      : SD
##SPECIMEN   : GM IIIB K373[3][all]
##D2STDCMP   : K373,(O:42.34),(Na:10.43),(Si:31.85),(Zn:4.94),(Ba:10.38),(U:0.05)
##DET_HASH   : 12273538-fd48-a23f-0a19-f1e6fa85caef
##CALIB_HASH : 6abaa72c-aa41-8738-0be9-f592914732f3
##WORKING    : 15.0 mm
##DET_NAME   : EDAX All
##DET_MODE   : MediumLE
#SPECTRUM    :
23,
23,
10,
20,
81,
375,
967,
2209,
4686,
6219,
4410,
4115,
5849,
7344,
10469,
35244,
132286,
250407,
181283,
47889,
7370,
3424,
3449,
3632,
3613,
3986,
4443,
4397,
4470,
4931,
5318,
6323,
13332,
34839,
63884,
61053,
28855,
9059,
4467,
3915,
3935,
3925,
4044,
4246,
4185,
4611,
4628,
5003,
5436,
5900,
6335,
6430,
6400,
6449,
8361,
22688,
90085,
232316,
314479,
222532,
89173,
29808,
13220,
6376,
3917,
3185,
3036,
3065,
3235,
3154,
3249,
3267,
3268,
3528,
4097,
4410,
4295,
3903,
3597,
3400,
3363,
3298,
3157,
3316,
3314,
3248,
3284,
3383,
3301,
3324,
3347,
3575,
3572,
3517,
3397,
3239,
3254,
3184,
3205,
3129,
3300,
3134,
3154,
3143,
3216,
3216,
3063,
3093,
2996,
2990,
3121,
3053,
3025,
3026,
3275,
3404,
3488,
3401,
3091,
2948,
2899,
2909,
2854,
2841,
2784,
2853,
2717,
2710,
2592,
2763,
2938,
3056,
3214,
2928,
2864,
2679,
2562,
2450,
2444,
2556,
2389,
2545,
2561,
2667,
2901,
3824,
6190,
10944,
16300,
18333,
15092,
9572,
5126,
3182,
2485,
2285,
2497,
2756,
3720,
5810,
8276,
9709,
9166,
7156,
5193,
4034,
3295,
2772,
2592,
2839,
3425,
4266,
4596,
4172,
3272,
2543,
2165,
1906,
1957,
1910,
1929,
2049,
2207,
2531,
2825,
2795,
2445,
2215,
1864,
1859,
1853,
1853,
1997,
2019,
2079,
1926,
1771,
1681,
1651,
1675,
1615,
1616,
1607,
1456,
1565,
1512,
1542,
1506,
1581,
1471,
1436,
1510,
1517,
1493,
1455,
1532,
1455,
1373,
1385,
1424,
1439,
1408,
1362,
1303,
1305,
1324,
1266,
1323,
1335,
1339,
1216,
1309,
1287,
1262,
1323,
1234,
1217,
1241,
1189,
1259,
1205,
1127,
1176,
1164,
1218,
1145,
1172,
1160,
1170,
1205,
1136,
1146,
1116,
1136,
1066,
1060,
1090,
1105,
1013,
1076,
1080,
1030,
992,
1055,
1040,
1018,
1031,
953,
952,
910,
990,
984,
926,
931,
961,
952,
948,
935,
955,
964,
873,
974,
1127,
1473,
2061,
3109,
4557,
5356,
5512,
4680,
3374,
2193,
1477,
1149,
887,
844,
858,
836,
824,
848,
833,
812,
789,
782,
813,
762,
753,
778,
812,
781,
754,
769,
746,
771,
832,
902,
1021,
1130,
1253,
1296,
1224,
1060,
900,
831,
752,
686,
628,
667,
634,
621,
632,
615,
616,
667,
668,
656,
615,
649,
617,
596,
615,
600,
615,
583,
598,
610,
564,
616,
568,
575,
549,
535,
558,
519,
509,
514,
500,
513,
470,
502,
520,
503,
533,
512,
536,
456,
508,
472,
453,
470,
467,
473,
416,
495,
429,
449,
446,
439,
436,
482,
433,
427,
431,
415,
436,
408,
405,
415,
411,
399,
405,
379,
380,
405,
370,
376,
368,
369,
375,
384,
383,
378,
333,
364,
313,
358,
326,
379,
335,
330,
367,
321,
315,
319,
309,
278,
315,
306,
315,
296,
335,
301,
298,
298,
263,
263,
274,
248,
285,
257,
279,
269,
278,
264,
273,
254,
271,
251,
246,
271,
242,
243,
246,
216,
233,
242,
214,
246,
233,
217,
241,
267,
222,
218,
199,
210,
219,
216,
201,
207,
192,
230,
213,
180,
207,
186,
170,
167,
193,
205,
197,
180,
153,
176,
157,
162,
168,
174,
157,
176,
200,
138,
189,
146,
145,
178,
147,
169,
145,
151,
130,
148,
134,
150,
123,
151,
140,
124,
122,
107,
128,
129,
135,
148,
104,
119,
137,
119,
119,
130,
127,
107,
107,
115,
121,
102,
113,
115,
110,
114,
121,
102,
98,
100,
88,
77,
95,
95,
87,
98,
81,
88,
92,
96,
89,
76,
66,
80,
63,
93,
68,
70,
74,
84,
81,
68,
63,
69,
73,
77,
69,
60,
69,
61,
69,
68,
64,
72,
51,
49,
62,
56,
48,
58,
39,
59,
54,
43,
40,
50,
58,
40,
42,
56,
60,
57,
40,
47,
46,
46,
50,
42,
43,
34,
42,
40,
48,
51,
33,
37,
31,
20,
28,
26,
34,
32,
34,
31,
31,
30,
26,
22,
22,
20,
22,
31,
33,
25,
23,
24,
29,
27,
29,
15,
18,
19,
29,
25,
19,
16,
16,
18,
18,
13,
9,
19,
14,
18,
21,
11,
18,
13,
10,
6,
10,
7,
9,
12,
7,
9,
9,
15,
7,
10,
8,
6,
5,
6,
6,
4,
5,
2,
2,
4,
7,
2,
2,
3,
4,
3,
2,
2,
0,
2,
0,
0,
0,
0,
2,
2,
0,
0,
0,
1,
0,
1,
0,
0,
0,
2,
0,
0,
0,
2,
1,
1,
0,
0,
1,
1,
0,
0,
0,
0,
0,
0,
0,
0,
0,
0,
1,
1,
0,
0,
0,
0,
1,
0,
1,
1,
0,
0,
1,
0,
1,
0,
0,
0,
0,
1,
0,
0,
0,
0,
0,
0,
1,
1,
0,
0,
0,
0,
0,
1,
0,
0,
1,
0,
0,
0,
0,
0,
1,
0,
1,
1,
1,
0,
0,
0,
0,
0,
1,
1,
0,
0,
0,
1,
0,
0,
0,
1,
1,
1,
0,
0,
0,
0,
0,
0,
0,
1,
0,
0,
0,
0,
0,
0,
0,
0,
0,
0,
0,
0,
0,
0,
0,
0,
1,
0,
0,
0,
0,
0,
0,
0,
1,
0,
0,
0,
0,
0,
0,
0,
0,
0,
0,
0,
0,
0,
0,
0,
0,
0,
0,
0,
0,
0,
0,
0,
1,
0,
0,
0,
0,
0,
0,
0,
0,
0,
0,
0,
0,
0,
0,
0,
0,
0,
1,
0,
0,
0,
0,
0,
0,
0,
0,
0,
0,
0,
0,
0,
0,
0,
1,
0,
0,
0,
0,
0,
0,
0,
0,
0,
0,
0,
0,
0,
0,
0,
0,
0,
0,
0,
0,
0,
0,
0,
0,
0,
0,
0,
0,
0,
0,
0,
0,
0,
0,
0,
0,
0,
0,
0,
0,
0,
0,
0,
0,
0,
0,
0,
0,
0,
0,
0,
0,
0,
0,
0,
0,
0,
0,
0,
0,
0,
0,
0,
0,
0,
0,
0,
0,
0,
0,
0,
0,
0,
0,
0,
1,
0,
0,
0,
0,
0,
0,
0,
0,
0,
0,
0,
0,
0,
0,
0,
0,
0,
0,
0,
0,
0,
0,
0,
0,
0,
0,
0,
0,
0,
0,
0,
0,
0,
0,
0,
0,
0,
0,
0,
0,
0,
0,
0,
0,
0,
0,
0,
0,
0,
0,
0,
0,
0,
0,
0,
0,
0,
0,
0,
0,
0,
0,
0,
0,
0,
0,
0,
0,
0,
0,
0,
0,
0,
0,
0,
0,
0,
0,
0,
0,
0,
0,
0,
0,
0,
0,
0,
0,
0,
0,
0,
0,
0,
0,
0,
0,
0,
0,
0,
0,
0,
1,
0,
0,
0,
0,
0,
0,
0,
0,
0,
0,
0,
0,
0,
0,
0,
0,
0,
0,
0,
0,
0,
0,
0,
0,
0,
0,
0,
0,
0,
0,
0,
0,
0,
0,
0,
0,
0,
0,
0,
0,
0,
0,
0,
0,
0,
0,
0,
0,
0,
0,
0,
0,
0,
0,
0,
0,
0,
0,
0,
0,
0,
0,
0,
0,
0,
0,
0,
0,
0,
0,
0,
0,
0,
0,
0,
0,
0,
0,
0,
0,
0,
0,
0,
0,
0,
0,
0,
0,
0,
0,
0,
0,
0,
0,
0,
0,
0,
0,
0,
0,
0,
0,
0,
0,
0,
0,
0,
0,
0,
0,
0,
0,
0,
0,
0,
0,
0,
0,
0,
0,
0,
0,
0,
0,
0,
0,
0,
0,
0,
0,
0,
0,
0,
0,
0,
0,
0,
0,
0,
0,
0,
0,
0,
0,
0,
0,
0,
0,
0,
0,
0,
0,
0,
0,
0,
0,
0,
0,
0,
0,
0,
0,
0,
0,
0,
0,
0,
0,
0,
0,
0,
0,
0,
0,
0,
0,
0,
0,
0,
0,
0,
0,
0,
0,
0,
0,
0,
0,
0,
0,
0,
0,
0,
0,
0,
0,
0,
0,
0,
0,
0,
0,
0,
0,
0,
0,
0,
0,
0,
0,
0,
0,
0,
0,
0,
0,
0,
0,
0,
0,
0,
0,
0,
0,
0,
0,
0,
0,
0,
0,
0,
0,
0,
0,
0,
0,
0,
0,
0,
0,
0,
0,
0,
0,
0,
0,
0,
0,
0,
0,
0,
0,
0,
0,
0,
0,
0,
0,
0,
0,
0,
0,
0,
0,
0,
0,
0,
0,
0,
0,
0,
0,
0,
0,
0,
0,
0,
0,
0,
0,
0,
0,
0,
0,
0,
0,
0,
0,
0,
0,
0,
0,
0,
0,
0,
0,
0,
0,
0,
0,
0,
0,
0,
0,
0,
0,
0,
0,
0,
0,
0,
0,
0,
0,
0,
0,
0,
0,
0,
0,
0,
0,
0,
0,
0,
0,
0,
0,
0,
0,
0,
0,
0,
#ENDOFDATA   :