File: N132962/Quantification/20 keV/Glass Mount IIIB/GM IIIB K408[1][4].msa
#FORMAT      : EMSA/MAS Spectral Data File
#VERSION     : 1.0
#TITLE       : GM IIIB K408[1][all]
#DATE        : 10-SEP-2025
#TIME        : 14:35
#OWNER       : Unknown
#NPOINTS     : 4096
#NCOLUMNS    : 1
#XUNITS      : eV
#YUNITS      : counts
#DATATYPE    : Y
#XPERCHAN    : 9.99778
#OFFSET      : 1.69135
#BEAMKV      : 20
#SIGNALTYPE  : EDS
#ELEVANGLE   : 35
#AZIMANGLE   : 0
#LIVETIME    : 240.212
#REALTIME    : 266.6666
#PROBECUR    : 1.22592
#TAUWIND     : 0
#TDEADLYR    : 0
#TACTLYR     : 0.045
#TALWIND     : 0.025
#CHOFFSET    : 0.0
#XLABEL      : Energy (eV)
#YLABEL      : Counts
#XPOSITION   : 9.56988
#YPOSITION   : 4.79688
#ZPOSITION   : 34.06144
#EDSDET      : SD
##SPECIMEN   : GM IIIB K408[1][all]
##D2STDCMP   : K408,(O:21.32),(Si:14.02),(Eu:4.32),(Pb:60.34)
##DET_HASH   : 12273538-fd48-a23f-0a19-f1e6fa85caef
##CALIB_HASH : 6abaa72c-aa41-8738-0be9-f592914732f3
##WORKING    : 15.0 mm
##DET_NAME   : EDAX All
##DET_MODE   : MediumLE
#SPECTRUM    :
22,
23,
13,
40,
203,
831,
2273,
5152,
10733,
13167,
8978,
6335,
5984,
6333,
7425,
15053,
43336,
77821,
57455,
19275,
9345,
7561,
7246,
8041,
7418,
6418,
6378,
6901,
7666,
8047,
7781,
7572,
7552,
7730,
8049,
8437,
9439,
10944,
12246,
11234,
9729,
9061,
9082,
9318,
9653,
9843,
9970,
9884,
10343,
11015,
11099,
10835,
10864,
10847,
11872,
19019,
52113,
122379,
164369,
121110,
59369,
32593,
21114,
13107,
9731,
8735,
8410,
8247,
8357,
8639,
9028,
10131,
11008,
12121,
14414,
23003,
51241,
108372,
159265,
153362,
122903,
112824,
95500,
56560,
24205,
10947,
8478,
10219,
12295,
11836,
9196,
6822,
5859,
5436,
5600,
5701,
5956,
6176,
5891,
6130,
6596,
6850,
7311,
7503,
7316,
6640,
6155,
5838,
5544,
5145,
5177,
5223,
5364,
5352,
5407,
5455,
5443,
5542,
5518,
5405,
5176,
5270,
5297,
5317,
5417,
5289,
5259,
5225,
5058,
5121,
4996,
5129,
5166,
5145,
5259,
5226,
5451,
5245,
5248,
5212,
5102,
5100,
5118,
4883,
4947,
4928,
4971,
5010,
5188,
5424,
5625,
5493,
5256,
5000,
4944,
5024,
5053,
4896,
4960,
5070,
4947,
4942,
4805,
4866,
4926,
4788,
4762,
4785,
4642,
4657,
4769,
4735,
4838,
4793,
4635,
4663,
4472,
4515,
4528,
4461,
4397,
4447,
4475,
4532,
4292,
4250,
4383,
4419,
4335,
4318,
4405,
4721,
5639,
6849,
7944,
8089,
7451,
6057,
5098,
4452,
4133,
4128,
4084,
4024,
4101,
4091,
3930,
3959,
3963,
3899,
4056,
4303,
4799,
5422,
5883,
5940,
5770,
5224,
4722,
4546,
3992,
3987,
3814,
3664,
3832,
3950,
4118,
4206,
4226,
4149,
3866,
3718,
3563,
3469,
3538,
3459,
3423,
3454,
3438,
3295,
3421,
3316,
3393,
3305,
3387,
3347,
3476,
3611,
3704,
3794,
3822,
3548,
3362,
3326,
3193,
3109,
3100,
3074,
3166,
3191,
3088,
3115,
3113,
3005,
2869,
2986,
3047,
2939,
2892,
2898,
2943,
2853,
2911,
2805,
2919,
2822,
2829,
2810,
2770,
2661,
2682,
2672,
2713,
2674,
2619,
2564,
2638,
2643,
2589,
2549,
2580,
2642,
2620,
2463,
2483,
2525,
2552,
2501,
2466,
2458,
2483,
2478,
2529,
2645,
2809,
2977,
3036,
2997,
2748,
2670,
2542,
2334,
2292,
2305,
2320,
2276,
2303,
2243,
2255,
2184,
2136,
2212,
2115,
2142,
2155,
2209,
2152,
2153,
2068,
2163,
2077,
2021,
2083,
1986,
2078,
2042,
2053,
1900,
1989,
1991,
1964,
1925,
2041,
2195,
2315,
2788,
3482,
4837,
6731,
9260,
11155,
12407,
12145,
10463,
7764,
5287,
3561,
2538,
2107,
1911,
1824,
1769,
1774,
1659,
1686,
1711,
1670,
1612,
1558,
1662,
1472,
1574,
1528,
1606,
1564,
1572,
1556,
1536,
1581,
1592,
1481,
1481,
1484,
1551,
1470,
1485,
1388,
1416,
1353,
1385,
1433,
1410,
1330,
1354,
1361,
1249,
1315,
1300,
1319,
1343,
1289,
1309,
1299,
1378,
1402,
1431,
1416,
1404,
1371,
1338,
1412,
1355,
1310,
1321,
1486,
1789,
2319,
3046,
3930,
4757,
5037,
4901,
4244,
3439,
2610,
2006,
1526,
1433,
1339,
1238,
1174,
1278,
1256,
1210,
1249,
1129,
1088,
1026,
970,
935,
926,
864,
913,
906,
869,
879,
840,
819,
866,
818,
829,
788,
819,
773,
822,
800,
759,
757,
763,
766,
741,
765,
733,
764,
689,
718,
681,
682,
702,
726,
686,
676,
696,
724,
697,
668,
662,
677,
651,
618,
574,
631,
640,
625,
613,
595,
639,
665,
718,
798,
867,
906,
932,
841,
816,
723,
616,
611,
581,
508,
564,
568,
539,
561,
583,
596,
582,
551,
522,
517,
506,
440,
440,
412,
434,
454,
398,
412,
450,
424,
392,
431,
406,
377,
394,
403,
384,
375,
372,
383,
353,
345,
352,
336,
339,
340,
313,
341,
305,
340,
354,
296,
312,
333,
341,
295,
297,
315,
301,
279,
302,
286,
270,
262,
257,
255,
255,
236,
291,
268,
231,
261,
254,
251,
248,
211,
236,
211,
224,
231,
226,
228,
226,
210,
215,
200,
234,
212,
202,
181,
187,
205,
192,
193,
170,
154,
166,
145,
176,
162,
153,
171,
153,
159,
154,
150,
137,
142,
165,
123,
169,
126,
131,
134,
130,
136,
118,
140,
110,
102,
113,
97,
109,
103,
106,
108,
100,
89,
91,
74,
71,
87,
93,
97,
70,
77,
100,
80,
81,
61,
67,
62,
65,
65,
59,
63,
56,
61,
44,
38,
64,
46,
49,
48,
40,
31,
45,
41,
42,
39,
37,
33,
26,
20,
22,
17,
23,
23,
17,
13,
22,
12,
8,
10,
9,
8,
8,
8,
8,
7,
3,
9,
3,
3,
4,
4,
9,
5,
3,
4,
7,
4,
2,
4,
3,
6,
2,
1,
2,
4,
2,
1,
0,
4,
6,
3,
5,
2,
6,
5,
1,
4,
2,
1,
2,
3,
3,
3,
1,
1,
5,
5,
3,
2,
1,
2,
3,
1,
0,
3,
3,
5,
1,
2,
2,
4,
2,
1,
2,
1,
4,
2,
1,
2,
3,
1,
2,
1,
3,
1,
0,
1,
3,
2,
2,
2,
3,
1,
1,
3,
3,
0,
0,
2,
2,
2,
3,
1,
1,
3,
1,
2,
3,
1,
0,
0,
0,
0,
1,
3,
1,
0,
2,
1,
1,
3,
2,
1,
1,
1,
2,
2,
3,
1,
1,
2,
0,
3,
2,
3,
0,
0,
3,
1,
2,
1,
0,
1,
3,
1,
1,
0,
2,
2,
2,
1,
0,
0,
0,
0,
1,
2,
0,
0,
1,
1,
0,
1,
1,
1,
1,
1,
1,
0,
1,
0,
2,
0,
3,
1,
0,
2,
1,
1,
1,
1,
1,
1,
0,
2,
1,
3,
0,
1,
0,
0,
2,
0,
0,
1,
0,
2,
0,
1,
1,
1,
1,
1,
1,
2,
1,
0,
1,
1,
1,
1,
2,
0,
0,
0,
1,
2,
2,
0,
0,
0,
1,
1,
1,
0,
3,
1,
0,
0,
0,
1,
2,
1,
1,
0,
0,
2,
1,
0,
0,
0,
0,
0,
0,
1,
0,
0,
2,
0,
0,
0,
0,
0,
0,
0,
0,
0,
0,
0,
0,
0,
1,
1,
0,
0,
0,
1,
0,
1,
0,
1,
2,
0,
0,
0,
0,
0,
0,
0,
1,
1,
0,
0,
0,
0,
0,
1,
0,
1,
0,
0,
0,
0,
0,
1,
0,
0,
1,
0,
0,
0,
0,
0,
0,
0,
1,
0,
0,
0,
0,
0,
0,
0,
0,
0,
0,
0,
0,
0,
0,
1,
0,
0,
0,
0,
1,
0,
0,
1,
0,
1,
1,
0,
0,
0,
1,
1,
1,
0,
0,
0,
0,
1,
0,
0,
1,
0,
0,
0,
0,
0,
0,
0,
0,
0,
0,
0,
0,
0,
0,
0,
0,
0,
0,
0,
0,
0,
0,
1,
0,
0,
0,
0,
0,
0,
0,
0,
0,
0,
0,
0,
0,
0,
0,
0,
1,
0,
0,
0,
0,
0,
0,
0,
0,
1,
1,
0,
0,
0,
0,
0,
0,
0,
0,
0,
0,
0,
0,
0,
1,
0,
0,
0,
0,
0,
0,
0,
0,
0,
0,
0,
0,
0,
0,
0,
0,
0,
0,
0,
0,
0,
0,
0,
0,
0,
0,
0,
0,
0,
0,
0,
0,
0,
0,
0,
0,
0,
0,
0,
0,
0,
0,
0,
0,
0,
0,
0,
0,
0,
0,
0,
0,
0,
0,
0,
0,
0,
0,
0,
0,
0,
0,
0,
0,
0,
0,
0,
0,
0,
0,
0,
0,
0,
0,
0,
0,
0,
0,
0,
0,
0,
0,
1,
0,
0,
0,
0,
1,
0,
0,
0,
0,
0,
0,
0,
0,
0,
0,
0,
0,
0,
0,
0,
0,
0,
0,
0,
0,
0,
0,
0,
0,
0,
0,
0,
0,
0,
0,
0,
0,
0,
0,
0,
0,
0,
0,
0,
0,
0,
0,
0,
0,
0,
0,
0,
0,
0,
0,
0,
0,
0,
0,
0,
0,
0,
0,
0,
0,
0,
0,
0,
0,
0,
0,
0,
0,
0,
0,
0,
0,
0,
0,
0,
0,
0,
0,
0,
0,
0,
0,
0,
0,
0,
0,
0,
0,
0,
0,
0,
0,
0,
0,
0,
0,
0,
0,
0,
0,
0,
0,
0,
0,
0,
0,
0,
0,
0,
0,
0,
0,
0,
0,
0,
0,
0,
0,
0,
0,
0,
0,
0,
0,
0,
0,
0,
0,
0,
0,
0,
0,
0,
0,
0,
0,
0,
0,
0,
0,
0,
0,
0,
0,
0,
0,
0,
0,
0,
0,
0,
0,
0,
0,
0,
0,
0,
0,
0,
0,
0,
0,
0,
0,
0,
0,
0,
0,
0,
0,
0,
0,
0,
0,
0,
0,
0,
0,
0,
0,
0,
0,
0,
0,
0,
0,
0,
0,
0,
0,
0,
0,
0,
0,
0,
0,
0,
0,
0,
0,
0,
0,
0,
0,
0,
0,
0,
0,
0,
0,
0,
0,
0,
#ENDOFDATA   :