File: N132962/Quantification/20 keV/Glass Mount IIIB/GM IIIB K366[2][4].msa
#FORMAT      : EMSA/MAS Spectral Data File
#VERSION     : 1.0
#TITLE       : GM IIIB K366[2][all]
#DATE        : 10-SEP-2025
#TIME        : 18:26
#OWNER       : Unknown
#NPOINTS     : 4096
#NCOLUMNS    : 1
#XUNITS      : eV
#YUNITS      : counts
#DATATYPE    : Y
#XPERCHAN    : 9.99778
#OFFSET      : 1.69135
#BEAMKV      : 20
#SIGNALTYPE  : EDS
#ELEVANGLE   : 35
#AZIMANGLE   : 0
#LIVETIME    : 240.266
#REALTIME    : 267.6962
#PROBECUR    : 1.22475
#TAUWIND     : 0
#TDEADLYR    : 0
#TACTLYR     : 0.045
#TALWIND     : 0.025
#CHOFFSET    : 0.0
#XLABEL      : Energy (eV)
#YLABEL      : Counts
#XPOSITION   : 8.40204
#YPOSITION   : 3.0077
#ZPOSITION   : 34.00159
#EDSDET      : SD
##SPECIMEN   : GM IIIB K366[2][all]
##D2STDCMP   : K366,(O:20.43),(Si:13.45),(Pb:66.12)
##DET_HASH   : 12273538-fd48-a23f-0a19-f1e6fa85caef
##CALIB_HASH : 6abaa72c-aa41-8738-0be9-f592914732f3
##WORKING    : 15.0 mm
##DET_NAME   : EDAX All
##DET_MODE   : MediumLE
#SPECTRUM    :
41,
24,
3,
41,
231,
837,
2310,
5223,
10657,
13036,
8792,
6439,
6280,
6336,
7535,
14429,
41528,
73158,
54284,
19049,
9644,
7997,
7557,
8505,
7965,
6650,
6578,
6796,
7282,
7181,
7512,
7433,
7604,
7849,
7850,
8252,
8347,
8657,
8679,
8842,
9011,
9300,
9576,
9572,
10008,
9993,
10239,
10482,
11002,
11450,
11665,
11438,
11369,
11392,
12427,
19846,
52443,
122177,
164553,
121236,
61092,
34100,
22614,
14026,
10319,
9200,
9184,
8762,
9119,
9180,
9672,
10329,
11823,
13126,
15767,
24860,
56669,
121878,
178430,
171980,
137323,
125722,
107121,
63201,
26705,
11487,
8994,
10815,
12866,
12513,
9647,
6898,
5863,
5592,
5646,
5748,
5973,
6011,
6090,
6226,
6578,
7154,
7505,
7633,
7477,
6969,
6032,
5985,
5453,
5479,
5366,
5280,
5489,
5341,
5457,
5676,
5819,
5692,
5523,
5319,
5420,
5319,
5162,
5500,
5496,
5501,
5255,
5313,
5267,
5230,
5072,
5122,
5118,
5262,
5278,
5245,
5352,
5525,
5482,
5504,
5396,
5175,
5103,
5098,
5165,
5016,
4986,
5154,
5302,
5571,
5639,
5584,
5445,
5340,
5146,
5020,
5082,
5247,
5115,
5059,
5151,
5188,
5048,
5129,
4973,
4929,
4891,
4838,
4754,
4769,
4790,
4833,
4649,
4705,
4758,
4694,
4618,
4559,
4660,
4629,
4615,
4558,
4526,
4530,
4518,
4577,
4479,
4418,
4488,
4347,
4338,
4341,
4369,
4280,
4269,
4329,
4362,
4357,
4285,
4247,
4343,
4139,
4236,
4249,
4127,
4250,
4108,
4143,
4186,
4078,
4116,
4170,
4407,
4392,
4428,
4322,
4104,
3948,
3917,
3824,
3878,
3934,
3761,
3695,
3806,
3765,
3763,
3727,
3752,
3707,
3610,
3681,
3608,
3511,
3637,
3725,
3658,
3729,
3491,
3414,
3466,
3490,
3377,
3414,
3395,
3512,
3524,
3542,
3646,
3568,
3478,
3545,
3330,
3293,
3279,
3271,
3207,
3285,
3134,
3162,
3138,
3217,
3062,
3109,
3119,
3044,
3064,
2981,
3027,
2992,
2969,
2908,
2980,
2955,
2919,
3007,
2914,
2945,
2822,
2901,
2845,
2845,
2787,
2759,
2720,
2765,
2702,
2756,
2742,
2673,
2681,
2636,
2567,
2750,
2652,
2653,
2608,
2624,
2579,
2660,
2540,
2744,
2721,
2783,
3033,
3157,
3206,
2995,
2865,
2666,
2579,
2487,
2454,
2408,
2372,
2368,
2335,
2305,
2399,
2229,
2270,
2321,
2269,
2219,
2190,
2199,
2135,
2188,
2182,
2123,
2190,
2202,
2180,
2156,
2184,
2172,
2088,
2050,
2049,
2114,
2103,
2064,
2099,
2212,
2451,
2966,
3764,
5085,
7191,
9875,
12221,
13627,
13235,
11352,
8553,
5737,
3846,
2832,
2117,
1946,
1796,
1823,
1734,
1845,
1664,
1688,
1749,
1631,
1668,
1693,
1710,
1638,
1721,
1643,
1700,
1725,
1595,
1629,
1637,
1640,
1592,
1568,
1555,
1502,
1566,
1579,
1499,
1527,
1437,
1465,
1464,
1445,
1386,
1386,
1417,
1400,
1416,
1424,
1337,
1411,
1470,
1461,
1438,
1509,
1510,
1465,
1498,
1480,
1483,
1473,
1492,
1459,
1484,
1442,
1545,
1897,
2416,
3395,
4308,
5142,
5518,
5452,
4726,
3685,
2740,
2104,
1702,
1444,
1396,
1244,
1286,
1335,
1229,
1290,
1272,
1164,
1143,
1083,
1027,
1005,
951,
945,
899,
962,
968,
911,
866,
918,
842,
905,
870,
834,
878,
812,
842,
804,
798,
795,
783,
799,
790,
757,
799,
733,
809,
739,
761,
704,
703,
728,
757,
705,
691,
729,
724,
728,
636,
691,
686,
663,
716,
689,
628,
646,
627,
637,
696,
663,
749,
875,
897,
910,
963,
934,
881,
804,
723,
637,
620,
601,
566,
585,
531,
638,
605,
594,
597,
597,
524,
510,
502,
493,
466,
467,
490,
457,
437,
449,
484,
458,
408,
437,
382,
402,
402,
436,
406,
401,
384,
387,
358,
357,
427,
348,
342,
391,
349,
347,
333,
317,
313,
325,
319,
318,
307,
333,
339,
312,
314,
301,
279,
289,
278,
291,
279,
284,
300,
259,
270,
280,
253,
254,
288,
271,
249,
246,
272,
268,
250,
251,
246,
279,
235,
232,
195,
208,
236,
200,
219,
222,
214,
198,
200,
160,
199,
185,
178,
166,
175,
189,
187,
145,
162,
173,
145,
156,
173,
176,
146,
150,
156,
144,
130,
141,
121,
122,
141,
121,
151,
109,
112,
105,
126,
106,
123,
114,
108,
108,
108,
106,
98,
101,
96,
84,
90,
79,
93,
83,
90,
78,
74,
79,
65,
84,
68,
80,
64,
67,
62,
45,
67,
44,
55,
42,
35,
42,
50,
46,
41,
42,
34,
33,
32,
19,
27,
20,
25,
26,
19,
20,
16,
11,
18,
13,
15,
8,
4,
2,
7,
6,
9,
5,
3,
12,
9,
2,
3,
3,
4,
2,
4,
1,
4,
4,
5,
5,
1,
1,
4,
3,
5,
3,
2,
4,
9,
2,
6,
5,
1,
9,
3,
7,
5,
5,
3,
4,
5,
6,
5,
5,
3,
1,
2,
1,
2,
4,
4,
2,
1,
6,
3,
3,
1,
4,
1,
5,
3,
5,
1,
5,
3,
3,
1,
1,
3,
2,
2,
2,
0,
1,
2,
0,
3,
3,
4,
2,
1,
3,
4,
3,
3,
3,
1,
2,
1,
0,
3,
1,
1,
0,
3,
2,
2,
1,
3,
2,
3,
1,
2,
3,
0,
4,
2,
2,
3,
4,
5,
2,
0,
3,
0,
2,
1,
1,
0,
1,
1,
3,
2,
2,
1,
0,
1,
0,
5,
4,
2,
3,
2,
0,
0,
0,
1,
2,
1,
2,
2,
2,
0,
1,
2,
1,
1,
1,
1,
0,
1,
0,
3,
0,
2,
1,
1,
0,
0,
0,
0,
2,
0,
0,
0,
2,
3,
0,
1,
1,
1,
3,
1,
2,
1,
3,
2,
1,
1,
0,
0,
2,
1,
1,
2,
1,
0,
0,
0,
0,
0,
0,
0,
2,
0,
1,
2,
1,
1,
2,
1,
0,
4,
1,
1,
2,
5,
2,
0,
1,
1,
1,
1,
1,
0,
0,
2,
1,
0,
2,
1,
2,
1,
1,
0,
1,
0,
1,
1,
0,
1,
0,
0,
1,
0,
0,
2,
0,
0,
1,
0,
0,
0,
1,
0,
0,
0,
0,
2,
1,
1,
0,
0,
1,
0,
2,
0,
0,
0,
0,
1,
0,
0,
2,
0,
0,
0,
0,
0,
0,
0,
1,
3,
0,
0,
0,
0,
0,
0,
1,
0,
1,
0,
1,
0,
1,
0,
2,
0,
0,
1,
0,
0,
0,
0,
0,
1,
1,
0,
2,
0,
0,
0,
1,
1,
0,
1,
0,
0,
1,
0,
0,
0,
0,
0,
0,
0,
0,
0,
0,
0,
0,
0,
0,
0,
1,
0,
0,
0,
0,
0,
0,
0,
1,
0,
0,
0,
0,
0,
0,
0,
0,
1,
0,
0,
0,
2,
0,
0,
0,
0,
0,
0,
0,
0,
0,
0,
0,
0,
0,
0,
0,
0,
0,
0,
0,
0,
0,
0,
0,
0,
0,
0,
0,
0,
0,
0,
0,
0,
0,
0,
0,
0,
1,
0,
0,
0,
1,
0,
0,
0,
0,
0,
0,
0,
0,
0,
0,
0,
0,
0,
0,
0,
0,
0,
0,
0,
0,
0,
0,
0,
0,
0,
0,
0,
0,
0,
0,
0,
0,
0,
0,
1,
0,
0,
0,
0,
0,
0,
0,
0,
0,
0,
0,
0,
0,
0,
0,
0,
0,
1,
0,
0,
0,
0,
0,
0,
0,
0,
0,
0,
0,
0,
0,
0,
0,
0,
0,
0,
0,
0,
0,
0,
0,
0,
0,
0,
0,
0,
0,
0,
0,
0,
0,
0,
0,
0,
0,
0,
0,
0,
0,
0,
0,
0,
0,
0,
0,
0,
0,
0,
0,
0,
0,
0,
0,
0,
0,
0,
0,
0,
0,
0,
0,
0,
0,
0,
0,
0,
0,
0,
0,
0,
0,
0,
0,
0,
0,
0,
0,
0,
0,
0,
0,
0,
0,
0,
0,
0,
0,
0,
0,
0,
0,
0,
0,
0,
0,
0,
0,
0,
0,
0,
0,
0,
0,
0,
0,
0,
0,
0,
0,
0,
0,
0,
0,
0,
0,
0,
0,
0,
0,
0,
0,
0,
0,
0,
0,
0,
0,
0,
0,
0,
0,
0,
0,
0,
0,
0,
0,
0,
0,
0,
0,
0,
0,
0,
0,
0,
0,
0,
0,
0,
0,
0,
0,
0,
0,
0,
0,
0,
0,
0,
0,
0,
0,
0,
0,
0,
0,
0,
0,
0,
0,
0,
0,
0,
0,
0,
0,
0,
0,
0,
0,
0,
0,
0,
0,
0,
0,
0,
0,
0,
0,
0,
0,
0,
0,
0,
0,
0,
0,
0,
0,
0,
0,
0,
0,
0,
0,
0,
0,
0,
0,
0,
0,
0,
0,
0,
0,
0,
0,
0,
0,
0,
0,
0,
0,
0,
0,
0,
0,
0,
0,
0,
0,
0,
0,
0,
0,
0,
0,
0,
0,
0,
0,
0,
0,
0,
0,
0,
0,
0,
0,
0,
0,
0,
0,
0,
0,
#ENDOFDATA   :