File: N132962/Quantification/20 keV/Glass Mount IIIB/GM IIIB K523[6][4].msa
#FORMAT      : EMSA/MAS Spectral Data File
#VERSION     : 1.0
#TITLE       : GM IIIB K523[6][all]
#DATE        : 11-SEP-2025
#TIME        : 09:20
#OWNER       : Unknown
#NPOINTS     : 4096
#NCOLUMNS    : 1
#XUNITS      : eV
#YUNITS      : counts
#DATATYPE    : Y
#XPERCHAN    : 9.99778
#OFFSET      : 1.69135
#BEAMKV      : 20
#SIGNALTYPE  : EDS
#ELEVANGLE   : 35
#AZIMANGLE   : 0
#LIVETIME    : 240.233
#REALTIME    : 267.305
#PROBECUR    : 1.22303
#TAUWIND     : 0
#TDEADLYR    : 0
#TACTLYR     : 0.045
#TALWIND     : 0.025
#CHOFFSET    : 0.0
#XLABEL      : Energy (eV)
#YLABEL      : Counts
#XPOSITION   : 1.65562
#YPOSITION   : 9.68048
#ZPOSITION   : 34.00161
#EDSDET      : SD
##SPECIMEN   : GM IIIB K523[6][all]
##D2STDCMP   : K523,(O:20.71),(Mg:0.1),(Si:12.9),(P:0.25),(Ti:0.19),(Cr:0.21),(Ni:0.24),(Ge:0.29),(Zr:0.36),(Ba:0.55),(Eu:0.6),(Pb:63.41),(Th:0.1),(U:0.11)
##DET_HASH   : 12273538-fd48-a23f-0a19-f1e6fa85caef
##CALIB_HASH : 6abaa72c-aa41-8738-0be9-f592914732f3
##WORKING    : 15.0 mm
##DET_NAME   : EDAX All
##DET_MODE   : MediumLE
#SPECTRUM    :
21,
23,
9,
37,
225,
856,
2359,
5254,
10675,
12962,
8916,
6514,
6205,
6708,
7715,
15176,
42791,
75655,
55659,
19129,
9648,
7767,
7341,
8075,
7728,
6773,
6517,
6952,
7816,
8021,
7519,
7485,
7771,
7643,
8114,
8303,
8411,
9080,
9705,
10282,
10685,
10660,
10720,
9959,
9851,
9785,
10177,
10298,
10762,
11603,
11603,
11259,
11012,
11095,
12174,
19185,
50594,
116337,
154710,
114441,
58702,
32879,
21974,
13961,
10314,
9812,
10753,
11639,
11655,
10796,
10538,
11060,
12133,
12982,
15477,
24177,
54769,
116133,
169476,
163176,
131130,
119535,
101503,
60287,
25603,
11360,
8979,
10688,
12603,
12205,
9499,
7130,
5760,
5615,
5663,
5823,
5956,
6082,
6184,
6400,
6605,
7118,
7562,
7752,
7484,
7065,
6551,
5990,
5689,
5517,
5373,
5441,
5507,
5455,
5473,
5542,
5483,
5641,
5658,
5398,
5525,
5238,
5509,
5449,
5505,
5542,
5356,
5425,
5222,
5207,
5305,
5026,
5341,
5166,
5487,
5295,
5469,
5367,
5388,
5354,
5443,
5332,
5196,
5093,
5153,
5296,
5201,
5689,
6356,
6931,
7053,
6651,
5816,
5505,
5164,
5076,
5173,
5134,
5366,
5333,
5545,
5464,
5441,
5302,
5129,
5193,
5052,
4877,
4847,
4758,
4811,
4866,
4782,
4963,
4688,
4761,
4804,
4759,
4862,
5169,
5170,
5179,
4936,
4836,
4643,
4514,
4573,
4551,
4251,
4386,
4522,
4508,
4623,
4779,
4891,
4875,
4862,
4552,
4581,
4279,
4125,
4191,
4134,
4046,
4095,
4109,
3996,
4064,
4088,
4148,
4081,
4220,
4456,
4766,
4576,
4481,
4383,
4097,
3815,
3985,
3941,
3816,
3782,
3802,
3678,
3805,
3670,
3679,
3682,
3685,
3839,
3706,
3712,
3552,
3743,
3554,
3538,
3507,
3375,
3475,
3447,
3277,
3359,
3422,
3396,
3549,
3624,
3730,
3976,
4014,
3973,
3763,
3524,
3402,
3173,
3288,
3118,
3125,
3148,
3050,
3078,
3028,
2993,
3065,
2990,
2953,
3005,
3009,
3040,
2941,
3036,
2927,
2891,
2949,
2914,
3024,
2910,
2883,
2791,
2787,
2817,
2826,
2786,
2641,
2743,
2733,
2740,
2645,
2609,
2661,
2681,
2730,
2690,
2618,
2569,
2627,
2523,
2521,
2569,
2500,
2514,
2633,
2654,
2819,
2973,
3059,
3203,
3085,
2876,
2713,
2605,
2432,
2355,
2391,
2454,
2254,
2354,
2215,
2336,
2324,
2246,
2329,
2307,
2206,
2319,
2258,
2228,
2279,
2425,
2357,
2289,
2227,
2239,
2201,
2144,
2116,
2094,
2086,
2072,
1987,
2036,
2115,
2082,
2200,
2486,
2911,
3839,
5079,
7049,
9600,
11691,
13087,
12802,
10814,
8235,
5597,
3643,
2567,
2081,
1950,
1853,
1862,
1806,
1732,
1738,
1743,
1765,
1787,
1716,
1683,
1657,
1630,
1636,
1629,
1711,
1641,
1646,
1647,
1585,
1539,
1537,
1541,
1543,
1552,
1488,
1398,
1482,
1505,
1443,
1418,
1410,
1366,
1368,
1348,
1434,
1346,
1402,
1407,
1308,
1411,
1389,
1425,
1437,
1399,
1421,
1494,
1506,
1411,
1460,
1459,
1439,
1402,
1399,
1432,
1515,
1802,
2380,
3171,
4120,
4923,
5365,
5142,
4547,
3500,
2716,
2083,
1661,
1455,
1325,
1263,
1287,
1298,
1243,
1206,
1199,
1228,
1131,
1045,
1030,
901,
915,
940,
928,
902,
871,
883,
889,
894,
868,
841,
822,
852,
830,
813,
826,
803,
818,
784,
800,
827,
802,
727,
722,
786,
715,
774,
733,
693,
757,
702,
692,
699,
691,
708,
684,
691,
665,
705,
657,
662,
674,
686,
649,
660,
658,
601,
712,
710,
776,
853,
915,
917,
884,
860,
819,
747,
655,
650,
584,
551,
579,
570,
636,
596,
585,
605,
592,
581,
516,
545,
507,
489,
514,
480,
451,
455,
415,
428,
444,
394,
395,
432,
406,
411,
412,
422,
433,
405,
427,
375,
396,
392,
362,
409,
376,
335,
359,
350,
333,
342,
353,
334,
346,
371,
325,
316,
308,
307,
321,
338,
297,
284,
274,
296,
302,
266,
300,
267,
256,
266,
269,
222,
256,
269,
285,
252,
233,
239,
221,
239,
211,
221,
230,
219,
203,
245,
217,
214,
218,
194,
184,
202,
190,
193,
202,
178,
186,
166,
182,
167,
174,
145,
163,
164,
189,
157,
155,
157,
150,
132,
115,
142,
137,
139,
121,
123,
119,
139,
118,
120,
109,
109,
110,
111,
110,
115,
97,
93,
96,
93,
93,
77,
97,
76,
83,
81,
74,
80,
74,
72,
61,
72,
65,
68,
69,
63,
57,
65,
57,
64,
55,
69,
53,
36,
49,
31,
32,
47,
27,
36,
34,
34,
28,
26,
30,
31,
25,
30,
18,
12,
16,
9,
10,
9,
10,
4,
4,
4,
1,
5,
1,
1,
2,
3,
3,
3,
9,
4,
2,
6,
3,
5,
3,
6,
4,
1,
3,
1,
1,
5,
1,
4,
5,
2,
5,
2,
5,
4,
4,
4,
4,
5,
3,
5,
1,
1,
5,
4,
3,
6,
2,
6,
5,
4,
2,
5,
2,
1,
0,
2,
2,
4,
0,
6,
4,
5,
3,
3,
2,
3,
2,
1,
0,
4,
2,
1,
6,
0,
3,
1,
4,
1,
1,
0,
0,
2,
0,
1,
1,
2,
2,
1,
0,
1,
1,
2,
3,
2,
5,
2,
1,
1,
2,
3,
2,
0,
2,
3,
3,
0,
2,
2,
4,
2,
1,
1,
1,
1,
0,
2,
2,
3,
2,
3,
1,
2,
2,
0,
1,
1,
1,
1,
1,
0,
2,
1,
1,
1,
1,
2,
1,
2,
3,
1,
0,
0,
0,
0,
1,
1,
0,
0,
1,
0,
0,
1,
0,
1,
1,
1,
1,
2,
1,
1,
1,
1,
2,
2,
1,
1,
1,
1,
1,
0,
2,
4,
5,
2,
6,
1,
1,
0,
4,
0,
3,
2,
1,
3,
2,
0,
1,
0,
0,
0,
0,
1,
0,
1,
1,
0,
1,
1,
1,
2,
2,
3,
0,
0,
0,
0,
0,
0,
0,
0,
0,
0,
0,
1,
0,
0,
0,
0,
0,
0,
2,
0,
0,
0,
0,
1,
1,
2,
0,
1,
1,
0,
0,
0,
0,
0,
1,
1,
1,
1,
0,
0,
1,
0,
1,
0,
2,
1,
0,
0,
1,
3,
0,
0,
2,
1,
0,
0,
0,
1,
0,
0,
0,
0,
0,
1,
1,
0,
0,
0,
0,
0,
0,
0,
1,
2,
1,
0,
1,
0,
0,
0,
0,
0,
0,
0,
0,
1,
2,
1,
0,
0,
0,
0,
0,
1,
0,
0,
0,
1,
0,
0,
0,
0,
1,
0,
0,
0,
0,
0,
1,
0,
0,
0,
0,
0,
0,
1,
0,
0,
0,
0,
0,
0,
0,
0,
0,
0,
0,
0,
0,
1,
0,
0,
1,
0,
0,
0,
0,
0,
0,
0,
0,
0,
0,
0,
0,
0,
0,
0,
0,
0,
0,
0,
0,
0,
0,
0,
0,
0,
0,
0,
0,
0,
0,
0,
0,
0,
0,
0,
1,
0,
0,
0,
0,
0,
0,
0,
0,
0,
0,
0,
0,
0,
0,
0,
0,
0,
0,
0,
0,
0,
0,
0,
0,
0,
0,
0,
0,
0,
0,
0,
0,
0,
0,
0,
0,
0,
0,
0,
0,
0,
0,
0,
0,
0,
0,
0,
0,
0,
0,
0,
0,
0,
0,
0,
0,
0,
1,
0,
0,
0,
1,
0,
0,
0,
0,
0,
0,
0,
0,
0,
0,
0,
0,
0,
0,
1,
0,
0,
0,
0,
0,
0,
0,
0,
0,
0,
0,
0,
0,
0,
0,
0,
0,
0,
0,
0,
0,
0,
0,
0,
0,
0,
0,
0,
0,
0,
0,
0,
0,
0,
0,
0,
0,
0,
0,
0,
0,
0,
0,
0,
0,
0,
0,
0,
0,
0,
0,
0,
0,
0,
0,
0,
0,
0,
0,
0,
0,
0,
0,
0,
0,
0,
0,
0,
0,
0,
0,
0,
0,
0,
0,
0,
0,
0,
0,
0,
0,
0,
0,
0,
0,
0,
0,
0,
0,
0,
0,
0,
0,
0,
0,
0,
0,
0,
0,
0,
0,
0,
0,
0,
0,
0,
0,
0,
0,
0,
0,
0,
0,
0,
0,
0,
0,
0,
0,
0,
0,
0,
0,
0,
0,
0,
0,
0,
0,
1,
0,
0,
0,
0,
0,
0,
0,
0,
0,
0,
0,
0,
0,
0,
0,
0,
0,
0,
0,
0,
0,
0,
0,
0,
0,
0,
0,
0,
0,
0,
0,
0,
0,
0,
0,
0,
0,
0,
0,
0,
0,
0,
0,
0,
0,
0,
0,
0,
0,
0,
0,
0,
0,
0,
0,
0,
0,
0,
0,
0,
0,
0,
0,
0,
0,
0,
0,
0,
0,
0,
0,
0,
0,
0,
0,
0,
0,
0,
0,
0,
0,
0,
0,
0,
0,
0,
0,
0,
0,
0,
0,
0,
0,
0,
0,
0,
0,
0,
0,
0,
0,
0,
0,
0,
0,
0,
0,
0,
0,
0,
0,
0,
0,
0,
0,
0,
0,
0,
0,
0,
0,
0,
0,
0,
#ENDOFDATA   :