File: N132962/Quantification/20 keV/Glass Mount IIIB/GM IIIB K251[2][4].msa
#FORMAT      : EMSA/MAS Spectral Data File
#VERSION     : 1.0
#TITLE       : GM IIIB K251[2][all]
#DATE        : 10-SEP-2025
#TIME        : 18:55
#OWNER       : Unknown
#NPOINTS     : 4096
#NCOLUMNS    : 1
#XUNITS      : eV
#YUNITS      : counts
#DATATYPE    : Y
#XPERCHAN    : 9.99778
#OFFSET      : 1.69135
#BEAMKV      : 20
#SIGNALTYPE  : EDS
#ELEVANGLE   : 35
#AZIMANGLE   : 0
#LIVETIME    : 240.316
#REALTIME    : 265.517
#PROBECUR    : 1.2221
#TAUWIND     : 0
#TDEADLYR    : 0
#TACTLYR     : 0.045
#TALWIND     : 0.025
#CHOFFSET    : 0.0
#XLABEL      : Energy (eV)
#YLABEL      : Counts
#XPOSITION   : 7.4733
#YPOSITION   : 0.84704
#ZPOSITION   : 34.00159
#EDSDET      : SD
##SPECIMEN   : GM IIIB K251[2][all]
##D2STDCMP   : K251,(O:23.02),(Al:1.32),(Si:14.02),(Ba:8.96),(Ta:4.09),(Pb:44.1),(Bi:4.48)
##DET_HASH   : 12273538-fd48-a23f-0a19-f1e6fa85caef
##CALIB_HASH : 6abaa72c-aa41-8738-0be9-f592914732f3
##WORKING    : 15.0 mm
##DET_NAME   : EDAX All
##DET_MODE   : MediumLE
#SPECTRUM    :
18,
23,
14,
35,
180,
741,
2120,
4656,
9534,
11824,
8249,
6159,
6163,
6292,
7959,
16636,
50618,
91592,
67247,
21891,
9404,
7375,
6944,
7394,
7204,
7039,
7253,
7113,
6778,
6629,
6726,
6961,
7393,
7486,
7673,
7862,
7781,
7658,
7584,
7982,
8028,
8467,
8725,
9228,
9685,
9781,
9657,
10962,
15457,
21947,
22378,
16254,
11793,
10755,
11966,
21692,
59710,
132198,
171101,
124805,
58781,
29184,
18174,
11912,
9189,
8457,
7983,
7790,
7544,
7724,
7940,
8597,
9630,
10483,
12200,
17931,
36758,
76496,
111784,
111068,
93614,
88913,
75654,
47085,
24125,
14108,
10128,
9776,
10838,
10353,
8762,
7129,
6122,
5693,
5477,
5520,
5646,
5881,
5862,
5978,
6098,
6403,
6757,
6989,
6834,
6455,
6015,
5659,
5602,
5358,
5302,
5283,
5347,
5290,
5226,
5401,
5414,
5504,
5481,
5242,
5210,
5017,
5157,
5148,
5221,
5115,
5133,
5024,
5146,
5079,
5269,
5513,
5451,
5356,
5284,
5226,
5396,
5190,
5123,
5026,
5027,
5144,
4939,
5116,
5335,
6004,
8226,
12199,
16514,
18657,
16039,
11125,
7413,
5651,
5033,
4853,
4867,
5180,
6161,
7822,
10116,
11276,
10780,
8943,
7302,
6190,
5681,
5012,
4964,
5266,
5647,
6373,
6665,
6398,
5554,
4747,
4527,
4390,
4266,
4208,
4324,
4379,
4527,
4850,
4947,
5061,
4676,
4300,
4223,
3986,
4123,
4252,
4354,
4301,
4190,
4211,
4108,
3917,
3941,
3902,
3916,
3791,
3736,
3686,
3680,
3812,
3546,
3661,
3697,
3756,
3740,
3847,
3959,
4011,
3997,
3734,
3817,
3724,
3442,
3530,
3481,
3411,
3466,
3430,
3351,
3402,
3420,
3394,
3285,
3361,
3395,
3356,
3382,
3295,
3267,
3277,
3191,
3267,
3293,
3278,
3173,
3080,
3178,
3199,
3175,
3076,
3099,
3066,
3262,
3126,
3146,
3113,
3144,
3007,
2958,
2885,
2851,
2932,
2855,
2867,
2721,
2769,
2801,
2791,
2868,
2817,
2793,
3074,
3453,
3997,
4495,
4739,
4684,
4198,
3646,
3163,
2859,
2707,
2546,
2586,
2566,
2515,
2513,
2421,
2559,
2423,
2471,
2527,
2523,
2337,
2402,
2418,
2387,
2359,
2396,
2390,
2408,
2335,
2314,
2337,
2350,
2439,
2416,
2538,
2506,
2656,
2712,
2874,
2885,
2876,
2960,
3039,
2950,
2800,
2601,
2444,
2378,
2191,
2274,
2380,
2434,
2376,
2379,
2353,
2210,
2071,
2041,
1980,
1929,
1895,
1884,
1915,
1977,
1903,
1915,
1843,
1830,
1850,
1876,
1830,
1819,
1792,
1844,
1901,
2079,
2264,
2892,
3720,
5125,
6653,
8294,
9172,
9096,
7718,
5761,
4395,
3034,
2437,
2189,
2279,
2254,
2415,
2353,
2243,
1939,
1817,
1645,
1528,
1470,
1516,
1452,
1525,
1443,
1455,
1469,
1434,
1552,
1526,
1429,
1444,
1420,
1361,
1352,
1321,
1334,
1285,
1265,
1367,
1258,
1255,
1290,
1227,
1250,
1237,
1188,
1239,
1259,
1178,
1203,
1202,
1193,
1255,
1220,
1275,
1261,
1231,
1265,
1256,
1282,
1236,
1209,
1185,
1197,
1230,
1321,
1525,
1808,
2305,
3055,
3509,
3676,
3668,
3248,
2553,
2010,
1650,
1341,
1156,
1191,
1133,
1162,
1245,
1265,
1298,
1235,
1253,
1130,
1063,
970,
888,
891,
817,
840,
792,
838,
765,
813,
803,
777,
756,
782,
714,
710,
733,
756,
756,
733,
784,
662,
731,
702,
673,
690,
680,
692,
613,
650,
641,
604,
635,
601,
603,
592,
629,
599,
619,
621,
612,
582,
614,
599,
557,
560,
565,
566,
569,
592,
595,
627,
673,
726,
711,
738,
719,
641,
655,
570,
516,
533,
517,
508,
497,
488,
546,
468,
516,
525,
508,
477,
467,
482,
388,
407,
416,
404,
387,
381,
412,
390,
381,
381,
405,
360,
384,
375,
394,
366,
359,
298,
332,
326,
339,
307,
335,
291,
300,
278,
295,
295,
294,
271,
296,
299,
289,
270,
276,
303,
256,
268,
260,
249,
278,
263,
255,
224,
250,
225,
232,
224,
262,
210,
217,
240,
223,
216,
205,
214,
195,
234,
188,
225,
207,
205,
182,
205,
182,
196,
191,
190,
170,
170,
160,
159,
137,
159,
169,
175,
145,
180,
159,
146,
155,
154,
138,
154,
106,
143,
139,
133,
114,
135,
128,
128,
104,
112,
119,
125,
108,
121,
107,
94,
106,
104,
96,
94,
88,
105,
91,
88,
80,
89,
79,
83,
73,
62,
72,
85,
81,
70,
56,
55,
52,
54,
65,
49,
54,
68,
56,
50,
43,
39,
51,
39,
45,
44,
28,
38,
31,
24,
26,
34,
29,
24,
17,
29,
22,
17,
9,
23,
17,
17,
13,
10,
8,
14,
9,
5,
5,
4,
2,
4,
2,
4,
5,
5,
4,
2,
5,
3,
5,
3,
5,
4,
4,
8,
8,
4,
4,
2,
1,
2,
2,
6,
4,
0,
3,
3,
1,
6,
1,
4,
3,
6,
4,
1,
4,
2,
1,
3,
2,
5,
2,
1,
3,
3,
3,
3,
2,
5,
0,
2,
3,
5,
1,
3,
1,
3,
2,
2,
1,
3,
0,
2,
2,
2,
1,
3,
2,
1,
1,
0,
1,
1,
0,
3,
0,
1,
1,
2,
1,
2,
1,
2,
1,
1,
0,
2,
0,
2,
1,
0,
1,
1,
1,
1,
1,
3,
2,
1,
0,
2,
1,
0,
2,
1,
0,
1,
1,
2,
3,
3,
0,
5,
2,
1,
0,
1,
0,
1,
2,
1,
0,
0,
0,
1,
0,
0,
2,
3,
0,
0,
0,
2,
0,
1,
1,
4,
0,
1,
0,
0,
0,
0,
0,
2,
0,
0,
2,
0,
1,
2,
4,
2,
0,
0,
0,
1,
0,
0,
0,
1,
0,
0,
2,
0,
1,
0,
1,
2,
2,
2,
1,
2,
1,
1,
2,
2,
2,
1,
2,
1,
2,
1,
3,
0,
1,
1,
1,
0,
2,
0,
0,
2,
2,
1,
0,
0,
0,
1,
0,
1,
1,
0,
0,
0,
1,
0,
0,
2,
0,
1,
0,
0,
0,
0,
0,
0,
1,
2,
0,
2,
1,
1,
0,
0,
1,
0,
0,
0,
1,
1,
1,
0,
0,
0,
0,
0,
1,
1,
0,
0,
0,
0,
0,
1,
0,
1,
1,
0,
1,
0,
0,
1,
0,
0,
0,
0,
0,
0,
0,
0,
0,
0,
0,
0,
0,
0,
0,
0,
1,
0,
0,
0,
0,
0,
0,
0,
0,
0,
0,
0,
0,
0,
1,
1,
0,
0,
0,
0,
0,
0,
1,
0,
0,
2,
0,
0,
0,
1,
1,
0,
0,
0,
0,
0,
1,
0,
0,
0,
0,
0,
0,
1,
0,
0,
0,
1,
0,
0,
0,
0,
0,
0,
0,
0,
0,
0,
0,
0,
0,
0,
0,
0,
1,
0,
0,
0,
0,
0,
0,
0,
0,
0,
0,
0,
0,
0,
0,
0,
0,
0,
0,
0,
0,
0,
0,
0,
0,
0,
0,
1,
0,
1,
0,
0,
0,
1,
0,
0,
0,
0,
0,
0,
0,
0,
0,
0,
0,
0,
0,
1,
1,
0,
0,
0,
0,
0,
0,
0,
0,
0,
0,
0,
0,
0,
0,
0,
0,
0,
0,
0,
0,
0,
0,
0,
0,
0,
0,
0,
0,
0,
0,
0,
0,
0,
0,
0,
0,
0,
0,
0,
0,
0,
0,
0,
0,
0,
0,
0,
0,
0,
0,
0,
0,
0,
0,
0,
0,
0,
0,
0,
0,
0,
0,
0,
0,
0,
0,
0,
0,
0,
0,
0,
0,
0,
0,
0,
1,
0,
0,
0,
0,
0,
0,
0,
0,
0,
0,
0,
0,
0,
0,
0,
0,
0,
0,
0,
0,
0,
0,
0,
0,
0,
0,
0,
0,
0,
0,
0,
0,
0,
0,
0,
0,
0,
0,
0,
0,
0,
0,
0,
0,
0,
0,
0,
0,
0,
0,
0,
0,
0,
0,
0,
0,
0,
0,
0,
0,
0,
0,
0,
0,
0,
0,
0,
0,
0,
0,
0,
0,
0,
0,
0,
0,
0,
0,
0,
0,
0,
0,
0,
0,
0,
0,
0,
0,
0,
0,
0,
0,
0,
0,
0,
0,
0,
0,
0,
0,
0,
0,
0,
0,
0,
0,
0,
0,
0,
0,
0,
0,
0,
0,
0,
0,
0,
0,
0,
0,
0,
0,
0,
0,
0,
0,
0,
0,
0,
0,
0,
0,
0,
0,
0,
0,
0,
0,
0,
0,
0,
0,
0,
0,
0,
0,
0,
0,
0,
0,
0,
0,
0,
0,
0,
0,
0,
0,
0,
0,
0,
0,
0,
0,
0,
0,
0,
0,
0,
0,
0,
0,
0,
0,
0,
0,
0,
0,
0,
0,
0,
0,
0,
0,
0,
0,
0,
0,
0,
0,
0,
0,
0,
0,
0,
0,
0,
0,
0,
0,
0,
0,
0,
0,
0,
0,
0,
0,
0,
0,
0,
0,
0,
0,
0,
0,
0,
0,
0,
0,
0,
0,
0,
0,
0,
0,
0,
0,
0,
0,
0,
0,
0,
0,
0,
0,
0,
0,
#ENDOFDATA   :