File: N132962/Quantification/20 keV/Glass Mount IIIB/GM IIIB K919[1][4].msa
#FORMAT      : EMSA/MAS Spectral Data File
#VERSION     : 1.0
#TITLE       : GM IIIB K919[1][all]
#DATE        : 10-SEP-2025
#TIME        : 16:03
#OWNER       : Unknown
#NPOINTS     : 4096
#NCOLUMNS    : 1
#XUNITS      : eV
#YUNITS      : counts
#DATATYPE    : Y
#XPERCHAN    : 9.99778
#OFFSET      : 1.69135
#BEAMKV      : 20
#SIGNALTYPE  : EDS
#ELEVANGLE   : 35
#AZIMANGLE   : 0
#LIVETIME    : 240.076
#REALTIME    : 261.5415
#PROBECUR    : 1.22368
#TAUWIND     : 0
#TDEADLYR    : 0
#TACTLYR     : 0.045
#TALWIND     : 0.025
#CHOFFSET    : 0.0
#XLABEL      : Energy (eV)
#YLABEL      : Counts
#XPOSITION   : 13.83918
#YPOSITION   : 11.95782
#ZPOSITION   : 34.06144
#EDSDET      : SD
##SPECIMEN   : GM IIIB K919[1][all]
##D2STDCMP   : K919,(O:31.86),(Si:20.1),(Cr:0.68),(Mn:1.9),(Fe:2.1),(Co:2.13),(Ni:2.36),(Cu:2.4),(Ba:34.03),(Ce:2.44)
##DET_HASH   : 12273538-fd48-a23f-0a19-f1e6fa85caef
##CALIB_HASH : 6abaa72c-aa41-8738-0be9-f592914732f3
##WORKING    : 15.0 mm
##DET_NAME   : EDAX All
##DET_MODE   : MediumLE
#SPECTRUM    :
31,
33,
12,
34,
132,
479,
1354,
3277,
6783,
8572,
6503,
5707,
6340,
7479,
11147,
32379,
111639,
205916,
150956,
46535,
15221,
10711,
9578,
10246,
11105,
12731,
13686,
11757,
10552,
9917,
9994,
10781,
9492,
7118,
5945,
5802,
5190,
4837,
4686,
4637,
4641,
4686,
4938,
4903,
5065,
5192,
5295,
5415,
5809,
6195,
6309,
6434,
6310,
6815,
7738,
15820,
52545,
128936,
173572,
123717,
52112,
20132,
10728,
6748,
5161,
4695,
4758,
4768,
4940,
4832,
4816,
4807,
4871,
5093,
5319,
5580,
5635,
5354,
5267,
5093,
5028,
4984,
4873,
5025,
4985,
5022,
4879,
5043,
5183,
5354,
5370,
5315,
5253,
5101,
4969,
4904,
4774,
4888,
5034,
4991,
5014,
4945,
4901,
4902,
4976,
4776,
4892,
4653,
4674,
4550,
4673,
4710,
4612,
4529,
4643,
4633,
4581,
4605,
4602,
4381,
4341,
4526,
4546,
4520,
4545,
4337,
4306,
4198,
4360,
4452,
5259,
5866,
6236,
5725,
4997,
4541,
4025,
4077,
3992,
4048,
4057,
4259,
4448,
5063,
5915,
8812,
17349,
33914,
52314,
59406,
48392,
29070,
14082,
6665,
4532,
4014,
4304,
5784,
10004,
18038,
28307,
33759,
31150,
23094,
15698,
10688,
7652,
5834,
5245,
5987,
8398,
11069,
12609,
11432,
9073,
6814,
5508,
4769,
4820,
5254,
5470,
5790,
5954,
6349,
6792,
6604,
5666,
4714,
3850,
3260,
3144,
3556,
4170,
4864,
5970,
7237,
8071,
7747,
6332,
4918,
3784,
3077,
2835,
2579,
2578,
2458,
2544,
2433,
2655,
2887,
3610,
4843,
6373,
7388,
7140,
6041,
4523,
3550,
2924,
2473,
2314,
2143,
2183,
2128,
2062,
2230,
2303,
2712,
3506,
4740,
5627,
5948,
5448,
4543,
3561,
3072,
2648,
2352,
2201,
2021,
1936,
2005,
1893,
1966,
2099,
2455,
3193,
4268,
5358,
5653,
5167,
4323,
3262,
2703,
2496,
2319,
2205,
2059,
1899,
1812,
1754,
1822,
1800,
1978,
2284,
2776,
3675,
4281,
4574,
4103,
3468,
2712,
2170,
2043,
2092,
2188,
2039,
1905,
1813,
1731,
1588,
1502,
1488,
1483,
1460,
1488,
1535,
1453,
1476,
1471,
1512,
1461,
1502,
1562,
1598,
1677,
1730,
1777,
1748,
1623,
1429,
1417,
1431,
1364,
1330,
1353,
1343,
1270,
1297,
1372,
1308,
1274,
1283,
1267,
1242,
1281,
1227,
1297,
1228,
1312,
1235,
1238,
1156,
1214,
1139,
1182,
1174,
1145,
1133,
1152,
1147,
1160,
1144,
1065,
1121,
1123,
1109,
1083,
1068,
1036,
1062,
1006,
1056,
1073,
1020,
1049,
1027,
984,
1034,
1003,
1021,
976,
940,
959,
994,
939,
968,
973,
938,
929,
962,
885,
907,
965,
920,
906,
862,
848,
875,
857,
845,
845,
841,
838,
809,
870,
799,
836,
786,
792,
808,
792,
781,
813,
782,
766,
768,
790,
735,
786,
754,
695,
731,
732,
717,
713,
695,
746,
709,
672,
641,
653,
632,
698,
666,
688,
655,
654,
622,
593,
615,
653,
579,
608,
564,
625,
618,
572,
555,
569,
590,
545,
569,
566,
511,
549,
514,
622,
563,
548,
482,
559,
531,
516,
495,
477,
523,
516,
514,
475,
483,
490,
511,
445,
476,
461,
439,
465,
428,
380,
440,
402,
434,
448,
414,
387,
399,
402,
392,
390,
419,
429,
428,
367,
419,
363,
364,
383,
338,
360,
378,
346,
371,
344,
339,
327,
335,
330,
318,
338,
303,
300,
322,
322,
323,
330,
329,
266,
264,
291,
312,
304,
281,
299,
296,
280,
253,
276,
258,
275,
225,
254,
243,
255,
240,
233,
250,
263,
241,
246,
247,
227,
209,
219,
217,
218,
203,
208,
213,
220,
192,
176,
208,
199,
197,
195,
189,
177,
182,
206,
170,
192,
187,
185,
154,
188,
164,
168,
199,
156,
133,
158,
176,
147,
162,
145,
144,
138,
143,
135,
143,
142,
147,
116,
130,
118,
137,
144,
118,
128,
128,
98,
131,
102,
113,
114,
110,
115,
123,
99,
110,
94,
110,
99,
103,
95,
93,
88,
81,
75,
73,
77,
80,
90,
77,
84,
77,
98,
74,
73,
64,
70,
69,
71,
68,
77,
79,
68,
50,
71,
73,
57,
60,
57,
44,
55,
51,
55,
52,
53,
39,
53,
50,
63,
43,
41,
52,
48,
38,
40,
41,
46,
20,
40,
30,
40,
29,
28,
22,
31,
36,
20,
20,
19,
29,
28,
22,
24,
15,
19,
23,
22,
22,
15,
17,
15,
18,
19,
15,
8,
9,
6,
9,
7,
10,
9,
6,
10,
5,
6,
6,
8,
2,
6,
1,
3,
2,
0,
2,
2,
3,
2,
1,
0,
0,
3,
2,
3,
1,
2,
0,
0,
0,
1,
1,
1,
0,
2,
1,
1,
0,
2,
2,
0,
0,
0,
0,
2,
2,
2,
2,
1,
0,
1,
4,
1,
0,
0,
1,
0,
1,
1,
0,
0,
0,
0,
0,
1,
0,
0,
3,
2,
1,
2,
1,
1,
0,
0,
1,
0,
1,
1,
0,
2,
0,
0,
0,
0,
0,
2,
1,
0,
1,
0,
2,
1,
1,
0,
2,
0,
0,
0,
0,
0,
0,
0,
0,
2,
1,
0,
0,
0,
0,
1,
0,
0,
0,
0,
0,
0,
1,
0,
0,
0,
0,
1,
0,
0,
0,
1,
1,
0,
0,
2,
2,
0,
0,
1,
0,
0,
1,
0,
0,
0,
0,
0,
1,
1,
0,
0,
0,
0,
0,
1,
0,
1,
0,
0,
0,
0,
0,
0,
0,
0,
0,
1,
0,
0,
0,
0,
1,
0,
0,
0,
0,
0,
0,
0,
1,
1,
0,
0,
0,
0,
0,
0,
1,
0,
2,
0,
0,
0,
0,
0,
0,
0,
0,
0,
0,
0,
0,
0,
0,
1,
0,
0,
0,
1,
0,
0,
0,
1,
0,
1,
0,
0,
0,
0,
0,
0,
0,
0,
1,
1,
0,
0,
0,
0,
0,
0,
1,
1,
0,
0,
1,
0,
0,
0,
0,
0,
0,
0,
0,
0,
0,
0,
0,
0,
0,
1,
0,
0,
0,
0,
0,
0,
0,
1,
0,
0,
0,
0,
0,
0,
1,
0,
0,
0,
0,
0,
0,
0,
0,
0,
0,
0,
0,
2,
0,
0,
0,
0,
0,
0,
0,
0,
0,
0,
0,
0,
0,
0,
0,
0,
0,
0,
0,
0,
0,
0,
0,
0,
0,
0,
0,
0,
0,
0,
0,
0,
0,
0,
0,
0,
0,
0,
0,
0,
0,
0,
0,
0,
0,
0,
0,
0,
0,
0,
0,
0,
1,
0,
0,
1,
0,
0,
0,
0,
0,
0,
0,
0,
0,
0,
0,
0,
0,
0,
0,
0,
0,
0,
0,
0,
0,
0,
0,
0,
0,
0,
0,
0,
0,
0,
0,
0,
0,
0,
0,
0,
0,
0,
0,
0,
0,
0,
0,
0,
0,
0,
0,
0,
0,
0,
0,
0,
0,
0,
0,
0,
0,
0,
0,
0,
0,
0,
0,
0,
0,
0,
0,
0,
0,
0,
0,
0,
0,
0,
0,
0,
0,
0,
0,
0,
0,
0,
0,
0,
0,
0,
0,
0,
0,
0,
0,
0,
0,
0,
0,
0,
0,
0,
0,
0,
0,
0,
0,
0,
0,
0,
0,
0,
0,
0,
0,
0,
0,
0,
0,
0,
0,
0,
0,
0,
0,
0,
0,
0,
0,
0,
0,
0,
0,
0,
0,
0,
0,
0,
0,
0,
0,
0,
0,
0,
0,
0,
0,
0,
0,
0,
0,
0,
0,
0,
0,
0,
0,
0,
1,
0,
0,
0,
0,
0,
0,
0,
0,
0,
0,
0,
0,
0,
0,
0,
0,
0,
0,
0,
0,
0,
0,
0,
0,
0,
0,
0,
0,
0,
0,
0,
0,
0,
0,
0,
0,
0,
0,
0,
0,
0,
0,
0,
0,
0,
0,
0,
0,
0,
0,
0,
0,
0,
0,
0,
0,
0,
0,
0,
0,
0,
0,
0,
0,
0,
0,
0,
0,
0,
0,
0,
0,
0,
0,
0,
0,
0,
0,
0,
0,
0,
0,
0,
0,
0,
0,
0,
0,
0,
0,
0,
0,
0,
0,
0,
0,
0,
0,
0,
0,
0,
0,
0,
0,
0,
0,
0,
0,
0,
0,
0,
0,
0,
0,
0,
0,
0,
0,
0,
0,
0,
0,
0,
0,
0,
0,
0,
0,
0,
0,
0,
0,
0,
0,
0,
0,
0,
0,
0,
0,
0,
0,
0,
0,
0,
0,
0,
0,
0,
0,
0,
0,
0,
0,
0,
0,
0,
0,
0,
0,
0,
0,
0,
0,
0,
0,
0,
0,
0,
0,
0,
0,
0,
0,
0,
0,
0,
0,
0,
0,
0,
0,
0,
0,
0,
0,
0,
0,
0,
0,
0,
0,
0,
0,
0,
0,
0,
0,
0,
0,
0,
0,
0,
0,
0,
0,
0,
0,
0,
0,
0,
0,
0,
0,
0,
0,
0,
0,
0,
0,
0,
0,
0,
0,
0,
0,
0,
#ENDOFDATA   :