File: N132962/Quantification/20 keV/Glass Mount IIIB/GM IIIB K411[0][4].msa
#FORMAT      : EMSA/MAS Spectral Data File
#VERSION     : 1.0
#TITLE       : GM IIIB K411[0][all]
#DATE        : 10-SEP-2025
#TIME        : 14:22
#OWNER       : Unknown
#NPOINTS     : 4096
#NCOLUMNS    : 1
#XUNITS      : eV
#YUNITS      : counts
#DATATYPE    : Y
#XPERCHAN    : 9.99778
#OFFSET      : 1.69135
#BEAMKV      : 20
#SIGNALTYPE  : EDS
#ELEVANGLE   : 35
#AZIMANGLE   : 0
#LIVETIME    : 240.211
#REALTIME    : 258.86
#PROBECUR    : 1.22574
#TAUWIND     : 0
#TDEADLYR    : 0
#TACTLYR     : 0.045
#TALWIND     : 0.025
#CHOFFSET    : 0.0
#XLABEL      : Energy (eV)
#YLABEL      : Counts
#XPOSITION   : 5.11244
#YPOSITION   : 5.11443
#ZPOSITION   : 34.06144
#EDSDET      : SD
##SPECIMEN   : GM IIIB K411[0][all]
##D2STDCMP   : K411,(O:42.3664),(Mg:8.8466),(Si:25.3818),(Ca:11.0563),(Fe:11.2088),5.0
##DET_HASH   : 12273538-fd48-a23f-0a19-f1e6fa85caef
##CALIB_HASH : 6abaa72c-aa41-8738-0be9-f592914732f3
##WORKING    : 15.0 mm
##DET_NAME   : EDAX All
##DET_MODE   : MediumLE
#SPECTRUM    :
34,
23,
8,
22,
82,
296,
796,
2050,
4782,
7180,
6033,
4529,
3986,
4264,
6877,
23659,
88687,
169672,
122504,
32883,
6347,
4444,
6655,
11174,
10794,
5805,
3271,
2891,
3013,
3082,
3124,
3285,
3463,
3753,
4134,
4321,
4214,
4539,
5223,
9032,
26670,
63087,
74969,
43222,
14749,
5836,
4816,
4819,
5069,
5287,
5604,
5716,
5745,
5979,
7454,
19054,
73581,
187867,
254974,
179121,
72697,
24550,
11503,
6146,
4322,
3977,
3542,
3392,
3232,
3316,
3298,
3303,
3257,
3495,
3795,
3969,
3971,
3661,
3415,
3260,
3285,
3240,
3263,
3305,
3264,
3187,
3175,
3315,
3275,
3207,
3199,
3141,
3127,
3034,
3036,
3244,
3163,
3138,
3169,
3264,
3253,
3146,
3118,
3012,
2914,
2917,
3002,
3008,
2976,
2888,
2845,
2884,
2767,
2874,
2996,
3115,
3402,
3364,
3813,
5323,
11555,
27077,
49507,
62117,
52299,
29922,
12760,
5145,
3025,
2783,
3208,
4251,
6466,
8823,
9635,
8053,
5239,
3313,
2513,
2375,
2286,
2224,
2104,
2143,
2171,
2090,
2142,
2060,
2003,
2161,
2067,
2234,
2222,
2084,
2093,
2086,
1963,
1889,
1943,
1945,
1839,
1875,
1856,
1920,
1836,
1867,
1878,
1737,
1816,
1756,
1701,
1838,
1791,
1699,
1709,
1708,
1738,
1659,
1704,
1664,
1809,
1811,
1737,
1785,
1573,
1619,
1578,
1558,
1544,
1508,
1552,
1531,
1496,
1470,
1580,
1657,
1666,
1643,
1625,
1577,
1446,
1442,
1439,
1411,
1365,
1463,
1421,
1592,
2051,
3506,
7099,
13231,
20608,
24690,
23398,
17222,
9890,
4930,
2373,
1601,
1328,
1270,
1248,
1205,
1273,
1253,
1292,
1190,
1185,
1286,
1425,
1627,
2180,
3010,
3820,
4120,
3878,
3077,
2121,
1497,
1224,
1016,
1061,
1034,
973,
1009,
984,
1019,
1046,
1064,
1005,
994,
964,
986,
978,
1038,
943,
879,
908,
913,
903,
929,
896,
933,
848,
864,
860,
916,
887,
926,
908,
857,
897,
835,
874,
856,
817,
840,
780,
761,
826,
755,
817,
718,
769,
770,
799,
756,
781,
744,
736,
753,
729,
721,
740,
734,
724,
722,
635,
700,
699,
676,
640,
707,
652,
679,
649,
649,
644,
708,
649,
628,
639,
596,
622,
665,
607,
607,
590,
647,
616,
589,
579,
582,
567,
588,
573,
541,
590,
578,
538,
517,
555,
536,
527,
561,
562,
544,
520,
511,
541,
531,
491,
472,
499,
506,
541,
455,
454,
467,
458,
501,
495,
456,
427,
458,
440,
474,
430,
470,
459,
430,
464,
438,
462,
437,
396,
404,
386,
406,
407,
430,
412,
440,
399,
402,
399,
403,
355,
367,
371,
367,
394,
371,
354,
355,
339,
318,
321,
319,
333,
322,
347,
310,
324,
326,
357,
330,
288,
326,
319,
332,
341,
311,
289,
289,
298,
286,
310,
286,
327,
296,
263,
271,
284,
247,
269,
265,
264,
252,
244,
234,
247,
241,
227,
274,
255,
240,
217,
264,
234,
251,
208,
246,
228,
235,
219,
209,
243,
236,
219,
224,
213,
223,
218,
197,
217,
196,
189,
188,
180,
191,
221,
175,
183,
178,
176,
169,
174,
150,
173,
187,
155,
161,
189,
163,
166,
137,
152,
153,
155,
149,
158,
156,
134,
139,
144,
132,
148,
140,
129,
136,
131,
132,
131,
123,
106,
118,
140,
134,
103,
93,
116,
117,
111,
126,
118,
115,
115,
111,
88,
115,
105,
112,
92,
91,
105,
110,
88,
100,
95,
91,
90,
84,
100,
88,
76,
90,
89,
70,
76,
95,
66,
82,
72,
58,
91,
82,
75,
81,
71,
68,
67,
68,
68,
57,
59,
68,
74,
74,
62,
46,
69,
50,
57,
52,
56,
58,
50,
57,
64,
53,
48,
46,
56,
44,
38,
37,
55,
48,
51,
52,
51,
39,
33,
45,
42,
41,
44,
40,
40,
43,
38,
48,
40,
37,
50,
43,
33,
35,
34,
34,
40,
42,
33,
28,
28,
24,
39,
21,
31,
21,
28,
23,
18,
23,
26,
24,
22,
25,
20,
18,
34,
23,
17,
28,
30,
16,
20,
24,
13,
16,
20,
15,
15,
17,
24,
15,
15,
22,
15,
12,
21,
11,
13,
13,
17,
7,
11,
13,
9,
11,
13,
7,
12,
11,
13,
12,
5,
9,
6,
9,
4,
6,
6,
3,
3,
4,
3,
3,
8,
6,
2,
5,
3,
1,
6,
0,
2,
0,
3,
1,
2,
0,
3,
1,
1,
2,
0,
1,
0,
0,
1,
0,
0,
0,
1,
0,
0,
0,
1,
1,
0,
0,
0,
0,
0,
0,
0,
0,
1,
0,
3,
0,
0,
0,
0,
0,
0,
0,
0,
0,
0,
0,
0,
0,
1,
0,
0,
0,
0,
2,
1,
0,
0,
1,
0,
0,
0,
1,
0,
0,
0,
0,
0,
0,
0,
0,
0,
0,
1,
0,
0,
0,
1,
0,
1,
0,
0,
0,
0,
0,
0,
0,
0,
0,
0,
0,
0,
0,
0,
0,
0,
0,
0,
0,
0,
0,
0,
0,
0,
0,
0,
0,
0,
0,
0,
1,
0,
0,
0,
1,
1,
0,
0,
0,
0,
0,
0,
0,
0,
1,
0,
1,
0,
0,
0,
0,
0,
0,
0,
0,
0,
0,
0,
0,
0,
0,
0,
0,
0,
0,
1,
0,
0,
0,
0,
0,
0,
0,
0,
0,
1,
0,
0,
0,
0,
0,
0,
0,
0,
0,
0,
0,
0,
0,
0,
0,
0,
0,
0,
0,
0,
0,
0,
0,
0,
0,
0,
0,
0,
0,
1,
0,
0,
0,
0,
0,
0,
0,
0,
0,
0,
0,
0,
0,
0,
0,
0,
0,
0,
0,
1,
0,
0,
0,
0,
0,
0,
0,
0,
0,
0,
0,
0,
0,
0,
0,
0,
0,
0,
0,
0,
0,
0,
0,
0,
0,
0,
0,
0,
0,
0,
0,
0,
0,
0,
0,
0,
0,
0,
0,
0,
0,
0,
0,
0,
0,
0,
0,
1,
0,
0,
0,
0,
0,
0,
0,
0,
0,
0,
0,
0,
0,
0,
0,
0,
0,
0,
0,
0,
0,
0,
0,
0,
0,
0,
0,
0,
0,
0,
0,
0,
0,
0,
0,
0,
0,
0,
0,
0,
0,
0,
0,
0,
0,
0,
0,
0,
0,
0,
0,
0,
0,
0,
0,
0,
0,
0,
0,
0,
0,
0,
0,
0,
0,
0,
0,
0,
0,
1,
0,
0,
0,
0,
0,
0,
0,
0,
0,
0,
0,
0,
0,
0,
0,
0,
0,
0,
0,
0,
0,
0,
0,
0,
0,
0,
0,
0,
0,
0,
0,
0,
0,
0,
0,
0,
0,
0,
0,
0,
0,
0,
0,
0,
0,
0,
0,
0,
0,
0,
0,
0,
0,
0,
0,
0,
0,
0,
0,
0,
0,
0,
0,
0,
0,
0,
0,
0,
0,
0,
0,
0,
0,
0,
0,
0,
0,
0,
0,
0,
0,
0,
0,
0,
0,
0,
0,
0,
0,
0,
0,
0,
0,
0,
0,
0,
0,
0,
0,
0,
0,
0,
0,
0,
0,
0,
0,
0,
0,
0,
0,
0,
0,
0,
0,
0,
0,
0,
0,
0,
0,
0,
0,
0,
0,
0,
0,
0,
0,
0,
0,
0,
0,
0,
0,
0,
0,
0,
0,
0,
0,
0,
0,
0,
0,
0,
0,
0,
0,
0,
0,
0,
0,
0,
0,
0,
0,
0,
0,
0,
0,
0,
0,
0,
0,
0,
0,
0,
0,
0,
0,
0,
0,
0,
0,
0,
0,
0,
0,
0,
0,
0,
0,
0,
0,
0,
0,
0,
0,
0,
0,
0,
0,
0,
0,
0,
0,
0,
0,
0,
0,
0,
0,
0,
0,
0,
0,
0,
0,
0,
0,
0,
0,
0,
0,
0,
1,
0,
0,
0,
0,
0,
0,
0,
0,
0,
0,
0,
0,
0,
0,
0,
0,
0,
0,
0,
0,
0,
0,
0,
0,
0,
0,
0,
0,
0,
0,
0,
0,
0,
0,
0,
0,
0,
0,
0,
0,
0,
0,
0,
0,
0,
0,
0,
0,
0,
0,
0,
0,
0,
0,
0,
0,
0,
0,
0,
0,
0,
0,
0,
0,
0,
0,
0,
0,
0,
0,
0,
0,
0,
0,
0,
0,
0,
0,
0,
0,
0,
0,
0,
0,
0,
0,
0,
0,
0,
0,
0,
0,
0,
0,
0,
0,
0,
0,
0,
0,
0,
0,
0,
0,
0,
0,
0,
0,
0,
0,
0,
0,
0,
0,
0,
0,
0,
0,
0,
0,
0,
0,
0,
0,
0,
0,
0,
0,
0,
0,
0,
0,
0,
0,
0,
0,
0,
0,
0,
0,
0,
0,
0,
0,
0,
0,
0,
0,
0,
0,
0,
0,
0,
0,
0,
0,
0,
0,
0,
0,
0,
0,
0,
0,
0,
0,
0,
0,
#ENDOFDATA   :