File: N132962/Quantification/20 keV/Glass Mount IIIB/GM IIIA K1010[4][4].msa
#FORMAT      : EMSA/MAS Spectral Data File
#VERSION     : 1.0
#TITLE       : K1010 IIIA K1010[4][all]
#DATE        : 18-SEP-2025
#TIME        : 10:11
#OWNER       : Unknown
#NPOINTS     : 4096
#NCOLUMNS    : 1
#XUNITS      : eV
#YUNITS      : counts
#DATATYPE    : Y
#XPERCHAN    : 9.99778
#OFFSET      : 1.69135
#BEAMKV      : 20
#SIGNALTYPE  : EDS
#ELEVANGLE   : 35
#AZIMANGLE   : 0
#LIVETIME    : 240.21
#REALTIME    : 260.005
#PROBECUR    : 1.21237
#TAUWIND     : 0
#TDEADLYR    : 0
#TACTLYR     : 0.045
#TALWIND     : 0.025
#CHOFFSET    : 0.0
#XLABEL      : Energy (eV)
#YLABEL      : Counts
#XPOSITION   : 10.46265
#YPOSITION   : 15.57501
#ZPOSITION   : 37.3512
#EDSDET      : SD
##SPECIMEN   : K1010 IIIA K1010[4][all]
##DET_HASH   : 12273538-fd48-a23f-0a19-f1e6fa85caef
##CALIB_HASH : 6abaa72c-aa41-8738-0be9-f592914732f3
##WORKING    : 15.0 mm
##DET_NAME   : EDAX All
##DET_MODE   : MediumLE
#SPECTRUM    :
23,
25,
14,
28,
110,
376,
1017,
2485,
5687,
7542,
5533,
4074,
3778,
4262,
6517,
20670,
74403,
140566,
102161,
27653,
4959,
3124,
3374,
3648,
3577,
3537,
3875,
4412,
5300,
5383,
5345,
5133,
5002,
5331,
6005,
6258,
6588,
7796,
10975,
14961,
15610,
12073,
8384,
6731,
6553,
6961,
8282,
16226,
45449,
87434,
88317,
48340,
20039,
11267,
10676,
21903,
70052,
165077,
225217,
178435,
103758,
60288,
35070,
19453,
10950,
7004,
5148,
4203,
3807,
3669,
3577,
3596,
3631,
3842,
3966,
4099,
4059,
3914,
3912,
3664,
3540,
3584,
3542,
3549,
3567,
3730,
3500,
3677,
3563,
3694,
3594,
3648,
3546,
3684,
3597,
3617,
3592,
3698,
3747,
3663,
3694,
3583,
3463,
3578,
3491,
3669,
3962,
4647,
6308,
10050,
13538,
13769,
10060,
6118,
4200,
3659,
3921,
4000,
4754,
6001,
10184,
19470,
32387,
39973,
34513,
20840,
10361,
5451,
3767,
3317,
3468,
4080,
5590,
7301,
7601,
6846,
5127,
3909,
3131,
3174,
3443,
4572,
5587,
6246,
5540,
4196,
3151,
2821,
2793,
2932,
2976,
3328,
3907,
5079,
6229,
6440,
5650,
4379,
3444,
2911,
2648,
2542,
2560,
2685,
3027,
3107,
3243,
3468,
3558,
3457,
3015,
2838,
2717,
2581,
2584,
2461,
2565,
2586,
2644,
2699,
2703,
2537,
2432,
2327,
2165,
2141,
2131,
2084,
2082,
2037,
2101,
2377,
2742,
3428,
3932,
4065,
3543,
2808,
2567,
2670,
3205,
3572,
3797,
3357,
2822,
2252,
1902,
1874,
1705,
1777,
1842,
1885,
2053,
2417,
2646,
2593,
2618,
2400,
2149,
1962,
1974,
2104,
2201,
2419,
2488,
2390,
2205,
2225,
2075,
1919,
1809,
1656,
1591,
1590,
1660,
1674,
1722,
1761,
1656,
1545,
1472,
1413,
1459,
1420,
1379,
1415,
1436,
1475,
1582,
1545,
1542,
1489,
1335,
1356,
1280,
1289,
1288,
1390,
1414,
1346,
1407,
1360,
1288,
1289,
1251,
1197,
1257,
1263,
1209,
1237,
1213,
1171,
1127,
1135,
1118,
1102,
1194,
1091,
1093,
1086,
1113,
1087,
1033,
1038,
1032,
1035,
1031,
982,
952,
1030,
992,
1027,
983,
951,
1022,
971,
968,
984,
970,
911,
932,
905,
948,
919,
927,
873,
835,
873,
892,
850,
869,
853,
880,
863,
872,
821,
881,
843,
876,
830,
859,
849,
784,
853,
890,
1000,
1166,
1387,
1642,
1642,
1533,
1299,
1150,
963,
810,
811,
786,
784,
730,
721,
691,
728,
723,
676,
721,
676,
683,
703,
674,
667,
641,
643,
668,
638,
649,
637,
640,
643,
675,
630,
665,
682,
640,
699,
690,
683,
697,
685,
666,
588,
592,
585,
539,
580,
564,
579,
542,
555,
547,
519,
529,
531,
517,
489,
489,
505,
466,
520,
466,
481,
503,
465,
479,
485,
466,
443,
472,
443,
461,
469,
423,
447,
437,
433,
438,
414,
393,
375,
373,
422,
406,
401,
394,
417,
368,
367,
366,
332,
391,
363,
384,
350,
356,
372,
359,
347,
366,
383,
340,
322,
349,
348,
352,
301,
345,
294,
314,
345,
327,
341,
324,
370,
357,
412,
387,
423,
440,
408,
374,
372,
331,
311,
286,
267,
279,
268,
254,
269,
284,
271,
258,
242,
254,
269,
290,
294,
338,
429,
496,
592,
686,
670,
667,
559,
497,
406,
321,
249,
238,
171,
198,
185,
216,
199,
187,
203,
178,
180,
195,
185,
187,
196,
176,
163,
188,
181,
157,
207,
190,
186,
182,
169,
159,
154,
145,
178,
147,
139,
125,
136,
137,
128,
122,
117,
131,
139,
134,
127,
146,
108,
117,
134,
139,
137,
163,
156,
174,
160,
180,
165,
136,
121,
138,
125,
103,
119,
87,
124,
95,
84,
101,
74,
64,
78,
77,
88,
82,
85,
83,
89,
80,
83,
72,
73,
73,
77,
71,
70,
79,
78,
74,
73,
70,
59,
67,
69,
78,
44,
61,
52,
67,
70,
53,
71,
50,
56,
58,
59,
53,
58,
56,
57,
63,
55,
42,
40,
47,
48,
49,
50,
33,
47,
43,
38,
43,
43,
30,
37,
26,
40,
41,
34,
26,
42,
33,
21,
27,
41,
23,
22,
27,
32,
25,
27,
22,
15,
26,
29,
24,
17,
23,
16,
22,
22,
24,
27,
15,
11,
22,
19,
15,
16,
10,
14,
10,
13,
11,
12,
11,
7,
6,
16,
12,
10,
11,
13,
13,
10,
9,
8,
10,
13,
9,
9,
5,
4,
4,
6,
0,
6,
5,
2,
2,
1,
2,
2,
0,
0,
0,
2,
0,
0,
0,
2,
0,
0,
0,
2,
0,
2,
2,
0,
0,
1,
0,
2,
0,
0,
0,
0,
0,
1,
0,
2,
0,
0,
0,
0,
0,
0,
1,
0,
0,
1,
1,
1,
0,
0,
1,
0,
0,
0,
1,
0,
0,
0,
0,
0,
0,
0,
0,
1,
0,
1,
1,
1,
0,
0,
1,
1,
0,
0,
0,
0,
0,
0,
0,
0,
0,
0,
0,
0,
0,
0,
0,
0,
0,
0,
0,
0,
0,
0,
0,
0,
0,
1,
0,
0,
0,
0,
0,
0,
0,
0,
0,
0,
0,
0,
0,
0,
0,
0,
0,
1,
0,
0,
0,
0,
0,
0,
0,
0,
0,
0,
0,
0,
0,
0,
0,
0,
0,
0,
0,
0,
0,
0,
1,
0,
0,
0,
0,
0,
0,
0,
0,
0,
0,
0,
0,
0,
0,
1,
0,
0,
0,
0,
0,
0,
0,
0,
0,
0,
0,
0,
0,
0,
0,
0,
0,
0,
0,
0,
1,
0,
0,
0,
0,
0,
0,
0,
0,
0,
0,
0,
0,
0,
0,
0,
0,
0,
0,
0,
1,
0,
0,
0,
0,
0,
1,
0,
0,
0,
0,
0,
0,
0,
0,
0,
0,
0,
0,
0,
0,
0,
0,
0,
0,
0,
0,
0,
0,
0,
0,
0,
0,
0,
0,
0,
1,
0,
0,
0,
0,
0,
0,
0,
0,
0,
0,
0,
1,
0,
0,
0,
0,
0,
0,
0,
0,
0,
0,
0,
0,
0,
0,
0,
0,
0,
0,
0,
1,
0,
0,
0,
0,
0,
0,
0,
0,
0,
0,
0,
0,
0,
0,
0,
0,
0,
0,
0,
0,
0,
0,
0,
0,
0,
0,
0,
0,
0,
0,
0,
0,
0,
0,
0,
0,
0,
0,
0,
0,
0,
0,
0,
0,
0,
0,
0,
0,
0,
0,
0,
0,
0,
0,
0,
0,
0,
0,
0,
0,
0,
0,
0,
0,
0,
0,
0,
0,
0,
0,
0,
0,
0,
0,
0,
0,
0,
0,
0,
0,
0,
0,
0,
0,
0,
0,
0,
0,
0,
0,
0,
0,
0,
0,
0,
0,
0,
0,
0,
0,
0,
0,
0,
0,
0,
0,
0,
0,
0,
0,
0,
0,
0,
0,
0,
0,
0,
0,
0,
0,
0,
0,
0,
0,
0,
0,
0,
0,
0,
0,
0,
0,
0,
0,
0,
0,
0,
0,
0,
0,
0,
0,
0,
0,
0,
0,
0,
0,
0,
0,
0,
0,
0,
0,
0,
0,
0,
0,
0,
0,
0,
0,
0,
0,
0,
0,
0,
0,
0,
0,
0,
0,
0,
0,
0,
0,
0,
0,
0,
0,
0,
0,
0,
0,
0,
0,
0,
0,
0,
0,
0,
0,
0,
0,
0,
0,
0,
0,
0,
0,
0,
0,
0,
0,
0,
0,
0,
0,
0,
0,
0,
0,
0,
0,
0,
0,
0,
0,
0,
0,
0,
0,
0,
0,
0,
0,
0,
0,
0,
0,
0,
0,
0,
0,
0,
0,
0,
0,
0,
0,
0,
0,
0,
0,
0,
0,
0,
0,
0,
0,
0,
0,
0,
0,
0,
0,
0,
0,
0,
0,
0,
0,
0,
0,
0,
0,
0,
0,
0,
0,
0,
0,
0,
0,
0,
0,
0,
0,
0,
0,
0,
0,
0,
0,
0,
0,
0,
0,
0,
0,
0,
0,
0,
0,
0,
0,
0,
0,
0,
0,
0,
0,
0,
0,
0,
0,
0,
0,
0,
0,
0,
0,
0,
0,
0,
0,
0,
0,
0,
0,
0,
0,
0,
0,
0,
0,
0,
0,
0,
0,
0,
0,
0,
0,
0,
0,
0,
0,
0,
0,
0,
0,
0,
0,
0,
0,
0,
0,
0,
0,
0,
0,
0,
0,
0,
0,
0,
0,
0,
0,
0,
0,
0,
0,
0,
0,
0,
0,
0,
0,
0,
0,
0,
0,
0,
0,
0,
0,
0,
0,
0,
0,
0,
0,
0,
0,
0,
0,
0,
0,
0,
0,
0,
0,
0,
0,
0,
0,
0,
0,
0,
0,
0,
0,
0,
0,
0,
0,
0,
0,
0,
0,
0,
0,
0,
0,
0,
0,
0,
0,
0,
0,
0,
0,
0,
0,
0,
0,
0,
0,
0,
0,
0,
0,
0,
0,
0,
0,
0,
0,
0,
0,
0,
0,
0,
#ENDOFDATA   :