File: N132962/Quantification/20 keV/Glass Mount IIIB/GM IIIB K497[1][4].msa
#FORMAT      : EMSA/MAS Spectral Data File
#VERSION     : 1.0
#TITLE       : GM IIIB K497[1][all]
#DATE        : 11-SEP-2025
#TIME        : 09:38
#OWNER       : Unknown
#NPOINTS     : 4096
#NCOLUMNS    : 1
#XUNITS      : eV
#YUNITS      : counts
#DATATYPE    : Y
#XPERCHAN    : 9.99778
#OFFSET      : 1.69135
#BEAMKV      : 20
#SIGNALTYPE  : EDS
#ELEVANGLE   : 35
#AZIMANGLE   : 0
#LIVETIME    : 240.151
#REALTIME    : 258.851
#PROBECUR    : 1.22303
#TAUWIND     : 0
#TDEADLYR    : 0
#TACTLYR     : 0.045
#TALWIND     : 0.025
#CHOFFSET    : 0.0
#XLABEL      : Energy (eV)
#YLABEL      : Counts
#XPOSITION   : 12.88194
#YPOSITION   : 10.19038
#ZPOSITION   : 34.00161
#EDSDET      : SD
##SPECIMEN   : GM IIIB K497[1][all]
##D2STDCMP   : K497,(B:0.05),(O:52.45),(Mg:5.21),(Al:5.78),(Si:0.13),(P:33.18),(Ti:0.21),(Fe:0.24),(Zr:0.4),(Ce:0.62),(Ta:0.8),(Pb:0.92)
##DET_HASH   : 12273538-fd48-a23f-0a19-f1e6fa85caef
##CALIB_HASH : 6abaa72c-aa41-8738-0be9-f592914732f3
##WORKING    : 15.0 mm
##DET_NAME   : EDAX All
##DET_MODE   : MediumLE
#SPECTRUM    :
22,
19,
10,
24,
131,
451,
1025,
2540,
7419,
11256,
6813,
3962,
4689,
6028,
9480,
32991,
124551,
235369,
170577,
44614,
5935,
2535,
2671,
2964,
2905,
2849,
2866,
3099,
3298,
3687,
3729,
3763,
3905,
4231,
5029,
5248,
4999,
4911,
5486,
8708,
23402,
54191,
64746,
37831,
13808,
6560,
6096,
10927,
29971,
58502,
58940,
31786,
12396,
6484,
5372,
5597,
7496,
9469,
10391,
9373,
7522,
6879,
8101,
13716,
30839,
84058,
188502,
261624,
204578,
92988,
33035,
18516,
13443,
7598,
4266,
3092,
3256,
3804,
4407,
4364,
4045,
3995,
3876,
3885,
3671,
3363,
3037,
2734,
2819,
2699,
2718,
2652,
2547,
2616,
2547,
2591,
2547,
2512,
2553,
2524,
2525,
2516,
2558,
2496,
2406,
2462,
2432,
2504,
2640,
2555,
2589,
2496,
2423,
2384,
2420,
2385,
2430,
2416,
2353,
2320,
2350,
2622,
2761,
3012,
2731,
2506,
2277,
2164,
2071,
2079,
2141,
2083,
2226,
2374,
2412,
2531,
2216,
2081,
2024,
1877,
1944,
1841,
1924,
1957,
1905,
1861,
1863,
1936,
2132,
2498,
2715,
2614,
2312,
2036,
1864,
1803,
1732,
1727,
1763,
1934,
2301,
2473,
2429,
2187,
1946,
1771,
1651,
1571,
1550,
1526,
1540,
1562,
1500,
1643,
1746,
1890,
1797,
1714,
1678,
1563,
1557,
1426,
1390,
1419,
1373,
1431,
1489,
1511,
1492,
1383,
1387,
1351,
1299,
1307,
1296,
1255,
1233,
1271,
1264,
1219,
1318,
1322,
1206,
1263,
1223,
1204,
1145,
1118,
1229,
1165,
1249,
1482,
1665,
1767,
1751,
1472,
1348,
1198,
1153,
1059,
1080,
1055,
1027,
997,
1015,
1032,
1001,
1001,
997,
974,
1039,
986,
967,
1007,
1046,
1058,
1012,
1012,
980,
933,
929,
930,
900,
899,
923,
920,
885,
854,
884,
889,
856,
868,
914,
857,
794,
838,
828,
748,
742,
788,
809,
795,
768,
731,
801,
809,
814,
799,
890,
931,
1022,
1011,
1071,
952,
848,
822,
753,
735,
733,
686,
654,
660,
691,
663,
623,
677,
664,
637,
654,
638,
643,
671,
628,
614,
623,
648,
655,
630,
581,
569,
554,
541,
604,
543,
575,
581,
604,
601,
596,
639,
666,
713,
653,
578,
566,
580,
570,
551,
595,
566,
543,
537,
551,
518,
499,
490,
488,
479,
479,
478,
431,
440,
490,
453,
461,
457,
438,
449,
437,
491,
446,
436,
424,
430,
439,
413,
400,
469,
467,
502,
509,
523,
514,
456,
418,
416,
404,
425,
390,
358,
348,
391,
389,
398,
342,
380,
360,
376,
338,
376,
331,
357,
294,
350,
330,
354,
304,
316,
303,
336,
301,
310,
296,
306,
312,
302,
314,
285,
293,
293,
266,
292,
298,
285,
301,
233,
290,
256,
245,
249,
270,
227,
262,
213,
240,
267,
234,
251,
254,
251,
255,
212,
242,
211,
240,
245,
206,
238,
250,
241,
242,
250,
229,
215,
212,
240,
189,
185,
203,
206,
201,
191,
192,
170,
186,
185,
190,
179,
180,
162,
169,
160,
180,
158,
176,
170,
186,
128,
141,
141,
160,
154,
167,
159,
163,
143,
149,
154,
164,
180,
149,
159,
125,
130,
143,
116,
136,
142,
105,
143,
113,
130,
97,
130,
126,
124,
110,
108,
111,
113,
120,
112,
101,
101,
89,
98,
110,
115,
99,
90,
85,
88,
119,
84,
98,
83,
95,
87,
100,
81,
82,
69,
60,
73,
62,
81,
89,
78,
82,
78,
64,
87,
88,
56,
62,
69,
52,
70,
53,
68,
60,
70,
68,
67,
69,
65,
65,
60,
51,
57,
48,
46,
54,
55,
38,
60,
48,
60,
43,
40,
42,
37,
46,
40,
50,
36,
47,
42,
34,
46,
52,
45,
41,
34,
35,
39,
26,
36,
41,
41,
33,
39,
36,
34,
30,
34,
30,
36,
27,
23,
24,
26,
34,
24,
23,
34,
19,
23,
25,
27,
16,
28,
30,
22,
24,
28,
20,
19,
26,
19,
17,
15,
16,
15,
16,
14,
11,
12,
15,
9,
10,
11,
15,
13,
17,
11,
13,
16,
7,
11,
10,
12,
9,
16,
7,
10,
5,
7,
7,
10,
14,
5,
2,
8,
4,
6,
3,
7,
4,
5,
1,
3,
1,
3,
6,
4,
3,
2,
1,
2,
5,
2,
4,
0,
2,
2,
4,
0,
2,
1,
1,
2,
0,
1,
0,
1,
1,
2,
2,
1,
1,
1,
0,
0,
0,
0,
1,
0,
0,
0,
0,
0,
0,
0,
0,
0,
0,
0,
0,
1,
0,
0,
0,
0,
0,
0,
1,
0,
0,
1,
0,
0,
0,
0,
0,
0,
0,
0,
0,
0,
0,
0,
0,
1,
0,
0,
0,
0,
0,
1,
0,
0,
0,
0,
0,
0,
0,
0,
0,
1,
0,
0,
1,
0,
0,
0,
0,
0,
0,
0,
0,
0,
0,
0,
1,
0,
0,
0,
0,
0,
0,
0,
0,
0,
0,
0,
0,
0,
0,
0,
0,
0,
0,
0,
0,
0,
0,
0,
0,
0,
0,
0,
0,
0,
0,
0,
0,
0,
0,
0,
0,
0,
0,
0,
0,
0,
0,
0,
0,
0,
0,
0,
0,
0,
0,
0,
0,
0,
0,
0,
0,
0,
0,
0,
0,
0,
0,
0,
0,
0,
0,
0,
0,
0,
0,
0,
0,
0,
0,
0,
0,
0,
0,
0,
1,
0,
0,
0,
0,
0,
0,
0,
0,
0,
0,
0,
0,
0,
0,
0,
0,
0,
0,
0,
0,
0,
0,
0,
0,
0,
0,
0,
0,
1,
0,
0,
0,
0,
0,
0,
0,
0,
0,
0,
0,
0,
0,
0,
0,
0,
0,
0,
0,
0,
0,
0,
0,
0,
0,
0,
1,
0,
0,
0,
0,
0,
0,
0,
0,
0,
0,
0,
0,
0,
0,
0,
0,
0,
0,
0,
0,
0,
0,
0,
0,
0,
0,
0,
0,
0,
0,
0,
0,
0,
0,
0,
0,
0,
0,
0,
0,
0,
0,
0,
0,
0,
0,
0,
0,
0,
0,
0,
0,
0,
0,
0,
1,
0,
0,
0,
0,
0,
0,
0,
0,
0,
0,
0,
0,
0,
0,
0,
0,
0,
0,
0,
0,
0,
0,
0,
0,
0,
0,
0,
0,
0,
0,
0,
0,
0,
0,
0,
0,
0,
0,
0,
0,
0,
0,
1,
0,
0,
0,
0,
0,
0,
0,
0,
0,
0,
0,
0,
0,
0,
0,
0,
0,
0,
0,
0,
0,
0,
0,
0,
0,
0,
0,
0,
0,
0,
0,
0,
0,
0,
0,
0,
0,
0,
0,
0,
0,
0,
0,
0,
0,
0,
0,
0,
0,
0,
0,
0,
0,
0,
0,
0,
0,
0,
0,
0,
0,
0,
0,
0,
0,
0,
0,
0,
0,
0,
0,
0,
0,
0,
0,
0,
0,
0,
0,
0,
0,
0,
0,
0,
0,
0,
0,
0,
0,
0,
0,
0,
0,
0,
0,
0,
0,
0,
0,
0,
0,
0,
0,
0,
0,
0,
0,
0,
0,
0,
0,
0,
0,
0,
0,
0,
0,
0,
0,
0,
0,
0,
0,
0,
0,
0,
0,
0,
0,
0,
0,
0,
0,
0,
0,
0,
0,
0,
0,
0,
0,
0,
0,
0,
0,
0,
0,
0,
0,
0,
0,
0,
0,
0,
0,
0,
0,
0,
0,
0,
0,
0,
0,
0,
0,
0,
0,
0,
0,
0,
0,
0,
0,
0,
0,
0,
0,
0,
0,
0,
0,
0,
0,
0,
0,
0,
0,
0,
0,
0,
0,
0,
0,
0,
0,
0,
0,
0,
0,
0,
0,
0,
0,
0,
0,
0,
0,
0,
0,
0,
0,
0,
0,
0,
0,
0,
0,
0,
0,
0,
0,
0,
0,
0,
0,
0,
0,
0,
0,
0,
0,
0,
0,
0,
0,
0,
0,
0,
0,
0,
0,
0,
0,
0,
0,
0,
0,
0,
0,
0,
0,
0,
0,
0,
0,
0,
0,
0,
0,
0,
0,
0,
0,
0,
0,
0,
0,
0,
0,
0,
0,
0,
0,
0,
0,
0,
0,
0,
0,
0,
0,
0,
0,
0,
0,
0,
0,
0,
0,
0,
0,
0,
0,
0,
0,
0,
0,
0,
0,
0,
0,
0,
0,
0,
0,
0,
0,
0,
0,
0,
0,
0,
0,
0,
0,
0,
0,
0,
0,
0,
0,
0,
0,
0,
0,
0,
0,
0,
0,
0,
0,
0,
0,
0,
0,
0,
0,
0,
0,
0,
0,
0,
0,
0,
0,
0,
0,
0,
0,
0,
0,
0,
0,
0,
0,
0,
0,
0,
0,
0,
0,
0,
0,
0,
0,
0,
0,
0,
0,
0,
0,
0,
0,
0,
0,
0,
0,
0,
0,
0,
0,
0,
0,
0,
0,
0,
0,
0,
0,
0,
0,
0,
0,
0,
0,
0,
#ENDOFDATA   :