File: N132962/Quantification/20 keV/Glass Mount IIIB/GM IIIB K240[2][4].msa
#FORMAT      : EMSA/MAS Spectral Data File
#VERSION     : 1.0
#TITLE       : GM IIIB K240[2][all]
#DATE        : 10-SEP-2025
#TIME        : 18:43
#OWNER       : Unknown
#NPOINTS     : 4096
#NCOLUMNS    : 1
#XUNITS      : eV
#YUNITS      : counts
#DATATYPE    : Y
#XPERCHAN    : 9.99778
#OFFSET      : 1.69135
#BEAMKV      : 20
#SIGNALTYPE  : EDS
#ELEVANGLE   : 35
#AZIMANGLE   : 0
#LIVETIME    : 240.111
#REALTIME    : 259.886
#PROBECUR    : 1.2221
#TAUWIND     : 0
#TDEADLYR    : 0
#TACTLYR     : 0.045
#TALWIND     : 0.025
#CHOFFSET    : 0.0
#XLABEL      : Energy (eV)
#YLABEL      : Counts
#XPOSITION   : 12.21166
#YPOSITION   : 0.91719
#ZPOSITION   : 34.00159
#EDSDET      : SD
##SPECIMEN   : GM IIIB K240[2][all]
##D2STDCMP   : K240,(O:34.0),(Mg:3.02),(Si:18.7),(Ti:6.0),(Zn:4.02),(Zr:7.4),(Ba:26.87)
##DET_HASH   : 12273538-fd48-a23f-0a19-f1e6fa85caef
##CALIB_HASH : 6abaa72c-aa41-8738-0be9-f592914732f3
##WORKING    : 15.0 mm
##DET_NAME   : EDAX All
##DET_MODE   : MediumLE
#SPECTRUM    :
18,
28,
13,
29,
161,
492,
1303,
3030,
6507,
8343,
6224,
5404,
7007,
8763,
11428,
25500,
82231,
151693,
111406,
32963,
9125,
5393,
4348,
4388,
5059,
6421,
7353,
6425,
5338,
5182,
5139,
5860,
9210,
15703,
18519,
13475,
7764,
5449,
5198,
6003,
10477,
19325,
22551,
14664,
7788,
5706,
5483,
5523,
6151,
6371,
6518,
6613,
6556,
6890,
8086,
15888,
51682,
126075,
171203,
121504,
51927,
20092,
10812,
7111,
6002,
6930,
11141,
19408,
25091,
22813,
18154,
14915,
11623,
8536,
6943,
6049,
5678,
5210,
4953,
4735,
4687,
4657,
4681,
4813,
4857,
4707,
4634,
4516,
4661,
4671,
4882,
4783,
4923,
4684,
4515,
4476,
4484,
4464,
4391,
4415,
4456,
4497,
4465,
4507,
4479,
4287,
4259,
4313,
4323,
4407,
4319,
4387,
4204,
4079,
4047,
4223,
4184,
4168,
4146,
4031,
3997,
3888,
4030,
4025,
3998,
4007,
3862,
3737,
4013,
4124,
4659,
5068,
5430,
5041,
4510,
4112,
3732,
3707,
3684,
3606,
3687,
3735,
3899,
4335,
5002,
7621,
14904,
30161,
50075,
63416,
61458,
45370,
25785,
12304,
6159,
4059,
3845,
4905,
7825,
13005,
20254,
24225,
23157,
18965,
14818,
11183,
8267,
5957,
4771,
5082,
6777,
8852,
9687,
8692,
6451,
4462,
3221,
2887,
2740,
2689,
2895,
3069,
3625,
4558,
5229,
5062,
4355,
3604,
2834,
2601,
2783,
3073,
3348,
3520,
3469,
3099,
2738,
2576,
2530,
2495,
2457,
2341,
2209,
2166,
2146,
2174,
2300,
2247,
2159,
2188,
2304,
2256,
2274,
2258,
2209,
2239,
2196,
2084,
2024,
2063,
2004,
2058,
2003,
2001,
1913,
2005,
1893,
1899,
1933,
1936,
1941,
1887,
1846,
1926,
1874,
1842,
1869,
1774,
1793,
1789,
1799,
1781,
1787,
1799,
1701,
1757,
1772,
1820,
1856,
1774,
1761,
1685,
1722,
1638,
1661,
1643,
1583,
1572,
1625,
1673,
1611,
1675,
1628,
1610,
1545,
1618,
1528,
1531,
1466,
1514,
1498,
1551,
1483,
1469,
1475,
1419,
1525,
1464,
1448,
1469,
1419,
1366,
1633,
1809,
2491,
3358,
4340,
5155,
5196,
4366,
3428,
2474,
1854,
1545,
1334,
1348,
1244,
1274,
1286,
1309,
1279,
1281,
1244,
1256,
1236,
1201,
1211,
1233,
1174,
1156,
1195,
1221,
1203,
1249,
1184,
1249,
1375,
1506,
1614,
1621,
1547,
1455,
1278,
1229,
1104,
1052,
1028,
1024,
1044,
1048,
1070,
1042,
1028,
979,
937,
992,
1016,
966,
1004,
983,
943,
1001,
961,
929,
922,
918,
965,
960,
910,
888,
871,
903,
864,
872,
866,
966,
840,
815,
882,
858,
853,
818,
833,
774,
795,
766,
778,
822,
772,
757,
785,
769,
720,
789,
785,
756,
752,
713,
704,
770,
695,
712,
679,
673,
699,
650,
741,
639,
663,
670,
646,
673,
649,
680,
607,
654,
645,
630,
585,
636,
577,
609,
596,
596,
551,
559,
621,
552,
556,
540,
517,
529,
545,
549,
536,
533,
497,
505,
551,
521,
495,
477,
493,
486,
470,
447,
493,
506,
477,
478,
477,
438,
535,
444,
409,
450,
420,
417,
423,
423,
435,
437,
424,
471,
414,
375,
389,
398,
364,
396,
399,
385,
389,
379,
354,
381,
357,
332,
348,
343,
359,
326,
355,
351,
316,
351,
322,
361,
342,
325,
335,
319,
301,
276,
324,
299,
317,
279,
284,
264,
257,
243,
266,
266,
277,
267,
260,
266,
247,
255,
261,
255,
254,
238,
274,
246,
229,
241,
247,
236,
231,
240,
201,
193,
228,
223,
199,
214,
221,
197,
194,
188,
209,
202,
179,
194,
185,
203,
187,
211,
203,
227,
226,
236,
228,
238,
222,
208,
208,
177,
166,
172,
176,
150,
139,
177,
160,
141,
156,
125,
125,
112,
127,
119,
119,
125,
127,
127,
128,
122,
123,
93,
115,
112,
122,
118,
123,
93,
106,
113,
95,
99,
87,
90,
102,
87,
90,
95,
84,
82,
84,
81,
70,
78,
80,
80,
92,
62,
83,
77,
85,
70,
81,
61,
74,
61,
73,
83,
78,
73,
80,
78,
48,
62,
70,
56,
46,
68,
53,
63,
53,
39,
41,
40,
47,
48,
42,
35,
41,
37,
27,
56,
39,
35,
39,
31,
44,
32,
27,
32,
31,
33,
32,
37,
31,
21,
28,
30,
25,
28,
22,
20,
22,
26,
19,
14,
26,
21,
22,
19,
17,
18,
22,
16,
17,
10,
11,
16,
6,
11,
12,
17,
8,
7,
7,
6,
5,
9,
9,
8,
5,
3,
4,
2,
3,
1,
2,
2,
1,
3,
4,
1,
0,
0,
0,
2,
2,
0,
0,
0,
3,
2,
0,
1,
2,
5,
1,
2,
1,
1,
1,
1,
0,
1,
0,
2,
4,
1,
1,
2,
1,
0,
0,
1,
1,
1,
1,
0,
0,
0,
0,
0,
0,
0,
1,
1,
1,
1,
1,
0,
2,
0,
0,
0,
0,
0,
2,
0,
0,
0,
0,
0,
0,
1,
0,
0,
0,
1,
0,
1,
1,
0,
0,
1,
0,
0,
0,
0,
0,
0,
0,
0,
3,
0,
0,
1,
0,
1,
0,
0,
1,
1,
0,
2,
0,
0,
0,
0,
0,
2,
1,
0,
0,
0,
0,
0,
1,
1,
0,
0,
0,
0,
1,
0,
1,
1,
0,
1,
0,
0,
0,
0,
0,
0,
0,
0,
0,
0,
0,
1,
0,
0,
0,
0,
1,
0,
0,
0,
0,
0,
1,
0,
0,
0,
1,
0,
0,
0,
0,
2,
0,
0,
0,
0,
1,
1,
0,
0,
0,
0,
0,
0,
0,
0,
0,
1,
0,
0,
0,
0,
0,
0,
0,
0,
0,
1,
0,
0,
0,
1,
0,
0,
0,
0,
0,
0,
0,
1,
0,
0,
0,
0,
0,
0,
0,
0,
0,
1,
0,
0,
0,
0,
0,
0,
0,
0,
0,
1,
0,
0,
0,
0,
0,
0,
0,
0,
0,
0,
0,
0,
1,
0,
0,
1,
0,
0,
0,
0,
1,
0,
0,
0,
0,
0,
0,
0,
0,
0,
0,
0,
0,
0,
0,
0,
0,
0,
0,
0,
0,
0,
0,
0,
0,
0,
1,
0,
1,
0,
0,
0,
0,
0,
0,
0,
0,
0,
0,
0,
0,
0,
0,
0,
0,
0,
0,
0,
0,
0,
0,
0,
0,
0,
0,
0,
0,
0,
0,
0,
0,
0,
1,
0,
0,
0,
0,
0,
0,
0,
1,
0,
0,
0,
0,
0,
0,
0,
0,
0,
0,
0,
0,
0,
0,
0,
0,
0,
0,
0,
0,
0,
0,
0,
0,
0,
0,
0,
0,
0,
0,
0,
0,
0,
0,
0,
0,
0,
0,
0,
0,
0,
0,
0,
0,
0,
0,
0,
0,
0,
0,
0,
0,
0,
1,
0,
0,
0,
0,
0,
0,
0,
0,
0,
0,
0,
0,
0,
0,
0,
0,
0,
0,
0,
0,
0,
0,
0,
0,
0,
0,
0,
0,
0,
0,
0,
0,
0,
0,
0,
0,
0,
0,
0,
0,
0,
0,
0,
0,
0,
0,
0,
0,
0,
0,
0,
0,
0,
0,
0,
0,
0,
0,
0,
0,
0,
0,
0,
0,
0,
0,
0,
0,
0,
0,
0,
0,
0,
0,
0,
1,
0,
1,
0,
0,
0,
0,
0,
0,
0,
0,
0,
0,
0,
0,
0,
0,
0,
0,
0,
0,
0,
0,
0,
0,
0,
0,
0,
0,
0,
0,
0,
0,
0,
0,
0,
0,
0,
0,
0,
0,
0,
0,
0,
0,
0,
0,
0,
0,
0,
0,
0,
0,
0,
0,
0,
0,
0,
0,
0,
0,
0,
0,
0,
0,
0,
0,
0,
0,
0,
0,
0,
0,
0,
0,
0,
0,
0,
0,
0,
0,
0,
0,
0,
0,
0,
0,
0,
0,
0,
0,
0,
0,
0,
0,
0,
0,
0,
0,
0,
0,
0,
0,
0,
0,
0,
0,
0,
0,
0,
0,
0,
0,
0,
0,
0,
0,
0,
0,
0,
0,
0,
0,
0,
0,
0,
0,
0,
0,
0,
0,
0,
0,
0,
0,
0,
0,
0,
0,
0,
0,
0,
0,
0,
0,
0,
0,
0,
0,
0,
0,
0,
0,
0,
0,
0,
0,
0,
0,
0,
0,
0,
0,
0,
0,
0,
0,
0,
0,
0,
0,
0,
0,
0,
0,
0,
0,
0,
0,
0,
0,
0,
0,
0,
0,
0,
0,
0,
0,
0,
0,
0,
0,
0,
0,
0,
0,
0,
0,
0,
0,
0,
0,
0,
0,
0,
0,
0,
0,
0,
0,
0,
0,
0,
0,
0,
0,
0,
0,
0,
0,
0,
0,
0,
0,
0,
0,
0,
0,
0,
0,
0,
0,
0,
0,
0,
0,
0,
0,
0,
0,
0,
0,
0,
0,
0,
0,
0,
0,
0,
0,
0,
0,
0,
0,
0,
0,
0,
0,
0,
0,
0,
0,
0,
0,
0,
0,
0,
#ENDOFDATA   :