File: N132962/Quantification/20 keV/Glass Mount IIIB/GM IIIB K873[4][4].msa
#FORMAT      : EMSA/MAS Spectral Data File
#VERSION     : 1.0
#TITLE       : GM IIIB K873[4][all]
#DATE        : 10-SEP-2025
#TIME        : 15:32
#OWNER       : Unknown
#NPOINTS     : 4096
#NCOLUMNS    : 1
#XUNITS      : eV
#YUNITS      : counts
#DATATYPE    : Y
#XPERCHAN    : 9.99778
#OFFSET      : 1.69135
#BEAMKV      : 20
#SIGNALTYPE  : EDS
#ELEVANGLE   : 35
#AZIMANGLE   : 0
#LIVETIME    : 240.1939
#REALTIME    : 262.511
#PROBECUR    : 1.22616
#TAUWIND     : 0
#TDEADLYR    : 0
#TACTLYR     : 0.045
#TALWIND     : 0.025
#CHOFFSET    : 0.0
#XLABEL      : Energy (eV)
#YLABEL      : Counts
#XPOSITION   : -2.51374
#YPOSITION   : 9.59916
#ZPOSITION   : 34.06144
#EDSDET      : SD
##SPECIMEN   : GM IIIB K873[4][all]
##D2STDCMP   : K873,(O:25.46),(Al:0.26),(Si:11.45),(Mn:0.32),(Ge:17.0),(Ba:21.94),(Ce:0.41),(Ta:0.41),(Pb:22.74)
##DET_HASH   : 12273538-fd48-a23f-0a19-f1e6fa85caef
##CALIB_HASH : 6abaa72c-aa41-8738-0be9-f592914732f3
##WORKING    : 15.0 mm
##DET_NAME   : EDAX All
##DET_MODE   : MediumLE
#SPECTRUM    :
23,
26,
7,
33,
142,
687,
1644,
3823,
7913,
9909,
7163,
5654,
5971,
6651,
8631,
21057,
66304,
121946,
89666,
29139,
11445,
7949,
6845,
6906,
7042,
7942,
8533,
7779,
6636,
6330,
6130,
6750,
7720,
8890,
10353,
10847,
9798,
12214,
27563,
58320,
71004,
48413,
21569,
10097,
7192,
6494,
6241,
6486,
7501,
8525,
8682,
7989,
7201,
7285,
7932,
12791,
33925,
78426,
104087,
75824,
36069,
18029,
11718,
8051,
6709,
6185,
6140,
6166,
6155,
6137,
6455,
6850,
7074,
7597,
8304,
11121,
20242,
38856,
54922,
53346,
43214,
39689,
34804,
22099,
11451,
7366,
6983,
7681,
8539,
8401,
7255,
6201,
5838,
5525,
5412,
5464,
5568,
5677,
5773,
5701,
5762,
5989,
6316,
6348,
6117,
5830,
5567,
5405,
5185,
5208,
5215,
5128,
5194,
5191,
5143,
5330,
5324,
5174,
5321,
5049,
5096,
5034,
5058,
5031,
5157,
4880,
4999,
4852,
4813,
4996,
5479,
5996,
6030,
5828,
5323,
5145,
4928,
4754,
4668,
4785,
4769,
4840,
5062,
5202,
5897,
7817,
13339,
23644,
35705,
40069,
33223,
20731,
10969,
6575,
4993,
4723,
4765,
5683,
8303,
12995,
18732,
21844,
20302,
15954,
11678,
8747,
6651,
5695,
5178,
5789,
7510,
9115,
9988,
9056,
7062,
5580,
4614,
4158,
3938,
3912,
4003,
4192,
4750,
5423,
5917,
5844,
5292,
4453,
4025,
3812,
3733,
3998,
4249,
4444,
4678,
4682,
4609,
4420,
3977,
3732,
3603,
3339,
3353,
3127,
3141,
3115,
3165,
3041,
3019,
3153,
3183,
3229,
3352,
3347,
3360,
3322,
3207,
3160,
3079,
3041,
3010,
2930,
2785,
2912,
2927,
2831,
2872,
2801,
2768,
2864,
2726,
2803,
2859,
2688,
2747,
2700,
2767,
2734,
2609,
2646,
2674,
2597,
2549,
2527,
2519,
2510,
2676,
2645,
2686,
2741,
2731,
2585,
2509,
2385,
2468,
2386,
2407,
2370,
2432,
2379,
2341,
2392,
2253,
2353,
2238,
2309,
2375,
2315,
2254,
2386,
2348,
2449,
2385,
2283,
2266,
2257,
2185,
2248,
2216,
2092,
2059,
2020,
2112,
2116,
2093,
1970,
2033,
2085,
2013,
2042,
2023,
1985,
1953,
1938,
1922,
1901,
1909,
1926,
1829,
1931,
1932,
1839,
1925,
1951,
1956,
2039,
1987,
2048,
2030,
1906,
1874,
1843,
1832,
1691,
1717,
1741,
1752,
1727,
1720,
1752,
1797,
1799,
1898,
2194,
2896,
4085,
6314,
9053,
11514,
12495,
11413,
8977,
6355,
4033,
2737,
1943,
1670,
1669,
1608,
1493,
1498,
1547,
1448,
1521,
1628,
1726,
1996,
2469,
3030,
3949,
4788,
5068,
5005,
4327,
3530,
2715,
1968,
1600,
1533,
1455,
1496,
1549,
1737,
2094,
2430,
2689,
2677,
2608,
2207,
1826,
1606,
1357,
1211,
1231,
1115,
1185,
1147,
1111,
1121,
1097,
1131,
1108,
1110,
1097,
1107,
1058,
1018,
1022,
1093,
1058,
986,
1020,
978,
991,
965,
950,
1038,
969,
943,
1033,
965,
979,
920,
979,
995,
1007,
947,
968,
932,
936,
977,
936,
945,
877,
927,
1092,
1136,
1441,
1720,
2053,
2017,
2063,
1796,
1604,
1255,
1095,
959,
858,
835,
808,
826,
832,
845,
763,
749,
765,
720,
731,
687,
635,
652,
663,
661,
646,
586,
635,
622,
668,
641,
629,
618,
609,
574,
607,
567,
563,
563,
526,
537,
567,
518,
560,
506,
538,
527,
554,
533,
548,
494,
495,
482,
560,
497,
500,
478,
462,
443,
497,
474,
414,
516,
474,
439,
473,
442,
471,
456,
419,
469,
457,
519,
527,
540,
453,
487,
434,
435,
416,
385,
423,
386,
407,
359,
372,
410,
399,
348,
371,
347,
357,
351,
328,
316,
312,
311,
298,
318,
293,
313,
290,
276,
296,
315,
299,
285,
287,
261,
273,
270,
277,
285,
235,
258,
279,
260,
228,
233,
215,
215,
247,
229,
201,
224,
218,
245,
213,
189,
216,
196,
214,
202,
182,
211,
207,
209,
176,
177,
187,
179,
189,
179,
187,
175,
196,
161,
147,
174,
148,
154,
160,
139,
146,
140,
151,
136,
126,
137,
156,
139,
131,
128,
109,
118,
135,
131,
112,
126,
104,
122,
111,
101,
101,
100,
119,
92,
128,
89,
98,
102,
99,
88,
84,
99,
94,
83,
78,
83,
94,
89,
85,
82,
69,
52,
80,
70,
78,
66,
73,
76,
69,
56,
55,
60,
53,
55,
67,
64,
49,
54,
42,
42,
49,
48,
43,
43,
41,
32,
30,
23,
31,
33,
42,
34,
34,
30,
23,
16,
28,
14,
19,
15,
20,
18,
9,
19,
18,
9,
14,
18,
12,
16,
12,
8,
11,
3,
3,
6,
6,
6,
2,
2,
1,
1,
1,
4,
3,
8,
3,
5,
1,
2,
3,
1,
4,
0,
3,
3,
0,
1,
4,
3,
2,
3,
1,
0,
2,
6,
2,
3,
2,
2,
4,
1,
2,
5,
2,
0,
1,
3,
0,
2,
0,
0,
1,
3,
1,
1,
1,
1,
0,
1,
1,
1,
2,
1,
0,
1,
1,
0,
2,
0,
1,
0,
1,
1,
2,
1,
2,
0,
0,
0,
1,
3,
0,
1,
0,
0,
1,
2,
1,
3,
2,
0,
2,
4,
0,
4,
1,
2,
1,
1,
0,
0,
2,
1,
1,
1,
1,
0,
3,
3,
2,
1,
0,
0,
1,
1,
0,
0,
1,
1,
0,
1,
1,
1,
2,
2,
1,
0,
3,
0,
1,
1,
1,
1,
0,
2,
1,
2,
0,
0,
0,
1,
0,
1,
0,
0,
1,
0,
0,
2,
1,
1,
1,
0,
1,
0,
2,
2,
0,
0,
1,
0,
1,
0,
0,
0,
0,
2,
0,
0,
0,
0,
1,
2,
1,
0,
0,
1,
0,
0,
2,
0,
1,
0,
0,
0,
0,
0,
1,
0,
0,
0,
0,
0,
0,
1,
0,
0,
0,
2,
0,
1,
0,
1,
1,
0,
0,
1,
0,
0,
1,
2,
0,
1,
0,
0,
1,
0,
1,
0,
2,
0,
0,
0,
0,
0,
0,
0,
1,
0,
0,
1,
0,
0,
1,
0,
3,
0,
0,
0,
0,
0,
0,
0,
0,
0,
0,
0,
1,
0,
0,
0,
0,
0,
0,
1,
1,
0,
0,
1,
0,
1,
0,
1,
0,
0,
0,
0,
0,
0,
0,
0,
0,
0,
0,
0,
0,
0,
0,
0,
0,
0,
0,
0,
0,
0,
0,
0,
1,
0,
1,
1,
1,
0,
0,
0,
0,
1,
0,
0,
0,
0,
0,
0,
0,
0,
0,
0,
0,
0,
0,
0,
0,
0,
0,
0,
0,
0,
0,
0,
0,
0,
0,
0,
0,
0,
0,
0,
0,
0,
0,
0,
0,
0,
0,
0,
0,
0,
0,
0,
0,
0,
0,
0,
0,
0,
0,
0,
0,
0,
0,
0,
0,
0,
0,
0,
0,
0,
0,
0,
0,
0,
0,
0,
0,
0,
0,
0,
0,
0,
0,
0,
0,
0,
0,
0,
0,
0,
0,
0,
0,
0,
0,
0,
0,
0,
0,
0,
0,
0,
0,
0,
0,
0,
0,
0,
0,
0,
0,
0,
0,
0,
0,
0,
0,
0,
0,
0,
0,
0,
0,
0,
0,
0,
0,
0,
0,
0,
0,
0,
0,
0,
0,
0,
0,
0,
0,
0,
0,
0,
0,
0,
0,
0,
0,
0,
0,
0,
0,
0,
0,
0,
0,
0,
0,
0,
0,
0,
0,
0,
0,
0,
0,
0,
0,
0,
0,
0,
0,
0,
0,
0,
0,
0,
0,
0,
0,
0,
0,
0,
0,
0,
0,
0,
0,
0,
0,
0,
0,
0,
0,
0,
0,
0,
0,
0,
0,
0,
0,
0,
0,
0,
0,
0,
0,
0,
0,
0,
0,
0,
0,
0,
0,
0,
0,
0,
0,
0,
0,
0,
0,
0,
0,
0,
0,
0,
0,
0,
0,
0,
0,
0,
0,
0,
0,
0,
0,
0,
0,
0,
0,
0,
0,
0,
0,
0,
0,
0,
0,
0,
0,
0,
0,
0,
0,
0,
0,
0,
0,
0,
0,
0,
0,
0,
0,
0,
0,
0,
0,
0,
0,
0,
0,
0,
0,
0,
0,
0,
0,
0,
0,
0,
0,
0,
0,
0,
0,
0,
0,
0,
0,
0,
0,
0,
0,
0,
0,
0,
0,
0,
0,
0,
0,
0,
0,
0,
0,
0,
0,
0,
0,
0,
0,
0,
0,
0,
0,
0,
0,
0,
0,
0,
0,
0,
0,
0,
0,
0,
0,
0,
0,
0,
0,
0,
0,
0,
0,
0,
0,
0,
0,
0,
0,
0,
0,
0,
0,
0,
0,
0,
0,
0,
0,
0,
0,
0,
0,
0,
0,
0,
0,
0,
0,
0,
0,
0,
0,
0,
0,
0,
0,
0,
0,
0,
0,
0,
0,
0,
0,
0,
0,
0,
0,
0,
0,
0,
0,
0,
0,
0,
0,
0,
0,
0,
0,
0,
0,
0,
0,
0,
0,
0,
0,
0,
0,
0,
0,
0,
0,
0,
0,
0,
0,
0,
0,
#ENDOFDATA   :