File: N132962/Quantification/20 keV/Glass Mount IIIB/GM IIIB K1234[2][4].msa
#FORMAT      : EMSA/MAS Spectral Data File
#VERSION     : 1.0
#TITLE       : GM IIIB K1234[2][all]
#DATE        : 10-SEP-2025
#TIME        : 17:56
#OWNER       : Unknown
#NPOINTS     : 4096
#NCOLUMNS    : 1
#XUNITS      : eV
#YUNITS      : counts
#DATATYPE    : Y
#XPERCHAN    : 9.99778
#OFFSET      : 1.69135
#BEAMKV      : 20
#SIGNALTYPE  : EDS
#ELEVANGLE   : 35
#AZIMANGLE   : 0
#LIVETIME    : 240.231
#REALTIME    : 259.76
#PROBECUR    : 1.22375
#TAUWIND     : 0
#TDEADLYR    : 0
#TACTLYR     : 0.045
#TALWIND     : 0.025
#CHOFFSET    : 0.0
#XLABEL      : Energy (eV)
#YLABEL      : Counts
#XPOSITION   : 0.654
#YPOSITION   : 15.81859
#ZPOSITION   : 34.06144
#EDSDET      : SD
##SPECIMEN   : GM IIIB K1234[2][all]
##D2STDCMP   : K1234,(O:39.85),(Al:9.15),(Si:21.56),(Ca:12.36),(Ba:15.49),(W:1.59)
##DET_HASH   : 12273538-fd48-a23f-0a19-f1e6fa85caef
##CALIB_HASH : 6abaa72c-aa41-8738-0be9-f592914732f3
##WORKING    : 15.0 mm
##DET_NAME   : EDAX All
##DET_MODE   : MediumLE
#SPECTRUM    :
26,
16,
11,
25,
91,
359,
1047,
2916,
7101,
10296,
7936,
5410,
4616,
4740,
6840,
21771,
79780,
150197,
109256,
30359,
6410,
3913,
3853,
3836,
3813,
4503,
5105,
4803,
3992,
3779,
4014,
4245,
4881,
5306,
5726,
5581,
5126,
4752,
4851,
4842,
5005,
5028,
5420,
5606,
5819,
6231,
7854,
14705,
41200,
80815,
81990,
44019,
16852,
8675,
7882,
16691,
58995,
149740,
204481,
146865,
63231,
24881,
12833,
7099,
5101,
4741,
4544,
4343,
4212,
3966,
3874,
3906,
3822,
4070,
4388,
4631,
4721,
4524,
4333,
3991,
3979,
3913,
3874,
3829,
3787,
3887,
3953,
3904,
3964,
4028,
4050,
3928,
3862,
3801,
3749,
3919,
3771,
3815,
3774,
3998,
3898,
3767,
3842,
3741,
3809,
3852,
3674,
3820,
3784,
3628,
3689,
3601,
3550,
3588,
3587,
3672,
3951,
4159,
4491,
6492,
13428,
31312,
56974,
71920,
61103,
34394,
14652,
6045,
3785,
3672,
4300,
5783,
8613,
11362,
11937,
9465,
6412,
4066,
3140,
2853,
2813,
2876,
2959,
3232,
3501,
4669,
8267,
14954,
22788,
25706,
21231,
13173,
6800,
3764,
3036,
2603,
2740,
3272,
4786,
7853,
11659,
13454,
12645,
9691,
7012,
5206,
4066,
3383,
3169,
3392,
4487,
5590,
6145,
5375,
4270,
3121,
2572,
2237,
2220,
2293,
2257,
2435,
2740,
3292,
3566,
3501,
3081,
2613,
2170,
2023,
2065,
2304,
2435,
2581,
2543,
2314,
2072,
2000,
1996,
1894,
1847,
1775,
1773,
1776,
1688,
1738,
1764,
1756,
1710,
1720,
1677,
1833,
1881,
1801,
1683,
1794,
1643,
1580,
1666,
1597,
1572,
1619,
1513,
1509,
1548,
1496,
1450,
1481,
1463,
1557,
1445,
1559,
1500,
1501,
1447,
1445,
1425,
1428,
1349,
1409,
1396,
1412,
1398,
1380,
1420,
1400,
1412,
1423,
1445,
1421,
1388,
1324,
1330,
1251,
1282,
1266,
1254,
1243,
1279,
1268,
1200,
1201,
1149,
1219,
1145,
1221,
1123,
1206,
1134,
1166,
1186,
1158,
1131,
1227,
1158,
1273,
1280,
1427,
1594,
1705,
1722,
1566,
1451,
1272,
1224,
1096,
1055,
1095,
1087,
1086,
1037,
1001,
1019,
1054,
1048,
998,
967,
955,
946,
931,
907,
959,
967,
922,
909,
911,
921,
879,
920,
909,
847,
908,
837,
872,
823,
837,
923,
913,
927,
946,
940,
1028,
1072,
1058,
983,
919,
900,
831,
886,
836,
855,
833,
886,
838,
849,
734,
794,
738,
739,
727,
690,
774,
696,
691,
702,
647,
769,
677,
683,
665,
609,
711,
653,
628,
652,
654,
639,
625,
617,
607,
628,
675,
621,
615,
608,
612,
610,
592,
539,
611,
577,
569,
594,
596,
533,
622,
589,
598,
557,
527,
534,
533,
509,
518,
523,
529,
501,
508,
492,
489,
472,
436,
467,
467,
490,
455,
442,
485,
449,
451,
484,
445,
454,
430,
434,
424,
460,
443,
374,
432,
393,
379,
374,
380,
420,
382,
361,
377,
365,
383,
380,
384,
360,
358,
353,
366,
395,
348,
310,
355,
360,
346,
347,
339,
300,
326,
328,
309,
318,
297,
316,
303,
279,
295,
285,
305,
295,
274,
278,
306,
297,
302,
290,
267,
272,
278,
247,
267,
243,
240,
256,
237,
228,
219,
239,
257,
227,
278,
245,
226,
231,
211,
238,
205,
242,
205,
215,
211,
205,
208,
200,
199,
188,
217,
219,
211,
182,
186,
168,
192,
171,
181,
175,
174,
200,
173,
180,
156,
179,
172,
179,
147,
155,
165,
158,
150,
170,
162,
127,
141,
152,
167,
136,
145,
129,
138,
144,
135,
116,
116,
122,
131,
123,
123,
117,
143,
122,
119,
123,
102,
132,
109,
109,
98,
106,
136,
97,
94,
104,
110,
101,
89,
83,
88,
95,
92,
97,
94,
82,
88,
83,
106,
78,
81,
63,
85,
90,
85,
89,
81,
75,
60,
69,
76,
62,
62,
59,
69,
66,
65,
59,
60,
51,
58,
61,
60,
49,
50,
60,
49,
49,
51,
43,
50,
51,
54,
46,
46,
51,
44,
46,
44,
48,
35,
59,
41,
35,
27,
46,
40,
29,
28,
39,
36,
34,
37,
42,
33,
44,
36,
22,
22,
38,
31,
27,
27,
23,
30,
24,
26,
24,
22,
28,
27,
20,
18,
19,
23,
20,
21,
18,
15,
16,
18,
22,
15,
9,
14,
16,
20,
10,
6,
11,
10,
8,
7,
8,
11,
13,
8,
13,
9,
4,
5,
6,
10,
6,
4,
5,
3,
3,
4,
1,
0,
1,
2,
1,
0,
0,
0,
0,
1,
1,
0,
0,
1,
2,
0,
1,
0,
0,
0,
1,
0,
0,
3,
0,
0,
0,
0,
0,
1,
0,
0,
0,
1,
0,
1,
0,
0,
0,
1,
0,
0,
1,
0,
2,
1,
2,
1,
1,
0,
0,
1,
0,
1,
0,
0,
0,
0,
0,
1,
0,
0,
1,
0,
0,
0,
1,
0,
0,
1,
0,
0,
0,
0,
0,
0,
0,
0,
0,
0,
1,
0,
0,
1,
0,
0,
0,
0,
0,
0,
0,
0,
0,
0,
0,
0,
0,
1,
0,
1,
0,
0,
0,
0,
0,
0,
0,
0,
0,
0,
1,
0,
0,
0,
0,
1,
0,
0,
0,
0,
0,
1,
0,
0,
0,
0,
0,
1,
0,
0,
0,
0,
1,
0,
0,
0,
0,
0,
0,
1,
0,
0,
1,
0,
0,
0,
0,
0,
0,
0,
0,
0,
0,
0,
0,
0,
0,
0,
0,
1,
0,
0,
0,
0,
0,
0,
0,
1,
0,
0,
0,
0,
0,
0,
0,
0,
0,
0,
0,
0,
0,
0,
0,
1,
0,
0,
0,
0,
0,
0,
0,
0,
0,
0,
0,
0,
0,
0,
0,
0,
0,
0,
0,
0,
0,
0,
0,
0,
0,
0,
0,
0,
0,
0,
0,
0,
0,
0,
0,
0,
0,
0,
0,
0,
0,
0,
0,
0,
0,
0,
0,
0,
0,
0,
0,
0,
0,
0,
0,
0,
0,
0,
0,
0,
0,
0,
1,
0,
0,
0,
0,
0,
0,
0,
0,
0,
0,
0,
0,
0,
0,
0,
0,
0,
0,
0,
1,
0,
0,
0,
0,
0,
0,
0,
0,
0,
0,
0,
0,
0,
0,
0,
0,
0,
0,
0,
0,
0,
0,
0,
0,
0,
0,
0,
0,
0,
0,
0,
0,
0,
0,
0,
0,
0,
0,
0,
0,
0,
0,
0,
0,
0,
0,
0,
0,
0,
0,
0,
0,
0,
0,
0,
0,
0,
0,
0,
0,
0,
0,
0,
0,
0,
0,
0,
0,
0,
0,
0,
0,
0,
0,
0,
0,
0,
0,
0,
0,
0,
0,
0,
0,
0,
0,
0,
0,
0,
0,
0,
0,
0,
0,
0,
0,
0,
0,
0,
0,
0,
0,
0,
0,
0,
0,
0,
0,
0,
0,
0,
0,
0,
0,
0,
0,
0,
0,
0,
0,
0,
0,
0,
0,
0,
0,
0,
0,
0,
0,
0,
0,
0,
0,
0,
0,
0,
0,
0,
0,
0,
0,
0,
0,
0,
0,
0,
0,
0,
0,
0,
0,
0,
0,
0,
0,
0,
0,
0,
0,
0,
0,
0,
0,
0,
0,
0,
0,
0,
0,
0,
0,
0,
0,
0,
0,
0,
0,
0,
0,
0,
0,
0,
0,
0,
0,
0,
0,
0,
0,
0,
0,
0,
0,
0,
0,
0,
0,
0,
0,
0,
0,
0,
0,
0,
0,
0,
0,
0,
0,
0,
0,
0,
0,
0,
0,
0,
0,
0,
0,
0,
0,
0,
0,
0,
0,
0,
0,
0,
0,
0,
0,
0,
0,
0,
0,
0,
0,
0,
0,
0,
0,
0,
0,
0,
0,
0,
0,
0,
0,
0,
0,
0,
0,
0,
0,
0,
0,
0,
0,
0,
0,
0,
0,
0,
0,
0,
0,
0,
0,
0,
0,
0,
0,
0,
0,
0,
0,
0,
0,
0,
0,
0,
0,
0,
0,
0,
0,
0,
0,
0,
0,
0,
0,
0,
0,
0,
0,
0,
0,
0,
0,
0,
0,
0,
0,
0,
0,
0,
0,
0,
0,
0,
0,
0,
0,
0,
0,
0,
0,
0,
0,
0,
0,
0,
0,
0,
0,
0,
0,
0,
0,
0,
0,
0,
0,
0,
0,
0,
0,
0,
0,
0,
0,
0,
0,
0,
0,
0,
0,
0,
0,
0,
0,
0,
0,
0,
0,
0,
0,
0,
0,
0,
0,
0,
0,
0,
0,
0,
0,
0,
0,
0,
0,
0,
0,
0,
0,
0,
0,
0,
0,
0,
0,
0,
0,
0,
0,
0,
0,
0,
0,
0,
0,
0,
0,
0,
0,
0,
0,
0,
0,
0,
0,
0,
0,
0,
0,
0,
0,
0,
0,
0,
0,
0,
0,
0,
0,
0,
0,
0,
0,
0,
0,
0,
0,
0,
0,
0,
0,
0,
0,
0,
0,
0,
0,
0,
#ENDOFDATA   :