File: N132962/Quantification/20 keV/Glass Mount IIIB/GM IIIB K371[1][4].msa
#FORMAT      : EMSA/MAS Spectral Data File
#VERSION     : 1.0
#TITLE       : GM IIIB K371[1][all]
#DATE        : 10-SEP-2025
#TIME        : 14:41
#OWNER       : Unknown
#NPOINTS     : 4096
#NCOLUMNS    : 1
#XUNITS      : eV
#YUNITS      : counts
#DATATYPE    : Y
#XPERCHAN    : 9.99778
#OFFSET      : 1.69135
#BEAMKV      : 20
#SIGNALTYPE  : EDS
#ELEVANGLE   : 35
#AZIMANGLE   : 0
#LIVETIME    : 240.353
#REALTIME    : 262.12
#PROBECUR    : 1.22592
#TAUWIND     : 0
#TDEADLYR    : 0
#TACTLYR     : 0.045
#TALWIND     : 0.025
#CHOFFSET    : 0.0
#XLABEL      : Energy (eV)
#YLABEL      : Counts
#XPOSITION   : 11.55417
#YPOSITION   : 5.1865
#ZPOSITION   : 34.06144
#EDSDET      : SD
##SPECIMEN   : GM IIIB K371[1][all]
##D2STDCMP   : K371,(O:31.93),(Si:23.08),(Zn:3.07),(Ba:41.92)
##DET_HASH   : 12273538-fd48-a23f-0a19-f1e6fa85caef
##CALIB_HASH : 6abaa72c-aa41-8738-0be9-f592914732f3
##WORKING    : 15.0 mm
##DET_NAME   : EDAX All
##DET_MODE   : MediumLE
#SPECTRUM    :
25,
25,
12,
23,
138,
505,
1387,
3404,
7414,
9415,
6732,
5667,
6284,
7538,
10908,
31756,
110503,
205830,
150573,
45762,
14315,
8205,
5884,
5886,
6748,
8844,
9953,
7840,
5774,
5103,
5085,
5901,
8872,
13267,
15321,
11403,
6994,
5266,
4739,
4589,
4787,
4878,
4942,
5191,
5178,
5279,
5544,
5703,
6180,
6655,
6753,
6657,
6668,
6877,
8072,
17332,
58869,
146689,
198197,
140897,
58822,
21941,
11076,
6812,
5173,
4724,
4795,
4786,
4825,
4854,
4849,
4921,
4830,
5292,
5303,
5673,
5711,
5531,
5320,
5106,
4980,
4987,
5040,
5137,
4970,
5215,
5105,
5189,
5192,
5311,
5378,
5571,
5448,
5191,
4902,
4997,
4989,
4970,
4964,
5039,
5023,
4991,
4991,
4961,
5039,
4979,
4789,
4838,
4800,
4761,
4640,
4589,
4740,
4633,
4753,
4751,
4672,
4697,
4540,
4593,
4416,
4485,
4382,
4336,
4413,
4256,
4326,
4404,
4439,
4886,
5331,
6412,
6878,
6252,
5333,
4776,
4230,
4067,
4182,
4027,
4153,
4212,
4540,
5086,
6442,
10123,
20557,
40442,
63672,
72689,
58687,
35426,
16328,
7301,
4673,
4184,
4480,
6173,
10897,
19876,
30254,
36060,
33014,
25051,
17086,
11776,
8568,
6527,
5627,
6762,
9596,
13034,
14583,
12671,
8950,
5881,
4017,
3363,
3155,
3158,
3357,
3648,
4761,
6036,
7088,
7057,
5742,
4368,
3389,
3149,
3194,
3546,
4055,
4376,
4079,
3864,
3313,
2887,
2853,
2822,
2785,
2610,
2359,
2407,
2396,
2379,
2408,
2424,
2446,
2347,
2350,
2482,
2532,
2544,
2499,
2440,
2444,
2305,
2236,
2247,
2288,
2262,
2170,
2141,
2170,
2223,
2114,
2059,
2065,
2253,
2067,
2047,
2066,
2039,
2022,
2127,
2030,
2002,
1966,
2018,
1992,
1970,
1927,
1956,
2021,
1950,
2019,
1986,
2072,
1993,
1998,
1954,
1903,
1835,
1757,
1899,
1856,
1776,
1794,
1832,
1780,
1745,
1762,
1703,
1615,
1731,
1662,
1597,
1653,
1682,
1697,
1704,
1697,
1688,
1709,
1698,
1620,
1664,
1692,
1597,
1625,
1690,
1739,
1958,
2372,
3133,
3912,
4410,
4467,
3925,
3201,
2366,
1947,
1657,
1496,
1439,
1442,
1474,
1453,
1432,
1442,
1426,
1377,
1377,
1371,
1320,
1424,
1405,
1385,
1379,
1405,
1307,
1354,
1325,
1307,
1411,
1444,
1558,
1638,
1681,
1676,
1504,
1448,
1299,
1236,
1220,
1202,
1193,
1161,
1182,
1208,
1132,
1174,
1142,
1157,
1170,
1156,
1089,
1127,
1174,
1038,
1114,
1123,
1171,
1050,
1099,
1058,
1033,
1046,
1076,
979,
966,
984,
1013,
1004,
974,
995,
973,
943,
907,
950,
993,
949,
937,
932,
907,
958,
945,
900,
903,
886,
857,
862,
878,
807,
816,
851,
853,
925,
845,
857,
815,
874,
817,
793,
765,
747,
841,
809,
740,
785,
758,
793,
768,
728,
788,
769,
674,
733,
675,
756,
671,
657,
676,
719,
708,
681,
691,
635,
619,
671,
670,
645,
592,
657,
632,
635,
602,
572,
551,
592,
573,
574,
601,
561,
608,
578,
610,
517,
578,
560,
546,
528,
541,
552,
500,
514,
505,
503,
499,
488,
506,
468,
483,
477,
505,
445,
466,
483,
424,
439,
447,
489,
402,
416,
419,
421,
433,
434,
424,
378,
387,
440,
410,
402,
401,
390,
406,
380,
358,
389,
353,
358,
355,
348,
337,
374,
333,
309,
344,
340,
373,
324,
345,
314,
342,
328,
302,
302,
288,
322,
301,
257,
307,
311,
275,
266,
278,
266,
295,
235,
267,
276,
261,
251,
247,
239,
215,
241,
249,
246,
236,
217,
202,
247,
209,
237,
219,
214,
207,
231,
223,
215,
210,
199,
220,
204,
209,
206,
167,
181,
181,
162,
159,
162,
205,
168,
180,
180,
171,
130,
141,
165,
161,
152,
148,
169,
144,
142,
139,
147,
140,
141,
135,
149,
132,
118,
145,
129,
124,
144,
132,
133,
127,
130,
116,
110,
128,
100,
102,
106,
101,
102,
97,
115,
98,
100,
111,
92,
96,
89,
92,
87,
88,
78,
89,
91,
92,
89,
89,
87,
65,
74,
70,
72,
74,
58,
73,
54,
68,
53,
64,
74,
48,
66,
42,
71,
55,
65,
51,
48,
50,
41,
47,
45,
51,
38,
35,
38,
45,
38,
32,
41,
36,
54,
44,
43,
31,
33,
33,
23,
35,
33,
24,
27,
26,
26,
23,
21,
18,
25,
18,
20,
22,
17,
22,
18,
17,
9,
11,
10,
16,
18,
10,
11,
7,
6,
11,
7,
7,
4,
3,
3,
2,
1,
7,
0,
1,
1,
4,
3,
0,
6,
0,
4,
2,
0,
0,
1,
2,
2,
0,
2,
2,
1,
1,
3,
0,
1,
0,
1,
3,
2,
0,
1,
1,
0,
2,
0,
1,
0,
2,
0,
1,
1,
2,
1,
0,
1,
1,
1,
3,
3,
0,
3,
0,
0,
0,
2,
0,
2,
1,
1,
1,
1,
0,
1,
2,
4,
0,
0,
0,
0,
2,
0,
0,
1,
0,
0,
1,
0,
1,
1,
0,
0,
1,
0,
0,
0,
0,
0,
0,
2,
1,
1,
1,
1,
0,
0,
0,
0,
0,
4,
0,
1,
0,
1,
0,
1,
0,
1,
0,
0,
0,
0,
1,
2,
0,
0,
0,
0,
0,
1,
0,
0,
0,
1,
0,
1,
1,
0,
1,
0,
0,
0,
1,
1,
0,
1,
1,
1,
0,
0,
0,
0,
1,
0,
0,
0,
0,
2,
1,
1,
0,
0,
0,
2,
1,
0,
0,
1,
0,
0,
0,
0,
0,
1,
0,
0,
2,
0,
0,
0,
0,
0,
0,
0,
0,
0,
1,
0,
0,
0,
0,
0,
0,
0,
0,
0,
0,
0,
0,
0,
0,
0,
0,
1,
0,
0,
0,
0,
1,
0,
0,
0,
0,
0,
0,
1,
0,
1,
0,
0,
0,
0,
0,
0,
0,
1,
1,
2,
0,
0,
0,
0,
0,
0,
0,
0,
0,
0,
1,
0,
0,
1,
0,
0,
0,
0,
0,
0,
0,
0,
0,
0,
0,
0,
0,
0,
0,
0,
0,
0,
0,
0,
0,
0,
0,
0,
0,
0,
0,
0,
0,
0,
0,
0,
0,
0,
0,
0,
0,
1,
0,
0,
0,
0,
0,
0,
0,
0,
0,
0,
0,
0,
0,
0,
1,
0,
0,
0,
0,
0,
0,
0,
0,
0,
0,
0,
0,
0,
0,
0,
0,
0,
0,
0,
0,
0,
0,
0,
0,
1,
0,
0,
0,
0,
0,
0,
0,
0,
0,
0,
0,
0,
0,
0,
0,
0,
0,
0,
0,
0,
0,
0,
0,
0,
0,
0,
0,
0,
0,
0,
0,
0,
0,
0,
0,
0,
0,
0,
0,
0,
0,
0,
0,
0,
0,
0,
0,
0,
0,
0,
0,
0,
0,
0,
0,
0,
0,
0,
0,
0,
0,
0,
0,
0,
0,
0,
0,
0,
0,
1,
0,
0,
0,
0,
0,
0,
0,
0,
0,
0,
0,
0,
0,
0,
0,
0,
0,
0,
0,
0,
0,
0,
0,
0,
0,
0,
0,
0,
0,
0,
0,
0,
0,
0,
0,
0,
0,
0,
0,
0,
0,
0,
0,
1,
0,
0,
0,
0,
0,
0,
0,
0,
0,
0,
0,
0,
0,
0,
0,
0,
0,
0,
0,
0,
0,
0,
0,
0,
0,
0,
0,
0,
0,
0,
0,
0,
0,
0,
0,
0,
0,
0,
0,
0,
0,
0,
0,
0,
0,
0,
0,
0,
0,
0,
0,
0,
0,
0,
0,
0,
0,
0,
0,
0,
0,
0,
0,
0,
0,
0,
0,
0,
0,
0,
0,
0,
0,
0,
0,
0,
0,
0,
0,
0,
0,
0,
0,
0,
0,
0,
0,
0,
0,
0,
0,
0,
0,
0,
0,
0,
0,
0,
0,
0,
0,
0,
0,
0,
0,
0,
0,
0,
0,
0,
0,
0,
0,
0,
0,
0,
0,
0,
0,
0,
0,
0,
0,
0,
0,
0,
0,
0,
0,
0,
0,
0,
0,
0,
0,
0,
0,
0,
0,
0,
0,
0,
0,
0,
0,
0,
0,
0,
0,
0,
0,
0,
0,
0,
0,
0,
0,
0,
0,
0,
0,
0,
0,
0,
0,
0,
0,
0,
0,
0,
0,
0,
0,
0,
0,
0,
0,
0,
0,
0,
0,
0,
0,
0,
0,
0,
0,
0,
0,
0,
0,
0,
0,
0,
0,
0,
0,
0,
0,
0,
0,
0,
0,
0,
0,
0,
0,
0,
0,
0,
0,
0,
0,
0,
0,
0,
0,
0,
0,
0,
0,
0,
0,
0,
0,
0,
0,
0,
0,
0,
0,
0,
0,
0,
0,
0,
0,
0,
0,
0,
0,
0,
0,
0,
0,
0,
0,
0,
0,
0,
0,
0,
0,
0,
0,
0,
0,
0,
0,
0,
0,
0,
0,
0,
0,
0,
0,
0,
0,
0,
0,
0,
0,
0,
0,
0,
0,
0,
0,
#ENDOFDATA   :