File: N132962/Quantification/20 keV/Glass Mount IIIB/GM IIIB K453[4][4].msa
#FORMAT      : EMSA/MAS Spectral Data File
#VERSION     : 1.0
#TITLE       : GM IIIB K453[4][all]
#DATE        : 10-SEP-2025
#TIME        : 14:15
#OWNER       : Unknown
#NPOINTS     : 4096
#NCOLUMNS    : 1
#XUNITS      : eV
#YUNITS      : counts
#DATATYPE    : Y
#XPERCHAN    : 9.99778
#OFFSET      : 1.69135
#BEAMKV      : 20
#SIGNALTYPE  : EDS
#ELEVANGLE   : 35
#AZIMANGLE   : 0
#LIVETIME    : 240.171
#REALTIME    : 266.61
#PROBECUR    : 1.22574
#TAUWIND     : 0
#TDEADLYR    : 0
#TACTLYR     : 0.045
#TALWIND     : 0.025
#CHOFFSET    : 0.0
#XLABEL      : Energy (eV)
#YLABEL      : Counts
#XPOSITION   : -1.16863
#YPOSITION   : 4.03046
#ZPOSITION   : 34.06144
#EDSDET      : SD
##SPECIMEN   : GM IIIB K453[4][all]
##D2STDCMP   : K453,(O:16.84),(Ge:28.65),(Pb:54.51)
##DET_HASH   : 12273538-fd48-a23f-0a19-f1e6fa85caef
##CALIB_HASH : 6abaa72c-aa41-8738-0be9-f592914732f3
##WORKING    : 15.0 mm
##DET_NAME   : EDAX All
##DET_MODE   : MediumLE
#SPECTRUM    :
27,
17,
10,
34,
246,
792,
2257,
5139,
10486,
12685,
8746,
6157,
6232,
6486,
7428,
13471,
36662,
63273,
47664,
17437,
9418,
8289,
7943,
8798,
8166,
7325,
7245,
7616,
8280,
8441,
8443,
8937,
9649,
11357,
15057,
16345,
15399,
20965,
54889,
119678,
147291,
97811,
39829,
15240,
9339,
8123,
7704,
7594,
7746,
8164,
8241,
8091,
8097,
8220,
8336,
8570,
8822,
9541,
10593,
12629,
15300,
16612,
14382,
10738,
9322,
8741,
8641,
8529,
8436,
8806,
9020,
9905,
11154,
12011,
13881,
21489,
46543,
97423,
142671,
137963,
110825,
101101,
86617,
52117,
22531,
10829,
9246,
10739,
12481,
12027,
9541,
7241,
6336,
6006,
5914,
6250,
6252,
6407,
6611,
6693,
6705,
7147,
7954,
7905,
7576,
7058,
6475,
6237,
5913,
5828,
5808,
5758,
5681,
5874,
5915,
5833,
5833,
6109,
6210,
6033,
5897,
5821,
5871,
5671,
5714,
5861,
5737,
5710,
5702,
5716,
5598,
5546,
5651,
5510,
5530,
5437,
5456,
5679,
5498,
5448,
5438,
5277,
5510,
5324,
5377,
5410,
5330,
5471,
5596,
5809,
6034,
5838,
5605,
5406,
5463,
5377,
5368,
5241,
5316,
5495,
5175,
5300,
5351,
5242,
5214,
5227,
5162,
5078,
5083,
5084,
5084,
4778,
5001,
4903,
4970,
4882,
4900,
4792,
4762,
4862,
4899,
4729,
4785,
4650,
4713,
4795,
4630,
4582,
4667,
4640,
4540,
4637,
4478,
4459,
4486,
4304,
4520,
4331,
4366,
4354,
4372,
4341,
4374,
4328,
4366,
4333,
4156,
4306,
4237,
4255,
4189,
4497,
4505,
4648,
4448,
4354,
4282,
4187,
4085,
3987,
3993,
3911,
3932,
4055,
3883,
3766,
3837,
3795,
3722,
3826,
3784,
3767,
3835,
3811,
3748,
3802,
3700,
3763,
3579,
3712,
3647,
3585,
3521,
3611,
3581,
3521,
3606,
3685,
3753,
3653,
3669,
3668,
3408,
3419,
3392,
3365,
3179,
3329,
3226,
3299,
3327,
3239,
3197,
3344,
3142,
3101,
3180,
3192,
3107,
3079,
3084,
3013,
3029,
3098,
3102,
2996,
3055,
2923,
2965,
2877,
2965,
2864,
2817,
2937,
2916,
2770,
2824,
2827,
2812,
2883,
2713,
2720,
2808,
2614,
2759,
2782,
2632,
2757,
2604,
2599,
2660,
2736,
2770,
2810,
2974,
2999,
3112,
3075,
2974,
2732,
2669,
2484,
2394,
2413,
2386,
2405,
2445,
2344,
2376,
2374,
2463,
2437,
2654,
3161,
4641,
7128,
11370,
16240,
20987,
22501,
20597,
16138,
11120,
6905,
4302,
2886,
2379,
2331,
2129,
2100,
2097,
2114,
2181,
2270,
2391,
2837,
3582,
4817,
6538,
8674,
10822,
11628,
11492,
9783,
7543,
5277,
3591,
2666,
2253,
2058,
2136,
2330,
2708,
3239,
4037,
4366,
4555,
4233,
3514,
2895,
2332,
2022,
1798,
1680,
1721,
1613,
1634,
1713,
1665,
1646,
1536,
1558,
1554,
1456,
1524,
1539,
1569,
1448,
1494,
1421,
1404,
1480,
1395,
1372,
1427,
1375,
1334,
1391,
1428,
1420,
1339,
1410,
1349,
1346,
1450,
1500,
1471,
1404,
1527,
1487,
1496,
1380,
1373,
1397,
1457,
1750,
2168,
2854,
3611,
4528,
4782,
4591,
3939,
3206,
2595,
1951,
1627,
1424,
1296,
1205,
1245,
1269,
1271,
1231,
1263,
1175,
1191,
1077,
1003,
1019,
941,
904,
954,
961,
932,
919,
933,
949,
926,
869,
825,
896,
871,
862,
834,
824,
805,
791,
811,
832,
836,
803,
762,
800,
748,
738,
747,
753,
719,
747,
738,
696,
648,
708,
733,
737,
691,
714,
638,
673,
667,
656,
624,
648,
627,
662,
671,
687,
744,
747,
829,
891,
865,
898,
869,
737,
671,
632,
597,
587,
586,
566,
574,
583,
592,
555,
594,
587,
577,
544,
500,
477,
504,
462,
457,
491,
467,
477,
444,
427,
423,
434,
427,
377,
419,
405,
420,
383,
413,
460,
348,
411,
387,
392,
351,
319,
354,
380,
328,
375,
382,
304,
304,
351,
302,
324,
322,
289,
321,
303,
291,
303,
269,
294,
286,
265,
269,
247,
264,
283,
258,
280,
272,
252,
277,
252,
242,
247,
216,
243,
229,
260,
215,
219,
227,
254,
214,
225,
224,
214,
209,
202,
232,
194,
176,
201,
190,
176,
191,
195,
156,
180,
171,
154,
148,
149,
173,
164,
158,
156,
151,
143,
146,
131,
131,
119,
129,
127,
116,
109,
104,
123,
127,
112,
112,
110,
110,
113,
97,
79,
79,
79,
86,
91,
83,
98,
76,
85,
68,
73,
76,
67,
70,
64,
64,
52,
62,
50,
47,
73,
52,
44,
48,
34,
34,
41,
38,
33,
28,
36,
38,
33,
24,
22,
25,
28,
20,
20,
24,
19,
16,
14,
16,
13,
5,
4,
12,
4,
10,
11,
5,
6,
7,
3,
6,
9,
6,
9,
11,
11,
6,
6,
4,
9,
9,
7,
8,
6,
6,
1,
5,
3,
2,
2,
7,
3,
4,
6,
9,
5,
5,
4,
5,
9,
5,
3,
4,
4,
4,
5,
6,
2,
3,
2,
3,
3,
4,
3,
5,
3,
3,
1,
4,
1,
1,
2,
0,
3,
1,
3,
2,
0,
1,
4,
1,
5,
2,
2,
2,
3,
4,
1,
2,
1,
8,
1,
4,
1,
3,
5,
2,
4,
2,
1,
2,
1,
0,
2,
1,
2,
2,
1,
3,
2,
3,
2,
5,
0,
4,
2,
0,
3,
2,
3,
3,
3,
1,
1,
1,
2,
1,
2,
1,
3,
3,
1,
2,
2,
1,
0,
2,
3,
0,
0,
3,
1,
1,
1,
2,
1,
0,
2,
3,
1,
1,
2,
1,
0,
3,
1,
3,
2,
3,
0,
0,
4,
1,
1,
1,
2,
0,
2,
3,
3,
1,
3,
3,
2,
3,
2,
4,
1,
0,
0,
3,
2,
1,
0,
1,
0,
1,
2,
1,
1,
2,
1,
1,
0,
0,
2,
3,
2,
0,
0,
0,
1,
0,
0,
1,
2,
0,
0,
0,
1,
0,
2,
0,
1,
0,
1,
1,
1,
0,
1,
1,
0,
0,
2,
1,
0,
2,
0,
0,
0,
0,
1,
0,
0,
0,
2,
0,
2,
0,
2,
0,
1,
1,
1,
1,
2,
1,
1,
0,
2,
2,
0,
1,
1,
0,
0,
2,
0,
1,
0,
0,
0,
0,
0,
1,
0,
0,
2,
0,
0,
0,
2,
1,
0,
0,
0,
1,
0,
0,
0,
0,
0,
1,
0,
0,
1,
1,
0,
0,
0,
0,
0,
0,
0,
0,
0,
0,
0,
0,
1,
0,
0,
0,
1,
0,
0,
0,
0,
0,
1,
1,
1,
0,
0,
1,
0,
1,
0,
0,
0,
0,
1,
0,
0,
0,
0,
0,
0,
0,
1,
0,
1,
0,
1,
0,
0,
0,
0,
0,
0,
0,
0,
0,
0,
0,
0,
0,
0,
0,
1,
0,
0,
0,
0,
0,
1,
0,
0,
0,
0,
0,
0,
0,
0,
0,
0,
1,
1,
0,
1,
0,
0,
0,
0,
0,
0,
0,
0,
0,
0,
0,
0,
0,
0,
0,
0,
0,
0,
0,
0,
0,
0,
0,
0,
0,
0,
0,
0,
0,
0,
0,
0,
0,
0,
0,
0,
0,
0,
0,
0,
0,
0,
0,
0,
0,
0,
1,
0,
0,
0,
0,
0,
0,
0,
0,
0,
0,
0,
0,
0,
0,
0,
0,
0,
0,
0,
0,
0,
0,
0,
0,
0,
0,
0,
0,
0,
0,
0,
0,
0,
0,
0,
0,
0,
0,
0,
0,
0,
0,
0,
0,
0,
0,
0,
0,
0,
0,
0,
0,
0,
0,
0,
0,
0,
0,
0,
0,
1,
0,
0,
0,
0,
0,
0,
0,
0,
0,
0,
0,
0,
0,
0,
0,
0,
0,
0,
0,
0,
0,
0,
0,
0,
0,
0,
0,
0,
0,
0,
0,
0,
0,
0,
0,
0,
0,
0,
0,
0,
0,
0,
0,
0,
0,
0,
0,
0,
0,
0,
0,
0,
0,
0,
0,
0,
0,
0,
0,
0,
0,
0,
0,
0,
0,
0,
0,
0,
0,
0,
0,
0,
0,
0,
0,
0,
0,
0,
0,
0,
0,
0,
0,
0,
0,
0,
0,
0,
0,
0,
0,
0,
0,
0,
0,
0,
0,
0,
0,
0,
0,
0,
0,
0,
0,
0,
0,
0,
0,
0,
0,
0,
0,
0,
0,
0,
0,
0,
0,
0,
0,
0,
0,
0,
0,
0,
0,
0,
0,
0,
0,
0,
0,
0,
0,
0,
0,
0,
0,
0,
0,
0,
0,
0,
0,
0,
0,
0,
0,
0,
0,
0,
0,
0,
0,
0,
0,
0,
0,
0,
0,
0,
0,
0,
0,
0,
0,
0,
0,
0,
0,
0,
0,
0,
0,
0,
0,
0,
0,
0,
0,
0,
0,
0,
0,
0,
0,
0,
0,
0,
0,
0,
0,
0,
0,
0,
0,
0,
0,
0,
0,
0,
0,
0,
0,
0,
0,
0,
0,
0,
0,
0,
0,
0,
0,
0,
0,
0,
0,
0,
0,
0,
0,
0,
0,
0,
0,
0,
0,
0,
0,
0,
0,
0,
#ENDOFDATA   :