File: N132962/Quantification/20 keV/Glass Mount IIIB/GM IIIB K249[4][4].msa
#FORMAT      : EMSA/MAS Spectral Data File
#VERSION     : 1.0
#TITLE       : GM IIIB K249[4][all]
#DATE        : 10-SEP-2025
#TIME        : 18:52
#OWNER       : Unknown
#NPOINTS     : 4096
#NCOLUMNS    : 1
#XUNITS      : eV
#YUNITS      : counts
#DATATYPE    : Y
#XPERCHAN    : 9.99778
#OFFSET      : 1.69135
#BEAMKV      : 20
#SIGNALTYPE  : EDS
#ELEVANGLE   : 35
#AZIMANGLE   : 0
#LIVETIME    : 240.137
#REALTIME    : 264.752
#PROBECUR    : 1.2221
#TAUWIND     : 0
#TDEADLYR    : 0
#TACTLYR     : 0.045
#TALWIND     : 0.025
#CHOFFSET    : 0.0
#XLABEL      : Energy (eV)
#YLABEL      : Counts
#XPOSITION   : 10.1776
#YPOSITION   : 0.81836
#ZPOSITION   : 34.00159
#EDSDET      : SD
##SPECIMEN   : GM IIIB K249[4][all]
##D2STDCMP   : K249,(O:24.49),(Al:2.65),(Si:14.02),(Ba:8.96),(Ta:8.19),(Pb:39.45),(Bi:2.24)
##DET_HASH   : 12273538-fd48-a23f-0a19-f1e6fa85caef
##CALIB_HASH : 6abaa72c-aa41-8738-0be9-f592914732f3
##WORKING    : 15.0 mm
##DET_NAME   : EDAX All
##DET_MODE   : MediumLE
#SPECTRUM    :
29,
22,
10,
34,
176,
699,
1961,
4480,
9149,
11259,
7718,
5794,
6063,
6407,
7862,
17428,
53635,
98021,
71435,
23099,
9318,
6853,
6420,
7034,
6881,
6735,
6944,
6917,
6760,
6670,
6523,
6711,
7389,
7635,
7886,
7722,
7727,
7542,
7617,
7689,
7921,
8017,
8537,
9651,
10373,
10384,
10018,
12102,
20374,
32481,
32814,
21580,
13083,
11019,
12634,
25388,
69567,
145357,
183694,
131014,
61665,
28673,
16956,
10912,
8441,
8175,
7949,
7415,
7147,
7142,
7267,
7964,
8662,
9456,
11072,
15746,
32122,
66143,
96115,
93371,
77460,
73050,
62143,
38339,
19186,
10855,
8421,
8896,
9791,
9702,
8166,
6610,
5702,
5410,
5381,
5375,
5383,
5642,
5623,
5640,
5927,
6185,
6518,
6634,
6341,
6200,
5941,
5551,
5409,
5181,
5222,
5113,
5187,
5082,
5105,
5320,
5322,
5307,
5234,
5151,
5144,
5051,
4996,
4955,
5064,
5036,
5115,
4905,
4924,
4974,
5139,
5357,
5444,
5367,
5121,
5089,
4905,
5058,
4981,
4887,
4845,
4725,
4892,
5087,
5168,
5771,
7874,
11963,
16669,
18054,
16069,
11072,
7223,
5413,
4839,
4659,
4635,
4905,
5982,
7641,
10013,
11275,
10429,
8790,
7199,
6216,
5509,
4947,
4844,
5000,
5520,
6107,
6582,
6045,
5396,
4704,
4397,
4198,
4140,
4056,
4143,
4183,
4318,
4581,
5054,
4745,
4556,
4090,
3952,
3947,
3890,
4017,
4142,
4121,
4085,
3924,
3897,
3806,
3660,
3771,
3651,
3651,
3671,
3623,
3444,
3498,
3641,
3591,
3509,
3580,
3544,
3745,
3757,
3844,
3750,
3720,
3407,
3359,
3379,
3335,
3303,
3238,
3318,
3246,
3308,
3253,
3227,
3248,
3139,
3099,
3244,
3127,
3163,
3170,
3193,
3180,
3136,
3153,
3213,
3219,
3202,
3173,
3013,
3021,
2959,
2992,
2994,
2955,
3109,
3070,
3046,
2978,
2926,
2885,
2785,
2795,
2752,
2700,
2684,
2622,
2611,
2577,
2722,
2641,
2631,
2716,
2829,
3335,
4000,
5109,
6194,
6924,
6552,
5632,
4576,
3587,
2969,
2671,
2533,
2450,
2548,
2401,
2336,
2299,
2451,
2343,
2415,
2318,
2301,
2294,
2263,
2253,
2211,
2301,
2221,
2255,
2138,
2256,
2130,
2266,
2263,
2250,
2235,
2351,
2488,
2707,
2678,
2849,
3086,
3243,
3590,
3705,
3590,
3170,
2884,
2660,
2412,
2330,
2411,
2399,
2576,
2676,
2493,
2584,
2281,
2163,
2134,
2007,
1902,
1874,
1907,
1866,
1892,
1854,
1847,
1771,
1696,
1799,
1737,
1672,
1715,
1784,
1706,
1835,
1927,
2128,
2677,
3396,
4543,
5959,
7345,
8082,
7947,
7020,
5238,
3807,
2757,
2164,
1935,
1908,
2019,
2031,
1989,
2017,
1856,
1764,
1593,
1489,
1432,
1501,
1457,
1462,
1440,
1434,
1484,
1459,
1430,
1438,
1468,
1347,
1356,
1354,
1342,
1266,
1288,
1214,
1270,
1219,
1180,
1160,
1231,
1174,
1227,
1151,
1134,
1123,
1152,
1155,
1199,
1176,
1131,
1101,
1116,
1195,
1176,
1130,
1171,
1143,
1128,
1195,
1154,
1166,
1129,
1114,
1274,
1318,
1762,
2090,
2692,
3213,
3363,
3214,
2957,
2357,
1868,
1470,
1279,
1135,
1083,
990,
1054,
1123,
1121,
1102,
1113,
1045,
918,
896,
797,
817,
743,
771,
802,
816,
830,
773,
782,
699,
739,
790,
692,
709,
695,
658,
704,
697,
677,
623,
684,
651,
628,
643,
689,
589,
623,
623,
606,
630,
599,
591,
594,
567,
568,
559,
535,
563,
582,
540,
569,
556,
532,
536,
517,
556,
486,
521,
510,
578,
590,
642,
650,
675,
650,
678,
641,
583,
532,
471,
492,
474,
452,
444,
456,
483,
470,
492,
453,
477,
428,
452,
393,
407,
375,
370,
372,
389,
393,
392,
317,
319,
337,
355,
346,
374,
308,
321,
346,
337,
281,
347,
332,
296,
304,
294,
292,
285,
295,
307,
285,
269,
283,
270,
274,
253,
266,
252,
260,
237,
232,
260,
263,
257,
215,
241,
242,
242,
227,
228,
205,
228,
216,
222,
188,
217,
194,
225,
189,
173,
200,
185,
194,
185,
208,
180,
191,
172,
173,
147,
170,
170,
188,
162,
164,
148,
163,
156,
154,
148,
130,
134,
151,
126,
134,
113,
121,
118,
115,
115,
115,
112,
112,
107,
106,
99,
114,
93,
91,
97,
91,
110,
90,
101,
95,
95,
92,
79,
88,
72,
99,
68,
60,
74,
54,
69,
68,
76,
64,
59,
49,
63,
62,
36,
40,
56,
45,
57,
52,
34,
46,
41,
33,
40,
30,
34,
27,
33,
22,
26,
33,
33,
33,
33,
18,
22,
23,
27,
19,
16,
15,
14,
13,
16,
8,
4,
4,
6,
7,
6,
3,
5,
5,
3,
3,
4,
5,
4,
3,
1,
1,
1,
7,
2,
3,
3,
2,
3,
4,
4,
3,
1,
3,
2,
0,
1,
3,
2,
3,
5,
1,
2,
0,
4,
2,
4,
0,
2,
0,
0,
2,
3,
2,
1,
4,
3,
1,
2,
2,
1,
1,
1,
1,
4,
1,
2,
4,
0,
2,
3,
0,
2,
0,
2,
0,
0,
2,
4,
1,
2,
1,
1,
3,
1,
0,
2,
1,
0,
3,
4,
0,
2,
1,
3,
3,
1,
3,
2,
2,
1,
2,
1,
1,
2,
0,
2,
1,
2,
2,
2,
1,
0,
1,
0,
5,
1,
0,
2,
0,
1,
1,
2,
3,
2,
2,
1,
1,
0,
1,
0,
2,
0,
1,
0,
0,
0,
0,
3,
2,
0,
1,
1,
1,
1,
2,
1,
1,
2,
1,
2,
1,
0,
1,
1,
0,
4,
0,
1,
0,
0,
0,
0,
3,
0,
1,
0,
1,
0,
0,
1,
1,
2,
0,
1,
0,
2,
0,
0,
0,
0,
0,
0,
1,
0,
0,
0,
0,
2,
0,
0,
0,
0,
0,
0,
1,
0,
1,
0,
0,
0,
2,
0,
0,
2,
1,
0,
1,
1,
0,
1,
0,
1,
0,
0,
0,
0,
0,
1,
1,
1,
1,
0,
0,
0,
0,
0,
0,
0,
0,
0,
1,
0,
0,
0,
0,
0,
1,
0,
1,
0,
0,
0,
0,
0,
1,
0,
0,
0,
0,
0,
0,
0,
1,
0,
2,
0,
0,
0,
2,
0,
1,
0,
0,
0,
0,
1,
0,
1,
0,
0,
0,
0,
0,
0,
0,
0,
1,
1,
0,
1,
0,
0,
0,
0,
0,
0,
0,
0,
0,
0,
0,
0,
0,
0,
0,
0,
0,
0,
0,
0,
1,
0,
0,
0,
0,
0,
0,
1,
0,
0,
1,
0,
1,
0,
0,
0,
0,
0,
1,
0,
0,
0,
0,
0,
0,
0,
0,
0,
0,
0,
0,
0,
0,
0,
0,
0,
0,
1,
0,
0,
1,
0,
0,
0,
1,
0,
1,
0,
0,
0,
0,
1,
0,
0,
0,
0,
0,
0,
0,
0,
0,
0,
0,
0,
0,
0,
0,
0,
0,
0,
0,
0,
0,
0,
0,
0,
0,
0,
0,
0,
0,
0,
0,
0,
0,
0,
0,
0,
0,
0,
0,
0,
0,
0,
0,
0,
0,
0,
0,
0,
0,
0,
0,
0,
0,
0,
0,
0,
0,
0,
0,
0,
0,
0,
0,
0,
0,
0,
0,
0,
0,
0,
0,
0,
0,
0,
0,
0,
0,
0,
0,
0,
0,
0,
0,
0,
0,
0,
0,
0,
0,
0,
0,
0,
0,
0,
0,
0,
0,
0,
0,
0,
0,
0,
0,
0,
0,
0,
0,
0,
0,
0,
0,
0,
0,
0,
0,
0,
0,
0,
0,
0,
0,
0,
0,
0,
0,
0,
0,
0,
0,
0,
0,
0,
0,
0,
0,
0,
0,
0,
0,
0,
0,
0,
0,
0,
0,
0,
0,
0,
0,
0,
0,
0,
0,
0,
0,
0,
0,
0,
0,
0,
0,
0,
0,
0,
0,
0,
0,
0,
0,
0,
0,
0,
0,
0,
0,
0,
0,
0,
0,
0,
0,
0,
0,
1,
0,
0,
0,
0,
0,
0,
0,
0,
0,
0,
0,
0,
0,
0,
0,
0,
0,
0,
0,
0,
0,
0,
0,
0,
0,
0,
0,
0,
0,
0,
0,
0,
0,
0,
0,
0,
0,
0,
0,
0,
1,
0,
0,
0,
0,
0,
0,
0,
0,
0,
0,
0,
0,
0,
0,
0,
0,
0,
0,
0,
0,
0,
0,
0,
0,
0,
0,
0,
0,
0,
0,
0,
0,
0,
0,
0,
0,
0,
0,
0,
0,
0,
0,
0,
0,
0,
0,
0,
0,
0,
0,
0,
0,
0,
0,
0,
0,
0,
0,
0,
0,
0,
0,
0,
0,
0,
0,
0,
0,
0,
0,
0,
0,
0,
0,
0,
0,
0,
0,
0,
0,
0,
0,
0,
0,
0,
0,
0,
0,
0,
0,
0,
0,
0,
0,
0,
0,
0,
0,
0,
0,
0,
0,
0,
0,
0,
0,
0,
0,
0,
0,
0,
0,
0,
0,
0,
0,
0,
0,
0,
0,
0,
0,
0,
0,
0,
0,
0,
0,
0,
0,
0,
#ENDOFDATA   :