File: N132962/Quantification/20 keV/Glass Mount IIIB/GM IIIB K373[4][4].msa
#FORMAT      : EMSA/MAS Spectral Data File
#VERSION     : 1.0
#TITLE       : GM IIIB K373[4][all]
#DATE        : 10-SEP-2025
#TIME        : 18:16
#OWNER       : Unknown
#NPOINTS     : 4096
#NCOLUMNS    : 1
#XUNITS      : eV
#YUNITS      : counts
#DATATYPE    : Y
#XPERCHAN    : 9.99778
#OFFSET      : 1.69135
#BEAMKV      : 20
#SIGNALTYPE  : EDS
#ELEVANGLE   : 35
#AZIMANGLE   : 0
#LIVETIME    : 240.135
#REALTIME    : 260.077
#PROBECUR    : 1.22475
#TAUWIND     : 0
#TDEADLYR    : 0
#TACTLYR     : 0.045
#TALWIND     : 0.025
#CHOFFSET    : 0.0
#XLABEL      : Energy (eV)
#YLABEL      : Counts
#XPOSITION   : 4.36931
#YPOSITION   : 2.3697
#ZPOSITION   : 34.00159
#EDSDET      : SD
##SPECIMEN   : GM IIIB K373[4][all]
##D2STDCMP   : K373,(O:42.34),(Na:10.43),(Si:31.85),(Zn:4.94),(Ba:10.38),(U:0.05)
##DET_HASH   : 12273538-fd48-a23f-0a19-f1e6fa85caef
##CALIB_HASH : 6abaa72c-aa41-8738-0be9-f592914732f3
##WORKING    : 15.0 mm
##DET_NAME   : EDAX All
##DET_MODE   : MediumLE
#SPECTRUM    :
12,
33,
11,
28,
98,
359,
960,
2201,
4792,
6214,
4290,
3739,
4607,
5902,
10000,
35143,
131256,
249855,
179919,
47603,
7285,
3445,
3643,
3686,
3472,
4012,
4553,
4566,
4424,
4802,
5232,
6370,
12960,
34367,
61668,
58094,
27288,
8729,
4340,
3889,
3845,
4001,
4149,
4289,
4374,
4399,
4804,
4900,
5540,
6113,
6403,
6353,
6389,
6614,
8211,
22683,
90228,
234179,
317694,
222805,
89041,
29626,
13084,
6488,
3847,
3174,
3101,
3063,
3114,
3138,
3223,
3263,
3311,
3573,
4060,
4253,
4212,
3827,
3511,
3389,
3236,
3274,
3226,
3296,
3360,
3248,
3216,
3316,
3387,
3256,
3302,
3489,
3550,
3473,
3353,
3305,
3226,
3154,
3205,
3276,
3309,
3156,
3172,
3176,
3276,
3187,
3131,
3136,
3179,
3029,
3112,
3112,
3111,
3134,
3262,
3380,
3300,
3342,
3099,
2926,
2787,
2765,
2776,
2749,
2811,
2641,
2707,
2699,
2716,
2787,
2860,
3127,
3138,
3111,
2794,
2653,
2561,
2442,
2539,
2502,
2513,
2498,
2578,
2622,
2917,
3774,
6230,
11063,
16127,
18363,
15209,
9676,
5302,
3205,
2402,
2390,
2419,
2779,
3765,
5847,
8322,
9859,
9112,
7159,
5276,
4143,
3189,
2728,
2538,
2759,
3369,
4252,
4487,
4183,
3304,
2570,
2141,
1953,
1882,
1913,
1925,
2014,
2242,
2540,
2831,
2879,
2415,
2108,
1860,
1788,
1742,
1888,
1948,
2049,
2086,
1905,
1849,
1677,
1678,
1690,
1631,
1686,
1579,
1543,
1555,
1504,
1500,
1535,
1570,
1508,
1476,
1548,
1541,
1558,
1623,
1509,
1363,
1466,
1394,
1443,
1294,
1340,
1351,
1329,
1343,
1272,
1230,
1295,
1281,
1255,
1268,
1270,
1264,
1218,
1256,
1234,
1260,
1200,
1230,
1144,
1184,
1214,
1155,
1116,
1211,
1178,
1192,
1231,
1219,
1259,
1151,
1159,
1055,
1065,
1041,
1073,
1149,
1046,
1041,
1035,
994,
1050,
1039,
991,
1011,
963,
978,
937,
984,
980,
962,
945,
974,
995,
957,
999,
984,
915,
926,
1029,
943,
915,
1077,
1500,
2202,
3357,
4535,
5346,
5480,
4699,
3363,
2202,
1530,
1047,
886,
793,
846,
784,
815,
809,
847,
816,
819,
784,
738,
838,
787,
812,
777,
749,
773,
761,
778,
787,
794,
901,
987,
1192,
1281,
1328,
1275,
1092,
983,
760,
689,
736,
672,
672,
676,
614,
654,
618,
601,
616,
633,
663,
647,
625,
591,
575,
582,
605,
596,
591,
549,
588,
632,
614,
539,
597,
574,
545,
517,
514,
515,
545,
526,
486,
474,
515,
551,
515,
553,
524,
497,
507,
488,
490,
488,
448,
450,
463,
474,
483,
479,
479,
473,
456,
423,
422,
433,
438,
439,
435,
413,
371,
421,
406,
423,
415,
360,
438,
412,
407,
404,
369,
410,
388,
401,
379,
379,
378,
337,
376,
310,
354,
324,
338,
355,
332,
324,
342,
315,
319,
326,
292,
344,
314,
321,
324,
315,
296,
302,
282,
274,
277,
324,
254,
286,
260,
314,
283,
257,
286,
265,
266,
254,
254,
261,
231,
267,
230,
232,
246,
252,
217,
213,
263,
241,
239,
223,
215,
248,
237,
224,
232,
194,
214,
246,
205,
212,
173,
180,
180,
185,
202,
176,
192,
181,
225,
195,
172,
175,
198,
186,
168,
143,
171,
175,
181,
152,
146,
157,
163,
171,
146,
159,
171,
172,
156,
131,
141,
139,
141,
130,
112,
143,
139,
146,
151,
133,
117,
128,
126,
130,
115,
121,
105,
120,
123,
131,
116,
104,
104,
119,
100,
112,
91,
96,
109,
103,
86,
109,
102,
103,
97,
97,
78,
81,
86,
79,
77,
100,
89,
84,
81,
74,
74,
82,
85,
79,
75,
60,
62,
75,
82,
83,
64,
69,
60,
79,
69,
58,
58,
62,
56,
69,
61,
54,
66,
56,
44,
51,
63,
47,
55,
42,
47,
55,
43,
46,
47,
41,
37,
57,
50,
52,
45,
60,
51,
35,
37,
46,
44,
41,
36,
35,
44,
33,
30,
31,
31,
32,
31,
24,
28,
36,
28,
36,
31,
32,
26,
25,
41,
31,
28,
20,
23,
24,
24,
19,
33,
24,
17,
20,
26,
20,
12,
19,
21,
16,
24,
16,
8,
17,
15,
17,
12,
11,
13,
11,
9,
7,
16,
12,
9,
9,
12,
8,
6,
11,
13,
9,
13,
5,
6,
9,
9,
5,
4,
5,
5,
6,
4,
5,
3,
2,
4,
3,
2,
1,
2,
2,
1,
0,
1,
1,
2,
0,
0,
2,
0,
2,
0,
2,
1,
1,
1,
0,
0,
0,
1,
0,
0,
0,
0,
0,
1,
0,
0,
3,
0,
0,
0,
3,
0,
0,
0,
1,
0,
0,
0,
0,
0,
0,
0,
0,
0,
0,
0,
0,
0,
0,
0,
0,
0,
0,
0,
0,
1,
0,
0,
0,
0,
0,
0,
0,
0,
1,
0,
0,
0,
1,
0,
0,
0,
0,
0,
0,
0,
0,
0,
0,
0,
0,
1,
0,
0,
0,
0,
0,
0,
0,
0,
0,
0,
0,
0,
0,
0,
0,
0,
0,
0,
0,
0,
0,
0,
0,
0,
0,
0,
0,
0,
0,
0,
0,
1,
0,
0,
0,
0,
0,
0,
0,
0,
0,
0,
0,
0,
0,
0,
0,
0,
0,
0,
0,
0,
0,
0,
2,
0,
0,
0,
0,
0,
1,
0,
0,
0,
0,
0,
0,
1,
0,
0,
0,
0,
0,
0,
0,
0,
0,
0,
0,
0,
0,
0,
0,
0,
0,
0,
0,
0,
0,
0,
0,
1,
0,
0,
0,
0,
0,
0,
0,
0,
1,
0,
0,
0,
0,
0,
0,
1,
0,
0,
0,
0,
0,
0,
0,
0,
0,
0,
0,
0,
0,
0,
0,
0,
0,
0,
0,
0,
0,
0,
0,
0,
0,
0,
0,
0,
0,
0,
1,
0,
0,
0,
0,
0,
0,
0,
0,
0,
0,
0,
1,
0,
0,
0,
0,
0,
0,
0,
0,
0,
0,
0,
0,
0,
0,
0,
0,
0,
1,
0,
0,
0,
0,
0,
0,
0,
0,
0,
0,
0,
0,
0,
0,
0,
0,
0,
0,
0,
0,
0,
0,
0,
0,
0,
0,
0,
0,
0,
0,
0,
0,
0,
0,
0,
0,
0,
0,
0,
0,
0,
0,
0,
0,
0,
0,
0,
0,
0,
0,
0,
0,
0,
0,
0,
0,
0,
0,
0,
0,
0,
0,
0,
0,
0,
0,
0,
0,
0,
0,
0,
0,
0,
0,
0,
0,
0,
0,
0,
0,
0,
0,
0,
0,
0,
0,
0,
0,
0,
0,
0,
0,
0,
0,
0,
0,
0,
0,
0,
0,
0,
0,
0,
0,
0,
0,
0,
0,
0,
0,
0,
0,
0,
0,
0,
0,
0,
0,
0,
0,
0,
0,
0,
0,
0,
0,
0,
0,
0,
0,
0,
0,
0,
0,
0,
0,
0,
0,
0,
0,
0,
0,
0,
0,
0,
0,
0,
0,
0,
0,
0,
0,
0,
0,
0,
0,
0,
0,
0,
0,
0,
0,
0,
0,
0,
0,
0,
0,
0,
0,
0,
0,
0,
0,
0,
0,
0,
0,
0,
0,
0,
0,
0,
0,
0,
0,
0,
0,
0,
0,
0,
0,
0,
0,
0,
0,
0,
0,
0,
0,
0,
0,
0,
0,
0,
0,
0,
0,
0,
0,
0,
0,
0,
0,
0,
0,
0,
0,
0,
0,
0,
0,
0,
0,
0,
0,
0,
0,
0,
0,
0,
0,
0,
0,
0,
0,
0,
0,
0,
0,
0,
0,
0,
0,
0,
0,
0,
0,
0,
0,
0,
0,
0,
0,
0,
0,
0,
0,
0,
0,
0,
0,
0,
0,
0,
0,
0,
0,
0,
0,
0,
0,
0,
0,
0,
0,
0,
0,
0,
0,
0,
0,
0,
0,
0,
0,
0,
0,
0,
0,
0,
0,
0,
0,
0,
0,
0,
0,
0,
0,
0,
0,
0,
0,
0,
0,
0,
0,
0,
0,
0,
0,
0,
0,
0,
0,
0,
0,
0,
0,
0,
0,
0,
0,
0,
0,
0,
0,
0,
0,
0,
0,
0,
0,
0,
0,
0,
0,
0,
0,
0,
0,
0,
0,
0,
0,
0,
0,
0,
0,
0,
0,
0,
0,
0,
0,
0,
0,
0,
0,
0,
0,
0,
0,
0,
0,
0,
0,
0,
0,
0,
0,
0,
0,
0,
0,
0,
0,
0,
0,
0,
0,
0,
0,
0,
0,
0,
0,
0,
0,
0,
0,
0,
0,
0,
0,
0,
0,
0,
0,
0,
0,
0,
0,
0,
0,
0,
0,
0,
0,
0,
0,
0,
0,
0,
0,
0,
0,
0,
0,
0,
0,
0,
0,
0,
0,
0,
0,
0,
0,
0,
0,
0,
0,
0,
0,
0,
0,
0,
0,
0,
0,
0,
0,
0,
0,
0,
0,
0,
0,
0,
#ENDOFDATA   :