File: N132962/Quantification/20 keV/Glass Mount IIIB/GM IIIB K968[0][4].msa
#FORMAT      : EMSA/MAS Spectral Data File
#VERSION     : 1.0
#TITLE       : GM IIIB K968[0][all]
#DATE        : 10-SEP-2025
#TIME        : 16:20
#OWNER       : Unknown
#NPOINTS     : 4096
#NCOLUMNS    : 1
#XUNITS      : eV
#YUNITS      : counts
#DATATYPE    : Y
#XPERCHAN    : 9.99778
#OFFSET      : 1.69135
#BEAMKV      : 20
#SIGNALTYPE  : EDS
#ELEVANGLE   : 35
#AZIMANGLE   : 0
#LIVETIME    : 240.246
#REALTIME    : 266.6
#PROBECUR    : 1.22413
#TAUWIND     : 0
#TDEADLYR    : 0
#TACTLYR     : 0.045
#TALWIND     : 0.025
#CHOFFSET    : 0.0
#XLABEL      : Energy (eV)
#YLABEL      : Counts
#XPOSITION   : 7.16612
#YPOSITION   : 12.22077
#ZPOSITION   : 34.06144
#EDSDET      : SD
##SPECIMEN   : GM IIIB K968[0][all]
##D2STDCMP   : K968,(O:16.62),(Mg:0.08),(P:0.2),(Ti:0.16),(Cr:0.17),(Ni:0.19),(Ge:26.27),(Zr:0.3),(Ba:0.45),(Eu:0.49),(Pb:54.91),(Th:0.08),(U:0.09)
##DET_HASH   : 12273538-fd48-a23f-0a19-f1e6fa85caef
##CALIB_HASH : 6abaa72c-aa41-8738-0be9-f592914732f3
##WORKING    : 15.0 mm
##DET_NAME   : EDAX All
##DET_MODE   : MediumLE
#SPECTRUM    :
31,
33,
23,
47,
222,
927,
2389,
5213,
10133,
12379,
8649,
6306,
6321,
6409,
7501,
13653,
36318,
62881,
47241,
17567,
9559,
8408,
8149,
8927,
8307,
7550,
7407,
7919,
8619,
8653,
8656,
8548,
9209,
11213,
14000,
15485,
14764,
20101,
49952,
107600,
130888,
88528,
37970,
15319,
9484,
8143,
7805,
7809,
7851,
8265,
8165,
8207,
8130,
8217,
8496,
8628,
9254,
9799,
10757,
12824,
15808,
16978,
14696,
11078,
9578,
9633,
10108,
10957,
10813,
10258,
10067,
10599,
11725,
12320,
14263,
21724,
46710,
98171,
143513,
138616,
111544,
101386,
87094,
52017,
23012,
11123,
9041,
10601,
12247,
11907,
9560,
7303,
6332,
5995,
5976,
6062,
6165,
6337,
6676,
6718,
6984,
7499,
7805,
7870,
7734,
7221,
6709,
6265,
6153,
5913,
5929,
6010,
5758,
5875,
5875,
5854,
5919,
6060,
5995,
6023,
6031,
5919,
5762,
5752,
5843,
5905,
5862,
5664,
5518,
5444,
5534,
5405,
5626,
5656,
5448,
5419,
5441,
5408,
5456,
5374,
5535,
5437,
5449,
5472,
5539,
5359,
5519,
5997,
6517,
7134,
7264,
6881,
6120,
5700,
5466,
5389,
5243,
5422,
5345,
5484,
5574,
5643,
5631,
5560,
5513,
5300,
5175,
5126,
5158,
5076,
5090,
5056,
4985,
5007,
4982,
4951,
4976,
4969,
5152,
5251,
5428,
5260,
5130,
4944,
4844,
4815,
4665,
4547,
4680,
4751,
4707,
4748,
4720,
5039,
5076,
5123,
4881,
4766,
4698,
4452,
4519,
4419,
4367,
4281,
4360,
4340,
4259,
4206,
4177,
4190,
4422,
4537,
4579,
4775,
4788,
4721,
4508,
4201,
4201,
4167,
4041,
3914,
4042,
4032,
3898,
4024,
3933,
4018,
3902,
3943,
3852,
3914,
3743,
3763,
3664,
3839,
3746,
3631,
3598,
3617,
3658,
3654,
3503,
3605,
3606,
3568,
3754,
3968,
4162,
4154,
4109,
3867,
3593,
3506,
3409,
3300,
3332,
3295,
3249,
3376,
3278,
3292,
3136,
3170,
3186,
3234,
3170,
3078,
3109,
3088,
3042,
3105,
3163,
3075,
3060,
3114,
3089,
2996,
2976,
2880,
2845,
2898,
2901,
2919,
2838,
2891,
2935,
2875,
2780,
2840,
2845,
2705,
2936,
2645,
2665,
2666,
2645,
2782,
2776,
2696,
2665,
2743,
2747,
2863,
2821,
3078,
3052,
3003,
2928,
2825,
2678,
2611,
2437,
2431,
2387,
2460,
2401,
2486,
2390,
2412,
2470,
2454,
2662,
3127,
4484,
6870,
10758,
15266,
19215,
20574,
19287,
15316,
10439,
6668,
4069,
2978,
2489,
2238,
2210,
2189,
2161,
2149,
2191,
2222,
2475,
2878,
3685,
4804,
6573,
8898,
10928,
11977,
11749,
9989,
7621,
5293,
3713,
2704,
2379,
2061,
2057,
2227,
2722,
3186,
3865,
4234,
4334,
3968,
3356,
2785,
2325,
2036,
1744,
1666,
1647,
1625,
1656,
1607,
1626,
1621,
1640,
1596,
1567,
1565,
1626,
1437,
1442,
1464,
1533,
1505,
1492,
1532,
1492,
1407,
1396,
1320,
1408,
1448,
1372,
1422,
1436,
1458,
1418,
1434,
1511,
1436,
1559,
1401,
1549,
1517,
1452,
1490,
1486,
1348,
1619,
1796,
2155,
2859,
3727,
4557,
4640,
4729,
3973,
3274,
2521,
1845,
1632,
1375,
1370,
1247,
1230,
1261,
1287,
1254,
1254,
1218,
1165,
1041,
1015,
984,
933,
969,
922,
936,
902,
957,
869,
892,
921,
913,
927,
899,
834,
848,
811,
867,
856,
829,
771,
848,
829,
761,
780,
804,
784,
779,
768,
763,
778,
776,
761,
729,
686,
717,
752,
687,
689,
692,
668,
661,
649,
677,
673,
686,
671,
679,
626,
669,
717,
789,
874,
902,
896,
863,
795,
732,
650,
595,
620,
571,
576,
558,
599,
609,
647,
618,
589,
566,
598,
515,
542,
523,
482,
485,
489,
481,
400,
426,
467,
471,
447,
410,
446,
444,
459,
465,
431,
402,
399,
435,
387,
398,
334,
388,
406,
382,
382,
345,
378,
375,
312,
360,
355,
322,
346,
308,
320,
297,
332,
320,
290,
302,
316,
334,
293,
270,
294,
312,
305,
252,
265,
270,
242,
261,
267,
261,
269,
254,
241,
267,
245,
221,
225,
234,
236,
222,
217,
243,
231,
247,
181,
191,
218,
226,
196,
217,
193,
188,
205,
182,
180,
168,
188,
178,
171,
168,
179,
164,
163,
160,
144,
143,
122,
154,
137,
126,
148,
111,
124,
133,
132,
115,
104,
107,
113,
111,
107,
114,
104,
106,
93,
85,
95,
80,
91,
92,
94,
84,
71,
84,
74,
81,
71,
64,
69,
63,
68,
58,
52,
55,
45,
50,
46,
70,
47,
43,
41,
45,
42,
49,
32,
36,
38,
27,
35,
36,
22,
25,
17,
25,
24,
13,
20,
15,
11,
8,
11,
6,
10,
5,
2,
2,
2,
7,
5,
4,
3,
3,
4,
5,
4,
6,
3,
3,
4,
6,
4,
3,
7,
4,
3,
5,
9,
5,
7,
6,
5,
6,
4,
6,
5,
3,
7,
4,
6,
3,
4,
3,
4,
3,
3,
4,
5,
6,
2,
2,
4,
3,
2,
2,
8,
4,
3,
3,
7,
4,
0,
4,
6,
5,
3,
1,
2,
1,
3,
7,
2,
2,
0,
0,
2,
5,
6,
1,
1,
4,
2,
4,
1,
5,
5,
2,
3,
4,
4,
0,
1,
1,
1,
1,
0,
2,
0,
3,
5,
3,
2,
2,
0,
3,
2,
7,
2,
2,
3,
2,
1,
3,
1,
0,
1,
1,
4,
2,
0,
0,
2,
3,
0,
0,
2,
0,
0,
0,
1,
3,
1,
2,
2,
0,
2,
1,
1,
2,
0,
2,
0,
0,
1,
1,
0,
3,
0,
1,
2,
1,
1,
3,
1,
1,
0,
0,
0,
3,
3,
0,
4,
2,
0,
0,
1,
2,
1,
1,
2,
1,
2,
2,
0,
0,
2,
0,
2,
0,
1,
2,
2,
2,
1,
2,
0,
0,
2,
0,
1,
2,
0,
2,
0,
0,
0,
1,
3,
2,
1,
0,
0,
1,
2,
1,
0,
1,
2,
1,
1,
0,
2,
1,
0,
0,
0,
3,
0,
0,
1,
1,
1,
1,
0,
3,
1,
3,
0,
1,
2,
0,
0,
0,
3,
1,
1,
0,
2,
1,
0,
1,
0,
0,
1,
0,
1,
1,
0,
0,
0,
2,
0,
0,
0,
0,
0,
0,
1,
1,
0,
1,
0,
2,
1,
0,
1,
0,
1,
0,
1,
0,
2,
0,
0,
0,
0,
0,
1,
1,
1,
0,
2,
0,
1,
1,
0,
0,
0,
0,
0,
0,
0,
1,
2,
1,
0,
0,
1,
0,
0,
0,
0,
0,
0,
0,
1,
2,
0,
0,
0,
1,
1,
0,
0,
0,
0,
0,
0,
0,
1,
1,
0,
1,
0,
0,
0,
0,
1,
2,
0,
0,
0,
0,
0,
0,
0,
0,
0,
0,
0,
0,
0,
0,
0,
0,
0,
0,
1,
0,
0,
1,
1,
1,
0,
0,
0,
0,
1,
0,
0,
0,
0,
0,
0,
0,
0,
1,
0,
0,
0,
0,
0,
0,
0,
0,
0,
1,
0,
0,
0,
0,
0,
0,
0,
0,
0,
0,
0,
0,
0,
0,
1,
0,
0,
0,
0,
0,
0,
0,
0,
0,
0,
0,
0,
0,
0,
0,
1,
0,
0,
0,
0,
0,
0,
0,
0,
0,
0,
0,
0,
0,
0,
0,
0,
0,
0,
0,
0,
0,
0,
0,
0,
0,
1,
0,
0,
0,
0,
0,
0,
0,
0,
0,
0,
0,
0,
0,
0,
0,
0,
0,
0,
0,
0,
0,
0,
0,
0,
0,
0,
1,
0,
0,
0,
0,
0,
0,
0,
0,
0,
0,
0,
0,
0,
0,
0,
0,
1,
0,
0,
0,
0,
0,
0,
0,
0,
0,
0,
0,
0,
0,
0,
0,
0,
0,
0,
0,
0,
0,
0,
0,
0,
0,
0,
0,
0,
0,
0,
0,
0,
0,
0,
0,
0,
0,
0,
0,
0,
0,
0,
0,
0,
0,
0,
0,
0,
0,
0,
0,
0,
0,
0,
0,
0,
0,
0,
0,
0,
0,
0,
0,
0,
0,
0,
0,
0,
0,
0,
0,
0,
0,
0,
0,
0,
0,
0,
0,
0,
0,
0,
0,
0,
0,
0,
0,
0,
0,
0,
0,
0,
0,
0,
0,
0,
0,
0,
0,
0,
0,
0,
0,
0,
0,
0,
0,
0,
0,
0,
0,
0,
0,
0,
0,
0,
0,
0,
0,
0,
0,
0,
0,
0,
0,
0,
0,
0,
0,
0,
0,
0,
0,
0,
0,
0,
0,
0,
0,
0,
0,
0,
0,
0,
0,
0,
0,
0,
0,
0,
0,
0,
0,
0,
0,
0,
0,
0,
0,
0,
0,
0,
0,
0,
0,
0,
0,
0,
0,
0,
0,
0,
0,
0,
0,
0,
0,
0,
0,
0,
0,
0,
0,
0,
0,
0,
0,
0,
0,
0,
0,
0,
0,
0,
0,
0,
0,
0,
0,
0,
0,
0,
0,
0,
0,
0,
0,
0,
0,
0,
0,
0,
0,
0,
0,
0,
0,
0,
0,
0,
0,
0,
0,
#ENDOFDATA   :