File: N132962/Quantification/20 keV/Glass Mount IIIB/GM IIIB K252[0][4].msa
#FORMAT      : EMSA/MAS Spectral Data File
#VERSION     : 1.0
#TITLE       : GM IIIB K252[0][all]
#DATE        : 10-SEP-2025
#TIME        : 18:59
#OWNER       : Unknown
#NPOINTS     : 4096
#NCOLUMNS    : 1
#XUNITS      : eV
#YUNITS      : counts
#DATATYPE    : Y
#XPERCHAN    : 9.99778
#OFFSET      : 1.69135
#BEAMKV      : 20
#SIGNALTYPE  : EDS
#ELEVANGLE   : 35
#AZIMANGLE   : 0
#LIVETIME    : 240.208
#REALTIME    : 261.478
#PROBECUR    : 1.2221
#TAUWIND     : 0
#TDEADLYR    : 0
#TACTLYR     : 0.045
#TALWIND     : 0.025
#CHOFFSET    : 0.0
#XLABEL      : Energy (eV)
#YLABEL      : Counts
#XPOSITION   : 5.60879
#YPOSITION   : 0.65714
#ZPOSITION   : 34.00159
#EDSDET      : SD
##SPECIMEN   : GM IIIB K252[0][all]
##D2STDCMP   : K252,(O:30.83),(Si:18.7),(Mn:3.16),(Co:3.93),(Cu:3.99),(Zn:8.03),(Ba:31.35)
##DET_HASH   : 12273538-fd48-a23f-0a19-f1e6fa85caef
##CALIB_HASH : 6abaa72c-aa41-8738-0be9-f592914732f3
##WORKING    : 15.0 mm
##DET_NAME   : EDAX All
##DET_MODE   : MediumLE
#SPECTRUM    :
33,
24,
7,
30,
128,
554,
1361,
3099,
6750,
8283,
6006,
5250,
6008,
7102,
10674,
30251,
104399,
194102,
142484,
43489,
14783,
11025,
8762,
7305,
8232,
12853,
15760,
11822,
7728,
8329,
12771,
16819,
19020,
26152,
29295,
19763,
9353,
5393,
4464,
4299,
4395,
4524,
4591,
4644,
4777,
5004,
5215,
5303,
5685,
6077,
6393,
6390,
6260,
6508,
7417,
14700,
48373,
118761,
159067,
113120,
47899,
18460,
10042,
6422,
5021,
4666,
4604,
4724,
4780,
4770,
4822,
4827,
4998,
5043,
5226,
5439,
5381,
5267,
5146,
5123,
4886,
5104,
5122,
5049,
5070,
5050,
5192,
5168,
5051,
5216,
5349,
5481,
5186,
5112,
4926,
4930,
4861,
4810,
4815,
5004,
4795,
4891,
4889,
4964,
4991,
4727,
4749,
4590,
4645,
4735,
4577,
4653,
4559,
4631,
4696,
4603,
4643,
4583,
4539,
4383,
4424,
4350,
4369,
4314,
4288,
4237,
4379,
4166,
4404,
4629,
5171,
5926,
6147,
5703,
5033,
4479,
4099,
4147,
4059,
4047,
4037,
4110,
4356,
4666,
5654,
8600,
16581,
32294,
49888,
56338,
45835,
27555,
13438,
6574,
4462,
3934,
4114,
5500,
9140,
15997,
24304,
28764,
26450,
19734,
14091,
9758,
7260,
5698,
5064,
5744,
7952,
10770,
11939,
10547,
7660,
5106,
3750,
3299,
3078,
3089,
3157,
3507,
4257,
5447,
6349,
6096,
5017,
3986,
3158,
2948,
3126,
3450,
4322,
5572,
7417,
9530,
11198,
10780,
8685,
6011,
4013,
2967,
2648,
2511,
2386,
2569,
2398,
2448,
2351,
2382,
2426,
2558,
2651,
2873,
3033,
3350,
3414,
3328,
2939,
2638,
2402,
2267,
2230,
2235,
2199,
2285,
2505,
3155,
4695,
6541,
8145,
8401,
7482,
5430,
3754,
2606,
2227,
2111,
1980,
2016,
1941,
2016,
1985,
1951,
1953,
1874,
2000,
2001,
2068,
2021,
2051,
2170,
2205,
2406,
2645,
2637,
2527,
2339,
2026,
1927,
1809,
1785,
1839,
2056,
2631,
3567,
4919,
6154,
6475,
5852,
4614,
3324,
2362,
1840,
1738,
1730,
1598,
1609,
1575,
1638,
1633,
1689,
1944,
2639,
3812,
5741,
8013,
9537,
9627,
8148,
6090,
4049,
2668,
2053,
1870,
1886,
1940,
2041,
1956,
1772,
1540,
1441,
1487,
1431,
1411,
1412,
1365,
1400,
1324,
1282,
1311,
1297,
1336,
1343,
1356,
1566,
1733,
2042,
2213,
2274,
2216,
1946,
1658,
1376,
1314,
1215,
1140,
1253,
1180,
1130,
1105,
1099,
1067,
1134,
1084,
1034,
1081,
1047,
1037,
1023,
1037,
985,
1063,
1066,
1029,
1076,
1013,
987,
1035,
962,
985,
961,
1002,
1005,
1064,
962,
965,
937,
890,
904,
950,
890,
937,
915,
910,
906,
860,
878,
799,
924,
922,
871,
905,
827,
810,
872,
837,
786,
798,
794,
819,
830,
796,
774,
782,
798,
773,
705,
734,
732,
797,
796,
729,
778,
747,
700,
712,
716,
688,
659,
689,
697,
674,
675,
658,
632,
672,
662,
608,
641,
625,
608,
564,
589,
611,
600,
558,
639,
590,
555,
538,
536,
532,
533,
564,
554,
541,
509,
540,
518,
546,
508,
514,
504,
495,
529,
501,
498,
528,
472,
476,
450,
432,
492,
459,
484,
450,
458,
443,
472,
434,
405,
427,
439,
426,
445,
431,
412,
367,
402,
391,
398,
364,
377,
424,
401,
350,
359,
386,
362,
330,
376,
347,
316,
359,
373,
304,
306,
319,
333,
311,
310,
334,
326,
328,
302,
286,
292,
292,
260,
291,
251,
272,
304,
254,
257,
247,
246,
263,
228,
262,
286,
253,
246,
253,
228,
241,
220,
234,
233,
224,
225,
200,
216,
220,
221,
199,
174,
208,
231,
194,
223,
205,
189,
191,
178,
188,
184,
153,
189,
155,
159,
172,
151,
166,
171,
182,
159,
155,
144,
173,
150,
155,
159,
170,
153,
128,
131,
139,
131,
140,
126,
120,
130,
133,
142,
113,
126,
122,
115,
122,
121,
110,
125,
116,
101,
141,
106,
107,
112,
91,
91,
110,
87,
84,
92,
89,
81,
92,
112,
88,
90,
78,
85,
78,
83,
80,
81,
75,
69,
79,
68,
80,
59,
85,
72,
71,
65,
68,
79,
57,
74,
71,
64,
54,
62,
56,
52,
71,
52,
53,
46,
51,
48,
45,
53,
45,
45,
41,
48,
41,
32,
41,
33,
40,
35,
34,
39,
26,
22,
24,
20,
23,
17,
28,
17,
12,
22,
32,
21,
22,
17,
23,
20,
27,
19,
13,
13,
14,
18,
18,
14,
15,
18,
7,
7,
14,
11,
7,
9,
4,
4,
2,
4,
7,
2,
0,
1,
3,
2,
3,
2,
1,
0,
0,
4,
3,
1,
1,
4,
1,
1,
0,
0,
4,
1,
2,
2,
2,
5,
0,
1,
0,
3,
4,
1,
1,
2,
0,
1,
0,
0,
0,
1,
0,
0,
1,
0,
2,
0,
1,
2,
3,
0,
0,
1,
1,
3,
1,
0,
1,
0,
0,
1,
1,
4,
1,
0,
1,
0,
0,
1,
2,
0,
1,
1,
1,
0,
1,
2,
0,
0,
0,
0,
1,
0,
0,
1,
1,
0,
0,
0,
1,
0,
0,
1,
0,
0,
0,
2,
1,
2,
1,
2,
0,
0,
1,
0,
0,
0,
0,
0,
1,
0,
0,
0,
0,
1,
2,
0,
0,
0,
0,
0,
0,
1,
0,
0,
0,
0,
0,
0,
0,
0,
1,
0,
0,
0,
0,
0,
0,
0,
0,
0,
0,
0,
1,
0,
1,
0,
0,
1,
0,
0,
0,
1,
0,
0,
0,
0,
0,
1,
0,
0,
0,
0,
1,
1,
1,
0,
0,
2,
0,
0,
0,
0,
0,
0,
0,
0,
0,
0,
0,
0,
0,
0,
1,
0,
0,
0,
0,
0,
0,
0,
0,
1,
0,
0,
0,
1,
0,
1,
0,
0,
2,
0,
0,
1,
1,
3,
1,
0,
0,
2,
0,
0,
0,
0,
0,
1,
0,
0,
0,
0,
0,
0,
0,
0,
0,
0,
0,
0,
0,
0,
0,
0,
0,
0,
0,
0,
0,
0,
0,
0,
0,
0,
1,
0,
0,
0,
1,
0,
0,
0,
0,
0,
0,
0,
0,
0,
0,
0,
1,
0,
0,
0,
0,
0,
0,
0,
0,
0,
1,
0,
1,
0,
0,
0,
0,
0,
0,
0,
0,
0,
1,
0,
0,
0,
0,
0,
0,
0,
0,
0,
0,
0,
0,
0,
0,
0,
1,
0,
0,
0,
0,
0,
0,
0,
0,
0,
0,
0,
0,
0,
0,
0,
0,
0,
0,
0,
0,
0,
0,
0,
0,
0,
0,
0,
0,
0,
0,
1,
0,
0,
0,
0,
1,
1,
0,
0,
0,
0,
0,
0,
0,
0,
0,
0,
0,
0,
0,
0,
0,
0,
0,
0,
0,
0,
0,
0,
0,
0,
0,
0,
0,
0,
0,
0,
0,
0,
0,
0,
0,
0,
0,
1,
0,
0,
0,
0,
0,
0,
0,
0,
0,
0,
0,
0,
0,
0,
0,
0,
0,
0,
0,
0,
0,
0,
0,
0,
0,
0,
0,
0,
0,
0,
0,
0,
0,
0,
0,
0,
0,
0,
0,
0,
0,
0,
0,
0,
0,
0,
0,
0,
0,
0,
0,
0,
0,
0,
0,
0,
0,
0,
0,
0,
0,
0,
0,
0,
0,
0,
0,
0,
0,
0,
0,
0,
0,
0,
0,
0,
0,
0,
0,
0,
0,
0,
0,
0,
0,
0,
0,
0,
0,
0,
0,
0,
0,
0,
0,
0,
0,
0,
0,
0,
0,
0,
0,
0,
0,
0,
0,
0,
0,
0,
0,
0,
0,
0,
0,
0,
0,
0,
0,
0,
0,
0,
0,
0,
0,
0,
0,
0,
0,
0,
0,
0,
0,
0,
0,
0,
0,
0,
0,
0,
0,
0,
0,
0,
0,
0,
0,
0,
0,
0,
0,
0,
0,
0,
0,
0,
0,
0,
0,
0,
0,
0,
0,
0,
0,
0,
0,
0,
0,
0,
0,
0,
0,
0,
0,
0,
0,
0,
0,
0,
0,
0,
0,
0,
0,
0,
0,
0,
0,
0,
0,
0,
0,
0,
0,
0,
0,
0,
0,
0,
0,
0,
0,
0,
0,
0,
0,
0,
0,
0,
0,
0,
0,
0,
0,
0,
0,
0,
0,
0,
0,
0,
0,
0,
0,
0,
0,
0,
0,
0,
0,
0,
0,
0,
0,
0,
0,
0,
0,
0,
0,
0,
0,
0,
0,
0,
0,
0,
0,
0,
0,
0,
0,
0,
0,
0,
0,
0,
0,
0,
0,
0,
0,
0,
0,
0,
0,
0,
0,
0,
0,
0,
0,
0,
0,
0,
0,
0,
0,
0,
0,
0,
0,
0,
0,
0,
0,
0,
0,
0,
0,
0,
0,
0,
0,
0,
0,
0,
0,
0,
0,
0,
0,
0,
0,
0,
0,
0,
0,
0,
0,
0,
0,
0,
0,
0,
0,
0,
0,
0,
0,
0,
0,
0,
0,
0,
0,
0,
0,
0,
#ENDOFDATA   :