File: N132962/Quantification/20 keV/Glass Mount IIIB/GM IIIB K1070[4][4].msa
#FORMAT      : EMSA/MAS Spectral Data File
#VERSION     : 1.0
#TITLE       : GM IIIB K1070[4][all]
#DATE        : 10-SEP-2025
#TIME        : 16:54
#OWNER       : Unknown
#NPOINTS     : 4096
#NCOLUMNS    : 1
#XUNITS      : eV
#YUNITS      : counts
#DATATYPE    : Y
#XPERCHAN    : 9.99778
#OFFSET      : 1.69135
#BEAMKV      : 20
#SIGNALTYPE  : EDS
#ELEVANGLE   : 35
#AZIMANGLE   : 0
#LIVETIME    : 240.147
#REALTIME    : 259.947
#PROBECUR    : 1.22416
#TAUWIND     : 0
#TDEADLYR    : 0
#TACTLYR     : 0.045
#TALWIND     : 0.025
#CHOFFSET    : 0.0
#XLABEL      : Energy (eV)
#YLABEL      : Counts
#XPOSITION   : 1.19211
#YPOSITION   : 13.46242
#ZPOSITION   : 34.06144
#EDSDET      : SD
##SPECIMEN   : GM IIIB K1070[4][all]
##D2STDCMP   : K1070,(O:34.31),(Mg:7.54),(Si:18.7),(Ca:8.93),(Zn:10.04),(Ba:11.2),(Pb:9.28)
##DET_HASH   : 12273538-fd48-a23f-0a19-f1e6fa85caef
##CALIB_HASH : 6abaa72c-aa41-8738-0be9-f592914732f3
##WORKING    : 15.0 mm
##DET_NAME   : EDAX All
##DET_MODE   : MediumLE
#SPECTRUM    :
24,
28,
6,
19,
94,
390,
1150,
2992,
7018,
9798,
7440,
5373,
4645,
4968,
7101,
20650,
72626,
136196,
99122,
28316,
6936,
4390,
4324,
4506,
4611,
5029,
5603,
5594,
5754,
6674,
6968,
7962,
16086,
34055,
42263,
27378,
11839,
6624,
5993,
8189,
19916,
44296,
52604,
31298,
11948,
6055,
5259,
5288,
5628,
5803,
6208,
6116,
6276,
6375,
7379,
15183,
51815,
128514,
174175,
123859,
52310,
20665,
11045,
6864,
5272,
5064,
4758,
4491,
4421,
4465,
4529,
4687,
4886,
5095,
5587,
6787,
10442,
17540,
23858,
23035,
18992,
17705,
15759,
10946,
6505,
4861,
4742,
5206,
5477,
5512,
5053,
4602,
4435,
4263,
4188,
4153,
4205,
4108,
4256,
4287,
4246,
4324,
4483,
4532,
4457,
4211,
4079,
4114,
4024,
3990,
3992,
3771,
3888,
3807,
3878,
4006,
4047,
4251,
4556,
5866,
10900,
23858,
41874,
52118,
44031,
26039,
11978,
5691,
4038,
3819,
4334,
5479,
7393,
9291,
9681,
8196,
5725,
4169,
3479,
3353,
3196,
3230,
3260,
3506,
3690,
4574,
7122,
12468,
17867,
20275,
16975,
10856,
6198,
3823,
3214,
3024,
3153,
3544,
4553,
6821,
9573,
10885,
10198,
8223,
6417,
4864,
3816,
3458,
3258,
3524,
4241,
5012,
5356,
4903,
4092,
3231,
2842,
2546,
2629,
2547,
2647,
2749,
3076,
3259,
3578,
3602,
3198,
2758,
2457,
2418,
2327,
2553,
2675,
2690,
2707,
2547,
2431,
2243,
2328,
2193,
2195,
2161,
2060,
2089,
2135,
2158,
2125,
2169,
2010,
2157,
2012,
2109,
2225,
2168,
2161,
2074,
1973,
1936,
1909,
2051,
1831,
1881,
1910,
1873,
1823,
1833,
1823,
1867,
1803,
1737,
1837,
1786,
1768,
1744,
1732,
1780,
1718,
1773,
1686,
1689,
1647,
1787,
1678,
1672,
1689,
1641,
1751,
1690,
1685,
1736,
1737,
1673,
1643,
1554,
1579,
1524,
1485,
1482,
1554,
1475,
1531,
1475,
1450,
1399,
1504,
1416,
1460,
1474,
1405,
1432,
1357,
1405,
1359,
1381,
1402,
1391,
1379,
1375,
1263,
1348,
1293,
1436,
1739,
2430,
3940,
6364,
9137,
10863,
11045,
9296,
6599,
4161,
2480,
1717,
1355,
1272,
1226,
1192,
1206,
1131,
1134,
1196,
1194,
1187,
1225,
1275,
1273,
1191,
1218,
1143,
1103,
1107,
1116,
1119,
1170,
1344,
1747,
1985,
2331,
2356,
2128,
1852,
1481,
1242,
1133,
988,
1003,
906,
982,
927,
974,
994,
970,
942,
923,
915,
922,
898,
883,
894,
876,
849,
917,
955,
888,
977,
1049,
1154,
1469,
1655,
1982,
2135,
2096,
1838,
1571,
1290,
1034,
905,
811,
742,
735,
766,
754,
766,
770,
758,
741,
723,
734,
755,
685,
787,
680,
674,
683,
731,
678,
693,
684,
634,
640,
648,
660,
627,
621,
615,
668,
595,
612,
624,
639,
607,
602,
571,
609,
554,
597,
592,
605,
562,
572,
566,
525,
493,
598,
541,
505,
557,
576,
531,
526,
523,
531,
577,
561,
554,
612,
735,
836,
957,
979,
884,
901,
717,
629,
568,
516,
439,
458,
462,
462,
465,
443,
449,
450,
427,
417,
403,
423,
394,
366,
380,
398,
352,
377,
387,
398,
376,
328,
368,
372,
328,
344,
354,
362,
323,
322,
329,
356,
306,
323,
306,
273,
302,
332,
308,
309,
316,
298,
308,
279,
283,
288,
257,
276,
282,
256,
238,
238,
265,
259,
261,
289,
253,
249,
268,
272,
261,
247,
262,
265,
277,
267,
288,
254,
224,
201,
228,
224,
221,
197,
203,
225,
209,
221,
232,
194,
192,
187,
183,
173,
189,
178,
193,
165,
173,
167,
150,
162,
173,
167,
148,
161,
151,
148,
144,
161,
143,
163,
137,
148,
149,
165,
129,
142,
113,
130,
146,
125,
117,
121,
109,
103,
122,
105,
115,
110,
112,
96,
119,
114,
111,
118,
105,
111,
94,
106,
96,
97,
91,
96,
92,
86,
99,
89,
83,
87,
79,
100,
80,
90,
81,
69,
87,
72,
69,
76,
69,
67,
75,
76,
76,
73,
70,
66,
76,
64,
46,
67,
43,
61,
65,
51,
62,
67,
62,
58,
55,
43,
59,
40,
42,
39,
37,
45,
40,
43,
41,
50,
34,
31,
37,
31,
47,
35,
34,
28,
36,
30,
33,
23,
33,
28,
26,
23,
29,
21,
27,
32,
30,
15,
25,
21,
13,
25,
25,
22,
14,
12,
10,
13,
7,
13,
16,
17,
15,
8,
5,
12,
14,
9,
7,
13,
8,
7,
7,
10,
4,
7,
7,
5,
2,
7,
1,
1,
1,
0,
2,
2,
1,
1,
2,
0,
2,
0,
1,
1,
1,
0,
1,
2,
2,
1,
2,
1,
0,
1,
0,
1,
1,
1,
0,
0,
3,
0,
1,
3,
0,
1,
0,
0,
1,
0,
0,
0,
1,
1,
1,
1,
0,
0,
0,
1,
1,
0,
0,
0,
3,
1,
3,
1,
0,
0,
1,
0,
0,
0,
0,
1,
1,
0,
0,
2,
2,
1,
2,
1,
0,
1,
1,
0,
0,
1,
1,
2,
0,
1,
1,
0,
0,
0,
0,
0,
0,
1,
1,
0,
1,
0,
0,
0,
0,
0,
0,
0,
1,
1,
0,
1,
1,
0,
0,
0,
0,
1,
0,
0,
0,
0,
0,
0,
0,
0,
0,
0,
0,
0,
0,
0,
0,
0,
0,
0,
0,
0,
0,
2,
0,
0,
0,
1,
0,
0,
0,
0,
1,
1,
0,
0,
0,
1,
0,
0,
0,
0,
0,
0,
0,
0,
0,
0,
1,
0,
0,
0,
0,
0,
0,
0,
0,
1,
0,
0,
0,
0,
0,
0,
0,
0,
1,
0,
0,
0,
0,
0,
0,
0,
0,
0,
0,
0,
0,
0,
0,
0,
0,
0,
0,
1,
0,
0,
0,
1,
0,
1,
0,
1,
0,
0,
0,
0,
0,
0,
0,
0,
1,
0,
0,
1,
0,
0,
0,
0,
0,
0,
0,
0,
0,
0,
0,
1,
0,
0,
0,
0,
0,
0,
0,
0,
0,
0,
0,
0,
0,
0,
1,
0,
0,
0,
0,
0,
0,
0,
0,
0,
0,
0,
0,
0,
1,
0,
0,
0,
0,
0,
0,
0,
0,
0,
0,
0,
0,
0,
0,
1,
0,
0,
0,
0,
0,
0,
0,
0,
0,
0,
0,
0,
0,
0,
0,
0,
0,
0,
0,
0,
0,
0,
0,
0,
0,
0,
0,
1,
0,
0,
0,
0,
0,
0,
0,
0,
1,
0,
0,
0,
0,
0,
0,
0,
0,
0,
0,
0,
0,
0,
0,
0,
0,
0,
0,
0,
0,
0,
0,
0,
0,
0,
0,
0,
0,
0,
0,
0,
0,
0,
0,
0,
0,
0,
0,
0,
1,
0,
0,
0,
0,
0,
0,
0,
0,
0,
0,
0,
0,
0,
0,
0,
0,
0,
0,
0,
0,
0,
0,
0,
0,
0,
0,
0,
0,
0,
0,
0,
0,
0,
0,
0,
0,
0,
0,
0,
0,
0,
0,
0,
0,
0,
0,
0,
0,
0,
0,
0,
0,
0,
0,
0,
0,
0,
0,
0,
0,
0,
0,
0,
0,
0,
0,
0,
0,
0,
0,
0,
0,
0,
0,
0,
0,
0,
0,
0,
0,
0,
0,
0,
0,
0,
0,
0,
0,
0,
0,
0,
0,
0,
0,
0,
0,
0,
0,
0,
0,
0,
0,
0,
0,
0,
0,
0,
0,
0,
0,
0,
0,
0,
0,
0,
0,
0,
0,
0,
0,
0,
0,
0,
0,
0,
0,
0,
0,
0,
0,
0,
0,
0,
0,
0,
0,
0,
0,
0,
0,
0,
0,
0,
0,
0,
0,
0,
0,
0,
0,
0,
0,
0,
0,
0,
0,
0,
0,
0,
0,
0,
0,
0,
0,
0,
0,
0,
0,
0,
0,
0,
0,
0,
0,
0,
0,
0,
0,
0,
0,
0,
0,
0,
0,
0,
0,
0,
0,
0,
0,
0,
0,
0,
0,
0,
0,
0,
0,
0,
0,
0,
0,
0,
0,
0,
0,
0,
0,
0,
0,
0,
0,
0,
0,
0,
0,
0,
0,
0,
0,
0,
0,
0,
0,
0,
0,
0,
0,
0,
0,
0,
0,
0,
0,
0,
0,
0,
0,
0,
0,
0,
0,
0,
0,
0,
0,
0,
0,
0,
0,
0,
0,
0,
0,
0,
0,
0,
0,
0,
0,
0,
0,
0,
0,
0,
0,
0,
0,
0,
0,
0,
0,
0,
0,
0,
0,
0,
0,
0,
0,
0,
0,
0,
0,
0,
0,
0,
0,
0,
0,
0,
0,
0,
0,
0,
0,
0,
0,
0,
0,
0,
0,
0,
0,
0,
0,
0,
0,
0,
0,
0,
0,
0,
0,
0,
0,
0,
0,
0,
0,
0,
0,
0,
0,
0,
0,
0,
0,
0,
0,
0,
0,
0,
0,
0,
0,
0,
0,
0,
0,
0,
0,
0,
0,
0,
0,
0,
0,
0,
0,
0,
0,
0,
0,
#ENDOFDATA   :