File: N132962/Quantification/20 keV/Glass Mount IIIB/GM IIIB K253[4][4].msa
#FORMAT      : EMSA/MAS Spectral Data File
#VERSION     : 1.0
#TITLE       : GM IIIB K253[4][all]
#DATE        : 10-SEP-2025
#TIME        : 19:09
#OWNER       : Unknown
#NPOINTS     : 4096
#NCOLUMNS    : 1
#XUNITS      : eV
#YUNITS      : counts
#DATATYPE    : Y
#XPERCHAN    : 9.99778
#OFFSET      : 1.69135
#BEAMKV      : 20
#SIGNALTYPE  : EDS
#ELEVANGLE   : 35
#AZIMANGLE   : 0
#LIVETIME    : 240.185
#REALTIME    : 261.553
#PROBECUR    : 1.2221
#TAUWIND     : 0
#TDEADLYR    : 0
#TACTLYR     : 0.045
#TALWIND     : 0.025
#CHOFFSET    : 0.0
#XLABEL      : Energy (eV)
#YLABEL      : Counts
#XPOSITION   : 3.19293
#YPOSITION   : 0.59418
#ZPOSITION   : 34.00159
#EDSDET      : SD
##SPECIMEN   : GM IIIB K253[4][all]
##D2STDCMP   : K253,(O:31.64),(Si:18.7),(Mn:6.32),(Co:1.97),(Cu:2.0),(Zn:8.03),(Ba:31.35)
##DET_HASH   : 12273538-fd48-a23f-0a19-f1e6fa85caef
##CALIB_HASH : 6abaa72c-aa41-8738-0be9-f592914732f3
##WORKING    : 15.0 mm
##DET_NAME   : EDAX All
##DET_MODE   : MediumLE
#SPECTRUM    :
24,
26,
13,
22,
144,
540,
1358,
3159,
6626,
8344,
6230,
5254,
6075,
7138,
10819,
31027,
107016,
198534,
145310,
45342,
16331,
12987,
9957,
6932,
7150,
10301,
12114,
9452,
6630,
7026,
9540,
12447,
16449,
25164,
29390,
19743,
9386,
5412,
4545,
4429,
4458,
4491,
4621,
4762,
4957,
4948,
5207,
5481,
5802,
6211,
6416,
6367,
6417,
6528,
7371,
14900,
48460,
119694,
160701,
114499,
48424,
18724,
10112,
6435,
5082,
4781,
4817,
4742,
4881,
4707,
4779,
4842,
4980,
5148,
5265,
5367,
5475,
5275,
5092,
5092,
4954,
5069,
5004,
4981,
4984,
5021,
5087,
5032,
5145,
5169,
5397,
5531,
5361,
5123,
4977,
4839,
5064,
4924,
4805,
4875,
4911,
4960,
4915,
4830,
4779,
5021,
4838,
4688,
4628,
4659,
4625,
4612,
4624,
4608,
4676,
4551,
4540,
4628,
4503,
4369,
4284,
4216,
4445,
4341,
4305,
4327,
4274,
4269,
4339,
4677,
5189,
5678,
6081,
5685,
5024,
4492,
4276,
4247,
4148,
4031,
4048,
4103,
4231,
4679,
5742,
8554,
16649,
32741,
49821,
57131,
46283,
27649,
13483,
6569,
4464,
3938,
4211,
5453,
9068,
15963,
24276,
28992,
26479,
20313,
13981,
9896,
7161,
5685,
5056,
5979,
8265,
10830,
11918,
10654,
7738,
5261,
3656,
3313,
3126,
3117,
3230,
3475,
4308,
5346,
6145,
5977,
5174,
4066,
3286,
3019,
3200,
3761,
4787,
6909,
10697,
15519,
18558,
18087,
14155,
8999,
5385,
3514,
2670,
2481,
2468,
2450,
2446,
2384,
2378,
2391,
2440,
2543,
2778,
3101,
3647,
4103,
4426,
4268,
3632,
2995,
2511,
2200,
2115,
2220,
2172,
2120,
2344,
2626,
3434,
4412,
5294,
5611,
4821,
3888,
2994,
2407,
2158,
2047,
2056,
2001,
1921,
1882,
1999,
1903,
1903,
2028,
1892,
1995,
2111,
1979,
2041,
2097,
2058,
2140,
2255,
2256,
2111,
2101,
1834,
1877,
1834,
1749,
1807,
1859,
2158,
2727,
3412,
4201,
4469,
4060,
3329,
2565,
2023,
1777,
1650,
1630,
1581,
1658,
1565,
1610,
1581,
1649,
1875,
2468,
3748,
5769,
7808,
9427,
9572,
8061,
6023,
3918,
2633,
1871,
1753,
1754,
1800,
1777,
1788,
1639,
1480,
1432,
1380,
1388,
1378,
1344,
1350,
1343,
1338,
1334,
1334,
1312,
1303,
1342,
1401,
1507,
1746,
1983,
2227,
2300,
2159,
1911,
1637,
1514,
1284,
1194,
1267,
1160,
1194,
1185,
1129,
1144,
1182,
1122,
1099,
1076,
1095,
1068,
1104,
1023,
1062,
991,
1061,
1089,
1041,
1016,
1038,
1030,
1000,
988,
926,
969,
1013,
923,
966,
941,
964,
973,
953,
941,
862,
934,
957,
898,
882,
877,
850,
886,
916,
856,
875,
867,
819,
837,
868,
856,
867,
834,
788,
722,
773,
780,
805,
752,
821,
749,
767,
784,
751,
740,
763,
736,
762,
717,
722,
758,
666,
683,
687,
685,
674,
686,
675,
678,
678,
665,
641,
626,
595,
648,
583,
636,
604,
578,
602,
594,
571,
587,
609,
598,
571,
582,
544,
546,
529,
562,
518,
524,
545,
549,
531,
529,
542,
512,
499,
529,
489,
517,
480,
455,
497,
462,
438,
427,
471,
495,
449,
483,
444,
420,
421,
440,
431,
427,
409,
416,
392,
412,
400,
396,
384,
347,
358,
393,
388,
371,
387,
378,
425,
376,
327,
350,
355,
368,
335,
332,
378,
330,
335,
334,
301,
310,
303,
325,
306,
316,
285,
297,
286,
291,
286,
300,
252,
274,
277,
253,
282,
261,
236,
246,
271,
235,
265,
258,
244,
246,
243,
238,
251,
227,
234,
247,
243,
234,
220,
223,
222,
220,
204,
217,
180,
209,
205,
219,
195,
203,
175,
188,
180,
202,
145,
169,
166,
186,
180,
205,
186,
175,
159,
149,
169,
131,
162,
142,
134,
165,
151,
146,
134,
127,
132,
130,
152,
128,
130,
143,
127,
120,
118,
127,
131,
112,
98,
128,
127,
112,
120,
110,
121,
108,
83,
100,
103,
107,
76,
107,
88,
108,
102,
87,
78,
89,
87,
85,
69,
73,
77,
70,
74,
75,
72,
84,
86,
69,
74,
73,
67,
61,
69,
58,
53,
47,
49,
49,
64,
53,
50,
61,
55,
37,
64,
40,
40,
41,
47,
43,
47,
43,
37,
45,
46,
35,
41,
32,
46,
47,
38,
33,
35,
34,
30,
28,
33,
30,
27,
22,
31,
19,
21,
21,
22,
24,
27,
19,
18,
10,
22,
13,
14,
16,
16,
12,
17,
9,
8,
9,
15,
10,
6,
9,
6,
2,
2,
4,
4,
0,
2,
1,
1,
1,
1,
1,
1,
2,
1,
1,
2,
3,
2,
1,
1,
2,
0,
0,
2,
0,
0,
1,
0,
0,
0,
0,
2,
1,
1,
4,
1,
1,
1,
0,
2,
0,
1,
1,
0,
2,
1,
0,
1,
0,
1,
0,
0,
0,
0,
1,
0,
1,
1,
0,
1,
0,
0,
0,
0,
1,
0,
1,
0,
1,
0,
1,
0,
0,
0,
0,
0,
0,
0,
1,
0,
3,
0,
0,
1,
0,
1,
2,
1,
0,
0,
0,
0,
2,
2,
2,
1,
0,
0,
3,
0,
2,
0,
0,
0,
0,
0,
0,
1,
0,
0,
0,
0,
2,
1,
1,
0,
0,
0,
0,
0,
0,
0,
0,
0,
0,
1,
0,
1,
0,
0,
0,
0,
0,
0,
0,
0,
1,
1,
0,
0,
1,
1,
0,
0,
0,
1,
0,
0,
0,
0,
1,
0,
0,
0,
1,
0,
0,
0,
0,
0,
1,
1,
2,
0,
0,
0,
0,
0,
0,
1,
0,
0,
0,
0,
0,
0,
1,
0,
0,
0,
0,
0,
1,
1,
1,
0,
0,
0,
0,
0,
0,
0,
0,
1,
0,
1,
1,
0,
0,
0,
0,
0,
0,
0,
0,
0,
0,
0,
1,
1,
0,
0,
0,
0,
0,
1,
1,
0,
0,
0,
0,
0,
0,
0,
0,
0,
0,
0,
0,
0,
0,
1,
0,
1,
1,
0,
0,
0,
1,
0,
0,
0,
0,
0,
0,
1,
0,
2,
0,
0,
0,
0,
0,
0,
0,
0,
0,
0,
0,
0,
0,
0,
0,
0,
0,
0,
1,
0,
0,
0,
0,
0,
0,
0,
0,
0,
0,
0,
1,
0,
0,
0,
0,
0,
0,
0,
0,
0,
0,
0,
0,
0,
0,
0,
0,
0,
0,
0,
0,
0,
0,
0,
0,
0,
0,
1,
0,
1,
0,
0,
1,
0,
0,
1,
0,
0,
0,
0,
0,
0,
0,
0,
0,
0,
0,
0,
0,
0,
0,
0,
0,
0,
0,
0,
0,
0,
1,
0,
0,
0,
0,
0,
0,
0,
0,
0,
0,
0,
0,
0,
0,
0,
0,
0,
0,
0,
0,
0,
0,
0,
0,
0,
0,
0,
1,
0,
0,
0,
0,
0,
0,
0,
0,
0,
0,
0,
0,
0,
0,
0,
0,
0,
0,
0,
0,
0,
0,
0,
0,
0,
0,
0,
0,
0,
0,
0,
0,
0,
0,
0,
0,
1,
0,
0,
0,
0,
0,
0,
0,
0,
0,
0,
0,
0,
0,
0,
0,
0,
0,
0,
0,
0,
0,
0,
0,
0,
0,
0,
0,
0,
0,
0,
0,
0,
0,
0,
0,
0,
0,
0,
0,
0,
0,
0,
0,
0,
0,
0,
0,
0,
0,
0,
0,
0,
0,
0,
0,
0,
0,
0,
0,
0,
0,
0,
0,
0,
0,
0,
0,
0,
0,
0,
0,
0,
0,
0,
0,
0,
0,
0,
0,
0,
0,
0,
0,
0,
0,
0,
0,
0,
0,
0,
0,
0,
0,
0,
0,
0,
0,
0,
0,
0,
0,
0,
0,
0,
0,
0,
0,
0,
0,
0,
0,
0,
0,
0,
0,
0,
0,
0,
0,
0,
0,
0,
0,
0,
0,
0,
0,
0,
0,
0,
0,
0,
0,
0,
0,
0,
0,
0,
0,
0,
0,
0,
0,
0,
0,
0,
0,
0,
0,
0,
0,
0,
0,
0,
0,
0,
0,
0,
0,
0,
0,
0,
0,
0,
0,
0,
0,
0,
0,
0,
0,
0,
0,
0,
0,
0,
0,
0,
0,
0,
0,
0,
0,
0,
0,
0,
0,
0,
0,
0,
0,
0,
0,
0,
0,
0,
0,
0,
0,
0,
0,
0,
0,
0,
0,
0,
0,
0,
0,
0,
0,
0,
0,
0,
0,
0,
0,
0,
0,
0,
0,
0,
0,
0,
0,
0,
0,
0,
0,
0,
0,
0,
0,
0,
0,
0,
0,
0,
0,
0,
0,
0,
0,
0,
0,
0,
0,
0,
0,
0,
0,
0,
0,
0,
0,
0,
0,
0,
0,
0,
0,
0,
0,
0,
0,
0,
0,
0,
0,
0,
0,
0,
0,
0,
0,
0,
0,
0,
0,
0,
0,
0,
0,
0,
0,
0,
0,
0,
0,
0,
0,
0,
0,
0,
0,
0,
0,
0,
0,
0,
0,
0,
0,
#ENDOFDATA   :