File: N132962/Quantification/20 keV/Glass Mount IIIB/GM IIIB K373[2][4].msa
#FORMAT      : EMSA/MAS Spectral Data File
#VERSION     : 1.0
#TITLE       : GM IIIB K373[2][all]
#DATE        : 10-SEP-2025
#TIME        : 18:14
#OWNER       : Unknown
#NPOINTS     : 4096
#NCOLUMNS    : 1
#XUNITS      : eV
#YUNITS      : counts
#DATATYPE    : Y
#XPERCHAN    : 9.99778
#OFFSET      : 1.69135
#BEAMKV      : 20
#SIGNALTYPE  : EDS
#ELEVANGLE   : 35
#AZIMANGLE   : 0
#LIVETIME    : 240.165
#REALTIME    : 260.145
#PROBECUR    : 1.22475
#TAUWIND     : 0
#TDEADLYR    : 0
#TACTLYR     : 0.045
#TALWIND     : 0.025
#CHOFFSET    : 0.0
#XLABEL      : Energy (eV)
#YLABEL      : Counts
#XPOSITION   : 4.35204
#YPOSITION   : 2.3336
#ZPOSITION   : 34.00159
#EDSDET      : SD
##SPECIMEN   : GM IIIB K373[2][all]
##D2STDCMP   : K373,(O:42.34),(Na:10.43),(Si:31.85),(Zn:4.94),(Ba:10.38),(U:0.05)
##DET_HASH   : 12273538-fd48-a23f-0a19-f1e6fa85caef
##CALIB_HASH : 6abaa72c-aa41-8738-0be9-f592914732f3
##WORKING    : 15.0 mm
##DET_NAME   : EDAX All
##DET_MODE   : MediumLE
#SPECTRUM    :
19,
26,
10,
12,
88,
361,
946,
2271,
4995,
6197,
4341,
3843,
5014,
6428,
10227,
35104,
132009,
250542,
181188,
47623,
7509,
3430,
3550,
3589,
3740,
4008,
4581,
4538,
4424,
4883,
5228,
6310,
13102,
34286,
62234,
59202,
27811,
8772,
4375,
3904,
3900,
3986,
4094,
4111,
4337,
4473,
4533,
4996,
5415,
6020,
6264,
6387,
6343,
6634,
8431,
22841,
90759,
232593,
317332,
222467,
89472,
29502,
13270,
6445,
3750,
3183,
3095,
3151,
3106,
3119,
3206,
3259,
3398,
3593,
4013,
4369,
4321,
3824,
3530,
3389,
3373,
3268,
3274,
3477,
3213,
3255,
3286,
3334,
3307,
3359,
3477,
3462,
3576,
3598,
3459,
3316,
3264,
3222,
3189,
3067,
3155,
3108,
3102,
3231,
3298,
3197,
3120,
3139,
2978,
3052,
3156,
3079,
3085,
3040,
3192,
3348,
3513,
3458,
3163,
2903,
2823,
2843,
2756,
2726,
2792,
2656,
2786,
2639,
2650,
2743,
2889,
3182,
3154,
3062,
2850,
2674,
2562,
2465,
2554,
2442,
2498,
2516,
2603,
2786,
2826,
3729,
6278,
11006,
16121,
18249,
15070,
9692,
5231,
3258,
2529,
2332,
2443,
2713,
3714,
6014,
8283,
9863,
9026,
7083,
5126,
3906,
3219,
2843,
2496,
2776,
3338,
4228,
4572,
4214,
3280,
2526,
2085,
1993,
1892,
1916,
1908,
2022,
2278,
2620,
2735,
2818,
2406,
2137,
1871,
1819,
1793,
1934,
2102,
2094,
1982,
1889,
1746,
1737,
1673,
1651,
1556,
1563,
1564,
1567,
1591,
1519,
1544,
1539,
1463,
1543,
1516,
1538,
1523,
1547,
1569,
1417,
1426,
1401,
1424,
1337,
1446,
1406,
1338,
1407,
1392,
1252,
1246,
1349,
1213,
1313,
1260,
1321,
1281,
1329,
1259,
1269,
1194,
1188,
1201,
1209,
1204,
1185,
1207,
1217,
1212,
1191,
1176,
1219,
1181,
1257,
1144,
1164,
1103,
1063,
1047,
1091,
1100,
1007,
1084,
1058,
1086,
978,
1083,
1000,
1052,
1013,
1007,
997,
995,
984,
951,
945,
987,
981,
977,
973,
916,
955,
892,
865,
955,
932,
1088,
1446,
2223,
3292,
4574,
5413,
5368,
4625,
3358,
2280,
1454,
1065,
887,
883,
757,
816,
798,
811,
778,
810,
812,
795,
796,
823,
799,
751,
723,
747,
739,
765,
736,
807,
833,
830,
1054,
1151,
1274,
1281,
1252,
1136,
948,
840,
751,
683,
660,
624,
647,
656,
655,
617,
653,
623,
648,
649,
614,
623,
586,
610,
596,
580,
564,
606,
634,
578,
567,
612,
591,
557,
550,
556,
471,
569,
563,
508,
542,
482,
560,
490,
482,
507,
495,
527,
487,
509,
472,
495,
436,
533,
461,
478,
490,
464,
451,
453,
457,
462,
452,
439,
402,
410,
399,
388,
428,
395,
400,
416,
393,
419,
386,
364,
379,
407,
422,
404,
405,
361,
400,
391,
372,
335,
340,
349,
381,
368,
347,
363,
348,
308,
333,
329,
368,
341,
303,
332,
300,
317,
352,
327,
288,
331,
303,
295,
301,
288,
290,
293,
309,
298,
279,
269,
283,
284,
263,
238,
281,
247,
249,
247,
240,
272,
232,
251,
250,
263,
240,
180,
219,
213,
228,
217,
222,
192,
217,
247,
205,
224,
223,
216,
217,
198,
201,
185,
183,
187,
204,
195,
190,
183,
180,
156,
185,
165,
170,
181,
173,
172,
152,
175,
179,
167,
153,
166,
145,
163,
166,
159,
150,
134,
152,
169,
152,
157,
134,
127,
118,
130,
146,
127,
125,
124,
106,
112,
117,
133,
133,
111,
137,
121,
107,
126,
129,
108,
99,
117,
111,
107,
98,
92,
83,
98,
99,
80,
90,
97,
95,
90,
92,
99,
92,
83,
87,
82,
80,
81,
89,
97,
86,
75,
78,
87,
85,
86,
82,
75,
71,
63,
69,
76,
56,
70,
67,
48,
59,
58,
68,
50,
62,
60,
52,
51,
63,
56,
56,
56,
45,
57,
50,
51,
51,
60,
59,
45,
30,
44,
50,
41,
43,
45,
34,
37,
41,
39,
35,
46,
33,
31,
43,
37,
36,
31,
35,
38,
40,
27,
44,
22,
35,
27,
31,
33,
22,
23,
26,
21,
20,
25,
23,
15,
23,
14,
26,
18,
18,
22,
16,
19,
14,
20,
18,
25,
18,
13,
20,
15,
17,
11,
14,
15,
8,
13,
9,
8,
9,
9,
8,
7,
13,
6,
8,
4,
4,
7,
9,
6,
10,
5,
5,
5,
2,
7,
2,
5,
7,
3,
2,
7,
1,
1,
5,
2,
1,
2,
1,
0,
3,
0,
1,
2,
0,
0,
1,
0,
0,
1,
0,
0,
0,
0,
0,
0,
0,
0,
0,
1,
0,
1,
0,
0,
1,
0,
0,
0,
1,
0,
0,
0,
0,
0,
1,
2,
0,
0,
0,
0,
0,
0,
0,
0,
0,
0,
2,
0,
0,
0,
0,
1,
0,
0,
0,
0,
1,
0,
0,
1,
1,
0,
2,
0,
0,
1,
0,
1,
0,
0,
0,
0,
0,
0,
0,
0,
0,
1,
1,
0,
0,
0,
0,
0,
0,
0,
0,
0,
0,
0,
0,
0,
0,
0,
0,
0,
0,
0,
0,
0,
1,
0,
0,
1,
0,
0,
1,
0,
0,
0,
0,
0,
0,
0,
1,
0,
0,
1,
0,
0,
0,
0,
0,
0,
0,
0,
0,
0,
0,
0,
0,
0,
0,
0,
0,
0,
0,
0,
0,
0,
0,
0,
0,
0,
0,
0,
0,
0,
0,
0,
1,
0,
0,
0,
0,
0,
0,
0,
0,
0,
0,
0,
0,
0,
0,
0,
0,
0,
1,
0,
0,
0,
0,
0,
0,
0,
0,
0,
0,
0,
0,
0,
0,
0,
0,
0,
0,
0,
0,
0,
0,
0,
0,
0,
0,
0,
0,
0,
0,
0,
0,
0,
0,
0,
0,
0,
0,
0,
0,
0,
0,
0,
0,
0,
1,
0,
0,
0,
0,
0,
0,
0,
0,
0,
0,
0,
0,
0,
0,
0,
0,
0,
0,
0,
0,
0,
0,
0,
0,
0,
0,
0,
0,
0,
0,
0,
0,
0,
0,
0,
0,
0,
0,
0,
0,
0,
0,
0,
0,
0,
1,
0,
0,
0,
0,
0,
0,
0,
0,
0,
0,
0,
0,
0,
0,
0,
0,
0,
0,
0,
0,
0,
0,
0,
0,
0,
0,
0,
0,
0,
0,
0,
0,
0,
0,
0,
0,
0,
0,
0,
0,
0,
0,
0,
0,
0,
0,
0,
0,
0,
0,
0,
0,
0,
0,
0,
0,
0,
0,
0,
0,
0,
0,
0,
0,
0,
0,
0,
0,
0,
0,
0,
0,
0,
0,
0,
0,
0,
1,
0,
0,
0,
0,
0,
0,
0,
0,
0,
0,
0,
0,
0,
0,
0,
0,
0,
0,
0,
0,
0,
0,
0,
0,
0,
0,
0,
0,
0,
0,
0,
0,
0,
0,
0,
0,
0,
0,
0,
0,
0,
0,
0,
0,
0,
0,
0,
0,
0,
0,
0,
0,
0,
0,
0,
0,
0,
0,
0,
0,
0,
0,
0,
0,
0,
0,
0,
0,
0,
0,
0,
0,
0,
0,
0,
0,
0,
0,
0,
0,
0,
0,
0,
0,
0,
0,
0,
0,
0,
0,
0,
0,
0,
0,
0,
0,
0,
0,
0,
0,
0,
0,
0,
0,
0,
0,
0,
0,
0,
0,
0,
0,
0,
0,
0,
0,
0,
0,
0,
0,
0,
0,
0,
0,
0,
0,
0,
0,
0,
0,
0,
0,
0,
0,
0,
0,
0,
0,
0,
0,
0,
0,
0,
0,
0,
0,
0,
0,
0,
0,
0,
0,
0,
0,
0,
0,
0,
0,
0,
0,
0,
0,
0,
0,
0,
0,
0,
0,
0,
0,
0,
0,
0,
0,
0,
0,
0,
0,
0,
0,
0,
0,
0,
0,
0,
0,
0,
0,
0,
0,
0,
0,
0,
0,
0,
0,
0,
0,
0,
0,
0,
0,
0,
0,
0,
0,
0,
0,
0,
0,
0,
0,
0,
0,
0,
0,
0,
0,
0,
0,
0,
0,
0,
0,
0,
0,
0,
0,
0,
0,
0,
0,
0,
0,
0,
0,
0,
0,
0,
0,
0,
0,
0,
0,
0,
0,
0,
0,
0,
0,
0,
0,
0,
0,
0,
0,
0,
0,
0,
0,
0,
0,
0,
0,
0,
0,
0,
0,
0,
0,
0,
0,
0,
0,
0,
0,
0,
0,
0,
0,
0,
0,
0,
0,
0,
0,
0,
0,
0,
0,
0,
0,
0,
0,
0,
0,
0,
0,
0,
0,
0,
0,
0,
0,
0,
0,
0,
0,
0,
0,
0,
0,
0,
0,
0,
0,
0,
0,
0,
0,
0,
0,
0,
0,
0,
0,
0,
0,
0,
0,
0,
0,
0,
0,
0,
0,
0,
0,
0,
0,
0,
0,
0,
0,
0,
0,
0,
0,
0,
0,
0,
0,
0,
0,
0,
0,
0,
0,
0,
0,
0,
#ENDOFDATA   :