File: N132962/Quantification/20 keV/Glass Mount IIIB/GM IIIB K961[3][4].msa
#FORMAT      : EMSA/MAS Spectral Data File
#VERSION     : 1.0
#TITLE       : GM IIIB K961[3][all]
#DATE        : 11-SEP-2025
#TIME        : 09:57
#OWNER       : Unknown
#NPOINTS     : 4096
#NCOLUMNS    : 1
#XUNITS      : eV
#YUNITS      : counts
#DATATYPE    : Y
#XPERCHAN    : 9.99778
#OFFSET      : 1.69135
#BEAMKV      : 20
#SIGNALTYPE  : EDS
#ELEVANGLE   : 35
#AZIMANGLE   : 0
#LIVETIME    : 240.144
#REALTIME    : 259.1838
#PROBECUR    : 1.22337
#TAUWIND     : 0
#TDEADLYR    : 0
#TACTLYR     : 0.045
#TALWIND     : 0.025
#CHOFFSET    : 0.0
#XLABEL      : Energy (eV)
#YLABEL      : Counts
#XPOSITION   : 11.34626
#YPOSITION   : 11.98167
#ZPOSITION   : 34.00161
#EDSDET      : SD
##SPECIMEN   : GM IIIB K961[3][all]
##D2STDCMP   : K961,(O:46.98),(Na:2.97),(Mg:3.02),(Al:5.82),(Si:29.92),(P:0.22),(K:2.49),(Ca:3.57),(Ti:1.2),(Mn:0.32),(Fe:3.5)
##DET_HASH   : 12273538-fd48-a23f-0a19-f1e6fa85caef
##CALIB_HASH : 6abaa72c-aa41-8738-0be9-f592914732f3
##WORKING    : 15.0 mm
##DET_NAME   : EDAX All
##DET_MODE   : MediumLE
#SPECTRUM    :
29,
24,
8,
13,
78,
339,
787,
1850,
4203,
5510,
4119,
3408,
3714,
4754,
8022,
28087,
103831,
197041,
142878,
37592,
5602,
2895,
3872,
5573,
5347,
3640,
2927,
2893,
3100,
3250,
3392,
3700,
4867,
9705,
18878,
20596,
12003,
5774,
4700,
5938,
12395,
25211,
29476,
18846,
8588,
5815,
6213,
11194,
30629,
58046,
58886,
32414,
13713,
7790,
8058,
21794,
86576,
224871,
305103,
215373,
85243,
28392,
12725,
6287,
3790,
3596,
4036,
4192,
3914,
3227,
2980,
3020,
2989,
3148,
3429,
3802,
3684,
3335,
3071,
2949,
2810,
2838,
2963,
2833,
2857,
2871,
2924,
2858,
2758,
2929,
2889,
2887,
2882,
2845,
2863,
2779,
2737,
2709,
2730,
2808,
2889,
2845,
2671,
2679,
2712,
2848,
3001,
3902,
6236,
11244,
15972,
15843,
11087,
6050,
3668,
3152,
3166,
3416,
3890,
4593,
6782,
11307,
17643,
21504,
17735,
10935,
5412,
3034,
2494,
2317,
2363,
2739,
3439,
4134,
4296,
3920,
2988,
2375,
2067,
2048,
2013,
1921,
1957,
1928,
1928,
2034,
2090,
2544,
3721,
5273,
6624,
6182,
4587,
3055,
2199,
1882,
1780,
1789,
1759,
1799,
1827,
1833,
1912,
2206,
2225,
2108,
2081,
1876,
1668,
1611,
1673,
1574,
1519,
1489,
1518,
1493,
1545,
1491,
1465,
1500,
1438,
1519,
1490,
1396,
1533,
1413,
1377,
1325,
1408,
1347,
1360,
1361,
1357,
1499,
1730,
1894,
2084,
2042,
1886,
1613,
1401,
1294,
1250,
1271,
1205,
1260,
1268,
1252,
1462,
1835,
3024,
5017,
7242,
8634,
8149,
6082,
4122,
2352,
1563,
1236,
1124,
1109,
1035,
1010,
1062,
1106,
1068,
1059,
1052,
1106,
1100,
1174,
1271,
1574,
1757,
1959,
1859,
1610,
1345,
1099,
989,
921,
896,
940,
962,
959,
892,
916,
946,
890,
899,
918,
871,
860,
878,
818,
829,
886,
857,
796,
840,
829,
798,
812,
782,
767,
744,
754,
785,
771,
776,
799,
841,
746,
765,
739,
713,
756,
751,
700,
769,
724,
691,
666,
693,
724,
628,
727,
653,
659,
674,
616,
633,
628,
614,
656,
618,
599,
613,
634,
588,
651,
583,
592,
608,
610,
563,
596,
560,
577,
562,
516,
571,
582,
555,
531,
555,
521,
531,
561,
509,
524,
499,
539,
492,
510,
505,
487,
477,
522,
531,
465,
470,
509,
486,
454,
475,
456,
446,
476,
476,
442,
438,
471,
442,
443,
454,
443,
425,
415,
403,
392,
387,
398,
446,
412,
391,
353,
372,
404,
419,
399,
385,
373,
399,
389,
326,
355,
354,
379,
364,
359,
377,
346,
352,
314,
337,
319,
355,
323,
323,
285,
335,
321,
308,
334,
306,
299,
311,
315,
318,
285,
277,
291,
299,
277,
274,
283,
270,
255,
272,
248,
269,
245,
272,
252,
250,
254,
257,
280,
240,
223,
250,
229,
244,
224,
227,
234,
198,
213,
225,
208,
211,
237,
192,
240,
199,
194,
196,
204,
203,
192,
193,
197,
174,
202,
193,
177,
177,
201,
182,
200,
189,
180,
190,
189,
161,
148,
183,
160,
171,
164,
161,
153,
165,
159,
147,
138,
170,
152,
129,
161,
144,
148,
127,
151,
144,
138,
171,
138,
122,
154,
101,
120,
121,
117,
137,
105,
116,
135,
121,
123,
111,
115,
111,
116,
110,
115,
120,
98,
88,
103,
96,
97,
103,
84,
97,
100,
80,
85,
88,
92,
69,
106,
87,
94,
88,
95,
80,
84,
88,
76,
98,
74,
77,
100,
68,
78,
83,
79,
68,
65,
64,
66,
67,
57,
60,
50,
44,
61,
78,
55,
62,
56,
56,
52,
67,
55,
65,
63,
44,
47,
64,
47,
41,
62,
58,
30,
41,
42,
44,
34,
49,
41,
31,
49,
40,
42,
38,
36,
38,
37,
38,
39,
42,
33,
45,
31,
34,
38,
22,
39,
33,
27,
33,
31,
22,
40,
25,
32,
34,
24,
23,
36,
30,
31,
18,
28,
29,
21,
24,
23,
22,
25,
24,
20,
12,
23,
20,
16,
17,
13,
17,
15,
16,
26,
15,
10,
18,
17,
16,
15,
17,
14,
9,
10,
13,
13,
8,
11,
14,
17,
11,
9,
9,
10,
10,
8,
11,
6,
6,
10,
10,
8,
10,
10,
12,
7,
5,
4,
14,
6,
8,
4,
5,
5,
4,
2,
5,
6,
5,
2,
3,
4,
6,
0,
0,
6,
0,
0,
4,
1,
0,
0,
0,
1,
1,
0,
1,
1,
0,
1,
0,
0,
2,
0,
0,
0,
1,
1,
0,
0,
0,
0,
0,
0,
0,
0,
0,
0,
1,
0,
0,
1,
1,
1,
1,
0,
0,
0,
0,
0,
0,
0,
0,
0,
0,
0,
1,
0,
0,
0,
0,
0,
0,
0,
0,
0,
0,
0,
0,
0,
0,
0,
0,
0,
0,
0,
0,
0,
0,
0,
0,
0,
0,
0,
1,
0,
0,
0,
0,
0,
0,
0,
0,
0,
1,
0,
0,
0,
0,
0,
0,
0,
0,
0,
0,
0,
0,
0,
0,
0,
0,
0,
0,
0,
1,
0,
0,
0,
0,
0,
0,
0,
0,
0,
0,
0,
0,
0,
0,
0,
0,
0,
0,
0,
0,
0,
0,
0,
0,
0,
0,
0,
0,
0,
1,
0,
0,
0,
0,
0,
0,
0,
0,
0,
0,
0,
0,
0,
1,
0,
0,
0,
0,
0,
0,
0,
0,
0,
0,
0,
0,
0,
0,
0,
0,
0,
0,
0,
0,
0,
0,
0,
0,
0,
0,
0,
0,
0,
0,
0,
0,
0,
0,
0,
0,
0,
0,
0,
0,
0,
0,
0,
0,
0,
0,
0,
0,
0,
0,
0,
0,
0,
0,
0,
0,
0,
0,
0,
0,
0,
0,
0,
0,
0,
0,
0,
0,
0,
0,
0,
0,
0,
0,
0,
0,
0,
0,
0,
0,
0,
0,
0,
1,
0,
0,
0,
0,
0,
0,
0,
0,
0,
0,
0,
0,
0,
0,
0,
0,
0,
0,
0,
0,
0,
0,
0,
0,
0,
0,
0,
0,
0,
0,
0,
0,
0,
0,
0,
2,
0,
0,
0,
0,
0,
0,
0,
0,
0,
0,
0,
0,
0,
0,
0,
0,
0,
0,
0,
0,
0,
0,
0,
0,
0,
0,
0,
0,
0,
0,
0,
0,
0,
0,
0,
0,
0,
0,
0,
0,
0,
0,
0,
0,
0,
0,
0,
0,
0,
0,
0,
0,
0,
0,
0,
0,
0,
0,
0,
0,
0,
0,
0,
0,
0,
0,
0,
0,
0,
0,
0,
0,
0,
0,
0,
0,
0,
0,
0,
0,
0,
0,
0,
0,
0,
0,
0,
0,
0,
0,
0,
0,
0,
0,
0,
0,
0,
0,
0,
0,
0,
0,
0,
0,
0,
0,
0,
0,
0,
0,
0,
0,
0,
0,
0,
0,
0,
0,
0,
0,
0,
0,
0,
0,
0,
0,
0,
0,
0,
0,
0,
0,
0,
0,
0,
0,
0,
0,
0,
0,
0,
0,
0,
0,
0,
0,
0,
0,
0,
0,
0,
0,
0,
0,
0,
0,
0,
0,
0,
0,
0,
0,
0,
0,
0,
0,
0,
0,
0,
0,
0,
0,
0,
0,
0,
0,
0,
0,
0,
0,
0,
0,
0,
0,
0,
0,
0,
0,
0,
0,
0,
0,
0,
0,
0,
0,
0,
0,
0,
0,
0,
0,
0,
0,
0,
0,
0,
0,
0,
0,
0,
0,
0,
0,
0,
0,
0,
0,
0,
0,
0,
0,
0,
0,
0,
0,
0,
0,
0,
0,
0,
0,
0,
0,
0,
0,
0,
0,
0,
0,
0,
0,
0,
0,
0,
0,
0,
0,
0,
0,
0,
0,
0,
0,
0,
0,
0,
0,
0,
0,
0,
0,
0,
0,
0,
0,
0,
0,
0,
0,
0,
0,
0,
0,
0,
0,
0,
0,
0,
0,
0,
0,
0,
0,
0,
0,
0,
0,
0,
0,
0,
0,
0,
0,
0,
0,
0,
0,
0,
0,
0,
0,
0,
0,
0,
0,
0,
0,
0,
0,
0,
0,
0,
0,
0,
0,
0,
0,
0,
0,
0,
0,
0,
0,
0,
0,
0,
0,
0,
0,
0,
0,
0,
0,
0,
0,
0,
0,
0,
0,
0,
0,
0,
0,
0,
0,
0,
0,
0,
0,
0,
0,
0,
0,
0,
0,
0,
0,
0,
0,
0,
0,
0,
0,
0,
0,
0,
0,
0,
0,
0,
0,
0,
0,
0,
0,
0,
0,
0,
0,
0,
0,
0,
0,
0,
0,
0,
0,
0,
0,
0,
0,
0,
0,
0,
0,
0,
0,
0,
0,
0,
0,
0,
0,
0,
0,
0,
0,
0,
0,
0,
0,
0,
0,
0,
0,
0,
0,
0,
0,
0,
0,
0,
0,
0,
0,
0,
0,
0,
0,
0,
0,
0,
0,
0,
#ENDOFDATA   :