File: N132962/Quantification/20 keV/Glass Mount IIIB/GM IIIB K412[1][4].msa
#FORMAT      : EMSA/MAS Spectral Data File
#VERSION     : 1.0
#TITLE       : GM IIIB K412[1][all]
#DATE        : 10-SEP-2025
#TIME        : 14:18
#OWNER       : Unknown
#NPOINTS     : 4096
#NCOLUMNS    : 1
#XUNITS      : eV
#YUNITS      : counts
#DATATYPE    : Y
#XPERCHAN    : 9.99778
#OFFSET      : 1.69135
#BEAMKV      : 20
#SIGNALTYPE  : EDS
#ELEVANGLE   : 35
#AZIMANGLE   : 0
#LIVETIME    : 240.14
#REALTIME    : 258.359
#PROBECUR    : 1.22574
#TAUWIND     : 0
#TDEADLYR    : 0
#TACTLYR     : 0.045
#TALWIND     : 0.025
#CHOFFSET    : 0.0
#XLABEL      : Energy (eV)
#YLABEL      : Counts
#XPOSITION   : 3.15456
#YPOSITION   : 4.82671
#ZPOSITION   : 34.06144
#EDSDET      : SD
##SPECIMEN   : GM IIIB K412[1][all]
##D2STDCMP   : K412,(O:42.7576),(Mg:11.6568),(Al:4.9062),(Si:21.1983),(Ca:10.8991),(Fe:7.742)
##DET_HASH   : 12273538-fd48-a23f-0a19-f1e6fa85caef
##CALIB_HASH : 6abaa72c-aa41-8738-0be9-f592914732f3
##WORKING    : 15.0 mm
##DET_NAME   : EDAX All
##DET_MODE   : MediumLE
#SPECTRUM    :
18,
29,
12,
9,
67,
291,
838,
2150,
5594,
8037,
6283,
4410,
3905,
4195,
6837,
23354,
87878,
167178,
122382,
32652,
5717,
3810,
5687,
9160,
8527,
4959,
3060,
2922,
3184,
3214,
3242,
3344,
3654,
3871,
4467,
4790,
4792,
4872,
5726,
10862,
35102,
84489,
101096,
57854,
18761,
6508,
5513,
8883,
22549,
42258,
42791,
24165,
10502,
6340,
6495,
15357,
57965,
145939,
198753,
140432,
57187,
20002,
9795,
5703,
4119,
3706,
3575,
3274,
3081,
3179,
3019,
3086,
3128,
3364,
3515,
3610,
3638,
3486,
3296,
3179,
3232,
3192,
3201,
3165,
3187,
3166,
3228,
3231,
3183,
3260,
3088,
3080,
3064,
3139,
3087,
2960,
2893,
2991,
3111,
3261,
3201,
3105,
3012,
2959,
2942,
3008,
2891,
2964,
2929,
2872,
2801,
2761,
2765,
2796,
2838,
2952,
3093,
3231,
3683,
5245,
11314,
26596,
48435,
60746,
51138,
29484,
12377,
4936,
3004,
2727,
3058,
4107,
6268,
8807,
9297,
7735,
5166,
3328,
2483,
2248,
2193,
2067,
2075,
2034,
1975,
1943,
1928,
2028,
2044,
2057,
2087,
2092,
1980,
1914,
1897,
1910,
1921,
1893,
1835,
1754,
1863,
1812,
1858,
1774,
1813,
1911,
1818,
1750,
1826,
1763,
1662,
1721,
1672,
1681,
1710,
1647,
1694,
1634,
1564,
1587,
1745,
1663,
1649,
1641,
1558,
1579,
1471,
1469,
1443,
1495,
1465,
1515,
1483,
1478,
1509,
1562,
1612,
1551,
1484,
1504,
1360,
1365,
1366,
1373,
1358,
1347,
1355,
1442,
1782,
2811,
5330,
9423,
14494,
17705,
16266,
12088,
7092,
3814,
2003,
1392,
1240,
1144,
1170,
1181,
1147,
1165,
1230,
1119,
1163,
1187,
1313,
1432,
1845,
2395,
2822,
3228,
2939,
2353,
1740,
1352,
1117,
1031,
951,
940,
962,
1019,
932,
1010,
1028,
1066,
999,
919,
953,
890,
935,
939,
852,
904,
855,
902,
911,
849,
857,
904,
823,
819,
890,
778,
849,
773,
874,
787,
827,
818,
834,
804,
829,
762,
773,
760,
807,
770,
722,
752,
781,
741,
740,
734,
690,
681,
702,
715,
678,
714,
681,
731,
655,
669,
704,
632,
671,
623,
662,
581,
600,
611,
620,
635,
579,
628,
679,
633,
621,
590,
591,
611,
595,
571,
569,
570,
568,
573,
610,
553,
548,
562,
547,
538,
510,
568,
517,
532,
563,
533,
514,
500,
528,
495,
503,
501,
471,
466,
521,
495,
487,
490,
471,
488,
471,
475,
471,
424,
431,
405,
445,
427,
444,
454,
424,
433,
435,
384,
456,
402,
407,
386,
386,
429,
400,
403,
379,
370,
361,
370,
404,
378,
365,
357,
339,
362,
351,
340,
373,
337,
333,
328,
326,
352,
341,
352,
367,
326,
355,
295,
304,
275,
302,
297,
297,
288,
319,
285,
279,
276,
272,
284,
275,
248,
282,
260,
282,
255,
286,
265,
242,
273,
250,
240,
236,
263,
274,
243,
270,
225,
241,
229,
250,
230,
216,
214,
218,
231,
204,
241,
203,
216,
185,
215,
210,
200,
230,
184,
203,
197,
191,
207,
190,
197,
193,
177,
184,
168,
190,
174,
161,
153,
169,
159,
172,
183,
155,
170,
157,
149,
145,
136,
145,
165,
159,
136,
162,
134,
162,
137,
147,
139,
124,
112,
130,
122,
121,
133,
136,
122,
147,
100,
113,
122,
108,
116,
115,
112,
126,
121,
117,
81,
122,
104,
102,
113,
102,
102,
91,
91,
86,
101,
108,
94,
92,
84,
93,
87,
74,
104,
84,
68,
83,
80,
80,
91,
76,
71,
71,
66,
76,
77,
82,
78,
71,
60,
68,
82,
56,
56,
73,
69,
43,
67,
47,
58,
58,
63,
58,
61,
48,
46,
38,
58,
42,
41,
60,
48,
41,
52,
43,
45,
43,
47,
37,
50,
42,
42,
38,
44,
48,
42,
41,
36,
35,
37,
48,
27,
38,
33,
45,
31,
31,
27,
36,
39,
32,
41,
37,
30,
29,
28,
25,
26,
25,
23,
32,
28,
28,
22,
20,
23,
20,
23,
18,
24,
14,
18,
23,
19,
27,
18,
21,
17,
12,
13,
15,
10,
12,
15,
19,
16,
19,
14,
14,
14,
13,
13,
7,
9,
15,
12,
9,
16,
5,
9,
12,
7,
7,
7,
13,
8,
6,
5,
6,
10,
6,
7,
4,
6,
4,
8,
5,
5,
5,
5,
5,
4,
4,
4,
5,
1,
6,
1,
3,
1,
2,
0,
4,
1,
1,
1,
1,
2,
0,
0,
0,
0,
0,
0,
0,
0,
0,
0,
0,
0,
0,
1,
0,
0,
1,
2,
1,
0,
0,
0,
0,
0,
0,
0,
0,
0,
1,
0,
1,
0,
0,
1,
0,
0,
0,
0,
0,
0,
0,
0,
0,
0,
0,
0,
0,
0,
0,
0,
0,
0,
0,
0,
1,
0,
1,
0,
0,
1,
0,
0,
0,
0,
1,
0,
0,
0,
1,
0,
0,
0,
0,
0,
0,
0,
0,
0,
1,
0,
0,
0,
0,
0,
0,
0,
0,
0,
0,
0,
0,
0,
0,
0,
0,
0,
0,
0,
0,
0,
1,
0,
1,
0,
0,
0,
0,
0,
0,
0,
0,
0,
0,
0,
0,
0,
0,
0,
0,
0,
0,
0,
0,
0,
1,
0,
0,
0,
0,
0,
0,
0,
0,
0,
0,
0,
0,
0,
0,
0,
0,
0,
0,
0,
0,
0,
0,
0,
0,
0,
0,
0,
0,
0,
0,
0,
0,
0,
0,
0,
0,
0,
0,
0,
0,
0,
0,
0,
0,
0,
1,
0,
0,
0,
0,
0,
0,
0,
0,
0,
0,
0,
0,
0,
0,
0,
0,
0,
0,
0,
0,
0,
0,
0,
0,
1,
0,
0,
0,
0,
0,
0,
0,
0,
0,
0,
1,
0,
0,
0,
0,
0,
0,
0,
0,
0,
0,
0,
0,
0,
0,
0,
0,
0,
0,
0,
0,
1,
0,
0,
0,
0,
0,
0,
0,
0,
0,
0,
0,
0,
0,
0,
0,
0,
0,
0,
0,
0,
0,
0,
0,
0,
0,
0,
0,
0,
0,
0,
0,
0,
0,
0,
0,
0,
0,
0,
0,
0,
0,
0,
0,
0,
0,
0,
1,
0,
0,
0,
0,
0,
0,
0,
0,
0,
0,
0,
0,
0,
0,
0,
0,
0,
0,
0,
0,
0,
0,
0,
0,
0,
0,
0,
0,
0,
0,
0,
0,
0,
0,
0,
0,
0,
0,
0,
0,
0,
0,
1,
0,
0,
0,
0,
0,
0,
0,
0,
0,
0,
0,
0,
0,
0,
0,
0,
0,
0,
0,
0,
0,
0,
0,
0,
0,
0,
0,
0,
0,
0,
0,
0,
0,
0,
0,
0,
0,
0,
0,
0,
0,
0,
0,
0,
0,
0,
0,
0,
0,
0,
0,
0,
0,
0,
0,
0,
0,
0,
0,
0,
0,
0,
0,
0,
0,
0,
0,
0,
0,
0,
0,
0,
0,
0,
0,
0,
0,
0,
0,
0,
0,
0,
0,
0,
0,
0,
0,
0,
0,
0,
0,
0,
0,
0,
0,
0,
0,
0,
0,
0,
0,
0,
0,
0,
0,
0,
0,
0,
0,
0,
0,
0,
0,
0,
0,
0,
0,
0,
0,
0,
0,
0,
0,
0,
0,
0,
0,
0,
0,
0,
0,
0,
0,
0,
0,
0,
0,
0,
0,
0,
0,
0,
0,
0,
0,
0,
0,
0,
0,
0,
0,
0,
0,
0,
0,
0,
0,
0,
0,
0,
0,
0,
0,
0,
0,
0,
0,
0,
0,
0,
0,
0,
0,
0,
0,
0,
0,
0,
0,
0,
0,
0,
0,
0,
0,
0,
0,
0,
0,
0,
0,
0,
0,
0,
0,
0,
0,
0,
0,
0,
0,
0,
0,
0,
0,
0,
0,
0,
0,
0,
0,
0,
0,
0,
0,
0,
0,
0,
0,
0,
0,
0,
0,
0,
0,
0,
0,
0,
0,
0,
0,
0,
0,
0,
0,
0,
0,
0,
0,
0,
0,
0,
0,
0,
0,
0,
0,
0,
0,
0,
0,
0,
0,
0,
0,
0,
0,
0,
0,
0,
0,
0,
0,
0,
0,
0,
0,
0,
0,
0,
0,
0,
0,
0,
0,
0,
0,
0,
0,
0,
0,
0,
0,
0,
0,
0,
0,
0,
0,
0,
0,
0,
0,
0,
0,
0,
0,
0,
0,
0,
0,
0,
0,
0,
0,
0,
0,
0,
0,
0,
0,
0,
0,
0,
0,
0,
0,
0,
0,
0,
0,
0,
0,
0,
0,
0,
0,
0,
0,
0,
0,
0,
0,
0,
0,
0,
0,
0,
0,
0,
0,
0,
0,
0,
0,
0,
0,
0,
0,
0,
0,
0,
0,
0,
0,
0,
0,
0,
0,
0,
0,
0,
0,
0,
0,
0,
0,
0,
0,
0,
0,
0,
0,
0,
0,
0,
0,
0,
0,
0,
#ENDOFDATA   :