File: N132962/Quantification/20 keV/Glass Mount IIIB/GM IIIB K961[6][4].msa
#FORMAT      : EMSA/MAS Spectral Data File
#VERSION     : 1.0
#TITLE       : GM IIIB K961[6][all]
#DATE        : 11-SEP-2025
#TIME        : 10:01
#OWNER       : Unknown
#NPOINTS     : 4096
#NCOLUMNS    : 1
#XUNITS      : eV
#YUNITS      : counts
#DATATYPE    : Y
#XPERCHAN    : 9.99778
#OFFSET      : 1.69135
#BEAMKV      : 20
#SIGNALTYPE  : EDS
#ELEVANGLE   : 35
#AZIMANGLE   : 0
#LIVETIME    : 240.149
#REALTIME    : 259.181
#PROBECUR    : 1.22337
#TAUWIND     : 0
#TDEADLYR    : 0
#TACTLYR     : 0.045
#TALWIND     : 0.025
#CHOFFSET    : 0.0
#XLABEL      : Energy (eV)
#YLABEL      : Counts
#XPOSITION   : 11.33135
#YPOSITION   : 12.04942
#ZPOSITION   : 34.00161
#EDSDET      : SD
##SPECIMEN   : GM IIIB K961[6][all]
##D2STDCMP   : K961,(O:46.98),(Na:2.97),(Mg:3.02),(Al:5.82),(Si:29.92),(P:0.22),(K:2.49),(Ca:3.57),(Ti:1.2),(Mn:0.32),(Fe:3.5)
##DET_HASH   : 12273538-fd48-a23f-0a19-f1e6fa85caef
##CALIB_HASH : 6abaa72c-aa41-8738-0be9-f592914732f3
##WORKING    : 15.0 mm
##DET_NAME   : EDAX All
##DET_MODE   : MediumLE
#SPECTRUM    :
20,
22,
12,
11,
75,
322,
776,
1803,
4200,
5545,
4133,
3456,
3791,
4636,
8117,
27857,
104332,
197468,
142903,
38003,
5813,
3050,
3797,
5524,
5341,
3628,
2810,
2874,
3107,
3140,
3304,
3731,
4880,
9741,
19118,
20525,
12098,
5849,
4791,
5991,
12374,
25304,
29686,
18703,
8471,
5886,
5992,
11162,
30368,
58142,
59315,
32472,
13738,
7784,
8127,
22063,
87207,
222686,
305334,
214648,
86539,
28662,
12635,
6083,
3787,
3507,
3975,
4283,
3959,
3265,
2921,
2892,
2937,
3195,
3420,
3809,
3698,
3304,
3058,
3002,
2887,
2914,
2879,
2830,
2864,
2815,
2893,
2819,
2821,
2819,
2915,
2815,
2917,
2779,
2896,
2760,
2640,
2744,
2897,
2875,
2880,
2758,
2702,
2566,
2694,
2772,
3048,
3950,
6430,
11265,
15736,
15879,
10982,
5983,
3674,
3212,
3235,
3448,
3781,
4792,
6625,
11089,
17766,
21304,
17891,
10796,
5470,
3006,
2338,
2291,
2362,
2711,
3282,
4185,
4364,
3874,
3037,
2356,
2119,
2018,
2132,
2015,
1991,
2048,
1902,
1930,
2133,
2465,
3634,
5273,
6470,
6149,
4687,
3092,
2183,
1838,
1790,
1793,
1770,
1736,
1811,
1835,
1948,
2099,
2264,
2256,
2030,
1848,
1715,
1623,
1657,
1680,
1563,
1587,
1539,
1489,
1548,
1496,
1454,
1485,
1540,
1498,
1538,
1463,
1486,
1441,
1450,
1417,
1319,
1367,
1373,
1306,
1430,
1525,
1697,
1804,
2003,
1997,
1845,
1567,
1371,
1346,
1200,
1256,
1240,
1354,
1290,
1270,
1374,
1867,
3005,
5027,
7361,
8562,
8052,
6278,
3840,
2323,
1545,
1250,
1121,
1091,
1023,
1133,
1092,
1059,
1049,
1074,
1070,
1085,
1106,
1084,
1387,
1550,
1828,
1986,
1868,
1579,
1293,
1093,
1009,
953,
930,
883,
882,
904,
923,
958,
946,
942,
951,
961,
874,
865,
887,
875,
833,
846,
815,
822,
768,
798,
762,
819,
845,
763,
783,
752,
768,
780,
779,
815,
769,
797,
756,
701,
786,
715,
691,
731,
708,
725,
707,
724,
716,
642,
673,
658,
645,
661,
659,
647,
636,
620,
674,
704,
594,
623,
617,
634,
606,
575,
613,
605,
588,
599,
568,
575,
574,
569,
552,
554,
572,
580,
530,
540,
547,
547,
534,
536,
544,
506,
560,
551,
534,
530,
484,
493,
506,
490,
454,
467,
509,
449,
475,
511,
457,
483,
492,
458,
473,
458,
462,
429,
446,
424,
440,
426,
436,
423,
427,
366,
394,
421,
400,
406,
401,
361,
398,
406,
375,
381,
355,
377,
393,
368,
362,
363,
348,
314,
369,
340,
371,
342,
344,
322,
339,
313,
349,
351,
302,
325,
294,
338,
321,
301,
320,
313,
284,
318,
295,
286,
260,
274,
271,
271,
278,
309,
286,
276,
308,
289,
243,
257,
250,
258,
277,
255,
256,
262,
236,
250,
222,
238,
235,
243,
240,
226,
216,
228,
233,
246,
230,
205,
214,
183,
218,
243,
204,
185,
226,
210,
201,
196,
175,
211,
177,
193,
191,
198,
208,
185,
187,
205,
176,
182,
181,
166,
166,
187,
140,
183,
184,
152,
126,
178,
130,
157,
151,
152,
126,
143,
155,
136,
136,
141,
114,
144,
156,
130,
140,
133,
140,
101,
122,
102,
152,
91,
127,
124,
114,
129,
120,
123,
136,
116,
115,
107,
114,
103,
97,
113,
101,
101,
88,
90,
75,
87,
84,
86,
92,
77,
77,
87,
99,
89,
81,
92,
91,
70,
92,
67,
89,
102,
73,
85,
85,
79,
77,
63,
72,
78,
64,
74,
52,
65,
59,
73,
66,
50,
64,
44,
47,
49,
61,
69,
52,
53,
53,
46,
52,
57,
51,
49,
48,
49,
56,
49,
36,
51,
54,
43,
44,
50,
33,
50,
42,
49,
50,
48,
39,
37,
39,
25,
49,
44,
34,
38,
32,
46,
34,
37,
35,
38,
38,
45,
39,
32,
40,
35,
28,
25,
26,
24,
31,
26,
21,
24,
17,
21,
32,
28,
22,
24,
25,
20,
20,
20,
20,
19,
19,
20,
26,
17,
17,
13,
17,
13,
20,
24,
11,
12,
13,
7,
14,
12,
10,
19,
14,
14,
6,
16,
10,
13,
10,
11,
9,
11,
10,
12,
8,
7,
4,
6,
10,
6,
8,
5,
8,
6,
4,
5,
2,
6,
6,
6,
4,
4,
5,
6,
3,
4,
4,
3,
4,
2,
3,
3,
0,
2,
1,
2,
4,
0,
2,
0,
3,
2,
0,
0,
0,
0,
0,
1,
0,
0,
1,
0,
1,
0,
0,
0,
0,
1,
0,
1,
0,
0,
0,
1,
0,
1,
0,
0,
0,
0,
1,
0,
0,
0,
0,
0,
1,
0,
0,
0,
0,
0,
0,
1,
0,
0,
0,
0,
0,
0,
0,
0,
0,
0,
0,
0,
0,
0,
0,
0,
0,
0,
0,
0,
1,
0,
0,
0,
0,
0,
0,
0,
0,
0,
0,
0,
0,
0,
0,
0,
0,
1,
0,
0,
0,
0,
0,
0,
0,
0,
0,
0,
0,
0,
0,
1,
0,
0,
0,
0,
0,
0,
0,
0,
0,
0,
0,
0,
0,
0,
0,
0,
0,
0,
0,
2,
0,
0,
1,
0,
0,
0,
0,
0,
0,
0,
0,
0,
0,
0,
0,
0,
0,
0,
0,
0,
0,
0,
0,
0,
0,
0,
0,
0,
0,
0,
0,
0,
0,
0,
0,
0,
0,
0,
0,
0,
0,
0,
0,
0,
0,
0,
0,
0,
0,
0,
0,
0,
0,
0,
0,
0,
0,
0,
0,
0,
0,
0,
0,
0,
0,
0,
0,
0,
0,
0,
0,
0,
0,
0,
0,
0,
0,
0,
0,
0,
0,
0,
0,
0,
0,
0,
0,
0,
0,
0,
0,
0,
0,
0,
0,
0,
0,
0,
0,
0,
0,
0,
0,
0,
0,
0,
0,
0,
0,
0,
0,
0,
0,
0,
0,
0,
0,
0,
0,
0,
0,
0,
0,
0,
0,
0,
0,
0,
0,
0,
0,
0,
0,
0,
0,
0,
0,
0,
0,
0,
0,
0,
0,
0,
0,
0,
1,
0,
0,
0,
0,
0,
0,
0,
0,
0,
0,
0,
0,
0,
0,
0,
0,
0,
0,
0,
0,
0,
0,
0,
0,
0,
0,
0,
0,
0,
0,
0,
0,
0,
0,
0,
0,
0,
0,
0,
0,
0,
0,
0,
0,
0,
0,
0,
0,
0,
0,
0,
0,
0,
0,
0,
0,
0,
0,
0,
0,
0,
0,
0,
0,
0,
0,
0,
0,
0,
0,
0,
0,
0,
0,
0,
0,
0,
0,
0,
0,
0,
0,
0,
0,
0,
0,
0,
0,
0,
0,
0,
0,
0,
0,
0,
0,
0,
0,
0,
0,
0,
0,
0,
0,
0,
0,
0,
0,
0,
0,
0,
0,
0,
0,
0,
0,
0,
0,
0,
0,
0,
0,
0,
0,
0,
0,
0,
0,
0,
0,
0,
0,
0,
0,
0,
0,
0,
0,
0,
0,
0,
0,
0,
0,
0,
0,
0,
0,
0,
0,
0,
0,
0,
0,
0,
0,
0,
0,
0,
0,
0,
0,
0,
0,
0,
0,
0,
0,
0,
0,
0,
0,
0,
0,
0,
0,
0,
0,
0,
0,
0,
0,
0,
0,
0,
0,
0,
0,
0,
0,
0,
0,
0,
0,
0,
0,
0,
0,
0,
0,
0,
0,
0,
0,
0,
0,
0,
0,
0,
0,
0,
0,
0,
0,
0,
0,
0,
0,
0,
0,
0,
0,
0,
0,
0,
0,
0,
0,
0,
0,
0,
0,
0,
0,
0,
0,
0,
0,
0,
0,
0,
0,
0,
0,
0,
0,
0,
0,
0,
0,
0,
0,
0,
0,
0,
0,
0,
0,
0,
0,
0,
0,
0,
0,
0,
0,
0,
0,
0,
0,
0,
0,
0,
0,
0,
0,
0,
0,
0,
0,
0,
0,
0,
0,
0,
0,
0,
0,
0,
0,
0,
0,
0,
0,
0,
0,
0,
0,
0,
0,
0,
0,
0,
0,
0,
0,
0,
0,
0,
0,
0,
0,
0,
0,
0,
0,
0,
0,
0,
0,
0,
0,
0,
0,
0,
0,
0,
0,
0,
0,
0,
0,
0,
0,
0,
0,
0,
0,
0,
0,
0,
0,
0,
0,
0,
0,
0,
0,
0,
0,
0,
0,
0,
0,
0,
0,
0,
0,
0,
0,
0,
0,
0,
0,
0,
0,
0,
0,
0,
0,
0,
0,
0,
0,
0,
0,
0,
0,
0,
0,
0,
0,
0,
0,
0,
0,
0,
0,
0,
0,
0,
0,
0,
0,
0,
0,
0,
0,
0,
0,
0,
0,
0,
0,
0,
0,
0,
0,
0,
0,
0,
0,
0,
0,
0,
0,
0,
0,
0,
0,
0,
0,
0,
0,
0,
0,
0,
0,
0,
0,
0,
0,
0,
0,
0,
0,
0,
#ENDOFDATA   :