File: N132962/Quantification/20 keV/Glass Mount IIIB/GM IIIB K366[4][4].msa
#FORMAT      : EMSA/MAS Spectral Data File
#VERSION     : 1.0
#TITLE       : GM IIIB K366[4][all]
#DATE        : 10-SEP-2025
#TIME        : 18:28
#OWNER       : Unknown
#NPOINTS     : 4096
#NCOLUMNS    : 1
#XUNITS      : eV
#YUNITS      : counts
#DATATYPE    : Y
#XPERCHAN    : 9.99778
#OFFSET      : 1.69135
#BEAMKV      : 20
#SIGNALTYPE  : EDS
#ELEVANGLE   : 35
#AZIMANGLE   : 0
#LIVETIME    : 240.315
#REALTIME    : 267.745
#PROBECUR    : 1.22475
#TAUWIND     : 0
#TDEADLYR    : 0
#TACTLYR     : 0.045
#TALWIND     : 0.025
#CHOFFSET    : 0.0
#XLABEL      : Energy (eV)
#YLABEL      : Counts
#XPOSITION   : 8.4391
#YPOSITION   : 3.05838
#ZPOSITION   : 34.00159
#EDSDET      : SD
##SPECIMEN   : GM IIIB K366[4][all]
##D2STDCMP   : K366,(O:20.43),(Si:13.45),(Pb:66.12)
##DET_HASH   : 12273538-fd48-a23f-0a19-f1e6fa85caef
##CALIB_HASH : 6abaa72c-aa41-8738-0be9-f592914732f3
##WORKING    : 15.0 mm
##DET_NAME   : EDAX All
##DET_MODE   : MediumLE
#SPECTRUM    :
20,
25,
12,
48,
202,
870,
2357,
5350,
10672,
13039,
8892,
6340,
6288,
6288,
7512,
14630,
41316,
73850,
54440,
18880,
9610,
8019,
7726,
8401,
7726,
6664,
6401,
6670,
7063,
7366,
7442,
7449,
7754,
7850,
8089,
8112,
8491,
8618,
8701,
9002,
9058,
9308,
9572,
9557,
9754,
10107,
10072,
10447,
10991,
11339,
11654,
11542,
11382,
11264,
12271,
19485,
52594,
122519,
163575,
120559,
60739,
34093,
22537,
14173,
10264,
9175,
9160,
8828,
8935,
8977,
9614,
10408,
11820,
13363,
15752,
24883,
56504,
122066,
179429,
172746,
138016,
125935,
106551,
63656,
26824,
11248,
9143,
10800,
12780,
12582,
9714,
7034,
5968,
5712,
5595,
5790,
5947,
6157,
6133,
6286,
6544,
6971,
7476,
7827,
7444,
6743,
6287,
5896,
5446,
5424,
5452,
5288,
5319,
5472,
5425,
5496,
5537,
5631,
5625,
5334,
5393,
5226,
5317,
5328,
5527,
5425,
5504,
5467,
5169,
5218,
5150,
5182,
5277,
5165,
5368,
5392,
5566,
5451,
5462,
5510,
5394,
5163,
5165,
5069,
5083,
5035,
5275,
5103,
5277,
5531,
5726,
5701,
5473,
5082,
5227,
5179,
5027,
5177,
5181,
5227,
5177,
5153,
5012,
5051,
4985,
5005,
5059,
4776,
4782,
4799,
4696,
4862,
4689,
4705,
4649,
4767,
4830,
4619,
4654,
4679,
4547,
4599,
4518,
4583,
4559,
4429,
4491,
4516,
4396,
4484,
4386,
4387,
4326,
4350,
4454,
4278,
4364,
4215,
4243,
4262,
4168,
4153,
4220,
4143,
4224,
4092,
4133,
4072,
4056,
4203,
4178,
4327,
4349,
4540,
4454,
4229,
4147,
3855,
3843,
3928,
3874,
3760,
3746,
3806,
3734,
3761,
3820,
3709,
3655,
3772,
3493,
3722,
3728,
3634,
3617,
3715,
3580,
3600,
3527,
3521,
3493,
3668,
3475,
3363,
3439,
3408,
3615,
3600,
3581,
3534,
3633,
3459,
3269,
3267,
3319,
3237,
3195,
3181,
3229,
3236,
3051,
3103,
3043,
3058,
3117,
3073,
3152,
3104,
3061,
3033,
3040,
3020,
2966,
2902,
2911,
2999,
3057,
2897,
2911,
2766,
2861,
2803,
2798,
2872,
2714,
2719,
2731,
2742,
2748,
2638,
2646,
2656,
2617,
2692,
2686,
2736,
2635,
2717,
2541,
2660,
2582,
2568,
2742,
2766,
2907,
3031,
3172,
3025,
2941,
2830,
2585,
2393,
2393,
2361,
2362,
2372,
2412,
2338,
2316,
2290,
2319,
2238,
2298,
2221,
2292,
2257,
2264,
2123,
2163,
2156,
2201,
2135,
2172,
2140,
2086,
2048,
2088,
2099,
2054,
2086,
2110,
2065,
2109,
2264,
2423,
3026,
3879,
5214,
7342,
9831,
12347,
14013,
13369,
11288,
8626,
5912,
3791,
2762,
2281,
1974,
1776,
1756,
1755,
1772,
1721,
1717,
1752,
1705,
1677,
1734,
1723,
1633,
1632,
1563,
1704,
1633,
1600,
1623,
1645,
1724,
1567,
1568,
1581,
1541,
1478,
1558,
1524,
1507,
1477,
1439,
1446,
1483,
1530,
1427,
1408,
1405,
1416,
1421,
1353,
1421,
1361,
1414,
1405,
1389,
1522,
1498,
1493,
1465,
1488,
1517,
1437,
1504,
1415,
1459,
1577,
1956,
2420,
3258,
4250,
5070,
5519,
5257,
4551,
3646,
2847,
2149,
1647,
1463,
1369,
1303,
1248,
1310,
1338,
1351,
1235,
1200,
1104,
1045,
1039,
1009,
931,
952,
911,
930,
955,
888,
864,
949,
910,
889,
815,
886,
852,
797,
822,
824,
831,
834,
811,
781,
769,
776,
783,
784,
753,
734,
756,
759,
711,
716,
705,
683,
725,
710,
715,
718,
727,
707,
646,
674,
654,
665,
657,
639,
629,
673,
685,
692,
752,
834,
938,
992,
938,
920,
828,
777,
654,
644,
565,
592,
566,
573,
589,
601,
559,
618,
605,
552,
553,
506,
506,
496,
449,
495,
462,
469,
455,
461,
431,
447,
414,
431,
429,
397,
419,
425,
404,
382,
413,
372,
358,
378,
386,
352,
366,
367,
330,
360,
364,
329,
361,
371,
343,
314,
300,
317,
291,
294,
292,
323,
267,
330,
291,
282,
268,
284,
258,
281,
297,
253,
261,
276,
229,
252,
276,
233,
247,
265,
250,
234,
224,
223,
234,
242,
207,
211,
224,
211,
204,
219,
199,
213,
179,
208,
175,
192,
176,
178,
181,
142,
149,
165,
167,
158,
128,
151,
171,
160,
146,
155,
161,
128,
134,
144,
148,
136,
129,
128,
118,
122,
116,
110,
110,
100,
100,
118,
123,
102,
111,
95,
88,
100,
87,
95,
86,
87,
82,
78,
85,
73,
89,
73,
71,
74,
62,
58,
62,
66,
60,
46,
55,
45,
55,
41,
48,
31,
35,
42,
39,
38,
37,
30,
37,
40,
33,
18,
31,
21,
24,
22,
13,
18,
20,
5,
12,
4,
6,
3,
9,
2,
6,
9,
6,
4,
6,
6,
2,
4,
4,
2,
3,
4,
2,
5,
3,
4,
5,
3,
5,
6,
5,
3,
4,
2,
1,
2,
3,
3,
5,
2,
4,
4,
3,
4,
4,
1,
4,
2,
3,
5,
3,
3,
2,
1,
2,
3,
3,
4,
3,
7,
2,
3,
4,
4,
3,
3,
3,
2,
4,
4,
1,
3,
2,
1,
3,
3,
2,
5,
2,
1,
2,
0,
1,
3,
0,
1,
6,
1,
0,
1,
3,
1,
2,
0,
3,
1,
1,
1,
3,
2,
3,
2,
1,
0,
4,
2,
2,
1,
2,
0,
4,
2,
2,
1,
2,
1,
0,
2,
0,
2,
0,
1,
1,
0,
1,
1,
2,
2,
3,
0,
0,
2,
2,
2,
1,
1,
0,
0,
3,
0,
0,
0,
0,
1,
0,
1,
0,
2,
0,
2,
0,
1,
0,
1,
0,
0,
1,
2,
0,
2,
1,
0,
3,
1,
0,
1,
2,
2,
1,
2,
0,
1,
4,
0,
2,
0,
1,
0,
5,
0,
0,
1,
1,
1,
3,
1,
1,
1,
1,
0,
0,
1,
0,
1,
1,
1,
2,
0,
3,
0,
0,
1,
2,
0,
1,
0,
1,
2,
0,
2,
1,
2,
0,
0,
1,
1,
0,
1,
1,
1,
0,
2,
2,
0,
1,
1,
0,
1,
1,
2,
0,
1,
1,
1,
1,
0,
0,
1,
1,
1,
2,
1,
1,
0,
0,
1,
1,
1,
0,
3,
1,
1,
2,
2,
0,
1,
0,
0,
0,
0,
0,
0,
1,
0,
0,
0,
1,
0,
0,
0,
0,
0,
0,
0,
0,
0,
0,
0,
0,
0,
0,
0,
0,
1,
1,
0,
0,
0,
0,
0,
1,
0,
0,
0,
0,
0,
1,
0,
0,
0,
0,
0,
0,
0,
1,
1,
0,
0,
0,
1,
0,
0,
0,
0,
0,
0,
0,
0,
1,
0,
0,
0,
0,
1,
0,
0,
1,
0,
0,
1,
0,
0,
0,
0,
0,
0,
0,
1,
0,
0,
1,
0,
0,
1,
1,
0,
0,
2,
0,
0,
0,
0,
0,
0,
0,
1,
0,
0,
0,
0,
0,
0,
0,
0,
0,
0,
0,
0,
0,
0,
0,
0,
0,
0,
0,
0,
0,
0,
0,
0,
0,
0,
0,
1,
0,
0,
0,
0,
0,
0,
0,
0,
0,
0,
0,
0,
1,
1,
0,
0,
0,
0,
1,
0,
0,
0,
0,
0,
0,
0,
0,
0,
0,
0,
0,
0,
0,
0,
0,
0,
0,
0,
0,
0,
0,
0,
0,
0,
0,
0,
0,
0,
0,
0,
0,
0,
0,
0,
0,
0,
0,
0,
0,
0,
0,
0,
0,
0,
0,
0,
0,
0,
0,
0,
0,
0,
0,
0,
0,
0,
0,
0,
0,
0,
0,
0,
0,
0,
0,
0,
0,
0,
0,
0,
0,
0,
0,
0,
0,
0,
0,
0,
0,
0,
0,
0,
0,
0,
0,
0,
0,
0,
0,
0,
0,
0,
0,
0,
0,
0,
0,
0,
0,
0,
0,
0,
0,
0,
0,
0,
0,
0,
0,
0,
0,
0,
0,
0,
0,
0,
0,
0,
0,
0,
0,
0,
0,
0,
0,
0,
0,
0,
0,
0,
0,
0,
0,
0,
0,
0,
0,
0,
0,
0,
0,
0,
0,
0,
0,
0,
0,
0,
0,
0,
0,
0,
0,
0,
0,
0,
0,
0,
0,
0,
0,
0,
0,
0,
0,
0,
0,
0,
0,
0,
0,
0,
0,
0,
0,
0,
0,
0,
0,
0,
0,
0,
0,
0,
0,
0,
0,
0,
0,
0,
0,
0,
0,
0,
0,
0,
0,
0,
0,
0,
0,
0,
0,
0,
0,
0,
0,
0,
0,
0,
0,
0,
0,
1,
0,
0,
0,
0,
0,
0,
0,
0,
0,
0,
0,
0,
0,
0,
0,
0,
0,
0,
0,
0,
0,
0,
0,
0,
0,
0,
0,
0,
0,
0,
0,
0,
0,
0,
0,
0,
0,
0,
0,
0,
0,
0,
0,
0,
0,
0,
0,
0,
0,
0,
0,
0,
0,
0,
0,
0,
0,
0,
0,
0,
0,
0,
0,
0,
0,
0,
0,
0,
0,
0,
0,
0,
0,
0,
0,
0,
0,
0,
0,
0,
0,
0,
0,
0,
0,
0,
0,
0,
#ENDOFDATA   :