File: N132962/Quantification/20 keV/Glass Mount IIIB/GM IIIB K408[0][4].msa
#FORMAT      : EMSA/MAS Spectral Data File
#VERSION     : 1.0
#TITLE       : GM IIIB K408[0][all]
#DATE        : 10-SEP-2025
#TIME        : 14:34
#OWNER       : Unknown
#NPOINTS     : 4096
#NCOLUMNS    : 1
#XUNITS      : eV
#YUNITS      : counts
#DATATYPE    : Y
#XPERCHAN    : 9.99778
#OFFSET      : 1.69135
#BEAMKV      : 20
#SIGNALTYPE  : EDS
#ELEVANGLE   : 35
#AZIMANGLE   : 0
#LIVETIME    : 240.2031
#REALTIME    : 266.648
#PROBECUR    : 1.22574
#TAUWIND     : 0
#TDEADLYR    : 0
#TACTLYR     : 0.045
#TALWIND     : 0.025
#CHOFFSET    : 0.0
#XLABEL      : Energy (eV)
#YLABEL      : Counts
#XPOSITION   : 9.61465
#YPOSITION   : 4.76779
#ZPOSITION   : 34.06144
#EDSDET      : SD
##SPECIMEN   : GM IIIB K408[0][all]
##D2STDCMP   : K408,(O:21.32),(Si:14.02),(Eu:4.32),(Pb:60.34)
##DET_HASH   : 12273538-fd48-a23f-0a19-f1e6fa85caef
##CALIB_HASH : 6abaa72c-aa41-8738-0be9-f592914732f3
##WORKING    : 15.0 mm
##DET_NAME   : EDAX All
##DET_MODE   : MediumLE
#SPECTRUM    :
28,
15,
11,
33,
210,
765,
2203,
5051,
10337,
13144,
8745,
6338,
6267,
6537,
7448,
15331,
44062,
78631,
57723,
19410,
9202,
7646,
7276,
7926,
7431,
6611,
6400,
7030,
7635,
8160,
7663,
7548,
7567,
7706,
7920,
8329,
9430,
10900,
12335,
11277,
9839,
9104,
9017,
9328,
9806,
9900,
10293,
10261,
10636,
11264,
11270,
10918,
10904,
10828,
11748,
19024,
52748,
122049,
163959,
120811,
59982,
32413,
20760,
12986,
9737,
8645,
8339,
8308,
8329,
8484,
9024,
9746,
10924,
12362,
14669,
22968,
50647,
108821,
159199,
152869,
122885,
112375,
95934,
56591,
24436,
10970,
8674,
10297,
12171,
11843,
9318,
6735,
5579,
5496,
5391,
5626,
5904,
5960,
6004,
6139,
6468,
6861,
7262,
7453,
7111,
6607,
6088,
5705,
5636,
5415,
5230,
5358,
5204,
5187,
5305,
5383,
5522,
5608,
5517,
5449,
5359,
5117,
5291,
5303,
5417,
5386,
5262,
5334,
5179,
5177,
5099,
5092,
5143,
5202,
5202,
5357,
5338,
5349,
5410,
5383,
5290,
5092,
5024,
5079,
5024,
5096,
4947,
5067,
5160,
5412,
5520,
5548,
5368,
5041,
5058,
4891,
4906,
5080,
5046,
4965,
4845,
4897,
4900,
4800,
4868,
4813,
4670,
4674,
4709,
4599,
4715,
4859,
4691,
4688,
4850,
4580,
4579,
4482,
4416,
4423,
4604,
4470,
4411,
4526,
4343,
4329,
4302,
4316,
4400,
4282,
4450,
4876,
5902,
6827,
8060,
8186,
7254,
6029,
5015,
4426,
4111,
4118,
4085,
3998,
4059,
4000,
3977,
3915,
3996,
4051,
4118,
4356,
4871,
5438,
5988,
5885,
5783,
5243,
4773,
4292,
4174,
3857,
3819,
3783,
3710,
3859,
4137,
4242,
4337,
4247,
3960,
3704,
3609,
3503,
3597,
3440,
3468,
3432,
3356,
3298,
3313,
3340,
3454,
3265,
3371,
3339,
3432,
3576,
3769,
3720,
3706,
3566,
3380,
3199,
3066,
3121,
3120,
3216,
3172,
3159,
2985,
2974,
3084,
3108,
2939,
3021,
2945,
3009,
2846,
2793,
2815,
2874,
2847,
2813,
2856,
2886,
2791,
2682,
2762,
2714,
2713,
2734,
2653,
2692,
2610,
2627,
2575,
2537,
2527,
2471,
2567,
2561,
2480,
2581,
2478,
2535,
2511,
2420,
2458,
2531,
2410,
2590,
2555,
2728,
2836,
2939,
2984,
2988,
2738,
2582,
2523,
2460,
2332,
2137,
2188,
2267,
2255,
2180,
2184,
2121,
2200,
2121,
2175,
2130,
2118,
2056,
2099,
2072,
2104,
2016,
2148,
2028,
2038,
2061,
2032,
2006,
1926,
1979,
1949,
2020,
1939,
2070,
2037,
2168,
2351,
2785,
3487,
4746,
6659,
8959,
11140,
12349,
12258,
10361,
7721,
5324,
3530,
2583,
2137,
1847,
1781,
1749,
1729,
1665,
1668,
1714,
1665,
1659,
1670,
1615,
1574,
1598,
1615,
1655,
1560,
1533,
1645,
1666,
1520,
1555,
1509,
1520,
1466,
1424,
1500,
1350,
1430,
1383,
1399,
1302,
1385,
1358,
1393,
1334,
1360,
1335,
1275,
1278,
1305,
1298,
1356,
1294,
1380,
1399,
1396,
1463,
1392,
1403,
1396,
1409,
1435,
1368,
1313,
1395,
1491,
1684,
2292,
3063,
3904,
4629,
5046,
4906,
4122,
3415,
2615,
1929,
1577,
1378,
1298,
1203,
1194,
1189,
1165,
1217,
1202,
1132,
1039,
1031,
918,
940,
957,
888,
917,
848,
857,
866,
891,
869,
833,
811,
844,
821,
792,
786,
850,
790,
764,
741,
774,
732,
787,
753,
748,
712,
763,
752,
702,
700,
735,
684,
681,
717,
679,
656,
658,
692,
617,
652,
660,
658,
652,
611,
639,
563,
590,
597,
643,
662,
704,
807,
864,
885,
872,
826,
725,
713,
602,
594,
581,
535,
537,
586,
572,
565,
582,
574,
557,
546,
507,
504,
479,
478,
465,
407,
440,
450,
394,
398,
440,
420,
423,
449,
442,
383,
399,
369,
397,
363,
395,
367,
377,
345,
331,
359,
371,
348,
324,
348,
347,
371,
330,
296,
334,
303,
348,
305,
284,
314,
276,
296,
300,
300,
277,
265,
283,
258,
243,
287,
271,
240,
254,
227,
257,
224,
232,
240,
236,
259,
243,
230,
240,
184,
228,
213,
203,
216,
221,
207,
202,
218,
180,
200,
162,
176,
183,
179,
172,
147,
169,
164,
182,
184,
150,
143,
150,
138,
153,
140,
134,
133,
142,
134,
142,
141,
115,
132,
116,
125,
113,
102,
99,
122,
104,
105,
101,
95,
97,
102,
91,
92,
89,
82,
79,
82,
86,
73,
70,
71,
71,
91,
70,
62,
72,
79,
45,
63,
40,
68,
55,
48,
48,
44,
46,
42,
51,
54,
33,
29,
42,
35,
39,
41,
28,
23,
19,
20,
22,
14,
16,
21,
14,
22,
11,
14,
12,
11,
6,
8,
5,
4,
2,
2,
2,
4,
5,
3,
3,
4,
4,
4,
5,
1,
4,
3,
4,
3,
3,
7,
5,
3,
0,
4,
5,
8,
0,
3,
3,
1,
0,
3,
3,
5,
4,
3,
1,
3,
6,
2,
3,
2,
3,
1,
1,
6,
3,
3,
3,
2,
0,
3,
2,
4,
2,
3,
3,
1,
3,
4,
1,
1,
2,
0,
0,
2,
0,
0,
2,
3,
0,
3,
4,
1,
1,
3,
3,
5,
1,
1,
0,
1,
4,
0,
4,
2,
1,
1,
1,
2,
2,
2,
0,
2,
2,
2,
0,
2,
1,
2,
0,
3,
2,
2,
1,
2,
0,
3,
0,
1,
3,
0,
2,
3,
1,
1,
1,
1,
0,
2,
1,
1,
1,
1,
1,
1,
1,
0,
1,
1,
0,
0,
1,
0,
0,
0,
1,
1,
0,
1,
0,
0,
1,
0,
1,
2,
0,
1,
1,
2,
0,
0,
1,
1,
1,
1,
1,
2,
1,
4,
1,
0,
1,
2,
1,
2,
3,
0,
0,
0,
0,
2,
1,
4,
0,
1,
0,
1,
1,
0,
0,
1,
0,
1,
1,
1,
1,
0,
0,
0,
1,
2,
1,
2,
0,
0,
1,
0,
1,
0,
1,
0,
3,
0,
0,
1,
1,
0,
1,
0,
1,
0,
1,
2,
0,
2,
2,
0,
0,
1,
1,
2,
1,
1,
0,
0,
1,
1,
1,
0,
0,
2,
1,
0,
0,
0,
0,
0,
1,
1,
0,
0,
0,
0,
1,
0,
0,
0,
1,
1,
0,
0,
0,
0,
2,
0,
0,
0,
0,
1,
1,
0,
0,
0,
1,
1,
0,
0,
0,
2,
1,
1,
0,
1,
1,
1,
0,
0,
0,
0,
0,
0,
2,
0,
0,
0,
0,
0,
1,
0,
0,
0,
1,
0,
0,
0,
0,
1,
0,
2,
0,
0,
0,
0,
1,
0,
0,
1,
0,
0,
0,
0,
0,
0,
1,
1,
0,
1,
1,
0,
0,
0,
0,
0,
1,
1,
0,
0,
0,
2,
0,
0,
0,
0,
0,
1,
0,
0,
0,
0,
0,
0,
0,
0,
0,
0,
0,
0,
0,
0,
0,
0,
0,
0,
0,
0,
0,
0,
0,
0,
1,
0,
0,
0,
0,
0,
1,
0,
0,
0,
0,
0,
0,
0,
0,
0,
0,
1,
0,
0,
0,
0,
1,
0,
0,
0,
0,
0,
0,
0,
0,
0,
0,
0,
0,
0,
0,
0,
0,
0,
0,
0,
0,
0,
0,
0,
0,
0,
0,
0,
0,
0,
0,
0,
0,
0,
0,
0,
0,
0,
0,
0,
0,
0,
0,
1,
0,
0,
0,
0,
0,
0,
0,
0,
0,
0,
0,
0,
0,
0,
0,
0,
0,
0,
0,
0,
0,
0,
0,
0,
0,
0,
0,
0,
0,
0,
0,
0,
0,
0,
0,
0,
1,
0,
0,
0,
0,
0,
0,
0,
0,
0,
0,
0,
0,
0,
0,
0,
1,
0,
0,
0,
0,
0,
0,
0,
0,
0,
0,
0,
0,
0,
0,
0,
0,
0,
0,
0,
0,
0,
0,
0,
0,
0,
0,
0,
0,
0,
0,
0,
0,
0,
0,
0,
0,
0,
0,
0,
0,
0,
0,
0,
0,
0,
0,
0,
0,
0,
0,
0,
0,
0,
0,
0,
0,
0,
0,
0,
0,
0,
0,
0,
0,
0,
0,
0,
0,
0,
0,
0,
0,
0,
0,
0,
0,
0,
0,
0,
0,
0,
0,
0,
0,
0,
0,
0,
0,
0,
0,
0,
0,
0,
0,
0,
0,
0,
0,
0,
0,
0,
0,
0,
0,
0,
0,
0,
0,
0,
0,
0,
0,
0,
0,
0,
0,
0,
0,
0,
0,
0,
0,
0,
0,
0,
0,
0,
0,
0,
0,
0,
0,
0,
0,
0,
0,
0,
0,
0,
0,
0,
0,
0,
0,
0,
0,
0,
0,
0,
0,
0,
0,
0,
0,
0,
0,
0,
0,
0,
0,
0,
0,
0,
0,
0,
0,
0,
0,
0,
0,
0,
0,
0,
0,
0,
0,
0,
0,
0,
0,
0,
0,
0,
0,
0,
0,
0,
0,
0,
0,
0,
0,
0,
0,
0,
0,
0,
0,
0,
0,
0,
0,
0,
0,
0,
0,
0,
0,
0,
0,
0,
0,
0,
0,
0,
0,
0,
0,
0,
#ENDOFDATA   :