File: N132962/Quantification/20 keV/Glass Mount IIIB/GM IIIB K1132[2][4].msa
#FORMAT      : EMSA/MAS Spectral Data File
#VERSION     : 1.0
#TITLE       : GM IIIB K1132[2][all]
#DATE        : 10-SEP-2025
#TIME        : 17:33
#OWNER       : Unknown
#NPOINTS     : 4096
#NCOLUMNS    : 1
#XUNITS      : eV
#YUNITS      : counts
#DATATYPE    : Y
#XPERCHAN    : 9.99778
#OFFSET      : 1.69135
#BEAMKV      : 20
#SIGNALTYPE  : EDS
#ELEVANGLE   : 35
#AZIMANGLE   : 0
#LIVETIME    : 240.128
#REALTIME    : 258.7903
#PROBECUR    : 1.22427
#TAUWIND     : 0
#TDEADLYR    : 0
#TACTLYR     : 0.045
#TALWIND     : 0.025
#CHOFFSET    : 0.0
#XLABEL      : Energy (eV)
#YLABEL      : Counts
#XPOSITION   : 7.08155
#YPOSITION   : 16.34489
#ZPOSITION   : 34.06144
#EDSDET      : SD
##SPECIMEN   : GM IIIB K1132[2][all]
##D2STDCMP   : K1132,(Li:2.32),(O:41.34),(Al:7.94),(Si:21.39),(Ca:10.72),(Cr:0.51),(Ni:1.18),(Mo:1.67),(Ba:13.43)
##DET_HASH   : 12273538-fd48-a23f-0a19-f1e6fa85caef
##CALIB_HASH : 6abaa72c-aa41-8738-0be9-f592914732f3
##WORKING    : 15.0 mm
##DET_NAME   : EDAX All
##DET_MODE   : MediumLE
#SPECTRUM    :
33,
25,
11,
20,
96,
367,
982,
2296,
5330,
7930,
6807,
5079,
4389,
4599,
7162,
23414,
85986,
163990,
119213,
32987,
6347,
3538,
3197,
3485,
3620,
4357,
4967,
5554,
6255,
5645,
4435,
4090,
4564,
4738,
4905,
5124,
4640,
4500,
4423,
4433,
4754,
4920,
5127,
5200,
5447,
5599,
6779,
13221,
36571,
70448,
71288,
39001,
15366,
8194,
7422,
16169,
58433,
147823,
199962,
140904,
57534,
20750,
10101,
6073,
4663,
4609,
4374,
4153,
3911,
3947,
3735,
3724,
3965,
4209,
5133,
7072,
8856,
8865,
7248,
6225,
5876,
5398,
4691,
4272,
4159,
3881,
3817,
3713,
3803,
3753,
3754,
3778,
3723,
3755,
3595,
3692,
3613,
3481,
3580,
3656,
3561,
3517,
3570,
3449,
3527,
3531,
3436,
3555,
3492,
3506,
3455,
3278,
3266,
3315,
3379,
3427,
3665,
3736,
4185,
5809,
12023,
27206,
49068,
61812,
51707,
30122,
12807,
5490,
3547,
3354,
3998,
5325,
7611,
9945,
10246,
8472,
5727,
3802,
2982,
2812,
2748,
2722,
2839,
2835,
3192,
4228,
7344,
13253,
19827,
22602,
18348,
11408,
6037,
3497,
2547,
2418,
2465,
2939,
4263,
6950,
10056,
11747,
10767,
8585,
6212,
4785,
3662,
2990,
2760,
3052,
3914,
4904,
5302,
4837,
3831,
2868,
2410,
2308,
2613,
3125,
3520,
3579,
3587,
3424,
3485,
3193,
2841,
2280,
2077,
1975,
1916,
2099,
2211,
2358,
2313,
2176,
2021,
1996,
2077,
1981,
1906,
1742,
1710,
1647,
1625,
1598,
1640,
1584,
1646,
1577,
1577,
1623,
1646,
1684,
1688,
1616,
1607,
1484,
1545,
1513,
1426,
1443,
1489,
1391,
1457,
1402,
1404,
1370,
1348,
1326,
1365,
1359,
1353,
1345,
1364,
1336,
1339,
1306,
1349,
1316,
1317,
1237,
1222,
1311,
1336,
1480,
1823,
2422,
2784,
3056,
2824,
2342,
1837,
1416,
1222,
1284,
1167,
1188,
1090,
1171,
1167,
1106,
1150,
1045,
1142,
1076,
1051,
1073,
1076,
1067,
1114,
1049,
1129,
1168,
1234,
1260,
1220,
1207,
1123,
1051,
1029,
1030,
1015,
1005,
1069,
941,
981,
955,
929,
941,
922,
929,
946,
894,
880,
894,
905,
915,
886,
842,
832,
861,
852,
856,
848,
819,
846,
829,
807,
798,
807,
758,
762,
842,
810,
752,
801,
782,
757,
780,
745,
794,
736,
726,
767,
747,
726,
731,
658,
716,
757,
713,
667,
706,
677,
670,
683,
648,
683,
685,
671,
707,
627,
665,
653,
648,
654,
608,
608,
620,
586,
592,
618,
569,
598,
594,
591,
601,
596,
582,
557,
532,
606,
628,
547,
497,
529,
530,
560,
517,
568,
508,
546,
540,
534,
536,
470,
502,
529,
497,
459,
451,
436,
436,
481,
486,
445,
509,
435,
426,
463,
437,
421,
458,
436,
394,
433,
404,
411,
415,
428,
389,
402,
413,
414,
397,
441,
401,
363,
374,
378,
364,
388,
333,
367,
321,
329,
336,
332,
342,
366,
322,
313,
314,
324,
334,
325,
314,
339,
306,
301,
303,
310,
296,
299,
259,
298,
300,
292,
300,
312,
263,
302,
275,
240,
258,
260,
253,
242,
245,
233,
253,
236,
235,
244,
235,
229,
209,
205,
228,
236,
236,
221,
221,
239,
209,
215,
169,
204,
200,
211,
220,
221,
207,
204,
183,
201,
202,
166,
182,
202,
160,
194,
148,
151,
193,
178,
205,
146,
157,
158,
168,
161,
144,
175,
149,
154,
150,
161,
136,
137,
135,
155,
148,
135,
110,
110,
149,
125,
111,
121,
134,
129,
123,
139,
128,
113,
101,
118,
108,
104,
121,
113,
113,
118,
95,
111,
91,
112,
100,
89,
92,
90,
104,
100,
107,
89,
81,
90,
83,
88,
99,
109,
80,
82,
68,
82,
73,
83,
69,
90,
68,
79,
72,
77,
79,
62,
67,
75,
65,
59,
58,
64,
57,
45,
55,
66,
77,
51,
58,
57,
48,
61,
47,
40,
36,
39,
53,
48,
44,
44,
45,
48,
41,
32,
55,
50,
51,
48,
33,
39,
30,
29,
29,
42,
28,
30,
39,
35,
26,
25,
35,
30,
41,
31,
21,
35,
28,
29,
21,
24,
21,
24,
20,
26,
27,
20,
23,
20,
21,
17,
28,
26,
20,
17,
17,
21,
20,
18,
15,
21,
12,
13,
19,
15,
14,
17,
12,
15,
10,
12,
8,
13,
4,
6,
7,
7,
11,
8,
4,
9,
7,
4,
4,
9,
3,
6,
4,
4,
2,
3,
4,
2,
1,
1,
0,
1,
1,
0,
1,
1,
1,
0,
0,
1,
1,
1,
0,
1,
1,
1,
0,
0,
1,
0,
0,
0,
2,
0,
0,
1,
0,
1,
0,
0,
1,
0,
0,
0,
0,
0,
0,
1,
0,
0,
0,
0,
0,
1,
0,
1,
0,
0,
0,
0,
1,
0,
0,
0,
0,
0,
0,
1,
1,
0,
0,
2,
0,
0,
0,
0,
0,
0,
1,
0,
0,
2,
1,
0,
0,
0,
0,
0,
0,
0,
1,
0,
0,
0,
0,
0,
0,
0,
0,
0,
0,
0,
0,
0,
0,
0,
0,
1,
0,
0,
1,
1,
1,
0,
0,
0,
0,
0,
0,
0,
0,
0,
0,
0,
0,
0,
0,
0,
0,
0,
0,
0,
0,
0,
0,
1,
0,
0,
0,
0,
0,
0,
0,
0,
0,
0,
1,
0,
0,
0,
0,
1,
0,
0,
0,
0,
0,
0,
0,
0,
0,
0,
0,
0,
0,
0,
0,
0,
0,
0,
0,
0,
0,
0,
0,
0,
0,
0,
0,
0,
0,
0,
1,
0,
0,
0,
0,
0,
1,
1,
0,
0,
0,
0,
0,
0,
0,
0,
0,
0,
0,
0,
0,
0,
0,
0,
0,
0,
0,
0,
0,
0,
0,
0,
1,
0,
0,
0,
0,
0,
0,
0,
1,
0,
0,
0,
0,
0,
0,
0,
1,
0,
0,
0,
0,
0,
0,
0,
0,
0,
0,
0,
0,
0,
0,
0,
0,
0,
0,
0,
0,
1,
0,
0,
0,
0,
0,
0,
0,
1,
0,
0,
0,
0,
0,
0,
0,
0,
0,
0,
0,
0,
0,
0,
0,
0,
0,
0,
0,
0,
0,
0,
0,
0,
0,
0,
0,
0,
0,
0,
0,
0,
0,
0,
0,
0,
0,
0,
0,
0,
0,
0,
0,
0,
0,
0,
0,
0,
0,
0,
0,
0,
0,
0,
0,
0,
0,
0,
0,
0,
0,
0,
0,
0,
0,
0,
0,
0,
0,
0,
0,
0,
0,
0,
0,
0,
0,
0,
0,
0,
0,
0,
0,
0,
0,
0,
0,
0,
0,
0,
0,
0,
0,
0,
0,
0,
0,
0,
0,
0,
0,
0,
0,
0,
0,
0,
0,
0,
0,
0,
0,
0,
0,
0,
0,
0,
0,
0,
0,
0,
0,
0,
0,
0,
0,
0,
0,
0,
0,
0,
0,
0,
0,
0,
0,
0,
0,
0,
0,
0,
0,
0,
0,
0,
0,
0,
0,
0,
0,
0,
0,
0,
0,
0,
0,
0,
0,
0,
0,
0,
0,
0,
0,
0,
0,
0,
0,
0,
0,
0,
0,
0,
0,
0,
0,
0,
0,
0,
0,
0,
0,
0,
0,
0,
0,
0,
0,
0,
0,
0,
0,
0,
0,
0,
0,
0,
0,
0,
0,
0,
0,
0,
0,
0,
0,
0,
0,
0,
0,
0,
0,
0,
0,
0,
0,
0,
0,
0,
0,
0,
0,
0,
0,
0,
0,
0,
0,
0,
0,
0,
0,
0,
0,
0,
0,
0,
0,
0,
0,
0,
0,
0,
0,
0,
0,
0,
0,
0,
0,
0,
0,
0,
0,
0,
0,
0,
0,
0,
0,
0,
0,
0,
0,
0,
0,
0,
0,
0,
0,
0,
0,
0,
0,
0,
0,
0,
0,
0,
0,
0,
0,
0,
0,
0,
0,
0,
0,
0,
0,
0,
0,
0,
0,
0,
0,
0,
0,
0,
0,
0,
0,
0,
0,
0,
0,
0,
0,
0,
0,
0,
0,
0,
0,
0,
0,
0,
0,
0,
0,
0,
0,
0,
0,
0,
0,
0,
0,
0,
0,
0,
0,
0,
0,
0,
0,
0,
0,
0,
0,
0,
0,
0,
0,
0,
0,
0,
0,
0,
0,
0,
0,
0,
0,
0,
0,
0,
0,
0,
0,
0,
0,
0,
0,
0,
0,
0,
0,
0,
0,
0,
0,
0,
0,
0,
0,
0,
0,
0,
0,
0,
0,
0,
0,
0,
0,
0,
0,
0,
0,
0,
0,
0,
0,
0,
0,
0,
0,
0,
0,
0,
0,
0,
0,
0,
0,
0,
0,
0,
0,
0,
0,
0,
0,
0,
0,
0,
0,
0,
0,
0,
0,
0,
0,
0,
0,
0,
0,
0,
0,
0,
0,
0,
0,
0,
0,
0,
0,
0,
0,
0,
0,
0,
0,
0,
0,
0,
0,
0,
0,
0,
0,
#ENDOFDATA   :