File: N132962/Quantification/20 keV/Glass Mount IIIB/GM IIIB K411[1][4].msa
#FORMAT      : EMSA/MAS Spectral Data File
#VERSION     : 1.0
#TITLE       : GM IIIB K411[1][all]
#DATE        : 10-SEP-2025
#TIME        : 14:23
#OWNER       : Unknown
#NPOINTS     : 4096
#NCOLUMNS    : 1
#XUNITS      : eV
#YUNITS      : counts
#DATATYPE    : Y
#XPERCHAN    : 9.99778
#OFFSET      : 1.69135
#BEAMKV      : 20
#SIGNALTYPE  : EDS
#ELEVANGLE   : 35
#AZIMANGLE   : 0
#LIVETIME    : 240.206
#REALTIME    : 258.8606
#PROBECUR    : 1.22574
#TAUWIND     : 0
#TDEADLYR    : 0
#TACTLYR     : 0.045
#TALWIND     : 0.025
#CHOFFSET    : 0.0
#XLABEL      : Energy (eV)
#YLABEL      : Counts
#XPOSITION   : 5.07343
#YPOSITION   : 5.09731
#ZPOSITION   : 34.06144
#EDSDET      : SD
##SPECIMEN   : GM IIIB K411[1][all]
##D2STDCMP   : K411,(O:42.3664),(Mg:8.8466),(Si:25.3818),(Ca:11.0563),(Fe:11.2088),5.0
##DET_HASH   : 12273538-fd48-a23f-0a19-f1e6fa85caef
##CALIB_HASH : 6abaa72c-aa41-8738-0be9-f592914732f3
##WORKING    : 15.0 mm
##DET_NAME   : EDAX All
##DET_MODE   : MediumLE
#SPECTRUM    :
34,
25,
10,
21,
89,
337,
820,
2077,
4831,
7313,
6033,
4411,
3955,
4333,
6762,
23217,
88750,
169498,
122775,
32619,
6186,
4400,
6748,
11501,
10855,
6049,
3341,
2932,
3004,
3077,
3112,
3207,
3325,
3685,
4077,
4255,
4353,
4591,
5165,
8937,
26494,
62937,
74868,
42995,
14473,
5915,
4688,
4792,
4971,
5344,
5677,
5548,
5739,
5826,
7359,
18994,
73037,
188525,
255568,
179711,
72242,
24738,
11612,
6286,
4284,
3808,
3578,
3259,
3256,
3246,
3212,
3342,
3337,
3432,
3689,
3921,
3941,
3660,
3535,
3277,
3174,
3239,
3287,
3332,
3268,
3194,
3280,
3215,
3146,
3250,
3104,
3109,
3164,
3254,
3163,
3022,
3043,
3102,
3166,
3159,
3292,
3142,
3093,
3075,
2988,
2998,
2860,
2966,
2871,
2932,
2855,
2811,
2870,
2824,
2979,
3105,
3324,
3502,
3765,
5371,
11432,
27303,
49666,
62164,
52466,
30030,
12424,
5047,
3088,
2823,
3187,
4256,
6335,
8841,
9719,
8043,
5245,
3339,
2404,
2329,
2195,
2301,
2195,
2127,
2029,
2053,
2050,
2092,
2105,
2207,
2291,
2215,
2017,
1989,
2078,
2050,
1970,
1979,
1891,
1861,
1884,
1896,
1846,
1918,
1902,
1792,
1868,
1843,
1843,
1791,
1799,
1759,
1696,
1666,
1626,
1785,
1765,
1697,
1721,
1758,
1736,
1846,
1711,
1706,
1567,
1554,
1550,
1549,
1504,
1540,
1576,
1573,
1516,
1549,
1578,
1569,
1642,
1681,
1614,
1507,
1443,
1452,
1437,
1387,
1433,
1485,
1489,
1589,
2027,
3581,
7147,
13304,
20751,
24976,
23442,
17166,
9771,
5024,
2434,
1500,
1314,
1299,
1205,
1201,
1208,
1249,
1242,
1213,
1273,
1303,
1409,
1636,
2196,
2917,
3884,
4245,
3886,
2979,
2109,
1479,
1235,
1075,
999,
1025,
983,
1038,
1004,
1058,
1088,
1062,
1086,
1040,
1002,
1004,
966,
998,
911,
918,
978,
924,
938,
925,
915,
881,
894,
868,
911,
874,
852,
888,
895,
918,
909,
884,
875,
812,
808,
852,
803,
845,
784,
756,
750,
762,
786,
809,
736,
778,
751,
750,
796,
717,
687,
739,
706,
675,
732,
709,
704,
694,
688,
667,
627,
665,
690,
685,
654,
683,
651,
650,
663,
606,
567,
646,
599,
612,
600,
617,
640,
661,
616,
604,
590,
581,
588,
582,
548,
572,
557,
587,
584,
505,
523,
538,
509,
594,
545,
523,
506,
543,
527,
572,
489,
522,
480,
474,
469,
534,
492,
511,
467,
466,
461,
488,
450,
468,
444,
468,
476,
428,
421,
451,
417,
455,
436,
422,
384,
393,
412,
428,
383,
411,
395,
421,
393,
371,
396,
385,
393,
395,
403,
391,
318,
357,
357,
360,
368,
332,
345,
329,
345,
345,
369,
307,
315,
308,
311,
328,
311,
344,
315,
299,
309,
305,
292,
315,
298,
293,
282,
279,
285,
263,
276,
270,
270,
277,
247,
290,
235,
274,
260,
263,
264,
275,
262,
272,
256,
214,
237,
236,
243,
223,
229,
200,
242,
236,
199,
243,
222,
210,
241,
206,
203,
195,
212,
215,
190,
184,
220,
181,
164,
203,
186,
183,
186,
182,
202,
199,
186,
182,
148,
185,
164,
145,
153,
166,
150,
144,
150,
158,
169,
157,
145,
166,
162,
131,
128,
141,
155,
150,
140,
144,
121,
115,
131,
145,
128,
119,
137,
124,
105,
121,
110,
126,
120,
108,
123,
137,
119,
93,
127,
107,
99,
105,
109,
109,
105,
98,
109,
95,
94,
88,
83,
88,
91,
89,
89,
73,
80,
97,
93,
60,
79,
82,
75,
72,
71,
87,
66,
69,
73,
74,
73,
64,
71,
70,
47,
59,
60,
62,
65,
68,
72,
66,
51,
73,
62,
67,
53,
57,
54,
53,
52,
43,
43,
39,
45,
49,
38,
56,
53,
49,
59,
38,
57,
40,
41,
39,
38,
45,
40,
33,
38,
31,
45,
42,
33,
40,
34,
32,
27,
28,
28,
30,
33,
36,
35,
30,
23,
37,
29,
26,
24,
15,
19,
27,
28,
19,
23,
36,
22,
27,
24,
25,
19,
27,
26,
21,
26,
22,
16,
17,
13,
15,
23,
14,
17,
13,
3,
12,
16,
9,
9,
13,
10,
10,
9,
7,
8,
7,
10,
9,
7,
5,
6,
6,
10,
6,
6,
9,
8,
4,
7,
8,
4,
5,
7,
4,
3,
7,
2,
1,
2,
3,
3,
0,
7,
3,
2,
0,
2,
1,
1,
2,
1,
2,
0,
1,
0,
1,
0,
0,
1,
0,
0,
0,
0,
1,
1,
0,
0,
0,
0,
0,
0,
0,
0,
0,
0,
0,
0,
0,
1,
0,
0,
0,
0,
0,
0,
0,
0,
0,
1,
0,
0,
0,
0,
0,
0,
0,
0,
1,
1,
0,
0,
0,
0,
0,
0,
0,
0,
0,
1,
0,
0,
0,
0,
0,
0,
0,
0,
0,
0,
0,
0,
0,
0,
0,
0,
0,
1,
0,
0,
0,
0,
0,
0,
0,
1,
0,
0,
0,
0,
0,
0,
0,
0,
0,
1,
0,
0,
1,
0,
0,
0,
0,
0,
0,
1,
0,
0,
0,
0,
0,
0,
0,
0,
0,
0,
0,
0,
0,
0,
0,
0,
0,
0,
0,
0,
0,
1,
0,
0,
0,
0,
0,
0,
0,
0,
0,
0,
1,
0,
1,
0,
0,
0,
0,
0,
0,
0,
0,
0,
0,
0,
0,
0,
0,
0,
0,
0,
0,
0,
0,
0,
0,
1,
0,
0,
0,
0,
0,
0,
0,
1,
0,
0,
0,
0,
0,
0,
0,
0,
0,
0,
0,
0,
0,
0,
0,
0,
0,
0,
0,
0,
0,
0,
0,
0,
0,
0,
0,
0,
0,
0,
0,
0,
0,
0,
0,
0,
0,
0,
0,
0,
0,
0,
0,
0,
0,
0,
0,
0,
0,
0,
0,
0,
0,
0,
0,
0,
0,
0,
0,
0,
0,
0,
0,
0,
0,
0,
0,
0,
0,
0,
0,
0,
0,
0,
0,
0,
0,
0,
0,
0,
0,
0,
0,
0,
0,
0,
0,
0,
0,
0,
0,
0,
0,
0,
0,
0,
0,
0,
0,
0,
0,
0,
0,
0,
0,
0,
0,
0,
0,
0,
0,
0,
0,
0,
0,
0,
0,
0,
0,
0,
0,
0,
0,
0,
0,
0,
0,
0,
0,
0,
0,
0,
0,
0,
0,
0,
0,
0,
0,
0,
0,
0,
0,
0,
0,
0,
0,
0,
0,
0,
0,
0,
0,
0,
0,
0,
0,
0,
0,
0,
0,
0,
0,
0,
0,
0,
0,
0,
0,
0,
0,
0,
0,
0,
0,
0,
0,
0,
0,
0,
0,
0,
0,
0,
0,
0,
0,
0,
0,
0,
0,
0,
0,
0,
0,
0,
0,
0,
0,
0,
0,
0,
0,
0,
0,
0,
0,
0,
0,
0,
0,
0,
0,
0,
0,
0,
0,
0,
0,
0,
0,
0,
0,
0,
0,
0,
0,
0,
0,
0,
0,
0,
0,
0,
0,
0,
0,
0,
0,
0,
0,
0,
0,
0,
0,
0,
0,
0,
0,
0,
0,
0,
0,
0,
0,
0,
0,
0,
0,
0,
0,
0,
0,
0,
0,
0,
0,
0,
0,
0,
0,
0,
0,
0,
0,
0,
0,
0,
0,
0,
0,
0,
0,
0,
0,
0,
0,
0,
0,
0,
0,
0,
0,
0,
0,
0,
0,
0,
0,
0,
0,
0,
0,
0,
0,
0,
0,
0,
0,
0,
0,
0,
0,
0,
0,
0,
0,
0,
0,
0,
0,
0,
0,
0,
0,
0,
0,
0,
0,
0,
0,
0,
0,
0,
0,
0,
0,
0,
0,
0,
0,
0,
0,
0,
0,
0,
0,
0,
0,
0,
0,
0,
0,
0,
0,
0,
0,
0,
0,
0,
0,
0,
0,
0,
0,
0,
0,
0,
0,
0,
0,
0,
0,
0,
0,
0,
0,
0,
0,
0,
0,
0,
0,
0,
0,
0,
0,
0,
0,
0,
0,
0,
0,
0,
0,
0,
0,
0,
0,
0,
0,
0,
0,
0,
0,
0,
0,
0,
0,
0,
0,
0,
0,
0,
0,
0,
0,
0,
0,
0,
0,
0,
0,
0,
0,
0,
0,
0,
0,
0,
0,
0,
0,
0,
0,
0,
0,
0,
0,
0,
0,
0,
0,
0,
0,
0,
0,
0,
0,
0,
0,
0,
0,
0,
0,
0,
0,
0,
0,
0,
0,
0,
0,
0,
0,
0,
0,
0,
0,
0,
0,
0,
0,
0,
0,
0,
0,
0,
0,
0,
0,
0,
0,
0,
0,
0,
0,
0,
0,
0,
0,
0,
0,
0,
0,
0,
0,
0,
0,
0,
0,
0,
0,
0,
0,
0,
0,
0,
0,
0,
0,
0,
0,
0,
0,
0,
0,
0,
0,
0,
0,
0,
0,
0,
0,
0,
0,
0,
0,
0,
0,
#ENDOFDATA   :