File: N132962/Quantification/20 keV/Glass Mount IIIB/GM IIIB K453[2][4].msa
#FORMAT      : EMSA/MAS Spectral Data File
#VERSION     : 1.0
#TITLE       : GM IIIB K453[2][all]
#DATE        : 10-SEP-2025
#TIME        : 14:13
#OWNER       : Unknown
#NPOINTS     : 4096
#NCOLUMNS    : 1
#XUNITS      : eV
#YUNITS      : counts
#DATATYPE    : Y
#XPERCHAN    : 9.99778
#OFFSET      : 1.69135
#BEAMKV      : 20
#SIGNALTYPE  : EDS
#ELEVANGLE   : 35
#AZIMANGLE   : 0
#LIVETIME    : 240.219
#REALTIME    : 266.664
#PROBECUR    : 1.22574
#TAUWIND     : 0
#TDEADLYR    : 0
#TACTLYR     : 0.045
#TALWIND     : 0.025
#CHOFFSET    : 0.0
#XLABEL      : Energy (eV)
#YLABEL      : Counts
#XPOSITION   : -1.10927
#YPOSITION   : 4.00291
#ZPOSITION   : 34.06144
#EDSDET      : SD
##SPECIMEN   : GM IIIB K453[2][all]
##D2STDCMP   : K453,(O:16.84),(Ge:28.65),(Pb:54.51)
##DET_HASH   : 12273538-fd48-a23f-0a19-f1e6fa85caef
##CALIB_HASH : 6abaa72c-aa41-8738-0be9-f592914732f3
##WORKING    : 15.0 mm
##DET_NAME   : EDAX All
##DET_MODE   : MediumLE
#SPECTRUM    :
30,
22,
10,
37,
198,
860,
2229,
4969,
10317,
12553,
8566,
6231,
6319,
6365,
7482,
13441,
36552,
63808,
48038,
17336,
9396,
8222,
7995,
8833,
8376,
7350,
7201,
7773,
8160,
8380,
8572,
8884,
9452,
11565,
15029,
16375,
15250,
20978,
54716,
120385,
147647,
97460,
40139,
15602,
9246,
7984,
7535,
7659,
7949,
8320,
8205,
8146,
8041,
8133,
8470,
8417,
9002,
9561,
10511,
12451,
15388,
17040,
14244,
10802,
9310,
8994,
8692,
8513,
8760,
8867,
9134,
10089,
10829,
12000,
13905,
21148,
46480,
97371,
143081,
138112,
111100,
101710,
86520,
51895,
22920,
10901,
8959,
10761,
12638,
12091,
9453,
7189,
6176,
5866,
6052,
6220,
6248,
6341,
6587,
6609,
6859,
7321,
7611,
7783,
7667,
7074,
6607,
6258,
5888,
5922,
5755,
5707,
5863,
5816,
5825,
5846,
5880,
6035,
6124,
6060,
5955,
6025,
5824,
5748,
5696,
5992,
5726,
5656,
5680,
5574,
5528,
5503,
5447,
5418,
5474,
5438,
5454,
5512,
5476,
5452,
5532,
5529,
5444,
5370,
5509,
5454,
5387,
5441,
5589,
5761,
5871,
5985,
5813,
5452,
5381,
5274,
5442,
5341,
5278,
5224,
5338,
5285,
5215,
5160,
5254,
5201,
4992,
5112,
5033,
5114,
4981,
4923,
4884,
4966,
4869,
4880,
4945,
4942,
4778,
4722,
4920,
4848,
4690,
4673,
4809,
4799,
4631,
4547,
4535,
4439,
4559,
4566,
4502,
4483,
4507,
4507,
4566,
4486,
4351,
4377,
4351,
4357,
4407,
4340,
4305,
4262,
4224,
4159,
4199,
4253,
4192,
4308,
4482,
4588,
4558,
4435,
4301,
4095,
4051,
4069,
4123,
3998,
4049,
3885,
3894,
3938,
3874,
3795,
3855,
3815,
3737,
3734,
3703,
3763,
3781,
3775,
3722,
3593,
3745,
3568,
3764,
3543,
3657,
3640,
3532,
3538,
3599,
3571,
3677,
3820,
3736,
3602,
3371,
3315,
3434,
3366,
3351,
3313,
3279,
3278,
3314,
3289,
3102,
3304,
3147,
3203,
3090,
3188,
3184,
3062,
3072,
3122,
3024,
3069,
3096,
2974,
2918,
3056,
2980,
2893,
2957,
2926,
2907,
2862,
2837,
2875,
2720,
2825,
2789,
2756,
2812,
2791,
2729,
2761,
2572,
2615,
2613,
2640,
2715,
2599,
2724,
2671,
2712,
2874,
2967,
3117,
3176,
3068,
2966,
2704,
2567,
2531,
2451,
2574,
2416,
2390,
2505,
2370,
2423,
2490,
2505,
2495,
2576,
3285,
4521,
7233,
11400,
16596,
20881,
22380,
20704,
16263,
11141,
6937,
4309,
2870,
2391,
2285,
2165,
2220,
2228,
2221,
2138,
2245,
2412,
2803,
3613,
4783,
6621,
8727,
10659,
11993,
11716,
9920,
7537,
5219,
3512,
2614,
2224,
2117,
2123,
2375,
2781,
3247,
3967,
4455,
4590,
4222,
3627,
2931,
2397,
1965,
1777,
1661,
1641,
1662,
1679,
1630,
1618,
1571,
1601,
1603,
1567,
1560,
1496,
1487,
1494,
1536,
1400,
1490,
1516,
1475,
1415,
1357,
1368,
1380,
1417,
1344,
1379,
1392,
1309,
1419,
1379,
1392,
1430,
1453,
1474,
1454,
1448,
1401,
1458,
1453,
1410,
1451,
1477,
1737,
2121,
2887,
3807,
4392,
4701,
4516,
3843,
3221,
2514,
1891,
1580,
1431,
1269,
1225,
1189,
1191,
1181,
1242,
1219,
1171,
1074,
1041,
974,
1016,
1014,
919,
975,
939,
917,
949,
850,
859,
888,
871,
865,
817,
876,
850,
802,
878,
777,
834,
786,
793,
795,
733,
802,
745,
714,
749,
808,
803,
668,
726,
751,
723,
697,
744,
694,
668,
723,
657,
690,
635,
608,
615,
723,
663,
656,
646,
676,
702,
727,
799,
828,
886,
859,
816,
827,
753,
664,
609,
584,
596,
584,
631,
599,
610,
576,
571,
604,
560,
530,
533,
561,
527,
439,
487,
462,
495,
471,
428,
415,
442,
449,
449,
420,
446,
414,
418,
420,
410,
385,
407,
385,
383,
388,
358,
407,
377,
350,
362,
363,
372,
335,
335,
287,
347,
335,
317,
320,
315,
299,
300,
291,
312,
291,
286,
302,
282,
284,
290,
270,
291,
269,
261,
264,
244,
257,
249,
256,
260,
241,
222,
246,
227,
229,
243,
234,
222,
199,
199,
234,
202,
202,
208,
181,
212,
203,
198,
185,
196,
173,
182,
181,
177,
171,
172,
176,
147,
159,
163,
145,
148,
143,
147,
155,
130,
121,
129,
122,
121,
126,
134,
107,
109,
116,
129,
85,
100,
99,
103,
85,
101,
102,
93,
84,
83,
92,
61,
83,
81,
83,
73,
67,
84,
72,
67,
65,
54,
60,
60,
44,
59,
53,
49,
46,
55,
45,
38,
41,
38,
38,
23,
24,
34,
28,
34,
26,
15,
22,
26,
24,
21,
17,
15,
12,
8,
6,
6,
9,
9,
5,
6,
2,
0,
3,
3,
5,
3,
6,
7,
1,
7,
7,
5,
6,
2,
6,
2,
6,
3,
2,
8,
10,
4,
3,
4,
4,
4,
6,
4,
3,
2,
7,
4,
5,
4,
5,
7,
6,
4,
2,
5,
1,
4,
3,
2,
4,
4,
2,
3,
4,
3,
2,
3,
4,
1,
0,
3,
1,
4,
6,
4,
2,
4,
3,
0,
3,
1,
4,
2,
2,
2,
3,
2,
3,
3,
6,
2,
5,
1,
2,
4,
1,
2,
3,
1,
2,
3,
1,
6,
2,
2,
3,
4,
0,
4,
1,
0,
0,
3,
3,
1,
5,
4,
3,
3,
2,
3,
2,
1,
2,
4,
0,
1,
1,
1,
1,
2,
3,
7,
0,
2,
2,
0,
5,
1,
2,
1,
5,
1,
1,
1,
2,
0,
1,
0,
1,
1,
3,
1,
2,
2,
0,
0,
2,
2,
0,
0,
1,
2,
1,
0,
2,
1,
3,
1,
1,
2,
2,
3,
1,
0,
0,
3,
3,
1,
0,
0,
1,
1,
1,
2,
2,
2,
1,
3,
1,
0,
0,
1,
3,
0,
2,
1,
1,
0,
2,
1,
1,
1,
2,
1,
1,
4,
2,
0,
1,
0,
1,
2,
2,
2,
0,
1,
3,
2,
0,
2,
0,
0,
0,
2,
0,
0,
0,
1,
1,
2,
0,
1,
0,
0,
0,
0,
1,
1,
0,
1,
1,
0,
2,
1,
1,
1,
0,
3,
0,
1,
1,
1,
1,
1,
1,
2,
0,
0,
2,
1,
0,
0,
0,
1,
0,
0,
0,
1,
0,
1,
1,
0,
1,
0,
0,
0,
2,
0,
2,
1,
0,
0,
0,
0,
0,
0,
0,
1,
0,
0,
0,
0,
1,
0,
0,
1,
0,
0,
0,
1,
0,
0,
0,
0,
0,
1,
0,
0,
0,
1,
1,
0,
0,
0,
1,
1,
0,
0,
1,
1,
0,
0,
1,
0,
0,
0,
0,
0,
0,
0,
0,
0,
0,
0,
0,
0,
0,
0,
0,
1,
0,
1,
1,
0,
0,
0,
0,
1,
0,
0,
0,
0,
0,
0,
0,
0,
0,
1,
0,
0,
0,
0,
1,
0,
1,
0,
0,
0,
0,
0,
0,
0,
0,
0,
0,
0,
0,
0,
0,
0,
0,
0,
0,
0,
0,
0,
0,
0,
0,
0,
0,
0,
0,
0,
0,
0,
0,
0,
0,
0,
0,
0,
0,
0,
0,
0,
0,
0,
0,
0,
2,
0,
0,
0,
0,
0,
0,
1,
0,
0,
0,
0,
0,
0,
0,
0,
1,
0,
0,
0,
0,
0,
0,
0,
0,
0,
0,
0,
0,
0,
0,
0,
0,
0,
0,
0,
0,
0,
0,
0,
0,
0,
0,
0,
0,
0,
0,
0,
0,
0,
0,
0,
0,
0,
0,
0,
0,
0,
0,
0,
0,
0,
0,
0,
0,
0,
0,
0,
0,
0,
0,
0,
0,
0,
0,
0,
0,
0,
0,
0,
0,
0,
0,
0,
0,
0,
0,
0,
0,
0,
0,
0,
0,
0,
0,
0,
0,
0,
0,
0,
0,
0,
0,
0,
0,
0,
0,
0,
0,
0,
0,
0,
0,
0,
0,
0,
0,
0,
0,
0,
0,
0,
0,
0,
0,
0,
0,
0,
0,
0,
0,
0,
0,
0,
0,
0,
0,
0,
0,
0,
0,
0,
0,
0,
0,
0,
0,
0,
0,
0,
0,
0,
0,
0,
0,
0,
0,
0,
0,
0,
0,
0,
0,
0,
0,
0,
0,
0,
0,
0,
0,
0,
0,
0,
0,
0,
0,
0,
0,
0,
0,
0,
0,
0,
0,
0,
0,
0,
0,
0,
0,
0,
0,
0,
0,
0,
0,
0,
0,
0,
0,
0,
0,
0,
0,
0,
0,
0,
0,
0,
0,
0,
0,
0,
0,
0,
0,
0,
0,
0,
0,
0,
0,
0,
0,
0,
0,
0,
0,
0,
0,
0,
0,
0,
0,
0,
0,
0,
0,
0,
0,
0,
0,
0,
0,
0,
0,
0,
0,
0,
0,
0,
0,
0,
0,
0,
0,
0,
0,
0,
0,
0,
0,
0,
0,
0,
0,
0,
1,
0,
0,
0,
0,
0,
0,
0,
0,
0,
0,
0,
0,
0,
0,
0,
0,
0,
0,
0,
0,
0,
0,
0,
0,
0,
0,
0,
0,
0,
0,
0,
#ENDOFDATA   :