File: N132962/Quantification/20 keV/Glass Mount IIIB/GM IIIB K508[2][4].msa
#FORMAT      : EMSA/MAS Spectral Data File
#VERSION     : 1.0
#TITLE       : GM IIIB K508[2][all]
#DATE        : 11-SEP-2025
#TIME        : 09:31
#OWNER       : Unknown
#NPOINTS     : 4096
#NCOLUMNS    : 1
#XUNITS      : eV
#YUNITS      : counts
#DATATYPE    : Y
#XPERCHAN    : 9.99778
#OFFSET      : 1.69135
#BEAMKV      : 20
#SIGNALTYPE  : EDS
#ELEVANGLE   : 35
#AZIMANGLE   : 0
#LIVETIME    : 240.135
#REALTIME    : 258.9865
#PROBECUR    : 1.22303
#TAUWIND     : 0
#TDEADLYR    : 0
#TACTLYR     : 0.045
#TALWIND     : 0.025
#CHOFFSET    : 0.0
#XLABEL      : Energy (eV)
#YLABEL      : Counts
#XPOSITION   : 8.54151
#YPOSITION   : 9.69509
#ZPOSITION   : 34.00161
#EDSDET      : SD
##SPECIMEN   : GM IIIB K508[2][all]
##D2STDCMP   : K508,(B:9.26),(O:41.14),(Si:12.06),(Sr:37.54)
##DET_HASH   : 12273538-fd48-a23f-0a19-f1e6fa85caef
##CALIB_HASH : 6abaa72c-aa41-8738-0be9-f592914732f3
##WORKING    : 15.0 mm
##DET_NAME   : EDAX All
##DET_MODE   : MediumLE
#SPECTRUM    :
22,
26,
12,
61,
362,
1104,
1957,
2771,
5176,
6296,
3944,
2995,
3370,
4136,
6162,
19445,
68872,
130654,
93839,
25273,
4487,
2839,
3348,
3589,
3465,
3346,
3626,
3987,
4231,
4379,
4505,
4733,
4835,
5143,
5586,
5697,
5616,
5608,
5891,
6048,
6295,
6309,
6465,
6638,
6853,
6741,
7120,
7204,
7596,
7896,
8635,
10820,
14488,
16616,
16276,
21135,
52903,
126944,
200276,
235966,
248581,
204836,
130839,
73891,
36669,
17310,
9053,
5311,
3856,
3497,
3375,
3471,
3740,
4225,
4187,
4024,
3912,
3974,
3803,
3683,
3489,
3513,
3434,
3467,
3409,
3385,
3428,
3501,
3362,
3376,
3493,
3482,
3406,
3489,
3406,
3439,
3366,
3350,
3504,
3460,
3433,
3427,
3378,
3542,
3360,
3441,
3334,
3438,
3397,
3308,
3346,
3299,
3363,
3348,
3324,
3476,
3559,
3711,
3782,
3717,
3770,
3677,
3499,
3474,
3288,
3133,
3174,
3048,
3053,
3028,
2868,
2995,
2966,
2890,
2982,
2961,
2828,
2996,
2871,
2857,
2824,
2807,
2813,
2772,
2741,
2847,
2734,
2718,
2809,
2948,
2858,
2900,
2812,
2697,
2614,
2577,
2614,
2577,
2470,
2649,
2529,
2601,
2506,
2488,
2478,
2481,
2407,
2381,
2396,
2273,
2353,
2370,
2299,
2250,
2327,
2250,
2268,
2228,
2239,
2232,
2126,
2183,
2241,
2143,
2240,
2136,
2104,
2151,
2123,
2031,
2087,
2080,
2044,
2095,
2066,
2024,
1872,
1953,
1952,
1916,
2020,
2004,
1971,
1862,
1875,
1866,
1896,
1871,
1855,
1807,
1903,
1885,
1942,
2076,
2038,
1840,
1803,
1727,
1784,
1747,
1734,
1723,
1738,
1692,
1720,
1683,
1672,
1579,
1610,
1542,
1608,
1539,
1582,
1487,
1646,
1536,
1587,
1593,
1509,
1438,
1475,
1449,
1475,
1350,
1461,
1452,
1453,
1478,
1552,
1546,
1476,
1463,
1401,
1326,
1375,
1430,
1399,
1376,
1340,
1345,
1341,
1356,
1283,
1314,
1277,
1218,
1270,
1289,
1254,
1185,
1200,
1204,
1190,
1228,
1225,
1216,
1194,
1140,
1183,
1149,
1108,
1147,
1169,
1162,
1133,
1145,
1075,
1074,
1083,
1092,
1150,
1103,
1056,
1052,
1055,
1056,
1078,
1066,
1003,
958,
968,
938,
972,
958,
941,
917,
917,
978,
971,
908,
933,
915,
915,
939,
924,
886,
913,
929,
895,
896,
888,
841,
841,
859,
851,
857,
870,
831,
908,
778,
862,
841,
819,
817,
796,
793,
747,
768,
734,
781,
751,
746,
759,
740,
761,
731,
687,
704,
678,
707,
695,
683,
680,
652,
712,
676,
710,
668,
674,
643,
653,
626,
631,
625,
574,
652,
596,
636,
609,
594,
609,
579,
583,
591,
578,
543,
576,
571,
547,
496,
570,
569,
545,
589,
557,
552,
560,
506,
516,
518,
546,
528,
514,
517,
469,
484,
480,
516,
491,
449,
444,
469,
461,
440,
489,
428,
474,
480,
463,
385,
397,
438,
415,
442,
416,
420,
419,
383,
396,
441,
386,
361,
385,
374,
367,
369,
374,
356,
323,
375,
336,
337,
346,
340,
325,
335,
369,
334,
359,
320,
287,
332,
320,
341,
318,
292,
322,
320,
297,
320,
299,
284,
279,
289,
271,
282,
293,
269,
289,
288,
274,
290,
288,
310,
359,
519,
694,
904,
1340,
1625,
1878,
1939,
1823,
1599,
1184,
854,
569,
428,
291,
262,
219,
206,
210,
206,
207,
195,
209,
210,
191,
190,
203,
199,
184,
183,
145,
167,
168,
175,
166,
169,
151,
177,
174,
186,
154,
148,
153,
185,
149,
143,
144,
158,
147,
150,
128,
118,
132,
147,
124,
134,
135,
156,
185,
215,
249,
296,
347,
356,
338,
264,
244,
246,
187,
159,
156,
132,
143,
115,
133,
95,
105,
82,
107,
102,
105,
77,
84,
77,
104,
88,
94,
85,
101,
82,
83,
91,
75,
79,
70,
70,
67,
58,
75,
87,
71,
73,
61,
63,
68,
78,
51,
75,
80,
43,
64,
57,
52,
56,
60,
73,
57,
58,
48,
40,
51,
51,
65,
44,
48,
33,
50,
42,
40,
49,
40,
48,
42,
45,
50,
39,
32,
41,
44,
29,
32,
30,
30,
20,
32,
22,
21,
30,
26,
32,
23,
13,
25,
20,
22,
20,
27,
21,
20,
23,
15,
17,
15,
23,
14,
23,
22,
15,
12,
18,
16,
10,
9,
11,
13,
13,
10,
11,
12,
6,
7,
8,
8,
8,
5,
11,
6,
6,
12,
11,
5,
5,
5,
2,
3,
0,
4,
6,
4,
3,
0,
3,
0,
1,
0,
0,
0,
0,
1,
0,
1,
0,
0,
1,
1,
0,
1,
0,
0,
1,
0,
0,
0,
0,
0,
0,
1,
0,
1,
0,
0,
0,
0,
1,
0,
0,
0,
1,
1,
0,
1,
0,
1,
0,
0,
0,
0,
0,
0,
0,
0,
1,
1,
0,
1,
0,
0,
1,
0,
0,
0,
1,
0,
0,
0,
1,
1,
0,
0,
0,
0,
0,
0,
0,
1,
0,
0,
0,
0,
0,
0,
0,
0,
1,
1,
0,
0,
0,
1,
0,
0,
1,
0,
0,
0,
0,
0,
0,
0,
1,
0,
0,
0,
0,
0,
0,
0,
0,
0,
0,
0,
0,
0,
0,
1,
1,
0,
0,
0,
0,
0,
0,
0,
0,
0,
0,
0,
1,
0,
0,
0,
0,
0,
0,
0,
0,
1,
0,
0,
0,
1,
0,
0,
0,
1,
0,
0,
0,
0,
0,
0,
0,
0,
0,
0,
0,
0,
1,
0,
0,
0,
0,
0,
0,
1,
0,
0,
0,
0,
0,
0,
0,
0,
0,
0,
0,
0,
0,
0,
0,
0,
0,
0,
0,
0,
0,
0,
0,
0,
0,
0,
0,
0,
1,
0,
0,
0,
0,
0,
0,
0,
0,
0,
0,
0,
0,
0,
0,
1,
0,
0,
0,
1,
0,
0,
0,
0,
0,
0,
0,
0,
0,
0,
0,
0,
0,
0,
0,
0,
0,
0,
0,
0,
0,
0,
0,
0,
0,
0,
0,
0,
0,
0,
0,
0,
0,
1,
0,
0,
0,
0,
0,
0,
0,
0,
0,
0,
0,
0,
0,
0,
0,
0,
0,
0,
0,
0,
0,
0,
0,
0,
0,
0,
0,
0,
0,
0,
0,
0,
1,
0,
0,
0,
0,
0,
0,
0,
0,
0,
0,
0,
0,
0,
0,
1,
0,
0,
0,
0,
0,
0,
0,
0,
0,
0,
0,
0,
0,
0,
0,
0,
0,
0,
0,
0,
0,
0,
0,
0,
0,
0,
0,
0,
0,
0,
0,
0,
0,
0,
0,
0,
0,
0,
0,
0,
0,
0,
0,
0,
0,
0,
0,
0,
0,
0,
0,
0,
0,
0,
0,
0,
0,
0,
0,
0,
0,
0,
0,
0,
0,
0,
0,
0,
0,
0,
0,
0,
0,
0,
0,
0,
0,
0,
0,
0,
0,
0,
0,
0,
0,
0,
0,
0,
0,
0,
0,
0,
0,
0,
0,
0,
0,
0,
0,
0,
0,
0,
0,
0,
0,
0,
0,
0,
0,
0,
0,
0,
0,
0,
0,
0,
0,
0,
0,
0,
0,
0,
0,
0,
0,
0,
0,
0,
0,
1,
0,
0,
0,
0,
0,
0,
0,
0,
0,
0,
0,
0,
0,
0,
0,
0,
0,
0,
0,
0,
0,
0,
0,
0,
0,
0,
0,
0,
0,
0,
0,
0,
0,
0,
0,
0,
0,
0,
0,
0,
0,
0,
0,
0,
0,
0,
0,
0,
0,
0,
0,
0,
0,
0,
0,
0,
0,
0,
0,
0,
0,
0,
0,
0,
0,
0,
0,
0,
0,
0,
0,
0,
0,
0,
0,
0,
0,
0,
0,
0,
0,
0,
0,
0,
0,
0,
0,
0,
0,
0,
0,
0,
0,
0,
0,
0,
0,
0,
0,
0,
0,
0,
0,
0,
0,
0,
0,
0,
0,
0,
0,
0,
0,
0,
0,
0,
0,
0,
0,
0,
0,
0,
0,
0,
0,
0,
0,
0,
0,
0,
0,
0,
0,
0,
0,
0,
0,
0,
0,
0,
0,
0,
0,
0,
0,
0,
0,
0,
0,
0,
0,
0,
0,
0,
0,
0,
0,
0,
0,
0,
0,
0,
0,
0,
0,
0,
0,
0,
0,
0,
0,
0,
0,
0,
0,
0,
0,
0,
0,
0,
0,
0,
0,
0,
0,
0,
0,
0,
0,
0,
0,
0,
0,
0,
0,
0,
0,
0,
0,
0,
0,
0,
0,
0,
0,
0,
0,
0,
0,
0,
0,
0,
0,
0,
0,
0,
0,
0,
0,
0,
0,
0,
0,
0,
0,
0,
0,
0,
0,
0,
0,
0,
0,
0,
0,
0,
0,
0,
0,
0,
0,
0,
0,
0,
0,
0,
0,
0,
0,
0,
0,
0,
0,
0,
0,
0,
0,
0,
0,
0,
0,
0,
0,
0,
0,
0,
0,
0,
0,
0,
0,
0,
0,
0,
0,
0,
0,
#ENDOFDATA   :