File: N132962/Quantification/20 keV/Glass Mount IIIB/GM IIIB K508[6][4].msa
#FORMAT      : EMSA/MAS Spectral Data File
#VERSION     : 1.0
#TITLE       : GM IIIB K508[6][all]
#DATE        : 11-SEP-2025
#TIME        : 09:36
#OWNER       : Unknown
#NPOINTS     : 4096
#NCOLUMNS    : 1
#XUNITS      : eV
#YUNITS      : counts
#DATATYPE    : Y
#XPERCHAN    : 9.99778
#OFFSET      : 1.69135
#BEAMKV      : 20
#SIGNALTYPE  : EDS
#ELEVANGLE   : 35
#AZIMANGLE   : 0
#LIVETIME    : 240.053
#REALTIME    : 258.864
#PROBECUR    : 1.22303
#TAUWIND     : 0
#TDEADLYR    : 0
#TACTLYR     : 0.045
#TALWIND     : 0.025
#CHOFFSET    : 0.0
#XLABEL      : Energy (eV)
#YLABEL      : Counts
#XPOSITION   : 8.60767
#YPOSITION   : 9.67727
#ZPOSITION   : 34.00161
#EDSDET      : SD
##SPECIMEN   : GM IIIB K508[6][all]
##D2STDCMP   : K508,(B:9.26),(O:41.14),(Si:12.06),(Sr:37.54)
##DET_HASH   : 12273538-fd48-a23f-0a19-f1e6fa85caef
##CALIB_HASH : 6abaa72c-aa41-8738-0be9-f592914732f3
##WORKING    : 15.0 mm
##DET_NAME   : EDAX All
##DET_MODE   : MediumLE
#SPECTRUM    :
26,
24,
13,
66,
329,
1062,
1943,
2900,
5628,
6885,
4189,
3010,
3617,
4282,
6274,
19344,
68866,
129446,
93935,
25134,
4603,
3201,
3987,
4055,
3566,
3426,
3668,
3853,
4164,
4398,
4493,
4511,
4877,
5272,
5522,
5573,
5653,
5721,
5970,
5957,
6138,
6431,
6354,
6614,
6742,
6892,
6830,
7269,
7510,
7939,
8691,
10786,
14502,
16401,
15774,
21053,
53091,
127615,
201110,
236109,
246946,
203697,
131271,
73370,
36683,
17406,
9083,
5298,
3971,
3448,
3530,
3540,
3791,
4093,
4180,
4043,
3934,
3953,
3765,
3605,
3631,
3416,
3391,
3416,
3364,
3324,
3452,
3429,
3427,
3358,
3388,
3344,
3516,
3387,
3373,
3371,
3427,
3375,
3478,
3418,
3403,
3430,
3441,
3310,
3340,
3469,
3387,
3399,
3319,
3386,
3338,
3391,
3333,
3340,
3435,
3304,
3420,
3698,
3698,
3681,
3778,
3660,
3452,
3518,
3356,
3159,
3147,
3077,
2988,
2901,
2993,
3080,
2856,
2991,
2965,
2940,
2849,
2853,
2845,
2889,
2720,
2806,
2825,
2785,
2769,
2692,
2675,
2692,
2746,
2958,
2963,
2877,
2844,
2664,
2544,
2464,
2588,
2527,
2399,
2592,
2502,
2495,
2456,
2426,
2458,
2467,
2390,
2453,
2345,
2310,
2335,
2311,
2301,
2262,
2335,
2271,
2259,
2323,
2253,
2200,
2235,
2228,
2195,
2126,
2206,
2190,
2161,
2180,
2156,
2102,
2085,
2063,
1914,
1997,
2042,
1986,
2050,
1957,
1998,
1922,
1947,
1940,
1866,
1858,
1871,
1799,
1825,
1800,
1875,
1850,
1869,
1881,
1840,
1948,
1903,
1907,
1813,
1763,
1713,
1750,
1687,
1635,
1627,
1637,
1683,
1586,
1623,
1585,
1608,
1571,
1674,
1553,
1630,
1545,
1615,
1610,
1521,
1528,
1493,
1486,
1450,
1522,
1483,
1499,
1434,
1452,
1506,
1523,
1496,
1458,
1480,
1429,
1322,
1313,
1295,
1380,
1346,
1311,
1304,
1366,
1324,
1268,
1277,
1291,
1258,
1261,
1276,
1278,
1220,
1150,
1204,
1218,
1232,
1219,
1157,
1135,
1210,
1174,
1181,
1179,
1143,
1045,
1119,
1071,
1150,
1073,
1105,
1097,
1123,
1091,
1113,
1052,
1085,
1004,
1039,
1032,
1008,
986,
1019,
973,
1011,
991,
953,
970,
933,
987,
963,
938,
927,
945,
918,
923,
891,
825,
904,
827,
862,
883,
875,
911,
889,
853,
846,
859,
844,
836,
834,
827,
796,
822,
795,
843,
775,
762,
797,
829,
764,
777,
780,
722,
709,
749,
796,
714,
760,
724,
737,
745,
697,
733,
696,
707,
712,
734,
674,
682,
623,
687,
656,
665,
660,
693,
628,
637,
625,
645,
618,
615,
618,
590,
593,
579,
610,
565,
627,
558,
583,
575,
580,
545,
572,
536,
519,
560,
523,
534,
469,
520,
546,
503,
489,
490,
507,
494,
524,
493,
492,
491,
474,
451,
439,
454,
460,
436,
464,
453,
462,
457,
450,
428,
430,
451,
429,
409,
440,
408,
420,
411,
399,
379,
388,
380,
368,
369,
380,
365,
350,
389,
357,
360,
357,
328,
349,
377,
347,
322,
338,
325,
312,
328,
337,
329,
341,
293,
286,
298,
316,
314,
292,
315,
309,
270,
285,
287,
265,
275,
289,
284,
257,
295,
271,
287,
272,
293,
383,
504,
670,
916,
1242,
1597,
1860,
1948,
1808,
1515,
1241,
902,
602,
412,
325,
262,
221,
201,
233,
197,
193,
231,
204,
205,
158,
207,
208,
188,
189,
174,
170,
158,
170,
178,
186,
171,
167,
167,
142,
156,
143,
174,
150,
176,
158,
153,
144,
167,
152,
166,
131,
117,
134,
145,
137,
137,
151,
176,
152,
204,
268,
312,
358,
365,
337,
305,
261,
211,
191,
172,
151,
137,
134,
130,
115,
116,
94,
91,
103,
107,
90,
94,
110,
76,
91,
89,
92,
79,
85,
85,
73,
73,
87,
75,
83,
70,
78,
72,
79,
75,
67,
57,
66,
73,
62,
78,
66,
64,
56,
53,
63,
60,
81,
58,
62,
50,
56,
42,
40,
55,
51,
50,
50,
38,
47,
36,
45,
35,
47,
57,
45,
35,
35,
35,
32,
39,
36,
42,
33,
25,
29,
27,
22,
35,
30,
34,
21,
29,
35,
26,
26,
29,
27,
33,
19,
20,
32,
27,
18,
26,
24,
21,
21,
12,
16,
16,
22,
18,
16,
18,
12,
15,
11,
13,
17,
5,
9,
16,
18,
14,
7,
7,
7,
4,
6,
9,
5,
8,
6,
4,
4,
6,
3,
2,
2,
2,
5,
1,
0,
1,
1,
1,
0,
0,
1,
1,
2,
1,
1,
0,
2,
0,
2,
1,
0,
0,
1,
0,
0,
0,
1,
1,
2,
0,
3,
1,
1,
1,
1,
1,
1,
1,
0,
0,
0,
0,
0,
0,
0,
0,
0,
0,
0,
0,
0,
0,
0,
1,
0,
0,
0,
1,
1,
0,
0,
0,
0,
0,
0,
0,
0,
0,
0,
0,
0,
2,
0,
0,
0,
0,
0,
0,
0,
0,
1,
2,
0,
0,
1,
0,
0,
0,
0,
0,
0,
2,
0,
0,
0,
0,
0,
0,
0,
0,
0,
2,
0,
0,
0,
0,
0,
0,
0,
0,
0,
0,
1,
0,
1,
0,
0,
0,
0,
1,
0,
0,
0,
0,
0,
0,
0,
0,
0,
0,
0,
0,
0,
0,
0,
0,
0,
0,
1,
0,
0,
0,
0,
0,
0,
0,
0,
0,
0,
0,
0,
0,
0,
0,
0,
1,
0,
1,
0,
0,
0,
0,
0,
1,
0,
0,
0,
0,
0,
1,
2,
1,
0,
0,
1,
0,
0,
0,
0,
0,
0,
0,
0,
0,
1,
1,
0,
0,
0,
1,
0,
0,
0,
0,
0,
0,
0,
0,
0,
0,
0,
0,
0,
0,
0,
0,
0,
0,
0,
0,
0,
0,
0,
0,
0,
0,
0,
0,
0,
0,
0,
0,
0,
0,
0,
0,
0,
0,
0,
0,
0,
0,
0,
0,
0,
1,
0,
0,
0,
0,
0,
0,
1,
0,
0,
0,
0,
0,
0,
0,
0,
0,
0,
0,
0,
0,
0,
0,
0,
0,
0,
1,
0,
0,
0,
0,
0,
0,
0,
0,
0,
0,
0,
0,
0,
0,
0,
0,
0,
0,
0,
1,
1,
0,
0,
0,
0,
0,
0,
0,
0,
0,
0,
0,
0,
0,
0,
0,
0,
0,
0,
0,
0,
0,
0,
0,
0,
0,
0,
0,
0,
0,
0,
1,
0,
0,
0,
0,
0,
0,
0,
0,
0,
0,
0,
0,
0,
0,
0,
0,
0,
0,
0,
0,
0,
0,
0,
0,
0,
0,
0,
0,
0,
0,
0,
1,
0,
0,
0,
0,
0,
0,
0,
0,
0,
0,
0,
0,
0,
0,
0,
0,
0,
0,
0,
0,
0,
0,
0,
0,
0,
0,
0,
0,
0,
0,
0,
0,
0,
0,
0,
0,
0,
0,
0,
0,
0,
0,
0,
0,
0,
0,
0,
0,
0,
0,
0,
0,
0,
0,
0,
0,
0,
0,
0,
0,
0,
0,
0,
0,
0,
0,
0,
0,
0,
0,
0,
0,
0,
0,
0,
0,
0,
0,
0,
0,
0,
0,
0,
0,
0,
0,
0,
0,
0,
0,
0,
0,
0,
0,
0,
0,
0,
0,
0,
0,
0,
0,
0,
0,
0,
0,
0,
0,
0,
0,
0,
0,
0,
0,
0,
0,
0,
0,
0,
0,
0,
0,
0,
0,
0,
0,
0,
0,
0,
0,
0,
0,
0,
0,
0,
0,
0,
0,
0,
0,
0,
0,
0,
0,
0,
0,
0,
0,
0,
0,
0,
0,
0,
0,
0,
0,
0,
0,
0,
0,
0,
0,
0,
0,
0,
0,
0,
0,
0,
0,
0,
0,
0,
0,
0,
0,
0,
0,
0,
0,
0,
0,
0,
0,
0,
0,
0,
0,
0,
0,
0,
0,
0,
0,
0,
0,
0,
0,
0,
0,
0,
0,
0,
0,
0,
0,
0,
0,
0,
0,
0,
0,
0,
0,
0,
0,
0,
0,
0,
0,
0,
0,
0,
0,
0,
0,
0,
0,
0,
0,
0,
0,
0,
0,
0,
0,
0,
0,
0,
0,
0,
0,
0,
0,
0,
0,
0,
0,
0,
0,
0,
0,
0,
0,
0,
0,
0,
0,
0,
0,
0,
0,
0,
0,
0,
0,
0,
0,
0,
0,
0,
0,
0,
0,
0,
0,
0,
0,
0,
0,
0,
0,
0,
0,
0,
0,
0,
0,
0,
0,
0,
0,
0,
0,
0,
0,
0,
0,
0,
0,
0,
0,
0,
0,
0,
0,
0,
0,
0,
0,
0,
0,
0,
0,
0,
0,
0,
0,
0,
0,
0,
0,
0,
0,
0,
0,
0,
0,
0,
0,
0,
0,
0,
0,
0,
0,
0,
0,
0,
0,
0,
0,
0,
0,
0,
0,
0,
0,
0,
0,
0,
0,
0,
0,
0,
0,
0,
0,
0,
0,
0,
0,
#ENDOFDATA   :