File: N132962/Quantification/20 keV/Glass Mount IIIB/GM IIIB K497[3][4].msa
#FORMAT      : EMSA/MAS Spectral Data File
#VERSION     : 1.0
#TITLE       : GM IIIB K497[3][all]
#DATE        : 11-SEP-2025
#TIME        : 09:41
#OWNER       : Unknown
#NPOINTS     : 4096
#NCOLUMNS    : 1
#XUNITS      : eV
#YUNITS      : counts
#DATATYPE    : Y
#XPERCHAN    : 9.99778
#OFFSET      : 1.69135
#BEAMKV      : 20
#SIGNALTYPE  : EDS
#ELEVANGLE   : 35
#AZIMANGLE   : 0
#LIVETIME    : 240.131
#REALTIME    : 258.868
#PROBECUR    : 1.22303
#TAUWIND     : 0
#TDEADLYR    : 0
#TACTLYR     : 0.045
#TALWIND     : 0.025
#CHOFFSET    : 0.0
#XLABEL      : Energy (eV)
#YLABEL      : Counts
#XPOSITION   : 12.9481
#YPOSITION   : 10.27219
#ZPOSITION   : 34.00161
#EDSDET      : SD
##SPECIMEN   : GM IIIB K497[3][all]
##D2STDCMP   : K497,(B:0.05),(O:52.45),(Mg:5.21),(Al:5.78),(Si:0.13),(P:33.18),(Ti:0.21),(Fe:0.24),(Zr:0.4),(Ce:0.62),(Ta:0.8),(Pb:0.92)
##DET_HASH   : 12273538-fd48-a23f-0a19-f1e6fa85caef
##CALIB_HASH : 6abaa72c-aa41-8738-0be9-f592914732f3
##WORKING    : 15.0 mm
##DET_NAME   : EDAX All
##DET_MODE   : MediumLE
#SPECTRUM    :
32,
26,
8,
29,
133,
440,
925,
2481,
7260,
11242,
6866,
3914,
4743,
6095,
9233,
32596,
122574,
231709,
166691,
43574,
5854,
2464,
2661,
2941,
2991,
2715,
2942,
2986,
3323,
3671,
3682,
3714,
3829,
4398,
4898,
5082,
4951,
4837,
5460,
8739,
23373,
53654,
63558,
37833,
13857,
6471,
5956,
11193,
30206,
58039,
59127,
32312,
12390,
6315,
5409,
5558,
7514,
9775,
10561,
9288,
7624,
6972,
8132,
13969,
30974,
84595,
190260,
265043,
207068,
93867,
33470,
18723,
13667,
7618,
4215,
3044,
3222,
3800,
4403,
4223,
3863,
3869,
3892,
3757,
3717,
3394,
3018,
2834,
2818,
2730,
2771,
2697,
2648,
2572,
2602,
2525,
2521,
2573,
2607,
2546,
2529,
2622,
2451,
2521,
2511,
2458,
2543,
2526,
2551,
2591,
2584,
2339,
2482,
2418,
2344,
2363,
2484,
2435,
2420,
2315,
2373,
2552,
2873,
3061,
2919,
2501,
2258,
2109,
2113,
2052,
2105,
2116,
2311,
2495,
2529,
2422,
2243,
2164,
1980,
1960,
1896,
1958,
1857,
1880,
1947,
1904,
1920,
1968,
2153,
2569,
2796,
2801,
2300,
2087,
1855,
1751,
1698,
1759,
1840,
2095,
2337,
2488,
2439,
2282,
1904,
1790,
1680,
1624,
1568,
1570,
1517,
1570,
1561,
1648,
1756,
1841,
1814,
1852,
1728,
1559,
1546,
1500,
1513,
1406,
1530,
1502,
1482,
1502,
1421,
1451,
1408,
1296,
1335,
1355,
1327,
1317,
1279,
1255,
1272,
1301,
1264,
1329,
1260,
1153,
1203,
1239,
1297,
1171,
1231,
1227,
1289,
1506,
1708,
1806,
1707,
1551,
1336,
1144,
1135,
1087,
1041,
1084,
1023,
1074,
1015,
1039,
957,
993,
1012,
1042,
1044,
1024,
1008,
995,
1013,
1056,
1064,
1022,
947,
966,
939,
955,
942,
928,
905,
946,
928,
952,
907,
940,
892,
894,
931,
902,
857,
866,
816,
840,
864,
779,
807,
782,
785,
806,
786,
770,
730,
832,
895,
888,
1027,
1105,
1044,
981,
885,
853,
763,
730,
718,
688,
716,
692,
692,
697,
673,
694,
623,
730,
667,
617,
659,
663,
635,
648,
623,
645,
592,
601,
587,
575,
603,
620,
584,
602,
553,
579,
588,
582,
617,
623,
671,
695,
701,
650,
576,
585,
553,
562,
572,
542,
610,
557,
579,
584,
520,
532,
556,
510,
524,
507,
484,
451,
502,
483,
477,
439,
412,
428,
485,
504,
454,
447,
435,
470,
441,
445,
453,
479,
474,
468,
553,
538,
538,
519,
445,
455,
426,
424,
354,
422,
405,
401,
399,
397,
425,
397,
368,
332,
376,
352,
365,
355,
343,
355,
352,
345,
316,
353,
340,
320,
335,
325,
321,
308,
315,
291,
325,
282,
289,
280,
259,
285,
285,
279,
281,
302,
232,
260,
250,
260,
258,
278,
283,
295,
296,
266,
281,
231,
253,
238,
282,
233,
216,
230,
218,
248,
213,
209,
236,
230,
254,
267,
236,
216,
244,
211,
182,
244,
200,
187,
215,
214,
186,
186,
190,
224,
197,
178,
160,
168,
182,
164,
165,
170,
162,
176,
198,
163,
156,
166,
183,
198,
165,
165,
133,
132,
140,
158,
131,
146,
142,
132,
139,
140,
120,
144,
132,
132,
132,
143,
142,
123,
128,
120,
112,
131,
120,
107,
107,
103,
129,
95,
121,
94,
125,
113,
111,
110,
102,
114,
92,
121,
108,
94,
79,
104,
91,
102,
99,
95,
85,
90,
101,
85,
86,
82,
92,
91,
68,
76,
84,
89,
82,
66,
90,
61,
71,
73,
64,
60,
54,
59,
69,
59,
76,
63,
71,
53,
68,
64,
58,
58,
58,
55,
54,
55,
50,
43,
56,
43,
50,
38,
49,
50,
50,
45,
43,
34,
53,
43,
50,
37,
36,
36,
43,
39,
36,
33,
44,
31,
41,
41,
46,
30,
44,
43,
36,
33,
37,
21,
32,
37,
17,
29,
37,
26,
24,
39,
28,
19,
24,
25,
28,
33,
20,
17,
24,
22,
18,
31,
29,
18,
21,
16,
18,
20,
31,
21,
17,
22,
21,
24,
12,
19,
14,
18,
11,
18,
14,
16,
17,
14,
17,
14,
8,
11,
11,
7,
15,
9,
10,
10,
8,
9,
8,
11,
5,
15,
6,
7,
6,
8,
8,
6,
7,
4,
7,
4,
3,
8,
7,
2,
10,
1,
3,
6,
3,
5,
3,
4,
1,
1,
3,
3,
5,
3,
1,
3,
2,
0,
0,
0,
0,
0,
0,
0,
1,
1,
0,
0,
0,
0,
0,
0,
0,
0,
0,
0,
0,
0,
0,
0,
0,
1,
0,
0,
0,
1,
0,
0,
1,
1,
0,
0,
0,
0,
1,
0,
0,
0,
0,
1,
0,
0,
0,
0,
0,
0,
0,
0,
0,
0,
0,
1,
0,
1,
0,
0,
0,
0,
0,
0,
0,
1,
0,
0,
0,
0,
0,
0,
0,
1,
0,
0,
0,
0,
0,
1,
0,
0,
0,
0,
0,
0,
0,
0,
0,
0,
1,
0,
0,
0,
0,
0,
0,
0,
0,
0,
0,
0,
0,
0,
1,
1,
0,
0,
0,
0,
0,
0,
0,
0,
0,
0,
0,
0,
0,
0,
0,
0,
0,
0,
0,
0,
0,
0,
0,
0,
0,
0,
0,
0,
0,
0,
0,
0,
0,
0,
0,
0,
0,
0,
0,
0,
1,
0,
0,
0,
0,
0,
0,
0,
0,
0,
0,
0,
0,
0,
0,
0,
0,
1,
0,
0,
0,
0,
0,
0,
0,
0,
0,
0,
0,
0,
0,
0,
0,
0,
0,
0,
0,
0,
0,
0,
0,
0,
0,
1,
0,
0,
0,
0,
0,
0,
0,
0,
0,
0,
0,
0,
0,
0,
0,
0,
0,
0,
0,
0,
0,
1,
0,
0,
0,
0,
0,
0,
0,
0,
0,
0,
0,
0,
0,
0,
0,
0,
0,
0,
0,
0,
0,
0,
0,
0,
0,
0,
0,
0,
0,
0,
0,
0,
0,
0,
0,
0,
0,
0,
0,
0,
0,
0,
0,
0,
0,
0,
0,
0,
0,
0,
0,
0,
0,
0,
0,
0,
0,
0,
0,
0,
0,
0,
0,
0,
0,
0,
0,
0,
0,
0,
0,
0,
0,
0,
0,
0,
0,
0,
0,
0,
0,
0,
0,
0,
0,
0,
0,
0,
0,
0,
0,
0,
0,
0,
0,
0,
0,
0,
0,
0,
0,
0,
0,
0,
0,
0,
0,
0,
0,
0,
0,
0,
0,
0,
0,
0,
0,
0,
0,
0,
0,
0,
0,
0,
0,
0,
0,
0,
0,
0,
0,
0,
0,
0,
0,
0,
0,
0,
0,
0,
0,
0,
0,
0,
0,
0,
0,
0,
0,
0,
0,
0,
0,
0,
0,
0,
0,
0,
0,
0,
0,
0,
0,
0,
0,
0,
0,
0,
0,
0,
0,
0,
0,
0,
0,
0,
0,
0,
0,
0,
0,
0,
0,
0,
0,
0,
0,
0,
0,
0,
0,
0,
0,
0,
0,
0,
0,
0,
0,
0,
0,
0,
0,
0,
0,
0,
0,
0,
0,
0,
0,
0,
0,
0,
0,
0,
0,
0,
0,
0,
0,
0,
0,
0,
0,
0,
0,
0,
0,
0,
0,
0,
0,
0,
0,
0,
0,
0,
0,
0,
0,
0,
0,
0,
0,
0,
0,
0,
0,
0,
0,
0,
0,
0,
0,
0,
0,
0,
0,
0,
0,
0,
0,
0,
0,
0,
0,
0,
0,
0,
0,
0,
0,
0,
0,
0,
0,
0,
0,
0,
0,
0,
0,
0,
0,
0,
0,
0,
0,
0,
0,
0,
0,
0,
0,
0,
0,
0,
0,
0,
0,
0,
0,
0,
0,
0,
0,
0,
0,
0,
0,
0,
0,
0,
0,
0,
0,
0,
0,
0,
0,
0,
0,
0,
0,
0,
0,
0,
0,
0,
0,
0,
0,
0,
0,
0,
0,
0,
0,
0,
0,
0,
0,
0,
0,
0,
0,
0,
0,
0,
0,
0,
0,
0,
0,
0,
0,
0,
0,
0,
0,
0,
0,
0,
0,
0,
0,
0,
0,
0,
0,
0,
0,
0,
0,
0,
0,
0,
0,
0,
0,
0,
0,
0,
0,
0,
0,
0,
0,
0,
0,
0,
0,
0,
0,
0,
0,
0,
0,
0,
0,
0,
0,
0,
0,
0,
0,
0,
0,
0,
0,
0,
0,
0,
0,
0,
0,
0,
0,
0,
0,
0,
0,
0,
0,
0,
0,
0,
0,
0,
0,
0,
0,
0,
0,
0,
0,
0,
0,
0,
0,
0,
0,
0,
0,
0,
0,
0,
0,
0,
0,
0,
0,
0,
0,
0,
0,
0,
0,
0,
0,
0,
0,
0,
0,
0,
0,
0,
0,
0,
0,
0,
0,
0,
0,
0,
0,
0,
0,
0,
0,
0,
0,
0,
0,
0,
0,
0,
0,
0,
0,
0,
0,
0,
0,
0,
#ENDOFDATA   :