File: N132962/Quantification/20 keV/Glass Mount IIIB/GM IIIB K493[2][4].msa
#FORMAT      : EMSA/MAS Spectral Data File
#VERSION     : 1.0
#TITLE       : GM IIIB K493[2][all]
#DATE        : 10-SEP-2025
#TIME        : 15:18
#OWNER       : Unknown
#NPOINTS     : 4096
#NCOLUMNS    : 1
#XUNITS      : eV
#YUNITS      : counts
#DATATYPE    : Y
#XPERCHAN    : 9.99778
#OFFSET      : 1.69135
#BEAMKV      : 20
#SIGNALTYPE  : EDS
#ELEVANGLE   : 35
#AZIMANGLE   : 0
#LIVETIME    : 240.3862
#REALTIME    : 267.497
#PROBECUR    : 1.22616
#TAUWIND     : 0
#TDEADLYR    : 0
#TACTLYR     : 0.045
#TALWIND     : 0.025
#CHOFFSET    : 0.0
#XLABEL      : Energy (eV)
#YLABEL      : Counts
#XPOSITION   : 1.81714
#YPOSITION   : 7.04484
#ZPOSITION   : 34.06144
#EDSDET      : SD
##SPECIMEN   : GM IIIB K493[2][all]
##D2STDCMP   : K493,(B:0.04),(O:20.63),(Al:0.11),(Si:13.04),(Ti:0.19),(Fe:0.22),(Zr:0.36),(Ce:0.55),(Ta:0.72),(Pb:64.13)
##DET_HASH   : 12273538-fd48-a23f-0a19-f1e6fa85caef
##CALIB_HASH : 6abaa72c-aa41-8738-0be9-f592914732f3
##WORKING    : 15.0 mm
##DET_NAME   : EDAX All
##DET_MODE   : MediumLE
#SPECTRUM    :
26,
26,
17,
37,
214,
841,
2358,
5227,
10693,
13126,
9171,
6562,
6294,
6623,
7432,
14780,
42294,
75196,
55528,
18912,
9446,
7961,
7855,
8667,
7891,
6624,
6312,
6704,
7240,
7456,
7533,
7409,
7655,
7822,
8081,
7975,
8219,
8496,
8746,
8811,
9000,
9291,
9419,
9937,
9820,
10181,
10078,
10500,
11567,
12706,
12772,
12129,
11504,
11369,
12415,
19977,
53634,
121660,
161020,
119718,
60060,
33494,
22089,
13699,
10321,
9427,
9326,
9748,
10044,
10050,
10257,
10915,
12141,
13153,
15308,
24269,
54823,
116458,
170182,
164541,
131842,
120146,
101887,
61102,
25888,
11343,
8842,
10523,
12448,
12381,
9410,
7113,
5823,
5497,
5588,
5596,
5772,
6061,
6107,
6219,
6600,
7095,
7484,
7567,
7378,
6846,
6199,
5772,
5626,
5453,
5318,
5390,
5434,
5273,
5414,
5557,
5511,
5585,
5452,
5428,
5457,
5395,
5600,
5540,
5613,
5540,
5325,
5352,
5306,
5268,
5010,
5383,
5235,
5197,
5189,
5310,
5463,
5489,
5375,
5361,
5257,
5249,
5212,
5219,
5018,
5105,
5210,
5214,
5578,
6105,
6355,
6327,
5861,
5440,
5113,
5123,
5094,
5079,
5138,
5469,
5687,
5832,
5739,
5401,
5273,
5212,
5018,
4962,
4795,
4782,
4749,
4712,
4699,
4798,
4865,
4913,
4923,
4800,
4937,
4631,
4739,
4597,
4448,
4535,
4587,
4440,
4485,
4504,
4457,
4440,
4425,
4437,
4297,
4354,
4339,
4240,
4277,
4283,
4264,
4111,
4121,
4202,
4177,
4109,
4057,
4074,
4109,
4098,
4098,
4143,
4152,
4522,
4785,
4969,
4827,
4620,
4107,
4026,
3922,
3834,
3876,
3763,
3778,
3742,
3799,
3727,
3755,
3724,
3627,
3517,
3659,
3598,
3675,
3744,
3710,
3593,
3751,
3576,
3502,
3504,
3432,
3578,
3450,
3298,
3417,
3579,
3409,
3560,
3570,
3460,
3531,
3454,
3493,
3279,
3317,
3209,
3069,
3148,
3131,
3177,
3078,
3153,
3128,
3166,
3085,
3115,
3084,
3114,
3177,
3090,
3242,
3361,
3227,
3191,
3086,
3023,
3009,
2930,
2862,
2760,
2879,
2653,
2848,
2722,
2724,
2719,
2749,
2638,
2660,
2646,
2692,
2634,
2600,
2653,
2687,
2654,
2604,
2503,
2630,
2438,
2594,
2465,
2762,
2870,
2970,
2966,
3150,
3085,
2966,
2802,
2694,
2475,
2476,
2435,
2431,
2340,
2397,
2359,
2277,
2245,
2224,
2301,
2332,
2284,
2293,
2146,
2283,
2208,
2122,
2198,
2139,
2266,
2031,
2035,
2055,
2090,
1972,
2036,
2003,
2049,
2082,
2002,
2067,
2143,
2460,
2781,
3688,
5192,
6958,
9384,
11908,
12927,
12895,
10926,
8286,
5638,
3773,
2686,
2160,
1914,
1801,
1787,
1823,
1740,
1748,
1807,
1764,
1674,
1675,
1656,
1626,
1697,
1643,
1637,
1728,
1564,
1591,
1648,
1609,
1646,
1628,
1577,
1536,
1441,
1573,
1524,
1424,
1436,
1469,
1480,
1470,
1376,
1377,
1452,
1401,
1349,
1351,
1336,
1423,
1330,
1346,
1370,
1411,
1457,
1489,
1470,
1490,
1525,
1504,
1437,
1421,
1386,
1447,
1452,
1556,
1786,
2380,
3247,
4134,
4844,
5304,
5164,
4471,
3445,
2660,
2157,
1668,
1389,
1292,
1258,
1223,
1267,
1264,
1276,
1142,
1216,
1130,
1018,
1025,
1002,
868,
918,
897,
919,
904,
907,
877,
856,
875,
830,
831,
837,
866,
816,
804,
791,
767,
762,
793,
788,
759,
765,
749,
803,
722,
783,
766,
736,
710,
654,
655,
735,
722,
735,
681,
675,
704,
676,
680,
702,
625,
642,
608,
630,
617,
664,
668,
698,
731,
779,
874,
884,
935,
856,
803,
721,
670,
592,
607,
583,
576,
552,
605,
564,
595,
585,
594,
547,
523,
557,
481,
512,
461,
481,
475,
369,
469,
406,
444,
437,
435,
441,
422,
430,
443,
417,
436,
415,
380,
426,
389,
347,
335,
359,
342,
367,
382,
322,
312,
355,
330,
333,
333,
354,
342,
294,
294,
304,
317,
272,
289,
276,
274,
267,
272,
262,
282,
283,
269,
257,
262,
252,
290,
226,
244,
256,
247,
228,
235,
256,
224,
229,
231,
193,
220,
246,
208,
190,
201,
211,
189,
206,
193,
213,
174,
179,
165,
157,
178,
185,
183,
168,
162,
150,
154,
151,
156,
140,
171,
143,
149,
147,
135,
126,
142,
127,
111,
129,
109,
103,
139,
97,
108,
105,
106,
132,
115,
99,
94,
95,
96,
80,
102,
79,
72,
83,
68,
87,
86,
67,
95,
60,
92,
63,
62,
75,
51,
52,
53,
48,
60,
58,
49,
55,
47,
38,
30,
37,
40,
30,
27,
22,
26,
32,
27,
22,
22,
21,
16,
19,
16,
17,
18,
9,
6,
10,
7,
8,
9,
7,
2,
2,
4,
5,
2,
5,
6,
5,
2,
3,
5,
4,
2,
3,
5,
5,
3,
2,
2,
2,
1,
4,
3,
6,
1,
2,
1,
4,
2,
6,
4,
5,
1,
5,
1,
4,
4,
6,
2,
4,
2,
2,
0,
2,
3,
1,
4,
1,
5,
2,
3,
2,
2,
2,
4,
5,
1,
1,
2,
0,
1,
3,
4,
1,
2,
2,
1,
3,
2,
2,
1,
0,
2,
0,
2,
1,
0,
0,
1,
1,
1,
0,
5,
4,
2,
2,
0,
4,
2,
1,
3,
4,
2,
2,
3,
3,
2,
1,
0,
0,
1,
4,
2,
2,
1,
2,
5,
2,
3,
3,
3,
0,
0,
1,
3,
4,
1,
0,
2,
0,
2,
2,
4,
0,
1,
2,
1,
2,
1,
1,
1,
0,
1,
1,
2,
0,
1,
2,
1,
1,
0,
1,
3,
1,
0,
0,
1,
0,
2,
0,
2,
1,
1,
0,
0,
0,
1,
0,
2,
0,
0,
3,
2,
1,
1,
2,
0,
1,
0,
1,
1,
0,
2,
2,
1,
1,
1,
3,
0,
2,
0,
1,
1,
2,
1,
2,
0,
0,
1,
2,
2,
2,
1,
0,
2,
2,
0,
1,
0,
0,
1,
0,
1,
1,
0,
1,
0,
0,
0,
0,
1,
1,
1,
0,
2,
2,
2,
0,
1,
0,
0,
2,
1,
1,
0,
0,
0,
1,
0,
1,
1,
0,
0,
1,
1,
1,
0,
1,
1,
0,
0,
0,
2,
0,
0,
1,
1,
1,
2,
0,
0,
0,
1,
1,
0,
2,
0,
0,
0,
0,
0,
0,
0,
1,
0,
0,
0,
0,
0,
0,
0,
0,
1,
1,
0,
0,
0,
1,
0,
0,
0,
0,
0,
0,
0,
0,
0,
0,
0,
1,
0,
0,
0,
0,
0,
0,
0,
0,
0,
0,
0,
0,
0,
0,
0,
0,
0,
0,
0,
0,
0,
1,
0,
0,
0,
0,
0,
0,
0,
0,
0,
1,
0,
0,
0,
0,
1,
0,
0,
0,
0,
0,
0,
0,
0,
0,
0,
0,
0,
1,
0,
0,
0,
0,
0,
0,
0,
0,
0,
0,
0,
0,
1,
0,
0,
0,
0,
0,
0,
0,
0,
0,
0,
0,
0,
0,
0,
1,
0,
0,
0,
0,
0,
0,
0,
0,
0,
0,
0,
0,
0,
0,
0,
0,
0,
0,
0,
0,
0,
0,
0,
0,
0,
0,
0,
0,
0,
0,
0,
0,
0,
0,
0,
0,
0,
0,
0,
0,
0,
0,
0,
0,
0,
0,
0,
0,
0,
0,
0,
0,
0,
0,
0,
0,
0,
0,
0,
0,
0,
0,
1,
0,
0,
0,
0,
0,
0,
0,
0,
0,
0,
0,
0,
0,
0,
0,
0,
0,
0,
1,
0,
0,
0,
0,
0,
0,
0,
0,
0,
0,
0,
0,
0,
0,
0,
0,
0,
0,
0,
0,
0,
0,
0,
0,
0,
0,
0,
0,
0,
0,
0,
0,
1,
0,
0,
0,
0,
0,
0,
0,
0,
0,
0,
0,
0,
0,
0,
0,
0,
0,
0,
0,
0,
0,
0,
0,
0,
0,
0,
0,
0,
0,
0,
0,
0,
0,
0,
0,
0,
0,
0,
0,
0,
0,
0,
0,
0,
0,
0,
0,
0,
0,
0,
0,
0,
0,
0,
0,
0,
0,
0,
0,
0,
0,
0,
0,
0,
0,
0,
0,
0,
0,
0,
0,
0,
0,
0,
0,
0,
0,
0,
0,
0,
0,
0,
0,
0,
0,
0,
0,
0,
0,
0,
0,
0,
0,
0,
0,
0,
0,
0,
0,
0,
0,
0,
0,
0,
0,
0,
0,
0,
0,
0,
0,
0,
0,
0,
0,
0,
0,
0,
0,
0,
0,
0,
0,
0,
0,
0,
0,
0,
0,
0,
0,
0,
0,
0,
0,
0,
0,
0,
0,
0,
0,
0,
0,
0,
0,
0,
0,
0,
0,
0,
0,
0,
0,
0,
0,
0,
0,
0,
0,
0,
0,
0,
0,
0,
0,
0,
0,
0,
0,
0,
0,
0,
0,
0,
0,
0,
0,
0,
0,
0,
0,
0,
0,
0,
0,
0,
0,
0,
0,
0,
0,
0,
0,
0,
0,
0,
0,
0,
0,
0,
0,
0,
0,
0,
0,
0,
0,
0,
0,
0,
0,
0,
0,
#ENDOFDATA   :