File: N132962/Quantification/20 keV/Glass Mount IIIB/GM IIIB K497[5][4].msa
#FORMAT      : EMSA/MAS Spectral Data File
#VERSION     : 1.0
#TITLE       : GM IIIB K497[5][all]
#DATE        : 11-SEP-2025
#TIME        : 09:43
#OWNER       : Unknown
#NPOINTS     : 4096
#NCOLUMNS    : 1
#XUNITS      : eV
#YUNITS      : counts
#DATATYPE    : Y
#XPERCHAN    : 9.99778
#OFFSET      : 1.69135
#BEAMKV      : 20
#SIGNALTYPE  : EDS
#ELEVANGLE   : 35
#AZIMANGLE   : 0
#LIVETIME    : 240.166
#REALTIME    : 258.916
#PROBECUR    : 1.22337
#TAUWIND     : 0
#TDEADLYR    : 0
#TACTLYR     : 0.045
#TALWIND     : 0.025
#CHOFFSET    : 0.0
#XLABEL      : Energy (eV)
#YLABEL      : Counts
#XPOSITION   : 12.90992
#YPOSITION   : 10.29446
#ZPOSITION   : 34.00162
#EDSDET      : SD
##SPECIMEN   : GM IIIB K497[5][all]
##D2STDCMP   : K497,(B:0.05),(O:52.45),(Mg:5.21),(Al:5.78),(Si:0.13),(P:33.18),(Ti:0.21),(Fe:0.24),(Zr:0.4),(Ce:0.62),(Ta:0.8),(Pb:0.92)
##DET_HASH   : 12273538-fd48-a23f-0a19-f1e6fa85caef
##CALIB_HASH : 6abaa72c-aa41-8738-0be9-f592914732f3
##WORKING    : 15.0 mm
##DET_NAME   : EDAX All
##DET_MODE   : MediumLE
#SPECTRUM    :
19,
36,
17,
20,
124,
399,
1022,
2923,
9042,
13350,
7592,
3665,
3979,
5216,
8994,
31819,
119656,
226107,
163349,
42692,
5724,
2379,
2458,
2913,
2761,
2686,
2886,
3019,
3296,
3569,
3617,
3665,
3930,
4242,
4942,
5199,
4916,
4870,
5508,
8644,
23315,
53421,
63982,
37826,
13649,
6604,
6109,
11264,
30142,
58413,
58796,
32235,
12428,
6504,
5130,
5674,
7517,
9766,
10661,
9206,
7653,
6853,
8049,
13776,
31389,
85431,
191442,
266564,
207880,
94490,
33087,
18841,
13474,
7832,
4298,
3109,
3316,
3805,
4310,
4199,
3989,
3730,
3948,
3821,
3611,
3420,
3021,
2902,
2919,
2757,
2787,
2615,
2660,
2577,
2535,
2562,
2605,
2509,
2658,
2460,
2611,
2546,
2535,
2499,
2511,
2526,
2542,
2488,
2607,
2639,
2604,
2618,
2474,
2311,
2423,
2480,
2547,
2474,
2413,
2417,
2378,
2579,
2945,
2979,
2971,
2634,
2292,
2117,
2144,
2186,
2130,
2159,
2326,
2456,
2581,
2611,
2202,
2198,
2047,
2052,
1961,
1971,
1984,
1954,
1967,
1907,
1956,
1947,
2314,
2531,
2799,
2723,
2396,
2078,
1849,
1736,
1848,
1792,
1837,
2027,
2285,
2487,
2428,
2265,
2002,
1839,
1728,
1646,
1637,
1613,
1700,
1561,
1580,
1629,
1871,
1841,
1961,
1763,
1664,
1572,
1503,
1491,
1490,
1462,
1384,
1511,
1516,
1526,
1513,
1431,
1384,
1365,
1342,
1334,
1349,
1327,
1278,
1271,
1358,
1267,
1301,
1294,
1326,
1320,
1284,
1260,
1167,
1281,
1199,
1237,
1332,
1506,
1707,
1765,
1741,
1618,
1389,
1235,
1112,
1123,
1111,
1091,
1012,
1056,
1092,
984,
1015,
1049,
1016,
1031,
1046,
1000,
1046,
1076,
1016,
1027,
1067,
1062,
1016,
1032,
977,
925,
960,
889,
924,
950,
889,
961,
911,
940,
975,
880,
899,
877,
882,
867,
802,
823,
815,
856,
839,
764,
776,
787,
776,
815,
808,
801,
865,
977,
1023,
1105,
1163,
1062,
873,
822,
728,
727,
795,
695,
674,
682,
724,
687,
709,
694,
696,
707,
680,
721,
617,
687,
658,
672,
594,
669,
605,
649,
672,
619,
619,
652,
586,
586,
596,
561,
641,
582,
619,
647,
686,
642,
701,
671,
624,
595,
583,
588,
575,
541,
587,
587,
581,
542,
568,
542,
476,
516,
493,
461,
484,
524,
505,
475,
481,
478,
480,
433,
442,
474,
487,
469,
415,
498,
467,
396,
482,
469,
480,
506,
515,
520,
534,
517,
471,
446,
433,
392,
404,
372,
415,
409,
421,
340,
425,
387,
398,
372,
375,
390,
354,
395,
374,
355,
356,
339,
348,
366,
318,
351,
331,
330,
343,
324,
329,
352,
321,
328,
308,
301,
318,
311,
295,
281,
297,
308,
256,
249,
287,
288,
274,
250,
264,
243,
278,
258,
265,
254,
265,
245,
256,
260,
231,
239,
247,
220,
222,
244,
262,
242,
269,
255,
293,
231,
207,
230,
222,
256,
234,
211,
195,
183,
188,
195,
198,
175,
185,
187,
183,
165,
187,
186,
167,
181,
192,
146,
155,
170,
158,
171,
186,
164,
146,
177,
179,
125,
162,
157,
133,
147,
160,
151,
139,
145,
147,
140,
140,
113,
129,
131,
121,
158,
124,
129,
123,
120,
144,
111,
123,
129,
133,
119,
126,
116,
109,
111,
110,
114,
117,
106,
91,
117,
121,
96,
116,
99,
100,
103,
91,
85,
86,
104,
99,
88,
74,
82,
95,
88,
86,
92,
78,
72,
86,
77,
63,
73,
80,
82,
79,
71,
52,
64,
70,
63,
71,
68,
75,
60,
71,
65,
62,
57,
53,
58,
65,
54,
62,
73,
73,
49,
65,
62,
50,
49,
50,
53,
52,
52,
44,
56,
45,
51,
42,
38,
47,
47,
43,
44,
35,
36,
35,
38,
40,
38,
39,
34,
30,
30,
32,
46,
22,
29,
43,
42,
27,
49,
33,
15,
32,
24,
29,
39,
24,
34,
30,
27,
32,
21,
19,
25,
26,
16,
24,
29,
21,
23,
30,
17,
22,
19,
16,
19,
13,
23,
18,
19,
11,
16,
16,
21,
11,
15,
7,
8,
14,
10,
11,
11,
14,
13,
13,
8,
14,
14,
10,
14,
13,
13,
10,
7,
10,
7,
7,
16,
7,
6,
9,
7,
14,
9,
7,
2,
3,
9,
4,
6,
5,
3,
10,
3,
3,
2,
5,
4,
5,
2,
4,
2,
3,
1,
1,
2,
1,
0,
3,
1,
0,
0,
0,
0,
0,
0,
0,
0,
0,
0,
0,
1,
0,
0,
1,
0,
0,
0,
0,
0,
0,
0,
1,
0,
0,
2,
0,
0,
0,
1,
0,
0,
0,
1,
0,
0,
0,
0,
0,
0,
1,
0,
0,
0,
1,
0,
0,
0,
0,
0,
0,
0,
0,
0,
0,
0,
1,
0,
0,
0,
0,
0,
0,
0,
0,
0,
0,
0,
0,
0,
0,
0,
0,
0,
0,
0,
0,
0,
0,
0,
0,
0,
0,
0,
0,
0,
0,
0,
0,
0,
0,
0,
0,
0,
0,
0,
0,
0,
0,
0,
0,
0,
0,
0,
0,
0,
0,
0,
0,
0,
0,
0,
2,
0,
0,
0,
0,
0,
0,
0,
0,
0,
0,
0,
0,
0,
0,
0,
0,
0,
1,
0,
0,
0,
0,
0,
0,
0,
0,
0,
0,
0,
0,
0,
0,
0,
0,
0,
0,
0,
0,
0,
0,
0,
0,
0,
0,
0,
0,
0,
0,
0,
0,
0,
0,
0,
0,
0,
0,
0,
0,
0,
0,
0,
0,
0,
0,
0,
0,
0,
0,
0,
0,
0,
0,
0,
0,
0,
0,
0,
1,
0,
1,
0,
0,
0,
0,
0,
0,
0,
0,
0,
0,
0,
0,
0,
0,
0,
0,
0,
0,
0,
0,
0,
0,
0,
0,
0,
0,
0,
0,
0,
0,
0,
0,
0,
0,
0,
0,
0,
0,
0,
0,
0,
1,
0,
0,
0,
0,
0,
0,
0,
0,
0,
0,
0,
0,
0,
0,
0,
0,
0,
0,
0,
0,
0,
0,
0,
0,
0,
0,
0,
0,
0,
0,
0,
0,
0,
0,
0,
0,
0,
0,
0,
0,
0,
0,
0,
0,
0,
0,
0,
0,
0,
0,
0,
0,
0,
0,
0,
0,
0,
0,
0,
0,
0,
0,
0,
0,
0,
0,
0,
0,
0,
0,
0,
0,
0,
0,
0,
0,
0,
0,
0,
0,
0,
0,
0,
0,
0,
0,
0,
0,
0,
0,
0,
0,
0,
0,
0,
0,
0,
0,
0,
0,
0,
0,
0,
0,
0,
0,
0,
0,
0,
0,
0,
0,
0,
0,
0,
0,
0,
0,
0,
0,
0,
0,
0,
0,
0,
0,
0,
0,
0,
0,
0,
0,
0,
0,
0,
0,
0,
0,
0,
0,
0,
0,
0,
0,
0,
0,
0,
0,
0,
0,
0,
0,
0,
0,
0,
0,
0,
0,
0,
0,
0,
0,
0,
0,
0,
0,
0,
0,
0,
0,
0,
0,
0,
0,
0,
0,
0,
0,
0,
0,
0,
0,
0,
0,
0,
0,
0,
0,
0,
0,
0,
0,
0,
0,
0,
0,
0,
0,
0,
0,
0,
0,
0,
0,
0,
0,
0,
0,
0,
0,
0,
0,
0,
0,
0,
0,
0,
0,
0,
0,
0,
0,
0,
0,
0,
0,
0,
0,
0,
0,
0,
0,
0,
0,
0,
0,
0,
0,
0,
0,
0,
0,
0,
0,
0,
0,
0,
0,
0,
0,
0,
0,
0,
0,
0,
0,
0,
0,
0,
0,
0,
0,
0,
0,
0,
0,
0,
0,
0,
0,
0,
0,
0,
0,
0,
0,
0,
0,
0,
0,
0,
0,
0,
0,
0,
0,
0,
0,
0,
0,
0,
0,
0,
0,
0,
0,
0,
0,
0,
0,
0,
0,
0,
0,
0,
0,
0,
0,
0,
0,
0,
0,
0,
0,
0,
0,
0,
0,
0,
0,
0,
0,
0,
0,
0,
0,
0,
0,
0,
0,
0,
0,
0,
0,
0,
0,
0,
0,
0,
0,
0,
0,
0,
0,
0,
0,
0,
0,
0,
0,
0,
0,
0,
0,
0,
0,
0,
0,
0,
0,
0,
0,
0,
0,
0,
0,
0,
0,
0,
0,
0,
0,
0,
0,
0,
0,
0,
0,
0,
0,
0,
0,
0,
0,
0,
0,
0,
0,
0,
0,
0,
0,
0,
0,
0,
0,
0,
0,
0,
0,
0,
0,
0,
0,
0,
0,
0,
0,
0,
0,
0,
0,
0,
0,
0,
0,
0,
0,
0,
0,
0,
0,
0,
0,
0,
0,
0,
0,
0,
0,
0,
0,
0,
0,
0,
0,
0,
0,
0,
0,
0,
0,
0,
0,
0,
0,
0,
0,
0,
0,
0,
0,
0,
0,
0,
0,
0,
0,
0,
0,
0,
0,
0,
0,
0,
#ENDOFDATA   :