File: N132962/Quantification/20 keV/Glass Mount IIIB/GM IIIB K456[1][4].msa
#FORMAT      : EMSA/MAS Spectral Data File
#VERSION     : 1.0
#TITLE       : GM IIIB K456[1][all]
#DATE        : 10-SEP-2025
#TIME        : 14:53
#OWNER       : Unknown
#NPOINTS     : 4096
#NCOLUMNS    : 1
#XUNITS      : eV
#YUNITS      : counts
#DATATYPE    : Y
#XPERCHAN    : 9.99778
#OFFSET      : 1.69135
#BEAMKV      : 20
#SIGNALTYPE  : EDS
#ELEVANGLE   : 35
#AZIMANGLE   : 0
#LIVETIME    : 240.323
#REALTIME    : 267.498
#PROBECUR    : 1.22592
#TAUWIND     : 0
#TDEADLYR    : 0
#TACTLYR     : 0.045
#TALWIND     : 0.025
#CHOFFSET    : 0.0
#XLABEL      : Energy (eV)
#YLABEL      : Counts
#XPOSITION   : 15.50327
#YPOSITION   : 6.98859
#ZPOSITION   : 34.06144
#EDSDET      : SD
##SPECIMEN   : GM IIIB K456[1][all]
##D2STDCMP   : K456,(O:20.43),(Si:13.45),(Pb:66.12)
##DET_HASH   : 12273538-fd48-a23f-0a19-f1e6fa85caef
##CALIB_HASH : 6abaa72c-aa41-8738-0be9-f592914732f3
##WORKING    : 15.0 mm
##DET_NAME   : EDAX All
##DET_MODE   : MediumLE
#SPECTRUM    :
23,
27,
13,
44,
207,
858,
2337,
5124,
10469,
12729,
8821,
6445,
6228,
6347,
7436,
14395,
41145,
73111,
53823,
18650,
9710,
7947,
7556,
8387,
7470,
6422,
6285,
6564,
7152,
7240,
7497,
7470,
7526,
7760,
7946,
8188,
8284,
8464,
8692,
8839,
9064,
9278,
9555,
9596,
9690,
9937,
10189,
10484,
11009,
11442,
11624,
11496,
11369,
11280,
12162,
19607,
53018,
121969,
163136,
120431,
60750,
33892,
22408,
14228,
10213,
9311,
8966,
8785,
8811,
8997,
9381,
10528,
11753,
13248,
15405,
24620,
56301,
120484,
177291,
171288,
136595,
124758,
105901,
63021,
26474,
11365,
9065,
10613,
12663,
12262,
9607,
7085,
5776,
5387,
5551,
5612,
5958,
6022,
6091,
6166,
6448,
7141,
7543,
7694,
7559,
6613,
6175,
5735,
5504,
5381,
5340,
5384,
5463,
5395,
5408,
5486,
5570,
5629,
5571,
5397,
5338,
5143,
5351,
5326,
5412,
5345,
5439,
5324,
5193,
5181,
5140,
5051,
5312,
5177,
5225,
5351,
5428,
5415,
5366,
5243,
5303,
5267,
5218,
5136,
5136,
5013,
5171,
5146,
5340,
5333,
5529,
5578,
5265,
5168,
5097,
4999,
5019,
5071,
5157,
5115,
5256,
5058,
4993,
4987,
4860,
4832,
4901,
4864,
4840,
4764,
4671,
4704,
4720,
4696,
4592,
4631,
4523,
4527,
4680,
4507,
4570,
4569,
4528,
4503,
4577,
4478,
4483,
4362,
4347,
4323,
4480,
4447,
4457,
4261,
4344,
4280,
4307,
4216,
4269,
4126,
4227,
4252,
4162,
4143,
4238,
4068,
4056,
4132,
4065,
4084,
4128,
4336,
4252,
4306,
4468,
4342,
3982,
4045,
3881,
3755,
3790,
3731,
3715,
3758,
3760,
3758,
3700,
3609,
3626,
3578,
3565,
3598,
3405,
3567,
3594,
3484,
3545,
3546,
3636,
3551,
3389,
3427,
3336,
3539,
3348,
3444,
3471,
3532,
3624,
3625,
3569,
3432,
3331,
3262,
3193,
3194,
3172,
3203,
3169,
3113,
3076,
3090,
3081,
3096,
3038,
2997,
3040,
3059,
2938,
2938,
2997,
2923,
2879,
2919,
2954,
2922,
2915,
2863,
2798,
2854,
2915,
2872,
2791,
2725,
2804,
2703,
2682,
2818,
2780,
2725,
2692,
2629,
2638,
2679,
2629,
2533,
2562,
2717,
2611,
2560,
2516,
2651,
2727,
2732,
2975,
3105,
3126,
3103,
2878,
2668,
2502,
2488,
2420,
2437,
2375,
2310,
2304,
2435,
2409,
2267,
2288,
2255,
2198,
2209,
2163,
2198,
2140,
2223,
2236,
2110,
2139,
2193,
2149,
2143,
2135,
2096,
2133,
2051,
1983,
2030,
2075,
2053,
2061,
2287,
2367,
2929,
3767,
5134,
7023,
9739,
12162,
13801,
13252,
11195,
8485,
5780,
3750,
2751,
2075,
1874,
1801,
1790,
1828,
1747,
1775,
1664,
1756,
1659,
1676,
1640,
1692,
1615,
1633,
1700,
1573,
1598,
1646,
1618,
1668,
1569,
1674,
1566,
1493,
1492,
1513,
1523,
1511,
1472,
1457,
1423,
1457,
1368,
1359,
1455,
1452,
1348,
1390,
1358,
1369,
1350,
1411,
1354,
1463,
1430,
1440,
1475,
1460,
1463,
1431,
1418,
1460,
1426,
1398,
1416,
1612,
1765,
2462,
3179,
4164,
5059,
5446,
5265,
4575,
3681,
2788,
2206,
1727,
1428,
1346,
1252,
1345,
1288,
1264,
1259,
1260,
1220,
1124,
1072,
1045,
973,
937,
942,
902,
884,
903,
877,
856,
843,
833,
815,
881,
865,
840,
908,
857,
827,
838,
784,
794,
795,
753,
767,
757,
751,
752,
756,
783,
698,
691,
725,
742,
741,
705,
703,
665,
693,
676,
706,
691,
683,
673,
657,
619,
576,
618,
644,
621,
745,
760,
791,
882,
921,
923,
931,
855,
769,
676,
576,
590,
566,
547,
623,
528,
590,
587,
639,
555,
559,
570,
515,
515,
465,
473,
491,
484,
455,
447,
464,
445,
425,
397,
418,
406,
436,
411,
394,
419,
410,
395,
371,
397,
370,
375,
392,
364,
389,
346,
328,
311,
361,
359,
323,
323,
315,
320,
321,
309,
325,
288,
313,
326,
292,
268,
280,
321,
290,
286,
247,
285,
279,
253,
279,
245,
283,
254,
279,
252,
253,
251,
241,
231,
255,
260,
221,
198,
234,
199,
201,
235,
207,
238,
187,
207,
200,
208,
178,
202,
194,
144,
190,
163,
203,
158,
162,
150,
173,
160,
143,
140,
134,
176,
133,
155,
137,
125,
126,
120,
114,
124,
127,
113,
104,
121,
99,
106,
102,
108,
87,
90,
85,
112,
102,
85,
90,
77,
84,
77,
79,
73,
68,
77,
64,
57,
68,
62,
63,
67,
52,
65,
40,
63,
40,
53,
48,
48,
41,
50,
33,
44,
41,
32,
41,
28,
34,
25,
22,
25,
21,
19,
17,
10,
15,
13,
10,
12,
8,
11,
5,
7,
11,
6,
5,
9,
3,
5,
5,
8,
5,
7,
6,
6,
4,
6,
4,
7,
2,
3,
4,
4,
4,
5,
1,
6,
3,
2,
3,
1,
3,
6,
2,
6,
5,
2,
5,
3,
3,
3,
4,
4,
8,
4,
2,
5,
1,
4,
6,
2,
2,
0,
1,
3,
1,
1,
2,
2,
4,
2,
2,
5,
0,
5,
3,
0,
3,
0,
3,
2,
3,
5,
6,
3,
2,
1,
1,
1,
1,
2,
4,
2,
3,
3,
2,
3,
2,
2,
1,
4,
1,
0,
1,
3,
2,
2,
2,
3,
2,
0,
2,
0,
1,
2,
4,
2,
1,
2,
2,
1,
2,
2,
1,
4,
1,
2,
1,
0,
3,
0,
2,
1,
1,
3,
3,
2,
1,
1,
0,
0,
1,
1,
1,
2,
1,
1,
1,
2,
4,
0,
0,
1,
0,
0,
0,
4,
0,
0,
0,
0,
1,
0,
1,
1,
3,
1,
2,
0,
0,
0,
1,
2,
0,
3,
1,
3,
1,
1,
0,
1,
1,
0,
2,
1,
4,
1,
3,
2,
1,
0,
1,
3,
2,
3,
2,
0,
1,
0,
1,
0,
0,
2,
2,
0,
2,
1,
1,
1,
0,
1,
1,
0,
0,
2,
1,
1,
0,
0,
2,
0,
0,
2,
0,
2,
1,
0,
1,
1,
1,
0,
1,
1,
0,
2,
0,
0,
1,
1,
0,
2,
0,
1,
0,
1,
1,
0,
0,
0,
0,
1,
1,
3,
0,
1,
0,
0,
2,
1,
0,
0,
0,
0,
0,
0,
0,
0,
1,
0,
0,
1,
0,
0,
0,
0,
1,
0,
1,
0,
0,
0,
1,
0,
0,
0,
0,
0,
0,
0,
0,
0,
0,
0,
0,
0,
0,
0,
0,
0,
0,
0,
1,
0,
0,
0,
0,
0,
0,
0,
0,
0,
1,
0,
1,
0,
1,
0,
0,
0,
0,
1,
0,
0,
0,
0,
1,
0,
0,
0,
0,
0,
0,
0,
0,
0,
0,
0,
0,
0,
0,
0,
1,
0,
0,
0,
0,
0,
0,
0,
0,
0,
0,
0,
0,
0,
0,
0,
0,
0,
0,
0,
0,
0,
0,
2,
0,
0,
0,
0,
0,
0,
0,
0,
0,
1,
0,
0,
0,
0,
0,
0,
0,
1,
0,
0,
0,
0,
0,
0,
0,
0,
0,
0,
0,
0,
0,
0,
0,
0,
0,
0,
0,
0,
0,
0,
0,
1,
0,
0,
0,
0,
0,
0,
0,
0,
0,
0,
0,
0,
0,
0,
0,
0,
0,
0,
0,
0,
0,
0,
0,
0,
0,
0,
0,
0,
0,
0,
0,
0,
0,
0,
0,
1,
0,
0,
0,
0,
0,
0,
0,
0,
0,
0,
0,
0,
0,
0,
0,
0,
0,
0,
0,
0,
0,
0,
0,
0,
0,
0,
0,
0,
0,
0,
0,
0,
0,
0,
0,
0,
0,
0,
0,
0,
0,
0,
0,
0,
0,
0,
0,
0,
0,
0,
0,
0,
0,
0,
0,
0,
0,
0,
0,
0,
0,
0,
0,
0,
0,
0,
0,
0,
0,
0,
0,
0,
0,
0,
0,
0,
0,
0,
0,
0,
0,
0,
0,
0,
0,
0,
0,
0,
0,
0,
0,
0,
0,
0,
0,
0,
0,
0,
0,
0,
0,
0,
0,
0,
0,
0,
0,
0,
0,
0,
0,
0,
0,
0,
0,
0,
0,
0,
0,
0,
0,
0,
0,
0,
0,
0,
0,
0,
0,
0,
0,
0,
0,
0,
0,
0,
0,
0,
0,
1,
0,
0,
0,
0,
0,
0,
0,
0,
0,
0,
0,
0,
0,
0,
0,
0,
0,
0,
0,
0,
0,
0,
0,
0,
0,
0,
0,
0,
0,
0,
0,
0,
0,
0,
0,
0,
0,
0,
0,
0,
0,
0,
0,
0,
0,
0,
0,
0,
1,
0,
0,
0,
0,
0,
0,
0,
0,
0,
0,
0,
0,
0,
0,
0,
0,
0,
0,
0,
0,
0,
0,
0,
0,
0,
0,
0,
0,
0,
0,
0,
0,
0,
0,
0,
0,
0,
0,
0,
0,
0,
0,
0,
0,
0,
0,
0,
0,
0,
0,
0,
0,
0,
0,
0,
0,
0,
0,
0,
0,
0,
0,
0,
0,
0,
0,
0,
0,
0,
0,
0,
0,
0,
0,
0,
0,
0,
0,
#ENDOFDATA   :