File: N132962/Quantification/20 keV/Glass Mount IIIB/GM IIIB K919[4][4].msa
#FORMAT      : EMSA/MAS Spectral Data File
#VERSION     : 1.0
#TITLE       : GM IIIB K919[4][all]
#DATE        : 10-SEP-2025
#TIME        : 16:07
#OWNER       : Unknown
#NPOINTS     : 4096
#NCOLUMNS    : 1
#XUNITS      : eV
#YUNITS      : counts
#DATATYPE    : Y
#XPERCHAN    : 9.99778
#OFFSET      : 1.69135
#BEAMKV      : 20
#SIGNALTYPE  : EDS
#ELEVANGLE   : 35
#AZIMANGLE   : 0
#LIVETIME    : 239.997
#REALTIME    : 261.42
#PROBECUR    : 1.22413
#TAUWIND     : 0
#TDEADLYR    : 0
#TACTLYR     : 0.045
#TALWIND     : 0.025
#CHOFFSET    : 0.0
#XLABEL      : Energy (eV)
#YLABEL      : Counts
#XPOSITION   : 13.83505
#YPOSITION   : 12.02989
#ZPOSITION   : 34.06144
#EDSDET      : SD
##SPECIMEN   : GM IIIB K919[4][all]
##D2STDCMP   : K919,(O:31.86),(Si:20.1),(Cr:0.68),(Mn:1.9),(Fe:2.1),(Co:2.13),(Ni:2.36),(Cu:2.4),(Ba:34.03),(Ce:2.44)
##DET_HASH   : 12273538-fd48-a23f-0a19-f1e6fa85caef
##CALIB_HASH : 6abaa72c-aa41-8738-0be9-f592914732f3
##WORKING    : 15.0 mm
##DET_NAME   : EDAX All
##DET_MODE   : MediumLE
#SPECTRUM    :
23,
30,
14,
35,
140,
515,
1393,
3318,
7001,
8701,
6556,
5479,
6361,
7519,
11149,
31989,
110346,
204831,
149647,
46134,
14986,
10599,
9549,
10079,
11033,
12668,
13840,
11616,
10509,
10000,
10092,
10979,
9414,
6989,
5958,
5765,
4939,
4812,
4612,
4526,
4645,
4763,
4748,
4807,
5098,
5098,
5444,
5484,
5917,
6136,
6281,
6514,
6498,
6583,
7760,
15682,
52365,
128970,
172827,
123635,
52204,
20167,
10702,
6639,
5108,
4787,
4653,
4899,
4739,
4713,
4823,
4820,
4954,
5062,
5417,
5501,
5515,
5406,
5326,
5160,
4987,
5075,
4961,
5034,
5162,
5070,
5043,
4977,
5273,
5333,
5437,
5406,
5281,
4921,
4969,
4919,
4909,
4848,
4919,
4945,
4934,
4935,
4939,
4933,
4948,
4813,
4858,
4726,
4737,
4539,
4604,
4657,
4603,
4591,
4662,
4620,
4654,
4501,
4474,
4362,
4319,
4452,
4353,
4578,
4459,
4356,
4236,
4320,
4503,
4595,
5132,
5878,
6210,
5681,
5042,
4310,
4171,
4015,
4039,
3980,
4056,
4251,
4490,
4943,
6033,
8874,
17561,
33848,
52488,
59258,
48809,
29129,
13893,
6605,
4406,
4079,
4364,
5716,
9844,
18042,
28047,
33837,
30977,
23127,
15679,
10513,
7435,
5679,
5075,
5885,
8259,
11363,
12548,
11453,
8966,
6876,
5660,
4857,
4901,
5334,
5615,
5756,
5882,
6362,
6720,
6504,
5626,
4567,
3759,
3397,
3263,
3545,
4155,
4981,
5912,
7256,
7848,
7703,
6384,
5011,
3664,
3105,
2768,
2499,
2494,
2473,
2365,
2450,
2465,
2872,
3533,
4905,
6307,
7211,
6960,
5980,
4711,
3516,
2834,
2577,
2294,
2315,
2222,
2109,
2143,
2177,
2410,
2699,
3701,
4726,
5687,
5991,
5426,
4350,
3543,
3026,
2671,
2442,
2185,
2076,
1971,
2015,
1973,
1966,
2145,
2492,
3227,
4332,
5284,
5782,
5314,
4282,
3381,
2688,
2410,
2261,
2258,
2101,
1833,
1854,
1719,
1731,
1747,
1931,
2263,
2808,
3582,
4268,
4538,
4192,
3296,
2678,
2255,
2077,
2038,
2144,
1993,
1962,
1771,
1618,
1595,
1494,
1488,
1472,
1495,
1470,
1545,
1459,
1474,
1514,
1505,
1534,
1495,
1469,
1554,
1659,
1836,
1750,
1633,
1608,
1513,
1398,
1325,
1350,
1307,
1302,
1356,
1225,
1331,
1299,
1293,
1317,
1263,
1278,
1253,
1213,
1214,
1229,
1234,
1200,
1225,
1215,
1201,
1196,
1257,
1210,
1175,
1186,
1180,
1171,
1159,
1116,
1134,
1135,
1175,
1079,
1093,
1059,
1136,
982,
1050,
1067,
1034,
1035,
1038,
1095,
989,
1031,
983,
995,
959,
917,
997,
991,
977,
991,
970,
921,
960,
969,
896,
965,
957,
918,
924,
822,
867,
873,
842,
881,
852,
835,
868,
849,
779,
816,
823,
861,
781,
846,
770,
861,
761,
793,
830,
811,
734,
718,
768,
798,
786,
683,
708,
706,
708,
728,
707,
663,
703,
727,
673,
629,
680,
644,
670,
640,
626,
642,
602,
628,
615,
646,
631,
612,
633,
594,
612,
621,
585,
611,
553,
585,
500,
544,
564,
544,
541,
524,
521,
541,
584,
524,
543,
539,
514,
542,
500,
517,
516,
447,
465,
489,
485,
466,
455,
428,
449,
475,
446,
457,
403,
427,
445,
422,
471,
415,
402,
402,
435,
409,
371,
373,
382,
411,
362,
380,
403,
359,
376,
384,
357,
366,
335,
354,
362,
345,
331,
335,
331,
316,
320,
319,
315,
311,
309,
263,
329,
291,
282,
303,
300,
256,
317,
259,
255,
295,
238,
286,
272,
252,
230,
243,
267,
262,
248,
249,
226,
237,
235,
233,
225,
241,
200,
220,
236,
218,
230,
203,
209,
211,
201,
204,
217,
168,
197,
195,
182,
210,
168,
175,
166,
185,
177,
190,
174,
161,
167,
142,
151,
146,
156,
135,
159,
129,
153,
159,
161,
125,
140,
136,
147,
123,
132,
159,
137,
143,
124,
120,
138,
121,
132,
111,
107,
121,
124,
108,
107,
101,
113,
121,
100,
107,
106,
93,
86,
79,
105,
97,
89,
88,
86,
98,
80,
77,
84,
67,
94,
65,
82,
70,
80,
61,
71,
80,
63,
75,
56,
62,
68,
61,
50,
61,
62,
50,
52,
52,
61,
53,
71,
34,
43,
39,
45,
42,
44,
38,
48,
49,
31,
41,
32,
31,
41,
43,
37,
41,
28,
22,
34,
31,
27,
29,
25,
27,
29,
22,
23,
22,
30,
18,
23,
19,
20,
18,
21,
16,
12,
16,
17,
14,
13,
10,
9,
12,
8,
12,
8,
9,
7,
8,
6,
7,
8,
2,
3,
2,
2,
2,
2,
3,
4,
1,
1,
2,
4,
1,
0,
1,
1,
2,
2,
2,
3,
0,
0,
1,
1,
1,
0,
1,
1,
3,
0,
2,
0,
2,
0,
0,
2,
0,
1,
2,
0,
0,
0,
1,
0,
0,
1,
1,
1,
2,
0,
2,
0,
1,
0,
2,
1,
0,
1,
0,
1,
0,
0,
0,
1,
1,
2,
0,
0,
0,
0,
0,
0,
0,
0,
1,
0,
0,
0,
1,
0,
0,
1,
0,
2,
1,
0,
0,
0,
2,
3,
0,
0,
1,
1,
0,
1,
1,
0,
0,
0,
1,
0,
0,
1,
0,
0,
0,
0,
0,
0,
0,
0,
0,
0,
1,
1,
0,
0,
0,
1,
0,
1,
0,
0,
0,
1,
1,
0,
0,
0,
0,
1,
0,
0,
0,
0,
0,
0,
1,
0,
0,
0,
0,
0,
2,
0,
0,
1,
3,
0,
0,
0,
0,
0,
0,
0,
1,
0,
0,
0,
1,
0,
0,
0,
0,
0,
0,
0,
0,
0,
0,
0,
0,
0,
0,
0,
0,
0,
0,
0,
0,
1,
1,
1,
0,
0,
0,
0,
0,
0,
0,
1,
0,
1,
1,
0,
0,
0,
0,
1,
0,
0,
0,
0,
0,
2,
0,
0,
0,
0,
1,
0,
0,
0,
0,
0,
0,
1,
0,
0,
0,
0,
0,
0,
0,
0,
0,
1,
0,
2,
0,
0,
1,
2,
0,
0,
0,
0,
0,
0,
0,
0,
0,
0,
0,
0,
0,
1,
0,
0,
0,
0,
0,
0,
0,
0,
0,
0,
0,
0,
0,
0,
0,
0,
0,
0,
0,
1,
0,
0,
0,
0,
1,
0,
0,
0,
0,
0,
0,
0,
0,
0,
0,
0,
0,
0,
0,
0,
0,
0,
0,
0,
0,
0,
0,
0,
0,
0,
0,
0,
0,
1,
0,
0,
0,
0,
0,
0,
0,
0,
0,
0,
0,
0,
0,
0,
0,
0,
0,
0,
1,
0,
0,
0,
0,
0,
0,
0,
0,
0,
0,
0,
0,
0,
0,
0,
0,
0,
0,
0,
0,
0,
0,
0,
0,
0,
0,
0,
0,
0,
0,
0,
0,
0,
0,
0,
0,
0,
0,
0,
0,
0,
0,
0,
0,
0,
0,
0,
0,
0,
0,
0,
0,
0,
0,
0,
0,
0,
0,
0,
0,
0,
0,
0,
0,
0,
0,
0,
0,
0,
0,
0,
0,
0,
0,
0,
0,
0,
0,
0,
0,
0,
0,
1,
0,
0,
0,
0,
0,
0,
0,
0,
0,
0,
0,
0,
0,
0,
0,
0,
0,
0,
0,
0,
0,
0,
0,
0,
0,
0,
0,
0,
0,
0,
0,
0,
0,
0,
0,
0,
0,
0,
0,
0,
0,
0,
0,
0,
0,
0,
0,
0,
0,
0,
0,
0,
0,
0,
0,
0,
0,
0,
0,
0,
0,
1,
0,
0,
0,
0,
0,
0,
0,
0,
0,
0,
0,
0,
0,
0,
0,
0,
0,
0,
0,
0,
0,
0,
0,
0,
0,
0,
0,
0,
0,
0,
0,
0,
0,
0,
0,
0,
0,
0,
0,
0,
0,
0,
0,
0,
0,
0,
0,
0,
0,
0,
0,
0,
0,
0,
0,
0,
0,
0,
0,
0,
0,
0,
0,
0,
0,
0,
0,
0,
0,
0,
0,
0,
0,
0,
0,
0,
0,
0,
0,
0,
0,
0,
0,
0,
0,
0,
0,
0,
0,
0,
0,
0,
0,
0,
0,
0,
0,
0,
0,
0,
0,
0,
0,
0,
0,
0,
0,
0,
0,
0,
0,
0,
0,
0,
0,
0,
0,
0,
0,
0,
0,
0,
0,
0,
0,
0,
0,
0,
0,
0,
0,
0,
0,
0,
0,
0,
0,
0,
0,
0,
0,
0,
0,
0,
0,
0,
0,
0,
0,
0,
0,
0,
0,
0,
0,
0,
0,
0,
0,
0,
0,
0,
0,
0,
0,
0,
0,
0,
0,
0,
0,
0,
0,
0,
0,
0,
0,
0,
0,
0,
0,
0,
0,
0,
0,
0,
0,
0,
0,
0,
0,
0,
0,
0,
0,
0,
0,
0,
0,
0,
0,
0,
0,
0,
0,
0,
0,
0,
0,
0,
0,
0,
0,
0,
0,
0,
0,
0,
0,
0,
0,
0,
0,
0,
0,
0,
0,
0,
0,
0,
0,
0,
0,
0,
0,
0,
0,
#ENDOFDATA   :