File: N132962/Quantification/20 keV/Glass Mount IIIB/GM IIIB K968[4][4].msa
#FORMAT      : EMSA/MAS Spectral Data File
#VERSION     : 1.0
#TITLE       : GM IIIB K968[4][all]
#DATE        : 10-SEP-2025
#TIME        : 16:25
#OWNER       : Unknown
#NPOINTS     : 4096
#NCOLUMNS    : 1
#XUNITS      : eV
#YUNITS      : counts
#DATATYPE    : Y
#XPERCHAN    : 9.99778
#OFFSET      : 1.69135
#BEAMKV      : 20
#SIGNALTYPE  : EDS
#ELEVANGLE   : 35
#AZIMANGLE   : 0
#LIVETIME    : 240.25
#REALTIME    : 266.6013
#PROBECUR    : 1.22413
#TAUWIND     : 0
#TDEADLYR    : 0
#TACTLYR     : 0.045
#TALWIND     : 0.025
#CHOFFSET    : 0.0
#XLABEL      : Energy (eV)
#YLABEL      : Counts
#XPOSITION   : 7.14538
#YPOSITION   : 12.24511
#ZPOSITION   : 34.06144
#EDSDET      : SD
##SPECIMEN   : GM IIIB K968[4][all]
##D2STDCMP   : K968,(O:16.62),(Mg:0.08),(P:0.2),(Ti:0.16),(Cr:0.17),(Ni:0.19),(Ge:26.27),(Zr:0.3),(Ba:0.45),(Eu:0.49),(Pb:54.91),(Th:0.08),(U:0.09)
##DET_HASH   : 12273538-fd48-a23f-0a19-f1e6fa85caef
##CALIB_HASH : 6abaa72c-aa41-8738-0be9-f592914732f3
##WORKING    : 15.0 mm
##DET_NAME   : EDAX All
##DET_MODE   : MediumLE
#SPECTRUM    :
37,
22,
10,
58,
206,
869,
2333,
4947,
10044,
12622,
8774,
6357,
6417,
6678,
7508,
13511,
36438,
63045,
47074,
17660,
9460,
8205,
8268,
8973,
8327,
7474,
7495,
7882,
8656,
8933,
8516,
8775,
9208,
11151,
14263,
15247,
14643,
19750,
49916,
107970,
131664,
88449,
37432,
15546,
9601,
8106,
7899,
7741,
7971,
7999,
8307,
8247,
8128,
8242,
8267,
8780,
9172,
9609,
10935,
12716,
15727,
17034,
14659,
11153,
9614,
9304,
10091,
10877,
10661,
10400,
10044,
10499,
11524,
12199,
14045,
21524,
46933,
98752,
144065,
139045,
111063,
101559,
86932,
52209,
23119,
11106,
9000,
10637,
12398,
11954,
9506,
7294,
6241,
6022,
6057,
6150,
6226,
6430,
6505,
6701,
6969,
7427,
7810,
8041,
7713,
7285,
6770,
6336,
6144,
5969,
5723,
5728,
5908,
5953,
5931,
5948,
5838,
6131,
5992,
6050,
5967,
5691,
5769,
5925,
5822,
5921,
5725,
5645,
5667,
5463,
5471,
5632,
5696,
5504,
5503,
5545,
5579,
5492,
5578,
5570,
5422,
5463,
5332,
5432,
5502,
5487,
5746,
5938,
6424,
6998,
7157,
6875,
6151,
5733,
5370,
5286,
5265,
5336,
5389,
5666,
5654,
5667,
5638,
5396,
5528,
5340,
5186,
5147,
5113,
5018,
4998,
4988,
5078,
5099,
5064,
4843,
4896,
5080,
5128,
5257,
5343,
5412,
5110,
5088,
4863,
4778,
4766,
4717,
4771,
4639,
4522,
4728,
4810,
4958,
5059,
5032,
4909,
4727,
4609,
4461,
4495,
4462,
4231,
4264,
4218,
4310,
4275,
4215,
4447,
4191,
4422,
4620,
4603,
4669,
4778,
4678,
4518,
4348,
4211,
3941,
4140,
3993,
3900,
4069,
4069,
3949,
3997,
3982,
3984,
3857,
3810,
3838,
3698,
3826,
3744,
3828,
3782,
3736,
3601,
3763,
3645,
3576,
3626,
3644,
3613,
3543,
3704,
3935,
4093,
4161,
3962,
3841,
3568,
3563,
3384,
3291,
3382,
3196,
3284,
3253,
3306,
3264,
3251,
3374,
3128,
3220,
3104,
3142,
3108,
3066,
3070,
3102,
3098,
3128,
3019,
3139,
3079,
2939,
3094,
2909,
2966,
2936,
2932,
2820,
2875,
2869,
2928,
2820,
2794,
2742,
2860,
2686,
2745,
2871,
2779,
2724,
2621,
2671,
2715,
2664,
2735,
2741,
2746,
2970,
3005,
3070,
3129,
3017,
2947,
2747,
2501,
2524,
2502,
2492,
2388,
2516,
2359,
2363,
2432,
2394,
2522,
2474,
2651,
3224,
4390,
6777,
10662,
15474,
19401,
20665,
19358,
15256,
10399,
6590,
4227,
2879,
2359,
2289,
2156,
2105,
2138,
2113,
2109,
2239,
2460,
2881,
3634,
4866,
6577,
8849,
10813,
12084,
11653,
10265,
7626,
5393,
3646,
2806,
2126,
2082,
2118,
2314,
2599,
3214,
3842,
4221,
4349,
4052,
3412,
2807,
2283,
1996,
1735,
1777,
1741,
1650,
1707,
1601,
1544,
1590,
1601,
1589,
1514,
1630,
1520,
1399,
1511,
1481,
1475,
1396,
1506,
1462,
1418,
1428,
1407,
1395,
1373,
1360,
1386,
1360,
1325,
1385,
1403,
1510,
1512,
1493,
1502,
1444,
1460,
1451,
1415,
1359,
1362,
1375,
1549,
1757,
2278,
3051,
3837,
4434,
4740,
4696,
3893,
3294,
2512,
1948,
1555,
1393,
1358,
1271,
1230,
1245,
1271,
1285,
1240,
1147,
1126,
1077,
999,
1020,
939,
954,
944,
927,
920,
922,
918,
884,
895,
855,
903,
846,
770,
798,
880,
840,
807,
890,
802,
784,
800,
787,
826,
796,
769,
789,
766,
747,
717,
717,
728,
746,
744,
717,
720,
749,
731,
703,
724,
681,
707,
649,
656,
652,
659,
614,
678,
676,
777,
794,
890,
925,
863,
875,
793,
723,
681,
615,
629,
588,
513,
563,
618,
615,
615,
570,
576,
583,
530,
544,
547,
500,
486,
469,
479,
465,
453,
470,
449,
448,
455,
450,
453,
439,
460,
445,
403,
401,
401,
406,
395,
359,
386,
379,
387,
391,
379,
356,
336,
348,
355,
347,
384,
334,
358,
302,
290,
319,
326,
362,
315,
286,
284,
285,
285,
304,
305,
262,
257,
292,
287,
274,
275,
284,
236,
255,
271,
251,
235,
280,
232,
243,
221,
230,
247,
244,
187,
228,
232,
199,
223,
208,
211,
219,
206,
190,
193,
181,
184,
184,
162,
164,
181,
174,
168,
153,
152,
172,
144,
150,
140,
161,
150,
134,
150,
137,
130,
134,
122,
135,
132,
123,
119,
103,
116,
101,
95,
113,
116,
97,
90,
114,
87,
98,
78,
87,
95,
83,
77,
66,
95,
82,
54,
84,
64,
80,
64,
61,
59,
47,
56,
46,
51,
63,
37,
48,
45,
53,
48,
34,
50,
32,
41,
38,
29,
31,
24,
27,
25,
27,
13,
22,
15,
10,
14,
7,
14,
8,
5,
4,
8,
4,
2,
7,
7,
7,
5,
4,
8,
8,
7,
8,
1,
12,
3,
4,
7,
5,
3,
9,
5,
5,
4,
8,
4,
4,
4,
6,
6,
8,
1,
6,
2,
2,
5,
1,
9,
5,
3,
4,
3,
6,
2,
6,
6,
3,
3,
8,
2,
5,
5,
1,
5,
4,
1,
4,
5,
4,
6,
0,
4,
2,
0,
5,
0,
3,
2,
2,
1,
2,
3,
3,
5,
4,
3,
3,
4,
6,
4,
1,
2,
5,
4,
2,
3,
2,
1,
3,
1,
5,
1,
2,
3,
0,
0,
1,
2,
1,
1,
3,
4,
4,
3,
2,
3,
3,
3,
3,
2,
1,
2,
3,
5,
3,
2,
0,
7,
0,
1,
1,
0,
3,
0,
1,
1,
3,
1,
3,
2,
2,
1,
1,
1,
1,
2,
1,
3,
1,
3,
2,
1,
1,
3,
2,
1,
0,
1,
3,
2,
1,
1,
2,
1,
1,
1,
1,
3,
0,
1,
0,
4,
1,
5,
2,
3,
1,
1,
3,
2,
3,
3,
1,
3,
1,
0,
1,
0,
1,
1,
3,
1,
0,
0,
0,
0,
3,
1,
1,
1,
1,
0,
1,
2,
0,
1,
2,
0,
1,
1,
1,
1,
1,
1,
2,
0,
1,
0,
4,
1,
2,
1,
2,
1,
1,
0,
1,
0,
1,
0,
2,
1,
1,
0,
0,
1,
0,
1,
1,
0,
1,
0,
0,
1,
0,
3,
0,
2,
0,
0,
0,
2,
1,
1,
1,
0,
0,
1,
1,
0,
0,
0,
2,
0,
0,
0,
0,
0,
1,
1,
0,
1,
0,
1,
0,
2,
0,
0,
0,
0,
1,
0,
0,
0,
1,
1,
0,
0,
0,
0,
0,
0,
0,
0,
0,
0,
0,
1,
0,
0,
0,
0,
0,
0,
0,
0,
1,
0,
1,
0,
0,
0,
0,
0,
0,
0,
0,
0,
0,
1,
0,
0,
0,
0,
0,
1,
0,
0,
0,
0,
0,
1,
0,
0,
2,
0,
0,
0,
0,
0,
0,
0,
0,
0,
0,
0,
1,
0,
0,
0,
1,
0,
1,
0,
0,
1,
0,
0,
0,
0,
0,
0,
0,
0,
0,
0,
0,
0,
0,
0,
0,
0,
0,
1,
0,
0,
0,
0,
0,
0,
0,
0,
0,
1,
0,
0,
0,
0,
0,
0,
0,
0,
0,
0,
0,
0,
0,
0,
0,
0,
0,
0,
0,
0,
0,
0,
0,
0,
0,
0,
0,
0,
0,
0,
0,
0,
0,
0,
0,
0,
0,
0,
0,
0,
0,
2,
0,
0,
0,
0,
0,
0,
0,
0,
1,
0,
0,
0,
0,
0,
0,
0,
0,
0,
0,
0,
0,
0,
0,
0,
0,
0,
0,
0,
0,
0,
0,
0,
0,
0,
0,
0,
0,
0,
0,
0,
0,
0,
0,
0,
0,
0,
0,
0,
0,
0,
0,
1,
0,
0,
0,
0,
0,
0,
0,
0,
0,
0,
0,
0,
0,
0,
0,
0,
0,
0,
0,
0,
0,
0,
0,
0,
0,
0,
0,
0,
0,
0,
0,
0,
0,
0,
0,
0,
0,
0,
0,
0,
0,
0,
0,
0,
0,
0,
0,
0,
0,
0,
0,
0,
0,
0,
0,
0,
0,
0,
0,
0,
0,
0,
0,
0,
0,
0,
0,
0,
0,
0,
0,
0,
0,
0,
0,
0,
0,
0,
0,
0,
0,
0,
0,
0,
0,
0,
0,
0,
0,
0,
0,
0,
0,
0,
0,
0,
0,
0,
0,
0,
0,
0,
0,
0,
0,
0,
0,
0,
0,
0,
0,
0,
0,
0,
0,
0,
0,
0,
0,
0,
0,
0,
1,
0,
0,
0,
0,
0,
0,
0,
0,
0,
0,
0,
0,
0,
0,
0,
0,
0,
0,
0,
0,
0,
0,
0,
0,
0,
0,
0,
0,
0,
0,
0,
0,
0,
0,
0,
0,
0,
0,
0,
0,
0,
0,
0,
0,
0,
0,
0,
0,
0,
0,
0,
0,
0,
0,
0,
0,
0,
0,
0,
0,
0,
0,
0,
0,
0,
0,
0,
0,
0,
0,
0,
0,
0,
0,
0,
0,
0,
0,
0,
0,
0,
0,
0,
0,
0,
0,
0,
0,
0,
0,
0,
0,
0,
0,
0,
0,
0,
0,
0,
0,
0,
0,
0,
0,
0,
0,
#ENDOFDATA   :