File: N132962/Quantification/20 keV/Glass Mount IIIB/GM IIIB K978[3][4].msa
#FORMAT      : EMSA/MAS Spectral Data File
#VERSION     : 1.0
#TITLE       : GM IIIB K978[3][all]
#DATE        : 10-SEP-2025
#TIME        : 16:35
#OWNER       : Unknown
#NPOINTS     : 4096
#NCOLUMNS    : 1
#XUNITS      : eV
#YUNITS      : counts
#DATATYPE    : Y
#XPERCHAN    : 9.99778
#OFFSET      : 1.69135
#BEAMKV      : 20
#SIGNALTYPE  : EDS
#ELEVANGLE   : 35
#AZIMANGLE   : 0
#LIVETIME    : 240.132
#REALTIME    : 259.758
#PROBECUR    : 1.22413
#TAUWIND     : 0
#TDEADLYR    : 0
#TACTLYR     : 0.045
#TALWIND     : 0.025
#CHOFFSET    : 0.0
#XLABEL      : Energy (eV)
#YLABEL      : Counts
#XPOSITION   : 0.19292
#YPOSITION   : 11.49811
#ZPOSITION   : 34.06144
#EDSDET      : SD
##SPECIMEN   : GM IIIB K978[3][all]
##D2STDCMP   : K978,(O:39.39),(Mg:1.36),(Al:8.92),(Si:21.02),(K:1.87),(Ca:6.75),(Ti:0.67),(Rb:2.06),(Sr:10.05),(Cs:2.12),(La:1.92),(Eu:1.94),(Gd:1.95)
##DET_HASH   : 12273538-fd48-a23f-0a19-f1e6fa85caef
##CALIB_HASH : 6abaa72c-aa41-8738-0be9-f592914732f3
##WORKING    : 15.0 mm
##DET_NAME   : EDAX All
##DET_MODE   : MediumLE
#SPECTRUM    :
20,
18,
12,
16,
111,
356,
967,
2486,
5378,
7086,
5380,
4027,
3961,
4422,
6355,
20405,
73063,
138563,
100905,
27397,
4878,
3038,
3514,
3629,
3466,
3511,
3769,
4298,
4954,
5077,
4997,
5025,
4843,
5155,
5461,
5738,
6150,
7538,
8904,
9900,
12383,
16885,
17899,
12813,
8159,
7180,
8073,
15793,
45126,
86744,
88212,
48304,
19648,
11072,
10903,
22076,
70068,
164555,
223832,
176545,
103107,
60057,
34679,
19608,
10700,
6956,
5093,
4131,
3704,
3538,
3515,
3400,
3640,
3777,
3863,
4107,
4039,
3833,
3760,
3594,
3637,
3639,
3513,
3469,
3558,
3461,
3574,
3612,
3612,
3421,
3477,
3576,
3403,
3536,
3476,
3526,
3594,
3556,
3676,
3611,
3563,
3535,
3404,
3435,
3610,
3596,
3739,
4346,
6292,
10086,
13553,
13507,
9865,
5835,
4216,
3700,
3843,
4064,
4671,
6054,
9952,
19006,
31810,
39151,
33576,
20024,
9109,
4686,
3385,
3203,
3342,
4018,
5322,
6813,
7336,
6244,
4766,
3529,
3193,
3058,
3514,
4451,
5559,
5981,
5253,
3972,
3198,
3133,
3795,
4688,
5576,
5555,
5477,
5667,
6260,
6419,
5502,
4270,
3323,
2807,
2573,
2512,
2614,
2913,
3167,
3268,
3469,
3373,
3585,
3319,
2952,
2688,
2665,
2551,
2489,
2446,
2394,
2504,
2541,
2577,
2520,
2396,
2245,
2182,
2136,
2041,
2129,
1964,
2013,
1964,
2108,
2291,
2820,
3463,
3880,
3933,
3542,
2923,
2514,
2573,
3091,
3525,
3638,
3302,
2709,
2249,
1860,
1774,
1734,
1608,
1791,
1840,
1998,
2249,
2523,
2605,
2635,
2279,
2063,
1899,
1909,
2010,
2148,
2450,
2368,
2411,
2242,
2154,
2078,
1837,
1727,
1631,
1536,
1568,
1563,
1655,
1731,
1750,
1665,
1569,
1520,
1373,
1353,
1364,
1368,
1303,
1424,
1412,
1499,
1556,
1504,
1394,
1336,
1287,
1278,
1310,
1300,
1337,
1410,
1399,
1356,
1306,
1193,
1211,
1195,
1247,
1206,
1237,
1192,
1116,
1231,
1180,
1127,
1067,
1132,
1069,
1046,
1085,
1053,
1037,
1005,
1030,
1062,
1119,
1035,
1004,
1094,
1003,
986,
998,
993,
933,
917,
896,
956,
959,
955,
932,
905,
940,
917,
888,
887,
919,
916,
880,
898,
831,
860,
845,
864,
913,
818,
836,
874,
826,
822,
837,
804,
799,
844,
766,
765,
807,
776,
778,
737,
754,
767,
706,
767,
770,
723,
732,
716,
708,
708,
717,
741,
711,
706,
691,
689,
680,
661,
686,
729,
698,
662,
655,
648,
645,
552,
673,
633,
624,
617,
585,
629,
579,
634,
604,
573,
583,
633,
565,
622,
597,
563,
536,
550,
544,
561,
543,
515,
522,
517,
513,
523,
499,
531,
486,
509,
481,
499,
489,
504,
496,
455,
435,
460,
475,
459,
450,
455,
441,
487,
448,
429,
424,
475,
419,
432,
393,
427,
426,
368,
412,
389,
401,
381,
399,
381,
362,
380,
398,
380,
382,
376,
358,
329,
370,
334,
401,
343,
350,
346,
341,
311,
341,
323,
319,
321,
340,
322,
338,
294,
323,
326,
335,
323,
369,
340,
384,
429,
444,
421,
414,
360,
349,
324,
297,
290,
268,
252,
237,
274,
233,
260,
249,
237,
258,
227,
256,
250,
303,
371,
383,
512,
609,
670,
679,
641,
563,
470,
416,
314,
259,
205,
210,
205,
188,
189,
186,
186,
173,
195,
169,
164,
198,
157,
161,
176,
175,
173,
190,
148,
179,
171,
186,
158,
160,
160,
166,
150,
172,
161,
161,
153,
143,
129,
148,
138,
137,
136,
125,
137,
124,
137,
130,
103,
110,
138,
144,
152,
171,
181,
198,
173,
159,
126,
119,
126,
108,
100,
107,
97,
101,
101,
96,
94,
93,
76,
95,
91,
92,
71,
77,
75,
74,
80,
72,
59,
72,
64,
70,
64,
69,
78,
85,
63,
63,
66,
73,
68,
54,
55,
61,
64,
58,
67,
55,
59,
51,
64,
66,
48,
58,
53,
37,
52,
57,
47,
52,
47,
37,
59,
37,
35,
32,
40,
41,
46,
23,
34,
43,
32,
36,
40,
36,
32,
42,
33,
27,
33,
23,
27,
26,
33,
11,
29,
29,
29,
19,
22,
26,
25,
26,
16,
22,
27,
9,
21,
21,
17,
19,
18,
12,
22,
25,
15,
6,
16,
14,
10,
13,
11,
11,
12,
8,
9,
5,
11,
4,
8,
4,
12,
0,
7,
6,
6,
4,
8,
7,
6,
8,
5,
5,
6,
2,
6,
3,
1,
2,
0,
1,
0,
0,
1,
0,
0,
1,
0,
0,
0,
0,
0,
0,
1,
1,
0,
0,
0,
0,
0,
0,
0,
1,
1,
0,
0,
0,
0,
1,
0,
0,
0,
0,
2,
0,
0,
0,
0,
0,
1,
0,
1,
0,
0,
0,
1,
0,
0,
0,
0,
1,
0,
1,
0,
1,
0,
0,
0,
0,
0,
0,
1,
1,
1,
0,
1,
0,
0,
0,
1,
2,
0,
0,
1,
0,
1,
0,
0,
0,
1,
0,
0,
0,
0,
0,
0,
2,
0,
1,
0,
0,
1,
0,
0,
1,
0,
0,
0,
0,
0,
0,
0,
1,
0,
0,
0,
0,
0,
0,
0,
1,
0,
1,
0,
0,
0,
0,
0,
1,
0,
0,
0,
1,
1,
0,
0,
0,
0,
0,
0,
0,
0,
0,
0,
0,
0,
0,
0,
0,
0,
0,
0,
0,
0,
0,
1,
0,
0,
0,
0,
0,
0,
0,
0,
0,
0,
0,
0,
0,
0,
0,
0,
0,
0,
0,
0,
0,
0,
0,
0,
0,
0,
0,
0,
0,
0,
0,
1,
0,
0,
0,
0,
0,
0,
0,
0,
0,
0,
0,
0,
1,
0,
0,
0,
0,
0,
1,
0,
0,
0,
0,
0,
1,
0,
0,
1,
0,
0,
0,
0,
1,
0,
0,
0,
1,
0,
0,
0,
0,
0,
0,
0,
0,
0,
0,
0,
0,
0,
0,
0,
0,
0,
0,
0,
0,
0,
0,
1,
0,
0,
0,
0,
0,
0,
0,
0,
0,
0,
0,
0,
0,
0,
0,
0,
0,
0,
0,
0,
0,
0,
0,
0,
0,
0,
0,
0,
0,
0,
0,
0,
0,
0,
0,
0,
0,
0,
0,
0,
0,
0,
0,
0,
0,
0,
0,
0,
0,
0,
0,
0,
0,
0,
0,
0,
0,
0,
0,
0,
0,
0,
0,
1,
0,
0,
0,
0,
0,
0,
0,
0,
0,
0,
0,
0,
0,
0,
0,
0,
0,
0,
0,
0,
0,
0,
0,
0,
0,
0,
0,
0,
0,
0,
0,
0,
0,
0,
0,
0,
0,
0,
0,
0,
0,
0,
0,
0,
0,
0,
0,
0,
0,
0,
0,
0,
0,
0,
0,
0,
0,
0,
0,
0,
0,
0,
0,
0,
0,
0,
0,
0,
0,
0,
0,
0,
0,
0,
0,
0,
0,
0,
0,
0,
0,
0,
0,
0,
0,
0,
0,
0,
0,
0,
0,
0,
0,
0,
0,
0,
0,
0,
0,
0,
0,
0,
0,
0,
0,
0,
0,
0,
0,
0,
0,
0,
0,
0,
0,
0,
0,
0,
0,
0,
0,
0,
0,
0,
0,
0,
0,
0,
0,
0,
0,
0,
0,
0,
0,
0,
0,
0,
0,
0,
0,
0,
0,
0,
0,
0,
0,
0,
0,
0,
0,
0,
0,
0,
0,
0,
0,
0,
0,
0,
0,
0,
0,
0,
0,
0,
0,
0,
0,
0,
0,
0,
0,
0,
0,
0,
0,
0,
0,
0,
0,
0,
0,
0,
0,
0,
0,
0,
0,
0,
0,
0,
0,
0,
0,
0,
0,
0,
0,
0,
0,
0,
0,
0,
0,
0,
0,
0,
0,
0,
0,
0,
0,
0,
0,
0,
0,
0,
0,
0,
0,
0,
0,
0,
0,
0,
0,
0,
0,
0,
0,
0,
0,
0,
0,
0,
0,
0,
0,
0,
0,
0,
0,
0,
0,
0,
0,
0,
0,
0,
0,
0,
0,
0,
0,
0,
0,
0,
0,
0,
0,
0,
0,
0,
0,
0,
0,
0,
0,
0,
0,
0,
0,
0,
0,
0,
0,
0,
0,
0,
0,
0,
0,
0,
0,
0,
0,
0,
0,
0,
0,
0,
0,
0,
0,
0,
0,
0,
0,
0,
0,
0,
0,
0,
0,
0,
0,
0,
0,
0,
0,
0,
0,
0,
0,
0,
0,
0,
0,
0,
0,
0,
0,
0,
0,
0,
0,
0,
0,
0,
0,
0,
0,
0,
0,
0,
0,
0,
0,
0,
0,
0,
0,
0,
0,
0,
0,
0,
0,
0,
0,
0,
0,
0,
0,
0,
0,
0,
0,
0,
0,
0,
0,
0,
0,
0,
0,
0,
0,
0,
0,
0,
0,
0,
0,
0,
0,
0,
0,
0,
0,
0,
0,
0,
0,
0,
0,
0,
0,
0,
0,
0,
0,
0,
0,
0,
0,
0,
0,
#ENDOFDATA   :