File: N132962/Quantification/20 keV/Glass Mount IIIB/GM IIIB K252[3][4].msa
#FORMAT      : EMSA/MAS Spectral Data File
#VERSION     : 1.0
#TITLE       : GM IIIB K252[3][all]
#DATE        : 10-SEP-2025
#TIME        : 19:02
#OWNER       : Unknown
#NPOINTS     : 4096
#NCOLUMNS    : 1
#XUNITS      : eV
#YUNITS      : counts
#DATATYPE    : Y
#XPERCHAN    : 9.99778
#OFFSET      : 1.69135
#BEAMKV      : 20
#SIGNALTYPE  : EDS
#ELEVANGLE   : 35
#AZIMANGLE   : 0
#LIVETIME    : 240.233
#REALTIME    : 261.4801
#PROBECUR    : 1.2221
#TAUWIND     : 0
#TDEADLYR    : 0
#TACTLYR     : 0.045
#TALWIND     : 0.025
#CHOFFSET    : 0.0
#XLABEL      : Energy (eV)
#YLABEL      : Counts
#XPOSITION   : 5.52354
#YPOSITION   : 0.65872
#ZPOSITION   : 34.00159
#EDSDET      : SD
##SPECIMEN   : GM IIIB K252[3][all]
##D2STDCMP   : K252,(O:30.83),(Si:18.7),(Mn:3.16),(Co:3.93),(Cu:3.99),(Zn:8.03),(Ba:31.35)
##DET_HASH   : 12273538-fd48-a23f-0a19-f1e6fa85caef
##CALIB_HASH : 6abaa72c-aa41-8738-0be9-f592914732f3
##WORKING    : 15.0 mm
##DET_NAME   : EDAX All
##DET_MODE   : MediumLE
#SPECTRUM    :
31,
24,
18,
30,
131,
466,
1384,
3255,
7236,
9041,
6513,
5385,
5999,
7249,
10605,
30094,
103955,
192890,
141634,
43300,
14865,
10889,
8613,
7365,
8255,
12664,
15628,
11675,
7763,
8233,
12500,
16890,
18974,
25952,
29610,
19768,
9236,
5293,
4589,
4314,
4394,
4446,
4744,
4802,
4884,
4945,
5267,
5310,
5638,
6222,
6440,
6373,
6230,
6389,
7357,
14737,
48408,
118197,
159369,
113875,
47898,
18348,
10085,
6541,
4961,
4554,
4758,
4833,
4840,
4856,
4857,
4864,
4945,
4870,
5186,
5394,
5469,
5393,
5141,
5063,
5051,
5037,
4914,
5049,
5080,
5038,
5127,
5116,
5148,
5204,
5420,
5363,
5294,
5141,
5004,
4844,
4912,
4899,
4794,
4900,
5006,
4876,
4943,
4874,
4831,
4782,
4802,
4758,
4667,
4618,
4671,
4539,
4642,
4685,
4595,
4598,
4547,
4605,
4398,
4404,
4366,
4350,
4416,
4401,
4351,
4265,
4256,
4275,
4348,
4559,
5189,
5789,
6186,
5625,
5036,
4427,
4190,
3976,
4040,
3995,
3971,
4108,
4450,
4733,
5682,
8525,
16634,
31949,
49547,
55937,
45759,
27924,
13237,
6554,
4414,
4010,
4283,
5450,
9070,
15694,
24288,
28451,
26192,
20109,
13656,
9899,
7109,
5611,
5152,
5876,
8077,
10740,
12129,
10331,
7742,
5020,
3796,
3334,
3190,
3106,
3173,
3501,
4353,
5434,
6182,
6116,
5136,
4127,
3242,
2914,
3043,
3563,
4444,
5463,
7246,
9596,
11263,
11089,
8816,
5918,
4098,
3087,
2551,
2526,
2488,
2416,
2442,
2340,
2408,
2398,
2420,
2451,
2647,
2800,
3146,
3387,
3387,
3265,
2982,
2706,
2350,
2302,
2186,
2203,
2207,
2154,
2535,
3201,
4688,
6475,
8223,
8575,
7430,
5520,
3773,
2758,
2222,
2040,
2053,
2016,
1987,
1945,
1970,
1934,
1861,
1889,
1960,
1978,
2013,
2125,
2057,
2197,
2209,
2375,
2646,
2724,
2507,
2167,
2056,
1896,
1826,
1767,
1871,
2131,
2553,
3621,
4855,
6062,
6595,
5823,
4599,
3287,
2377,
1907,
1689,
1651,
1546,
1688,
1559,
1609,
1650,
1658,
1865,
2480,
3747,
5661,
7967,
9473,
9519,
8112,
5952,
3916,
2636,
2023,
1876,
1884,
2076,
2102,
1952,
1755,
1581,
1452,
1390,
1339,
1362,
1343,
1389,
1280,
1296,
1359,
1290,
1333,
1292,
1315,
1394,
1544,
1773,
2119,
2195,
2294,
2094,
1863,
1657,
1461,
1319,
1203,
1105,
1199,
1121,
1184,
1151,
1078,
1137,
1098,
1121,
1046,
1077,
1073,
1097,
1105,
1075,
1029,
1016,
1014,
1079,
1013,
1039,
1015,
968,
971,
968,
991,
987,
920,
977,
969,
942,
972,
967,
880,
933,
908,
875,
880,
922,
932,
878,
822,
827,
895,
853,
846,
821,
823,
823,
827,
819,
804,
769,
760,
833,
740,
773,
752,
760,
779,
756,
765,
752,
710,
733,
719,
764,
696,
768,
706,
699,
663,
712,
688,
647,
678,
661,
647,
603,
615,
672,
671,
615,
652,
651,
647,
621,
625,
607,
606,
582,
592,
551,
575,
522,
590,
570,
549,
558,
547,
576,
512,
520,
562,
552,
509,
524,
508,
570,
538,
508,
512,
500,
511,
445,
463,
479,
543,
483,
428,
487,
458,
435,
427,
418,
440,
388,
405,
450,
434,
410,
442,
429,
373,
385,
392,
363,
404,
384,
376,
380,
378,
381,
368,
340,
394,
357,
360,
369,
315,
298,
333,
307,
341,
344,
331,
305,
329,
295,
312,
266,
282,
289,
272,
259,
266,
270,
293,
249,
279,
283,
241,
263,
252,
278,
248,
240,
246,
227,
224,
253,
228,
217,
225,
242,
250,
232,
229,
215,
203,
203,
215,
221,
230,
170,
204,
202,
217,
178,
212,
160,
194,
186,
189,
171,
154,
176,
180,
184,
132,
160,
173,
158,
146,
162,
152,
145,
153,
142,
144,
157,
139,
126,
142,
147,
143,
135,
122,
126,
121,
127,
130,
107,
137,
119,
119,
110,
115,
109,
108,
116,
99,
93,
113,
123,
90,
116,
97,
96,
78,
89,
98,
103,
81,
87,
83,
82,
84,
76,
74,
73,
81,
77,
80,
67,
85,
64,
79,
62,
64,
62,
61,
68,
43,
66,
58,
55,
45,
66,
44,
51,
41,
56,
41,
61,
36,
44,
45,
44,
46,
54,
37,
42,
43,
38,
37,
41,
37,
33,
32,
25,
33,
32,
23,
32,
31,
26,
26,
32,
21,
24,
15,
26,
17,
20,
16,
19,
18,
16,
17,
12,
14,
15,
10,
17,
11,
14,
18,
8,
8,
5,
7,
5,
6,
3,
6,
6,
8,
2,
0,
4,
6,
1,
0,
1,
4,
4,
0,
0,
2,
2,
1,
2,
1,
0,
2,
1,
0,
0,
1,
3,
2,
2,
1,
2,
0,
1,
0,
2,
0,
0,
1,
0,
1,
1,
3,
1,
1,
2,
1,
2,
1,
1,
1,
0,
1,
0,
0,
0,
2,
1,
0,
1,
2,
0,
0,
2,
0,
0,
0,
2,
1,
0,
2,
0,
2,
1,
0,
1,
0,
1,
2,
1,
0,
1,
0,
0,
1,
2,
1,
1,
1,
0,
3,
0,
1,
0,
1,
0,
0,
0,
0,
0,
2,
0,
0,
3,
0,
0,
1,
0,
0,
1,
1,
1,
0,
1,
1,
1,
1,
0,
1,
0,
1,
0,
1,
0,
0,
1,
1,
0,
0,
0,
0,
0,
0,
0,
0,
0,
0,
0,
0,
0,
0,
0,
1,
0,
0,
0,
0,
0,
0,
0,
0,
0,
0,
0,
2,
0,
0,
1,
0,
0,
2,
0,
0,
0,
0,
0,
0,
0,
0,
1,
0,
0,
1,
2,
0,
0,
1,
0,
0,
0,
1,
1,
0,
0,
0,
1,
0,
0,
0,
0,
0,
0,
0,
2,
2,
0,
0,
1,
0,
0,
0,
0,
0,
0,
0,
0,
0,
0,
0,
0,
0,
0,
0,
1,
0,
0,
0,
0,
0,
1,
0,
0,
0,
0,
0,
2,
0,
0,
0,
0,
0,
0,
1,
0,
0,
0,
0,
0,
0,
0,
0,
0,
0,
0,
0,
0,
0,
1,
0,
1,
0,
0,
1,
0,
1,
0,
0,
0,
0,
0,
0,
0,
0,
0,
0,
1,
0,
0,
0,
0,
0,
0,
0,
0,
0,
0,
0,
0,
0,
0,
0,
0,
0,
0,
0,
0,
0,
0,
0,
0,
1,
0,
0,
0,
0,
0,
0,
0,
0,
0,
0,
0,
0,
0,
0,
0,
0,
1,
0,
0,
0,
0,
0,
0,
0,
0,
0,
0,
0,
0,
0,
0,
0,
1,
0,
0,
0,
0,
0,
0,
0,
1,
0,
0,
0,
0,
0,
0,
0,
0,
0,
0,
0,
0,
0,
0,
0,
0,
0,
0,
0,
0,
0,
0,
0,
0,
0,
0,
0,
0,
0,
0,
1,
0,
0,
0,
0,
0,
0,
0,
0,
0,
0,
0,
0,
0,
0,
0,
0,
0,
0,
0,
0,
0,
0,
0,
0,
0,
0,
0,
0,
0,
0,
0,
0,
0,
0,
0,
0,
0,
0,
0,
0,
0,
0,
0,
0,
0,
0,
0,
0,
0,
0,
0,
0,
0,
0,
0,
0,
0,
0,
0,
0,
0,
0,
0,
0,
0,
0,
0,
0,
0,
0,
0,
0,
0,
0,
0,
0,
0,
1,
0,
0,
0,
0,
0,
0,
0,
0,
0,
0,
0,
0,
0,
0,
0,
0,
0,
0,
0,
0,
0,
0,
0,
0,
0,
0,
0,
0,
0,
0,
0,
0,
0,
0,
0,
0,
0,
0,
0,
0,
0,
0,
0,
0,
0,
0,
0,
0,
0,
0,
0,
0,
0,
0,
0,
0,
0,
0,
0,
0,
0,
0,
0,
0,
0,
0,
0,
0,
0,
0,
0,
0,
0,
0,
0,
0,
0,
0,
0,
0,
0,
0,
0,
0,
0,
0,
0,
0,
0,
0,
0,
0,
0,
0,
0,
0,
0,
0,
0,
0,
0,
0,
0,
0,
0,
0,
0,
0,
0,
0,
0,
0,
0,
0,
0,
0,
0,
0,
0,
0,
0,
0,
0,
0,
0,
0,
0,
0,
0,
0,
0,
0,
0,
0,
0,
0,
0,
0,
0,
0,
0,
0,
0,
0,
0,
0,
0,
0,
0,
0,
0,
0,
0,
0,
0,
0,
0,
0,
0,
0,
0,
0,
0,
0,
0,
0,
0,
0,
0,
0,
0,
0,
0,
0,
0,
0,
0,
0,
0,
0,
0,
0,
0,
0,
0,
0,
0,
0,
0,
0,
0,
0,
0,
0,
0,
0,
0,
0,
0,
0,
0,
0,
0,
0,
0,
0,
0,
0,
0,
0,
0,
0,
0,
0,
0,
0,
0,
0,
0,
0,
0,
0,
0,
0,
0,
0,
0,
0,
0,
0,
0,
0,
0,
0,
0,
0,
0,
0,
0,
0,
0,
0,
0,
0,
0,
0,
0,
0,
0,
0,
0,
0,
0,
0,
0,
0,
0,
0,
0,
0,
0,
0,
0,
0,
0,
0,
#ENDOFDATA   :