File: N132962/Quantification/20 keV/Glass Mount IIIB/GM IIIB K978[1][4].msa
#FORMAT      : EMSA/MAS Spectral Data File
#VERSION     : 1.0
#TITLE       : GM IIIB K978[1][all]
#DATE        : 10-SEP-2025
#TIME        : 16:33
#OWNER       : Unknown
#NPOINTS     : 4096
#NCOLUMNS    : 1
#XUNITS      : eV
#YUNITS      : counts
#DATATYPE    : Y
#XPERCHAN    : 9.99778
#OFFSET      : 1.69135
#BEAMKV      : 20
#SIGNALTYPE  : EDS
#ELEVANGLE   : 35
#AZIMANGLE   : 0
#LIVETIME    : 240.135
#REALTIME    : 259.758
#PROBECUR    : 1.22413
#TAUWIND     : 0
#TDEADLYR    : 0
#TACTLYR     : 0.045
#TALWIND     : 0.025
#CHOFFSET    : 0.0
#XLABEL      : Energy (eV)
#YLABEL      : Counts
#XPOSITION   : 0.28519
#YPOSITION   : 11.38765
#ZPOSITION   : 34.06144
#EDSDET      : SD
##SPECIMEN   : GM IIIB K978[1][all]
##D2STDCMP   : K978,(O:39.39),(Mg:1.36),(Al:8.92),(Si:21.02),(K:1.87),(Ca:6.75),(Ti:0.67),(Rb:2.06),(Sr:10.05),(Cs:2.12),(La:1.92),(Eu:1.94),(Gd:1.95)
##DET_HASH   : 12273538-fd48-a23f-0a19-f1e6fa85caef
##CALIB_HASH : 6abaa72c-aa41-8738-0be9-f592914732f3
##WORKING    : 15.0 mm
##DET_NAME   : EDAX All
##DET_MODE   : MediumLE
#SPECTRUM    :
22,
21,
5,
20,
120,
412,
965,
2347,
5315,
7219,
5230,
4013,
3988,
4451,
6586,
20340,
73145,
138464,
99625,
27179,
4873,
3021,
3458,
3646,
3479,
3505,
3851,
4349,
4963,
5057,
5108,
4966,
4878,
5024,
5434,
5529,
6075,
7388,
8729,
9870,
12253,
16749,
17827,
12433,
8198,
7010,
8169,
16035,
45155,
87083,
88072,
48323,
19617,
11266,
10967,
22270,
70305,
164479,
223326,
177173,
103902,
59992,
34972,
19327,
10954,
6759,
5047,
4230,
3760,
3549,
3504,
3444,
3591,
3858,
3937,
4143,
4103,
3874,
3773,
3536,
3593,
3589,
3559,
3585,
3485,
3549,
3580,
3574,
3559,
3557,
3531,
3598,
3350,
3569,
3598,
3586,
3543,
3626,
3602,
3631,
3564,
3452,
3353,
3390,
3503,
3563,
3898,
4469,
6291,
10175,
13527,
13421,
9848,
5878,
4091,
3671,
3753,
4071,
4620,
6066,
10076,
19216,
32348,
39442,
33463,
19792,
9185,
4732,
3398,
3222,
3325,
4067,
5359,
6728,
7388,
6217,
4680,
3539,
2977,
3060,
3542,
4412,
5548,
6030,
5246,
4064,
3242,
3170,
3643,
4769,
5500,
5650,
5398,
5698,
6170,
6301,
5538,
4418,
3397,
2769,
2522,
2498,
2654,
2928,
3230,
3487,
3323,
3520,
3503,
3237,
2981,
2670,
2531,
2511,
2416,
2360,
2431,
2452,
2578,
2597,
2594,
2453,
2292,
2211,
2078,
2129,
2133,
2058,
1977,
2006,
2111,
2318,
2871,
3368,
3902,
3852,
3518,
2891,
2578,
2541,
3034,
3596,
3808,
3274,
2711,
2226,
1867,
1731,
1788,
1634,
1746,
1848,
2053,
2247,
2597,
2665,
2471,
2271,
2125,
1855,
1890,
2022,
2180,
2301,
2370,
2408,
2154,
2148,
2104,
1996,
1697,
1664,
1566,
1568,
1560,
1640,
1692,
1643,
1638,
1617,
1382,
1369,
1423,
1300,
1388,
1392,
1375,
1484,
1525,
1561,
1461,
1373,
1378,
1320,
1265,
1230,
1259,
1331,
1368,
1382,
1343,
1307,
1264,
1189,
1159,
1128,
1166,
1177,
1193,
1165,
1168,
1159,
1148,
1082,
1184,
1108,
1056,
1138,
1068,
1078,
1040,
1075,
1096,
986,
984,
947,
980,
992,
1029,
1005,
976,
990,
962,
977,
952,
930,
910,
965,
890,
886,
910,
874,
841,
822,
914,
854,
893,
874,
888,
847,
858,
820,
928,
795,
843,
861,
890,
831,
769,
772,
770,
781,
773,
751,
817,
778,
814,
761,
698,
733,
753,
764,
741,
739,
702,
725,
707,
730,
715,
683,
712,
687,
740,
622,
629,
672,
599,
675,
661,
596,
609,
673,
660,
599,
644,
649,
629,
574,
613,
610,
598,
581,
560,
615,
587,
580,
572,
565,
541,
570,
542,
595,
543,
541,
545,
526,
541,
563,
531,
569,
499,
490,
477,
515,
492,
492,
447,
494,
489,
475,
494,
411,
452,
480,
454,
457,
445,
472,
443,
397,
429,
429,
465,
423,
407,
439,
410,
424,
403,
385,
399,
370,
391,
395,
382,
382,
347,
375,
346,
344,
353,
351,
326,
379,
328,
309,
329,
340,
334,
334,
324,
289,
319,
322,
301,
291,
288,
301,
292,
321,
315,
319,
376,
393,
416,
433,
447,
452,
406,
383,
313,
312,
293,
256,
240,
259,
259,
250,
259,
195,
261,
245,
258,
235,
250,
268,
313,
431,
516,
641,
630,
688,
612,
580,
485,
384,
270,
228,
214,
194,
191,
180,
192,
199,
173,
207,
176,
165,
180,
178,
175,
167,
170,
168,
147,
176,
162,
197,
197,
175,
175,
170,
158,
162,
146,
138,
175,
133,
133,
151,
125,
137,
137,
121,
102,
117,
143,
120,
126,
136,
137,
131,
139,
128,
151,
143,
175,
168,
157,
144,
131,
118,
109,
146,
112,
104,
116,
99,
98,
84,
106,
86,
85,
90,
82,
79,
81,
67,
74,
74,
65,
76,
76,
80,
78,
70,
83,
79,
63,
75,
75,
42,
57,
72,
78,
59,
63,
57,
51,
58,
62,
83,
67,
50,
67,
46,
38,
49,
49,
52,
54,
50,
51,
43,
35,
49,
43,
48,
51,
39,
46,
33,
30,
33,
36,
49,
47,
32,
38,
30,
49,
34,
44,
36,
36,
22,
21,
21,
35,
27,
30,
25,
15,
29,
19,
32,
33,
27,
18,
26,
21,
15,
23,
20,
12,
18,
21,
27,
27,
12,
20,
21,
11,
17,
8,
16,
19,
11,
15,
13,
11,
3,
13,
8,
8,
6,
7,
5,
6,
7,
7,
8,
8,
3,
3,
5,
3,
3,
6,
3,
0,
4,
3,
0,
1,
1,
0,
2,
1,
1,
2,
2,
0,
0,
1,
0,
0,
1,
0,
0,
0,
0,
0,
1,
0,
0,
0,
0,
1,
0,
0,
0,
1,
1,
0,
0,
0,
0,
0,
0,
1,
0,
1,
0,
0,
0,
0,
0,
0,
0,
0,
1,
0,
2,
0,
0,
1,
0,
0,
0,
0,
0,
0,
1,
1,
0,
0,
0,
1,
0,
0,
0,
0,
1,
0,
0,
0,
0,
0,
0,
0,
0,
0,
0,
0,
0,
0,
1,
0,
0,
0,
0,
1,
1,
0,
0,
0,
0,
0,
0,
1,
0,
0,
0,
0,
0,
0,
0,
0,
0,
0,
1,
0,
0,
0,
0,
0,
0,
0,
0,
0,
1,
0,
0,
0,
0,
0,
0,
0,
0,
1,
0,
0,
0,
0,
0,
0,
0,
0,
0,
0,
0,
0,
0,
0,
0,
0,
0,
0,
0,
1,
0,
0,
0,
0,
0,
0,
0,
0,
0,
0,
0,
0,
0,
0,
0,
0,
0,
0,
0,
0,
1,
0,
0,
0,
0,
0,
1,
0,
0,
0,
0,
0,
0,
0,
0,
0,
0,
0,
1,
0,
0,
0,
0,
0,
0,
0,
0,
0,
0,
0,
0,
0,
0,
0,
1,
0,
0,
0,
0,
0,
0,
0,
0,
0,
0,
0,
1,
0,
1,
0,
1,
0,
0,
0,
0,
0,
0,
0,
0,
0,
0,
0,
0,
0,
0,
0,
0,
0,
0,
0,
0,
0,
0,
0,
0,
0,
1,
1,
0,
0,
0,
0,
0,
1,
0,
0,
0,
1,
0,
0,
0,
0,
0,
0,
0,
0,
0,
0,
0,
0,
0,
0,
0,
0,
0,
0,
0,
0,
0,
0,
0,
0,
0,
0,
0,
0,
0,
0,
0,
0,
0,
0,
0,
0,
0,
0,
0,
0,
0,
0,
0,
0,
0,
0,
0,
0,
0,
0,
0,
0,
0,
0,
0,
0,
0,
0,
0,
0,
0,
0,
0,
0,
0,
0,
0,
0,
0,
1,
0,
0,
0,
0,
0,
0,
0,
0,
0,
0,
0,
0,
0,
0,
0,
0,
0,
0,
0,
0,
0,
0,
0,
0,
0,
0,
0,
0,
0,
1,
0,
0,
0,
0,
0,
0,
0,
0,
0,
0,
0,
0,
0,
0,
0,
0,
0,
0,
0,
0,
0,
0,
0,
0,
0,
0,
0,
0,
0,
0,
0,
0,
0,
0,
0,
0,
0,
0,
0,
0,
0,
0,
0,
0,
0,
0,
0,
0,
0,
0,
0,
0,
0,
0,
0,
0,
0,
0,
0,
0,
0,
0,
0,
0,
0,
0,
0,
0,
0,
0,
0,
0,
0,
0,
0,
0,
0,
0,
0,
0,
0,
0,
0,
0,
0,
0,
0,
0,
0,
0,
0,
0,
0,
0,
0,
0,
0,
0,
0,
0,
0,
0,
0,
0,
0,
0,
0,
0,
0,
0,
0,
0,
0,
0,
0,
0,
0,
0,
0,
0,
0,
0,
0,
0,
0,
0,
0,
0,
0,
0,
0,
0,
0,
0,
0,
0,
0,
0,
0,
0,
0,
0,
0,
0,
0,
0,
0,
0,
0,
0,
0,
0,
0,
0,
0,
0,
0,
0,
0,
0,
0,
0,
0,
0,
0,
0,
0,
0,
0,
0,
0,
0,
0,
0,
0,
0,
0,
0,
0,
0,
0,
0,
0,
0,
0,
0,
0,
0,
0,
0,
0,
0,
0,
0,
0,
0,
0,
0,
0,
0,
0,
0,
0,
0,
0,
0,
0,
0,
0,
0,
0,
0,
0,
0,
0,
0,
0,
0,
0,
0,
0,
0,
0,
0,
0,
0,
0,
0,
0,
0,
0,
0,
0,
0,
0,
0,
0,
0,
0,
0,
0,
0,
0,
0,
0,
0,
0,
0,
0,
0,
0,
0,
0,
0,
0,
0,
0,
0,
0,
0,
0,
0,
0,
0,
0,
0,
0,
0,
0,
0,
0,
0,
0,
0,
0,
0,
0,
0,
0,
0,
0,
0,
0,
0,
0,
0,
0,
0,
0,
0,
0,
0,
0,
0,
0,
0,
0,
0,
0,
0,
0,
0,
0,
0,
0,
0,
0,
0,
0,
0,
0,
0,
0,
0,
0,
0,
0,
0,
0,
0,
0,
0,
0,
0,
0,
0,
0,
0,
0,
0,
0,
0,
0,
0,
0,
0,
0,
0,
0,
0,
0,
0,
0,
0,
0,
0,
0,
#ENDOFDATA   :