File: N132962/Quantification/20 keV/Glass Mount IIIB/GM IIIB K963[4][4].msa
#FORMAT      : EMSA/MAS Spectral Data File
#VERSION     : 1.0
#TITLE       : GM IIIB K963[4][all]
#DATE        : 10-SEP-2025
#TIME        : 16:19
#OWNER       : Unknown
#NPOINTS     : 4096
#NCOLUMNS    : 1
#XUNITS      : eV
#YUNITS      : counts
#DATATYPE    : Y
#XPERCHAN    : 9.99778
#OFFSET      : 1.69135
#BEAMKV      : 20
#SIGNALTYPE  : EDS
#ELEVANGLE   : 35
#AZIMANGLE   : 0
#LIVETIME    : 240.2049
#REALTIME    : 261.666
#PROBECUR    : 1.22413
#TAUWIND     : 0
#TDEADLYR    : 0
#TACTLYR     : 0.045
#TALWIND     : 0.025
#CHOFFSET    : 0.0
#XLABEL      : Energy (eV)
#YLABEL      : Counts
#XPOSITION   : 9.27903
#YPOSITION   : 12.37729
#ZPOSITION   : 34.06144
#EDSDET      : SD
##SPECIMEN   : GM IIIB K963[4][all]
##D2STDCMP   : K963,(O:31.92),(Mg:0.14),(Si:21.99),(P:0.36),(Ti:0.28),(Cr:0.3),(Ni:0.34),(Zn:3.0),(Ge:0.42),(Zr:0.53),(Ba:39.52),(Eu:0.88),(Th:0.13),(U:0.17)
##DET_HASH   : 12273538-fd48-a23f-0a19-f1e6fa85caef
##CALIB_HASH : 6abaa72c-aa41-8738-0be9-f592914732f3
##WORKING    : 15.0 mm
##DET_NAME   : EDAX All
##DET_MODE   : MediumLE
#SPECTRUM    :
25,
21,
14,
29,
141,
502,
1409,
3324,
6903,
8508,
6236,
5528,
6268,
7408,
10956,
31155,
107924,
199728,
146582,
44509,
13948,
7686,
5565,
5670,
6588,
8580,
9650,
8051,
6508,
5918,
5462,
6023,
8828,
13288,
15179,
11688,
7286,
6005,
5899,
6361,
6926,
7467,
7251,
6161,
5441,
5433,
5409,
5679,
6007,
6801,
7000,
6814,
6773,
6884,
8052,
16847,
56137,
140439,
187909,
133683,
55994,
21369,
11205,
6929,
5336,
5579,
6628,
7769,
7802,
6698,
5921,
5580,
5537,
5305,
5410,
5566,
5605,
5470,
5179,
5166,
5027,
4935,
5011,
4893,
5070,
4844,
4899,
5062,
5120,
5245,
5578,
5524,
5308,
5044,
4906,
4814,
4868,
4899,
4964,
5139,
5193,
5041,
5213,
5151,
5155,
5311,
5223,
5154,
4793,
4604,
4824,
4740,
4717,
4776,
4689,
4620,
4656,
4627,
4588,
4467,
4422,
4447,
4437,
4357,
4371,
4450,
4390,
4253,
4500,
4621,
5458,
6378,
6439,
6211,
5298,
4562,
4233,
4144,
3922,
3973,
4156,
4236,
4369,
4899,
6215,
9706,
19373,
38545,
59885,
67842,
55671,
33749,
16308,
7543,
4785,
4140,
4451,
5921,
10046,
18623,
28398,
34388,
31244,
23621,
16304,
11448,
8230,
6170,
5408,
6421,
9003,
12137,
13613,
12069,
8651,
5662,
4128,
3360,
3596,
3755,
4065,
4641,
5248,
6086,
6842,
6699,
5571,
4275,
3364,
3079,
3138,
3703,
4359,
4835,
4995,
4533,
4050,
3416,
3111,
2995,
2942,
2587,
2470,
2448,
2429,
2471,
2504,
2408,
2418,
2407,
2370,
2483,
2597,
2769,
2835,
2819,
2660,
2586,
2451,
2262,
2379,
2307,
2354,
2160,
2224,
2152,
2185,
2270,
2284,
2274,
2146,
2194,
2036,
1976,
2049,
2009,
2019,
1971,
1981,
2079,
1919,
2025,
1933,
1975,
2045,
2103,
2164,
2358,
2583,
2572,
2439,
2308,
2121,
1958,
1929,
1830,
1768,
1832,
1751,
1729,
1785,
1759,
1704,
1748,
1664,
1770,
1742,
1725,
1729,
1738,
1678,
1758,
1696,
1677,
1690,
1630,
1666,
1605,
1645,
1678,
1611,
1683,
1654,
1890,
2355,
3123,
3834,
4464,
4519,
3921,
3112,
2323,
1892,
1702,
1522,
1376,
1490,
1389,
1452,
1420,
1313,
1424,
1392,
1379,
1386,
1336,
1371,
1418,
1397,
1344,
1347,
1351,
1299,
1305,
1335,
1340,
1437,
1573,
1639,
1704,
1522,
1500,
1434,
1342,
1330,
1310,
1329,
1357,
1453,
1376,
1357,
1315,
1260,
1269,
1101,
1130,
1151,
1103,
1139,
1098,
1116,
1126,
1082,
1046,
1048,
1100,
1050,
1026,
1056,
1053,
1028,
982,
987,
973,
972,
938,
1021,
1046,
947,
910,
953,
948,
988,
941,
1001,
950,
957,
923,
928,
946,
896,
775,
905,
866,
889,
819,
839,
839,
796,
796,
791,
878,
775,
766,
793,
797,
753,
772,
790,
755,
742,
770,
744,
732,
784,
721,
686,
698,
697,
770,
712,
728,
671,
675,
647,
699,
657,
685,
661,
640,
680,
638,
640,
606,
630,
621,
582,
602,
612,
604,
628,
602,
584,
547,
582,
593,
592,
531,
573,
550,
519,
551,
561,
538,
489,
540,
513,
526,
504,
534,
480,
531,
493,
478,
453,
470,
449,
456,
441,
452,
446,
448,
403,
450,
391,
445,
430,
420,
436,
387,
373,
401,
384,
397,
393,
368,
374,
400,
371,
383,
405,
390,
385,
359,
380,
332,
339,
359,
325,
339,
315,
337,
339,
354,
313,
282,
297,
294,
296,
307,
270,
271,
277,
285,
267,
278,
270,
272,
271,
279,
271,
258,
260,
251,
264,
212,
247,
220,
217,
236,
237,
254,
213,
224,
231,
223,
219,
244,
215,
221,
206,
201,
192,
201,
218,
196,
225,
206,
184,
195,
184,
209,
170,
185,
190,
171,
160,
174,
160,
150,
178,
145,
169,
164,
159,
172,
151,
145,
152,
144,
140,
131,
143,
144,
135,
154,
143,
146,
117,
129,
110,
123,
120,
147,
108,
107,
114,
115,
84,
125,
112,
108,
75,
113,
104,
89,
117,
121,
93,
83,
89,
81,
94,
82,
77,
95,
84,
86,
88,
73,
91,
78,
66,
74,
44,
59,
64,
68,
80,
73,
65,
58,
57,
62,
66,
57,
49,
54,
35,
44,
48,
43,
52,
46,
43,
46,
40,
44,
51,
46,
46,
32,
47,
26,
32,
35,
38,
32,
34,
28,
36,
21,
20,
27,
13,
23,
31,
23,
25,
24,
18,
15,
11,
16,
23,
13,
15,
15,
8,
13,
9,
17,
9,
9,
12,
10,
8,
7,
6,
3,
10,
8,
4,
8,
4,
1,
3,
3,
2,
2,
3,
3,
0,
2,
0,
1,
3,
1,
1,
0,
0,
3,
4,
0,
0,
0,
1,
1,
0,
0,
1,
0,
1,
1,
0,
1,
1,
3,
1,
1,
1,
0,
1,
0,
3,
2,
0,
1,
1,
0,
0,
0,
0,
0,
0,
2,
1,
0,
0,
0,
1,
1,
1,
2,
2,
0,
2,
1,
1,
1,
2,
1,
1,
0,
0,
1,
1,
0,
0,
2,
1,
0,
1,
0,
1,
0,
0,
0,
0,
0,
2,
0,
0,
0,
1,
1,
2,
0,
0,
1,
0,
0,
1,
0,
1,
0,
0,
0,
1,
1,
0,
0,
1,
0,
1,
0,
0,
0,
2,
2,
0,
1,
0,
0,
0,
0,
1,
0,
1,
0,
0,
0,
0,
0,
0,
0,
0,
0,
0,
1,
0,
0,
2,
0,
1,
0,
0,
0,
0,
0,
0,
0,
0,
0,
1,
0,
2,
0,
0,
0,
0,
0,
0,
0,
0,
0,
1,
0,
0,
0,
0,
1,
1,
0,
0,
0,
0,
0,
0,
1,
0,
0,
0,
1,
0,
0,
0,
0,
0,
0,
0,
0,
1,
0,
0,
0,
0,
0,
0,
0,
0,
0,
1,
0,
0,
0,
0,
0,
0,
0,
1,
0,
0,
2,
0,
0,
1,
0,
0,
0,
0,
0,
0,
0,
1,
0,
0,
0,
0,
1,
0,
0,
0,
0,
0,
0,
0,
0,
1,
0,
0,
0,
0,
0,
0,
0,
0,
0,
0,
0,
0,
2,
0,
0,
0,
0,
0,
0,
0,
0,
0,
0,
0,
0,
1,
0,
1,
0,
0,
0,
0,
0,
0,
0,
0,
0,
0,
0,
0,
0,
0,
0,
0,
0,
0,
0,
0,
0,
0,
0,
0,
0,
0,
0,
0,
0,
0,
0,
0,
0,
0,
0,
0,
0,
0,
0,
1,
0,
0,
0,
0,
0,
0,
0,
0,
0,
1,
0,
0,
0,
0,
0,
0,
0,
0,
0,
0,
0,
0,
0,
0,
1,
0,
0,
0,
0,
0,
0,
0,
0,
0,
0,
0,
0,
0,
0,
0,
0,
0,
0,
0,
0,
0,
0,
0,
0,
0,
0,
0,
0,
0,
0,
0,
0,
0,
0,
0,
0,
0,
0,
0,
0,
0,
0,
1,
0,
0,
0,
0,
0,
0,
0,
0,
0,
0,
0,
0,
0,
0,
0,
0,
0,
0,
0,
0,
0,
0,
0,
0,
0,
0,
0,
0,
0,
0,
0,
0,
0,
0,
0,
0,
0,
0,
0,
0,
0,
0,
0,
0,
0,
0,
0,
0,
0,
0,
0,
0,
0,
0,
0,
0,
0,
0,
0,
0,
0,
0,
0,
0,
0,
0,
0,
0,
0,
0,
0,
0,
0,
0,
0,
0,
0,
0,
0,
0,
0,
0,
0,
0,
0,
0,
0,
0,
0,
0,
0,
0,
0,
0,
0,
0,
0,
0,
0,
0,
0,
0,
0,
0,
0,
0,
0,
0,
0,
0,
0,
0,
0,
0,
0,
0,
0,
0,
0,
0,
0,
0,
0,
0,
0,
0,
0,
0,
0,
0,
0,
0,
0,
0,
0,
0,
0,
0,
0,
0,
0,
0,
0,
0,
0,
0,
0,
0,
0,
0,
0,
0,
0,
0,
0,
0,
0,
0,
0,
0,
0,
0,
0,
0,
0,
0,
0,
0,
0,
0,
0,
0,
0,
0,
0,
0,
0,
0,
0,
0,
0,
0,
0,
0,
0,
0,
0,
0,
0,
0,
0,
0,
0,
0,
0,
0,
0,
0,
0,
0,
0,
0,
0,
0,
0,
0,
0,
0,
0,
0,
0,
0,
0,
0,
0,
0,
0,
0,
0,
0,
0,
0,
0,
0,
0,
0,
0,
0,
0,
0,
0,
0,
0,
0,
0,
0,
0,
0,
0,
0,
0,
0,
0,
0,
0,
0,
0,
0,
0,
0,
0,
0,
0,
0,
0,
0,
0,
0,
0,
0,
0,
0,
0,
0,
0,
0,
0,
0,
0,
0,
0,
0,
0,
0,
0,
0,
0,
0,
0,
0,
0,
0,
0,
0,
0,
0,
0,
0,
0,
0,
0,
0,
0,
0,
0,
0,
0,
0,
0,
0,
0,
0,
0,
0,
0,
0,
0,
0,
0,
0,
0,
0,
0,
0,
0,
0,
0,
0,
0,
0,
0,
0,
0,
0,
0,
0,
0,
0,
0,
0,
0,
#ENDOFDATA   :