File: N132962/Quantification/20 keV/Glass Mount IIIB/GM IIIA K1010[3][4].msa
#FORMAT      : EMSA/MAS Spectral Data File
#VERSION     : 1.0
#TITLE       : K1010 IIIA K1010[3][all]
#DATE        : 18-SEP-2025
#TIME        : 10:10
#OWNER       : Unknown
#NPOINTS     : 4096
#NCOLUMNS    : 1
#XUNITS      : eV
#YUNITS      : counts
#DATATYPE    : Y
#XPERCHAN    : 9.99778
#OFFSET      : 1.69135
#BEAMKV      : 20
#SIGNALTYPE  : EDS
#ELEVANGLE   : 35
#AZIMANGLE   : 0
#LIVETIME    : 240.161
#REALTIME    : 259.941
#PROBECUR    : 1.21237
#TAUWIND     : 0
#TDEADLYR    : 0
#TACTLYR     : 0.045
#TALWIND     : 0.025
#CHOFFSET    : 0.0
#XLABEL      : Energy (eV)
#YLABEL      : Counts
#XPOSITION   : 10.49795
#YPOSITION   : 15.5554
#ZPOSITION   : 37.3512
#EDSDET      : SD
##SPECIMEN   : K1010 IIIA K1010[3][all]
##DET_HASH   : 12273538-fd48-a23f-0a19-f1e6fa85caef
##CALIB_HASH : 6abaa72c-aa41-8738-0be9-f592914732f3
##WORKING    : 15.0 mm
##DET_NAME   : EDAX All
##DET_MODE   : MediumLE
#SPECTRUM    :
24,
23,
10,
27,
104,
378,
941,
2459,
5825,
7667,
5589,
4061,
3810,
4245,
6613,
20512,
74455,
140028,
101837,
27650,
4987,
3053,
3425,
3615,
3528,
3601,
3822,
4284,
4905,
5317,
5185,
5013,
5047,
5329,
5961,
6273,
6716,
7947,
11025,
14936,
15666,
12117,
8344,
6693,
6661,
7111,
8256,
16259,
45236,
87839,
87749,
48432,
19608,
11225,
10712,
22110,
69709,
165269,
224185,
177011,
103572,
60696,
35114,
19628,
10893,
6960,
5228,
4190,
3696,
3582,
3583,
3652,
3726,
3932,
4059,
4150,
4109,
3942,
3753,
3669,
3541,
3666,
3506,
3596,
3654,
3607,
3510,
3541,
3627,
3640,
3674,
3683,
3711,
3571,
3510,
3601,
3571,
3649,
3706,
3730,
3779,
3582,
3607,
3526,
3580,
3632,
3941,
4453,
6456,
10110,
13718,
13445,
9955,
6204,
4103,
3786,
3908,
4161,
4804,
6127,
10227,
19398,
32477,
40467,
34416,
20999,
10090,
5332,
3827,
3265,
3585,
4167,
5541,
7187,
7771,
6971,
5109,
3724,
3265,
3189,
3646,
4641,
5657,
6169,
5315,
4233,
3258,
2894,
2754,
2863,
3021,
3440,
4017,
5112,
6140,
6415,
5640,
4400,
3348,
2882,
2623,
2490,
2646,
2743,
2952,
3114,
3270,
3393,
3551,
3491,
3038,
2868,
2582,
2483,
2476,
2502,
2506,
2610,
2569,
2690,
2680,
2435,
2453,
2303,
2178,
2139,
2079,
2036,
1981,
2088,
2083,
2421,
2920,
3427,
3852,
3980,
3604,
2931,
2605,
2677,
3130,
3587,
3707,
3456,
2727,
2275,
1956,
1821,
1737,
1761,
1814,
1976,
2142,
2456,
2589,
2686,
2518,
2263,
1996,
1978,
2020,
2067,
2294,
2408,
2510,
2441,
2319,
2176,
2122,
1957,
1768,
1657,
1548,
1593,
1676,
1679,
1698,
1697,
1688,
1635,
1467,
1494,
1451,
1406,
1377,
1369,
1423,
1564,
1594,
1558,
1474,
1525,
1339,
1324,
1317,
1281,
1352,
1308,
1341,
1330,
1408,
1403,
1209,
1200,
1221,
1157,
1207,
1250,
1222,
1167,
1167,
1175,
1220,
1128,
1126,
1148,
1160,
1106,
1029,
1121,
1108,
1067,
1008,
1060,
1086,
1078,
999,
1022,
1022,
1092,
1002,
1025,
1020,
1015,
1006,
984,
957,
960,
990,
987,
947,
953,
911,
926,
905,
888,
909,
881,
912,
864,
903,
853,
867,
904,
847,
862,
813,
906,
812,
843,
816,
815,
828,
819,
928,
1009,
1219,
1376,
1604,
1712,
1559,
1421,
1191,
964,
856,
793,
733,
701,
750,
723,
689,
712,
693,
645,
707,
706,
672,
676,
674,
699,
690,
684,
673,
636,
665,
640,
633,
659,
619,
638,
604,
623,
631,
721,
712,
740,
732,
673,
685,
660,
569,
574,
580,
557,
563,
563,
549,
551,
495,
522,
506,
520,
500,
528,
476,
510,
500,
507,
472,
506,
455,
445,
517,
455,
441,
454,
484,
471,
453,
482,
464,
446,
426,
440,
426,
421,
403,
443,
414,
388,
429,
402,
391,
426,
365,
383,
369,
361,
422,
346,
372,
334,
347,
340,
346,
356,
353,
362,
299,
336,
340,
353,
342,
339,
303,
292,
320,
356,
298,
289,
351,
380,
363,
408,
421,
426,
442,
438,
366,
314,
343,
289,
281,
271,
253,
256,
256,
244,
223,
246,
240,
239,
256,
244,
259,
300,
357,
431,
490,
600,
722,
684,
676,
556,
477,
353,
327,
302,
214,
206,
188,
200,
210,
188,
222,
178,
183,
181,
197,
180,
197,
191,
174,
156,
170,
166,
208,
171,
191,
199,
169,
178,
169,
154,
168,
124,
155,
168,
161,
154,
132,
139,
147,
136,
146,
143,
117,
109,
124,
127,
105,
120,
137,
171,
152,
172,
176,
169,
166,
156,
139,
129,
115,
111,
110,
110,
101,
91,
89,
111,
85,
101,
103,
95,
87,
99,
83,
76,
89,
71,
72,
78,
77,
70,
76,
80,
62,
67,
87,
55,
74,
60,
74,
67,
66,
60,
61,
54,
64,
49,
62,
65,
48,
55,
54,
49,
75,
51,
47,
55,
56,
47,
52,
42,
51,
48,
37,
42,
39,
46,
45,
42,
46,
55,
40,
30,
35,
27,
34,
42,
34,
29,
25,
35,
35,
28,
37,
33,
27,
33,
33,
17,
30,
20,
24,
21,
22,
21,
30,
22,
15,
25,
15,
13,
21,
21,
18,
15,
14,
17,
15,
14,
15,
11,
16,
15,
12,
12,
14,
12,
10,
13,
14,
9,
15,
12,
6,
8,
8,
9,
4,
9,
7,
5,
6,
7,
5,
6,
4,
4,
4,
4,
0,
3,
3,
0,
1,
2,
1,
1,
2,
1,
1,
0,
0,
0,
1,
1,
0,
2,
1,
1,
1,
1,
1,
0,
3,
1,
1,
0,
1,
1,
0,
0,
1,
0,
1,
2,
2,
0,
0,
1,
1,
0,
0,
0,
0,
1,
1,
1,
0,
0,
0,
1,
0,
1,
2,
0,
0,
0,
1,
0,
0,
0,
0,
0,
0,
0,
0,
1,
0,
1,
0,
0,
1,
1,
0,
0,
0,
0,
2,
0,
1,
0,
1,
0,
0,
0,
0,
0,
0,
0,
0,
0,
0,
0,
0,
1,
0,
0,
0,
3,
0,
1,
0,
0,
0,
0,
0,
1,
0,
0,
0,
0,
0,
0,
0,
0,
0,
0,
0,
0,
0,
0,
0,
1,
0,
0,
0,
1,
0,
0,
0,
0,
0,
0,
0,
1,
0,
0,
1,
0,
0,
0,
0,
0,
0,
0,
0,
0,
0,
0,
0,
0,
0,
0,
0,
0,
0,
0,
0,
0,
0,
0,
0,
0,
0,
0,
0,
0,
0,
0,
0,
0,
0,
0,
0,
0,
0,
0,
0,
0,
0,
0,
0,
0,
0,
0,
0,
0,
0,
0,
0,
0,
0,
1,
0,
0,
0,
1,
0,
0,
0,
1,
0,
0,
0,
0,
0,
0,
0,
0,
0,
0,
0,
0,
0,
0,
0,
0,
0,
0,
0,
0,
0,
0,
0,
0,
0,
0,
0,
1,
0,
0,
0,
0,
0,
0,
2,
0,
0,
0,
0,
0,
0,
0,
0,
0,
0,
0,
0,
1,
0,
0,
0,
0,
0,
0,
0,
1,
0,
0,
0,
0,
0,
0,
0,
0,
0,
0,
0,
0,
0,
0,
0,
0,
0,
0,
1,
0,
0,
0,
0,
0,
0,
0,
0,
0,
0,
0,
0,
0,
0,
0,
0,
0,
0,
0,
0,
0,
0,
0,
0,
0,
0,
0,
0,
0,
0,
0,
1,
0,
0,
0,
0,
0,
0,
0,
0,
0,
0,
0,
0,
0,
0,
0,
0,
0,
0,
0,
0,
0,
0,
0,
0,
0,
0,
0,
0,
0,
0,
0,
0,
0,
0,
0,
0,
0,
0,
0,
0,
0,
0,
0,
0,
0,
0,
0,
0,
0,
0,
0,
0,
0,
0,
0,
0,
0,
0,
0,
0,
0,
0,
0,
0,
0,
0,
0,
0,
0,
0,
0,
0,
0,
0,
0,
0,
0,
0,
0,
0,
0,
0,
0,
0,
0,
0,
0,
0,
0,
0,
0,
0,
0,
0,
0,
0,
0,
0,
0,
0,
0,
0,
0,
0,
0,
0,
0,
0,
0,
0,
0,
0,
0,
0,
0,
0,
0,
0,
0,
0,
0,
0,
0,
0,
1,
0,
0,
0,
0,
0,
0,
0,
0,
0,
0,
0,
0,
0,
0,
0,
0,
0,
0,
0,
0,
0,
0,
0,
0,
0,
0,
0,
0,
0,
0,
0,
0,
0,
0,
0,
0,
0,
0,
0,
0,
0,
0,
0,
0,
0,
0,
0,
0,
0,
0,
0,
0,
0,
0,
0,
0,
0,
0,
0,
0,
0,
0,
0,
0,
0,
0,
0,
0,
0,
0,
0,
0,
0,
0,
0,
0,
0,
0,
0,
0,
0,
0,
0,
0,
0,
0,
0,
0,
0,
0,
0,
0,
0,
0,
0,
0,
0,
0,
0,
0,
0,
0,
0,
0,
0,
0,
0,
0,
0,
0,
0,
0,
0,
0,
0,
0,
0,
0,
0,
0,
0,
0,
0,
0,
0,
0,
0,
0,
0,
0,
0,
0,
0,
0,
0,
0,
0,
0,
0,
0,
0,
0,
0,
0,
0,
0,
0,
0,
0,
0,
0,
0,
0,
0,
0,
0,
0,
0,
0,
0,
0,
0,
0,
0,
0,
0,
0,
0,
0,
0,
0,
0,
0,
0,
0,
0,
0,
0,
0,
0,
0,
0,
0,
0,
0,
0,
0,
0,
0,
0,
0,
0,
0,
0,
0,
0,
0,
0,
0,
0,
0,
0,
0,
0,
0,
0,
0,
0,
0,
0,
0,
0,
0,
0,
0,
0,
0,
0,
0,
0,
0,
0,
0,
0,
0,
0,
0,
0,
0,
0,
0,
0,
0,
0,
0,
0,
0,
0,
0,
0,
0,
0,
0,
0,
0,
0,
0,
0,
0,
0,
0,
0,
0,
0,
0,
0,
0,
0,
0,
0,
0,
0,
0,
0,
0,
0,
0,
0,
0,
0,
#ENDOFDATA   :