File: N132962/Quantification/20 keV/Glass Mount IIIB/GM IIIB K1070[2][4].msa
#FORMAT      : EMSA/MAS Spectral Data File
#VERSION     : 1.0
#TITLE       : GM IIIB K1070[2][all]
#DATE        : 10-SEP-2025
#TIME        : 16:52
#OWNER       : Unknown
#NPOINTS     : 4096
#NCOLUMNS    : 1
#XUNITS      : eV
#YUNITS      : counts
#DATATYPE    : Y
#XPERCHAN    : 9.99778
#OFFSET      : 1.69135
#BEAMKV      : 20
#SIGNALTYPE  : EDS
#ELEVANGLE   : 35
#AZIMANGLE   : 0
#LIVETIME    : 240.166
#REALTIME    : 260.002
#PROBECUR    : 1.22416
#TAUWIND     : 0
#TDEADLYR    : 0
#TACTLYR     : 0.045
#TALWIND     : 0.025
#CHOFFSET    : 0.0
#XLABEL      : Energy (eV)
#YLABEL      : Counts
#XPOSITION   : 1.32921
#YPOSITION   : 13.46774
#ZPOSITION   : 34.06144
#EDSDET      : SD
##SPECIMEN   : GM IIIB K1070[2][all]
##D2STDCMP   : K1070,(O:34.31),(Mg:7.54),(Si:18.7),(Ca:8.93),(Zn:10.04),(Ba:11.2),(Pb:9.28)
##DET_HASH   : 12273538-fd48-a23f-0a19-f1e6fa85caef
##CALIB_HASH : 6abaa72c-aa41-8738-0be9-f592914732f3
##WORKING    : 15.0 mm
##DET_NAME   : EDAX All
##DET_MODE   : MediumLE
#SPECTRUM    :
20,
30,
10,
19,
94,
411,
1115,
2792,
6632,
9173,
7352,
5250,
4846,
5046,
7118,
20665,
72965,
137879,
100278,
28475,
6986,
4402,
4132,
4354,
4681,
5111,
5589,
5624,
5836,
6682,
7028,
8069,
16196,
34200,
42577,
27673,
11706,
6419,
5950,
8173,
20223,
44734,
52744,
31098,
11902,
5946,
5293,
5319,
5610,
5931,
6119,
6232,
6298,
6385,
7617,
15346,
52244,
129210,
174471,
124276,
52308,
20544,
11131,
6941,
5173,
4925,
4859,
4576,
4455,
4418,
4584,
4623,
4889,
5244,
5476,
6859,
10379,
17412,
23863,
22838,
18869,
17581,
15749,
10833,
6519,
4929,
4898,
5049,
5348,
5453,
4996,
4605,
4419,
4224,
4243,
4151,
4240,
4295,
4306,
4265,
4412,
4432,
4520,
4533,
4479,
4331,
4169,
3935,
3947,
3844,
3977,
3841,
3782,
3849,
3935,
3894,
4193,
4291,
4609,
5922,
10879,
23914,
41983,
52298,
44527,
26031,
12005,
5684,
3970,
3824,
4481,
5485,
7457,
9178,
9602,
8061,
5812,
4145,
3557,
3332,
3324,
3275,
3250,
3454,
3611,
4531,
7258,
12146,
18080,
20169,
17030,
10895,
6292,
3879,
3151,
3146,
3164,
3556,
4662,
6864,
9587,
10979,
10460,
8143,
6209,
4798,
4046,
3387,
3309,
3496,
4190,
5051,
5443,
5064,
4001,
3196,
2767,
2593,
2557,
2647,
2553,
2800,
2995,
3345,
3506,
3538,
3144,
2801,
2556,
2469,
2419,
2476,
2640,
2724,
2694,
2602,
2357,
2351,
2254,
2226,
2207,
2193,
2143,
2137,
2057,
2078,
2089,
2090,
2083,
2013,
2099,
2070,
2210,
2169,
2244,
2103,
2035,
1950,
1958,
1935,
1875,
1930,
1902,
1840,
1862,
1865,
1855,
1915,
1861,
1778,
1774,
1848,
1761,
1733,
1758,
1728,
1828,
1725,
1733,
1732,
1684,
1700,
1679,
1671,
1605,
1646,
1693,
1700,
1664,
1715,
1780,
1652,
1640,
1581,
1611,
1509,
1557,
1460,
1528,
1423,
1463,
1445,
1449,
1484,
1453,
1367,
1486,
1438,
1393,
1432,
1449,
1406,
1350,
1394,
1418,
1407,
1351,
1401,
1325,
1381,
1386,
1536,
1731,
2618,
4101,
6336,
8919,
10957,
11050,
9359,
6651,
4224,
2439,
1697,
1324,
1242,
1243,
1232,
1236,
1227,
1150,
1187,
1205,
1135,
1274,
1309,
1232,
1173,
1273,
1192,
1157,
1113,
1181,
1130,
1160,
1491,
1719,
2023,
2259,
2320,
2158,
1863,
1458,
1256,
1131,
1042,
972,
1003,
965,
983,
972,
939,
916,
912,
924,
916,
903,
954,
849,
882,
855,
897,
882,
904,
955,
1006,
1064,
1240,
1506,
1742,
1920,
2183,
2061,
1870,
1518,
1234,
990,
942,
801,
763,
779,
776,
734,
708,
740,
760,
755,
736,
792,
710,
730,
648,
687,
737,
679,
723,
713,
662,
700,
684,
676,
646,
700,
678,
659,
578,
596,
608,
576,
617,
594,
591,
600,
583,
605,
582,
557,
555,
609,
546,
537,
585,
548,
577,
549,
580,
548,
576,
535,
553,
528,
556,
539,
513,
535,
574,
626,
703,
825,
923,
942,
937,
865,
787,
660,
550,
529,
472,
442,
442,
417,
449,
458,
450,
421,
398,
421,
446,
399,
423,
394,
415,
398,
382,
399,
378,
380,
401,
351,
352,
331,
362,
310,
323,
324,
349,
355,
344,
336,
338,
303,
294,
311,
292,
339,
302,
284,
324,
309,
274,
287,
276,
278,
274,
264,
277,
271,
259,
252,
258,
283,
270,
254,
240,
236,
220,
287,
222,
270,
258,
252,
265,
278,
305,
241,
236,
223,
224,
244,
200,
220,
191,
200,
215,
207,
201,
192,
204,
195,
192,
193,
169,
197,
169,
169,
186,
173,
190,
156,
166,
161,
162,
145,
140,
160,
153,
135,
152,
171,
144,
147,
162,
140,
129,
144,
137,
105,
112,
140,
116,
114,
118,
112,
113,
113,
136,
112,
112,
107,
112,
117,
102,
116,
113,
96,
93,
105,
108,
107,
109,
95,
85,
91,
105,
92,
90,
75,
78,
91,
85,
86,
98,
79,
78,
87,
73,
71,
76,
74,
76,
70,
61,
73,
65,
67,
59,
56,
66,
48,
63,
55,
63,
54,
54,
59,
44,
51,
37,
61,
51,
43,
63,
46,
35,
49,
58,
45,
32,
47,
33,
41,
48,
39,
38,
39,
40,
23,
32,
34,
25,
34,
22,
33,
36,
24,
37,
21,
32,
23,
28,
21,
15,
14,
25,
19,
14,
14,
18,
18,
18,
17,
10,
13,
20,
8,
10,
11,
9,
11,
10,
5,
10,
5,
10,
7,
7,
7,
9,
6,
5,
5,
4,
3,
1,
2,
1,
1,
1,
2,
2,
0,
1,
2,
1,
0,
0,
1,
1,
1,
0,
0,
1,
1,
1,
1,
0,
1,
1,
0,
0,
3,
2,
3,
2,
0,
0,
0,
0,
1,
0,
1,
2,
0,
1,
1,
0,
0,
0,
0,
0,
0,
0,
1,
0,
0,
0,
1,
1,
0,
0,
0,
0,
0,
0,
0,
0,
0,
1,
0,
0,
0,
0,
0,
0,
0,
1,
1,
0,
1,
0,
0,
0,
1,
1,
0,
1,
0,
0,
1,
1,
0,
0,
1,
0,
1,
0,
0,
0,
0,
2,
0,
0,
1,
0,
0,
0,
0,
0,
0,
0,
0,
0,
1,
0,
0,
1,
0,
2,
0,
0,
0,
0,
0,
0,
0,
0,
0,
0,
0,
0,
0,
0,
1,
0,
0,
0,
1,
0,
0,
0,
0,
0,
0,
0,
0,
0,
0,
0,
0,
0,
0,
0,
0,
1,
1,
0,
0,
0,
0,
0,
0,
0,
1,
1,
1,
0,
0,
0,
0,
0,
0,
0,
0,
0,
0,
0,
0,
0,
0,
0,
0,
1,
0,
0,
0,
0,
1,
0,
0,
0,
0,
0,
0,
0,
0,
0,
0,
0,
0,
0,
0,
2,
0,
0,
0,
0,
0,
0,
0,
0,
0,
0,
1,
1,
0,
0,
0,
0,
0,
0,
0,
0,
0,
0,
0,
0,
0,
0,
0,
0,
0,
0,
0,
0,
0,
0,
0,
0,
0,
0,
0,
0,
0,
0,
0,
0,
0,
0,
1,
0,
1,
1,
0,
0,
0,
0,
0,
0,
1,
0,
0,
0,
0,
0,
0,
0,
0,
0,
0,
0,
0,
0,
0,
0,
0,
0,
0,
0,
0,
0,
0,
0,
0,
0,
0,
0,
0,
0,
0,
0,
0,
0,
0,
0,
0,
0,
0,
0,
0,
0,
0,
0,
0,
0,
0,
0,
0,
0,
0,
0,
0,
0,
0,
0,
0,
0,
0,
1,
0,
0,
0,
0,
0,
0,
0,
0,
0,
0,
0,
0,
0,
0,
0,
0,
0,
0,
1,
0,
0,
0,
0,
0,
0,
0,
0,
0,
0,
0,
0,
0,
0,
0,
0,
0,
0,
0,
0,
0,
0,
0,
0,
0,
0,
0,
0,
0,
1,
0,
0,
0,
0,
0,
0,
0,
0,
0,
0,
0,
0,
0,
0,
0,
0,
0,
0,
0,
0,
0,
0,
0,
0,
0,
0,
0,
0,
0,
0,
0,
0,
0,
0,
0,
0,
0,
0,
0,
0,
0,
0,
0,
0,
0,
0,
0,
0,
0,
0,
0,
0,
0,
0,
0,
0,
0,
0,
0,
0,
0,
0,
0,
0,
0,
0,
0,
0,
0,
0,
0,
0,
0,
0,
0,
0,
0,
0,
0,
0,
0,
0,
0,
0,
0,
0,
0,
0,
0,
0,
0,
0,
0,
0,
0,
0,
0,
0,
0,
0,
0,
0,
0,
0,
0,
0,
0,
0,
0,
0,
0,
0,
0,
0,
0,
0,
0,
0,
0,
0,
0,
0,
0,
0,
0,
0,
0,
0,
0,
0,
0,
0,
0,
0,
0,
0,
0,
0,
0,
0,
0,
0,
0,
0,
0,
0,
0,
0,
0,
0,
0,
0,
0,
0,
0,
0,
0,
0,
0,
0,
0,
0,
0,
0,
0,
0,
0,
0,
0,
0,
0,
0,
0,
0,
0,
0,
0,
0,
0,
0,
0,
0,
0,
0,
0,
0,
0,
0,
0,
0,
0,
0,
0,
0,
0,
0,
0,
0,
0,
0,
0,
0,
0,
0,
0,
0,
0,
0,
0,
0,
0,
0,
0,
0,
0,
0,
0,
0,
0,
0,
0,
0,
0,
0,
0,
0,
0,
0,
0,
0,
0,
0,
0,
0,
0,
0,
0,
0,
0,
0,
0,
0,
0,
0,
0,
0,
0,
0,
0,
0,
0,
0,
0,
0,
0,
0,
0,
0,
0,
0,
0,
0,
0,
0,
0,
0,
0,
0,
0,
0,
0,
0,
0,
0,
0,
0,
0,
0,
0,
0,
0,
0,
0,
0,
0,
0,
0,
0,
0,
0,
0,
0,
0,
0,
0,
0,
0,
0,
0,
0,
0,
0,
0,
0,
0,
0,
0,
0,
0,
0,
0,
0,
0,
0,
0,
0,
0,
0,
0,
0,
0,
0,
0,
0,
0,
0,
0,
0,
0,
0,
0,
0,
0,
0,
0,
0,
0,
0,
0,
#ENDOFDATA   :