File: N132962/Quantification/20 keV/Glass Mount IIIB/GM IIIB K412[0][4].msa
#FORMAT      : EMSA/MAS Spectral Data File
#VERSION     : 1.0
#TITLE       : GM IIIB K412[0][all]
#DATE        : 10-SEP-2025
#TIME        : 14:16
#OWNER       : Unknown
#NPOINTS     : 4096
#NCOLUMNS    : 1
#XUNITS      : eV
#YUNITS      : counts
#DATATYPE    : Y
#XPERCHAN    : 9.99778
#OFFSET      : 1.69135
#BEAMKV      : 20
#SIGNALTYPE  : EDS
#ELEVANGLE   : 35
#AZIMANGLE   : 0
#LIVETIME    : 240.18
#REALTIME    : 258.474
#PROBECUR    : 1.22574
#TAUWIND     : 0
#TDEADLYR    : 0
#TACTLYR     : 0.045
#TALWIND     : 0.025
#CHOFFSET    : 0.0
#XLABEL      : Energy (eV)
#YLABEL      : Counts
#XPOSITION   : 3.15807
#YPOSITION   : 4.78829
#ZPOSITION   : 34.06144
#EDSDET      : SD
##SPECIMEN   : GM IIIB K412[0][all]
##D2STDCMP   : K412,(O:42.7576),(Mg:11.6568),(Al:4.9062),(Si:21.1983),(Ca:10.8991),(Fe:7.742)
##DET_HASH   : 12273538-fd48-a23f-0a19-f1e6fa85caef
##CALIB_HASH : 6abaa72c-aa41-8738-0be9-f592914732f3
##WORKING    : 15.0 mm
##DET_NAME   : EDAX All
##DET_MODE   : MediumLE
#SPECTRUM    :
25,
20,
8,
17,
90,
334,
859,
2177,
5214,
7609,
5981,
4348,
4101,
4415,
6849,
23525,
87377,
167501,
121231,
32594,
5830,
4112,
6280,
9527,
8753,
4858,
3126,
3033,
3061,
3149,
3377,
3437,
3672,
4191,
4647,
5024,
4898,
4904,
5686,
11032,
35617,
84519,
100772,
58095,
18661,
6641,
5488,
8854,
22590,
42823,
43273,
24400,
10345,
6326,
6636,
15612,
57868,
147489,
200453,
140553,
57510,
20127,
9586,
5442,
4059,
3747,
3539,
3265,
3185,
3133,
3136,
3141,
3195,
3298,
3554,
3894,
4316,
4124,
3821,
3427,
3251,
3288,
3209,
3199,
3195,
3140,
3196,
3131,
3111,
3106,
3108,
3203,
3144,
3085,
3034,
3017,
3084,
2993,
3018,
3215,
3150,
3117,
3016,
2854,
2969,
2914,
2861,
2876,
2969,
2950,
2908,
2906,
2793,
2751,
2793,
2895,
3105,
3159,
3606,
5246,
11327,
26374,
48879,
60755,
51453,
29483,
12354,
4883,
2955,
2706,
3013,
4184,
6220,
8596,
9409,
7816,
5197,
3229,
2335,
2300,
2138,
2135,
2039,
2072,
2017,
2038,
1907,
2050,
1939,
2010,
2044,
2155,
2064,
1954,
1948,
1973,
1949,
1872,
1839,
1839,
1848,
1770,
1859,
1792,
1868,
1759,
1842,
1772,
1708,
1675,
1775,
1722,
1709,
1664,
1664,
1632,
1640,
1633,
1590,
1697,
1692,
1739,
1693,
1612,
1500,
1575,
1535,
1563,
1449,
1477,
1398,
1418,
1462,
1459,
1517,
1518,
1584,
1547,
1526,
1410,
1391,
1364,
1360,
1284,
1383,
1356,
1408,
1409,
1839,
2745,
5263,
9750,
14667,
17844,
16548,
12285,
7280,
3734,
2056,
1437,
1240,
1270,
1260,
1142,
1143,
1193,
1128,
1113,
1194,
1257,
1275,
1458,
1803,
2339,
2995,
3172,
3025,
2376,
1721,
1342,
1170,
1065,
1022,
964,
983,
1007,
988,
1009,
1014,
1002,
992,
963,
974,
883,
946,
959,
929,
909,
913,
862,
917,
903,
874,
829,
898,
854,
830,
900,
822,
782,
849,
844,
784,
766,
827,
787,
804,
775,
774,
771,
767,
768,
748,
735,
742,
748,
745,
747,
660,
751,
710,
711,
659,
695,
688,
710,
643,
658,
639,
681,
635,
600,
664,
623,
668,
625,
656,
630,
653,
591,
613,
599,
668,
587,
582,
591,
619,
588,
589,
589,
559,
611,
600,
577,
509,
575,
576,
517,
535,
522,
503,
561,
580,
556,
561,
514,
555,
492,
495,
541,
491,
490,
497,
477,
488,
513,
456,
452,
514,
444,
431,
472,
444,
461,
452,
408,
460,
419,
464,
430,
429,
426,
393,
377,
390,
359,
369,
372,
365,
415,
401,
389,
359,
359,
371,
343,
350,
377,
348,
332,
332,
373,
343,
358,
343,
314,
346,
305,
362,
318,
337,
335,
287,
308,
323,
307,
308,
296,
312,
300,
281,
264,
337,
300,
290,
278,
314,
275,
249,
275,
261,
280,
258,
256,
235,
255,
257,
259,
235,
253,
245,
223,
256,
232,
242,
236,
247,
241,
234,
245,
212,
215,
203,
216,
225,
210,
185,
190,
208,
204,
200,
186,
206,
174,
200,
181,
185,
181,
205,
185,
187,
172,
159,
182,
199,
174,
138,
167,
175,
159,
145,
154,
158,
142,
154,
168,
163,
163,
157,
137,
136,
136,
153,
141,
147,
142,
171,
122,
117,
145,
151,
124,
141,
126,
117,
127,
102,
115,
129,
137,
107,
131,
115,
100,
82,
112,
120,
107,
95,
93,
101,
97,
95,
91,
82,
88,
109,
109,
96,
90,
103,
96,
101,
89,
69,
77,
86,
93,
75,
73,
71,
66,
84,
83,
72,
79,
85,
69,
63,
78,
51,
58,
58,
67,
59,
69,
57,
79,
57,
60,
59,
73,
47,
54,
45,
52,
57,
65,
54,
55,
62,
55,
47,
54,
54,
46,
52,
50,
46,
38,
32,
38,
34,
40,
44,
42,
35,
40,
40,
40,
39,
41,
41,
43,
33,
38,
33,
45,
34,
37,
34,
32,
29,
30,
37,
24,
31,
26,
22,
24,
22,
30,
23,
25,
25,
20,
19,
23,
25,
25,
22,
26,
18,
14,
24,
17,
19,
25,
25,
19,
17,
12,
22,
20,
19,
14,
18,
7,
11,
10,
12,
9,
11,
13,
9,
16,
11,
13,
7,
7,
9,
6,
10,
9,
9,
11,
5,
5,
4,
4,
4,
5,
6,
9,
7,
2,
3,
1,
6,
3,
2,
3,
4,
3,
4,
2,
3,
3,
1,
0,
1,
2,
0,
0,
0,
0,
0,
1,
1,
0,
0,
0,
0,
0,
1,
0,
0,
1,
1,
0,
0,
0,
1,
0,
0,
0,
0,
0,
0,
0,
1,
2,
0,
0,
0,
0,
0,
0,
0,
0,
0,
0,
0,
0,
0,
0,
0,
0,
0,
0,
1,
0,
0,
0,
0,
0,
0,
0,
0,
0,
0,
0,
0,
0,
0,
0,
0,
1,
0,
0,
0,
0,
0,
0,
0,
0,
0,
0,
0,
0,
0,
0,
0,
0,
0,
0,
1,
0,
0,
0,
0,
0,
0,
0,
0,
0,
0,
0,
1,
0,
0,
0,
1,
0,
0,
1,
0,
0,
0,
0,
0,
0,
1,
0,
0,
0,
1,
0,
0,
0,
0,
0,
0,
0,
0,
0,
0,
0,
0,
0,
1,
0,
0,
0,
0,
0,
0,
0,
0,
0,
0,
0,
0,
0,
0,
0,
0,
0,
0,
0,
0,
0,
0,
0,
0,
0,
0,
0,
0,
0,
0,
0,
0,
0,
0,
0,
0,
0,
0,
0,
0,
0,
0,
0,
0,
0,
0,
0,
0,
0,
0,
1,
0,
0,
0,
0,
0,
0,
0,
0,
0,
0,
0,
0,
0,
0,
0,
0,
0,
0,
0,
0,
0,
0,
0,
0,
0,
0,
0,
0,
0,
0,
0,
0,
0,
0,
0,
0,
0,
0,
0,
0,
0,
0,
0,
0,
0,
0,
0,
0,
0,
0,
0,
0,
0,
0,
0,
0,
0,
0,
0,
0,
0,
0,
0,
0,
0,
0,
0,
0,
0,
0,
0,
0,
0,
0,
0,
0,
0,
0,
0,
0,
0,
0,
0,
0,
0,
0,
0,
0,
0,
0,
0,
0,
0,
0,
0,
0,
0,
0,
0,
0,
0,
0,
0,
0,
0,
0,
0,
0,
0,
0,
0,
0,
0,
0,
0,
0,
0,
0,
0,
0,
0,
0,
0,
0,
0,
0,
0,
0,
0,
0,
0,
0,
0,
0,
0,
0,
0,
0,
0,
0,
0,
0,
0,
0,
0,
0,
0,
0,
0,
0,
0,
0,
0,
0,
0,
0,
0,
0,
0,
0,
0,
0,
0,
0,
0,
0,
0,
0,
0,
0,
0,
0,
0,
0,
0,
0,
0,
0,
0,
0,
0,
0,
0,
0,
0,
0,
0,
0,
0,
0,
0,
0,
0,
0,
0,
0,
0,
0,
0,
0,
0,
0,
0,
0,
0,
0,
0,
0,
0,
0,
0,
0,
0,
0,
0,
0,
0,
0,
0,
0,
0,
0,
0,
0,
0,
0,
0,
0,
0,
0,
0,
0,
0,
0,
0,
0,
0,
0,
0,
0,
0,
0,
0,
0,
0,
0,
0,
0,
0,
0,
0,
0,
0,
0,
0,
0,
0,
0,
0,
0,
0,
0,
0,
0,
0,
0,
0,
0,
0,
0,
0,
0,
0,
0,
0,
0,
0,
0,
0,
0,
0,
0,
0,
0,
0,
0,
0,
0,
0,
0,
0,
0,
0,
0,
0,
0,
0,
0,
0,
0,
0,
0,
0,
0,
0,
0,
0,
0,
0,
0,
0,
0,
0,
0,
0,
0,
0,
0,
0,
0,
0,
0,
0,
0,
0,
0,
0,
0,
0,
0,
0,
0,
0,
0,
0,
0,
0,
0,
0,
0,
0,
0,
0,
0,
0,
0,
0,
0,
0,
0,
0,
0,
0,
0,
0,
0,
0,
0,
0,
0,
0,
0,
0,
0,
0,
0,
0,
0,
0,
0,
0,
0,
0,
0,
0,
0,
0,
0,
0,
0,
0,
0,
0,
0,
0,
0,
0,
0,
0,
0,
0,
0,
0,
0,
0,
0,
0,
0,
0,
0,
0,
0,
0,
0,
0,
0,
0,
0,
0,
0,
0,
0,
0,
0,
0,
0,
0,
0,
0,
0,
0,
0,
0,
0,
0,
0,
0,
0,
0,
0,
0,
0,
0,
0,
0,
0,
0,
0,
0,
0,
0,
0,
0,
0,
0,
0,
0,
0,
0,
0,
0,
0,
0,
0,
0,
0,
0,
0,
0,
0,
0,
0,
0,
0,
0,
0,
0,
0,
0,
0,
0,
0,
0,
0,
0,
0,
0,
0,
0,
0,
0,
0,
0,
0,
0,
0,
0,
0,
0,
0,
0,
0,
0,
0,
0,
0,
0,
0,
0,
0,
0,
0,
0,
0,
0,
0,
0,
0,
0,
0,
0,
0,
0,
0,
0,
0,
0,
0,
0,
0,
0,
0,
0,
0,
#ENDOFDATA   :