File: N132962/Quantification/20 keV/Glass Mount IIIB/GM IIIB K523[2][4].msa
#FORMAT      : EMSA/MAS Spectral Data File
#VERSION     : 1.0
#TITLE       : GM IIIB K523[2][all]
#DATE        : 11-SEP-2025
#TIME        : 09:15
#OWNER       : Unknown
#NPOINTS     : 4096
#NCOLUMNS    : 1
#XUNITS      : eV
#YUNITS      : counts
#DATATYPE    : Y
#XPERCHAN    : 9.99778
#OFFSET      : 1.69135
#BEAMKV      : 20
#SIGNALTYPE  : EDS
#ELEVANGLE   : 35
#AZIMANGLE   : 0
#LIVETIME    : 240.203
#REALTIME    : 267.2454
#PROBECUR    : 1.22303
#TAUWIND     : 0
#TDEADLYR    : 0
#TACTLYR     : 0.045
#TALWIND     : 0.025
#CHOFFSET    : 0.0
#XLABEL      : Energy (eV)
#YLABEL      : Counts
#XPOSITION   : 1.5912
#YPOSITION   : 9.71189
#ZPOSITION   : 34.00161
#EDSDET      : SD
##SPECIMEN   : GM IIIB K523[2][all]
##D2STDCMP   : K523,(O:20.71),(Mg:0.1),(Si:12.9),(P:0.25),(Ti:0.19),(Cr:0.21),(Ni:0.24),(Ge:0.29),(Zr:0.36),(Ba:0.55),(Eu:0.6),(Pb:63.41),(Th:0.1),(U:0.11)
##DET_HASH   : 12273538-fd48-a23f-0a19-f1e6fa85caef
##CALIB_HASH : 6abaa72c-aa41-8738-0be9-f592914732f3
##WORKING    : 15.0 mm
##DET_NAME   : EDAX All
##DET_MODE   : MediumLE
#SPECTRUM    :
20,
28,
6,
36,
214,
850,
2363,
5289,
10416,
12860,
8763,
6395,
6328,
6590,
7532,
14751,
42534,
75187,
55820,
19549,
9514,
7870,
7596,
8055,
7563,
6624,
6556,
7083,
7818,
7981,
7341,
7455,
7621,
7915,
7791,
8276,
8598,
9098,
9586,
10405,
10756,
10659,
10627,
10110,
9871,
9908,
10187,
10202,
10714,
11341,
11401,
11269,
11354,
11154,
11995,
19054,
50711,
115795,
154680,
114812,
58339,
32725,
21838,
13991,
10140,
9837,
10490,
11636,
11596,
10694,
10356,
11183,
12108,
13020,
15583,
24382,
54208,
115304,
169652,
163390,
131626,
119806,
101801,
60414,
25539,
11170,
8867,
10591,
12573,
12373,
9501,
7104,
5906,
5655,
5662,
5891,
5967,
6112,
6323,
6399,
6900,
7185,
7598,
7754,
7640,
7101,
6484,
5981,
5625,
5569,
5319,
5327,
5528,
5568,
5654,
5390,
5488,
5718,
5610,
5533,
5502,
5250,
5302,
5529,
5366,
5403,
5341,
5247,
5237,
5201,
5288,
5167,
5204,
5233,
5252,
5238,
5639,
5437,
5391,
5321,
5277,
5256,
5143,
5174,
5152,
5088,
5446,
5714,
6280,
6909,
7029,
6728,
6063,
5483,
5200,
5049,
5104,
5090,
5336,
5251,
5435,
5481,
5413,
5376,
5366,
5296,
5082,
4871,
4879,
4731,
4866,
4921,
4925,
4812,
4777,
4692,
4687,
4824,
4824,
5126,
5238,
5122,
4975,
4812,
4643,
4525,
4611,
4572,
4405,
4302,
4474,
4541,
4538,
4844,
5062,
4976,
4818,
4662,
4453,
4295,
4306,
4178,
4177,
4029,
4128,
4169,
4073,
4139,
4192,
3996,
4169,
4340,
4401,
4732,
4648,
4510,
4384,
4213,
4068,
3859,
3880,
3867,
3917,
3815,
3760,
3755,
3758,
3772,
3860,
3684,
3590,
3690,
3616,
3640,
3638,
3734,
3553,
3524,
3424,
3373,
3515,
3422,
3477,
3412,
3331,
3557,
3612,
3792,
3898,
4131,
3889,
3768,
3537,
3347,
3232,
3219,
3170,
3177,
3182,
3117,
3148,
3178,
3054,
3114,
3097,
3073,
2952,
3030,
2988,
3076,
2901,
2906,
2906,
3019,
2889,
3045,
2900,
2899,
2825,
2890,
2789,
2768,
2748,
2797,
2732,
2710,
2711,
2759,
2746,
2707,
2615,
2659,
2603,
2659,
2622,
2462,
2603,
2627,
2456,
2509,
2517,
2502,
2607,
2763,
2864,
3070,
3059,
3022,
2852,
2632,
2516,
2475,
2373,
2315,
2349,
2282,
2311,
2404,
2242,
2275,
2288,
2241,
2276,
2308,
2228,
2245,
2213,
2441,
2347,
2417,
2338,
2306,
2210,
2107,
2068,
2058,
2040,
2102,
2040,
2066,
2071,
2041,
2134,
2250,
2414,
2792,
3642,
4958,
7049,
9549,
11975,
13113,
12788,
10873,
8218,
5585,
3573,
2644,
2188,
1929,
1825,
1864,
1771,
1816,
1792,
1730,
1837,
1737,
1688,
1693,
1716,
1713,
1603,
1632,
1636,
1595,
1642,
1540,
1583,
1638,
1596,
1589,
1564,
1566,
1471,
1478,
1411,
1429,
1507,
1404,
1449,
1460,
1436,
1412,
1380,
1411,
1332,
1324,
1404,
1347,
1389,
1311,
1487,
1414,
1438,
1477,
1442,
1384,
1482,
1463,
1493,
1506,
1380,
1411,
1502,
1838,
2399,
3122,
4113,
4934,
5189,
4999,
4323,
3454,
2702,
2058,
1663,
1390,
1295,
1281,
1327,
1211,
1256,
1257,
1254,
1130,
1110,
1046,
994,
939,
901,
908,
896,
901,
918,
916,
930,
848,
880,
849,
835,
849,
849,
784,
841,
782,
774,
788,
823,
770,
817,
774,
771,
769,
750,
759,
778,
759,
691,
672,
715,
667,
709,
669,
686,
700,
690,
706,
674,
695,
661,
654,
665,
663,
674,
655,
656,
698,
741,
828,
853,
928,
855,
947,
785,
763,
655,
614,
536,
551,
576,
575,
597,
601,
629,
579,
550,
540,
519,
517,
469,
471,
446,
468,
457,
469,
434,
455,
411,
414,
422,
460,
435,
415,
420,
432,
383,
405,
418,
359,
385,
401,
376,
353,
360,
352,
351,
328,
347,
298,
320,
329,
323,
313,
335,
305,
324,
291,
344,
290,
327,
258,
267,
296,
276,
263,
283,
263,
243,
252,
304,
257,
264,
264,
240,
228,
259,
261,
252,
263,
222,
235,
224,
239,
207,
224,
184,
247,
199,
204,
197,
225,
220,
208,
175,
195,
188,
174,
174,
174,
164,
156,
185,
173,
164,
150,
153,
146,
131,
143,
157,
122,
135,
126,
108,
128,
112,
121,
110,
111,
110,
117,
99,
108,
104,
97,
113,
100,
86,
110,
72,
79,
76,
80,
80,
83,
83,
83,
60,
71,
79,
74,
46,
69,
63,
53,
60,
64,
52,
57,
60,
44,
50,
44,
46,
38,
32,
40,
45,
41,
18,
31,
29,
34,
27,
27,
29,
24,
14,
28,
13,
15,
13,
14,
8,
7,
7,
8,
7,
4,
5,
8,
2,
3,
7,
1,
5,
4,
3,
5,
4,
7,
1,
3,
3,
2,
3,
5,
4,
3,
5,
3,
3,
5,
4,
5,
4,
2,
3,
2,
3,
2,
8,
3,
2,
5,
7,
2,
5,
1,
2,
4,
1,
3,
4,
1,
1,
3,
4,
4,
6,
3,
4,
4,
0,
5,
1,
2,
0,
0,
0,
1,
3,
1,
2,
2,
0,
2,
2,
1,
3,
0,
5,
2,
1,
2,
2,
2,
2,
3,
0,
0,
3,
0,
1,
0,
0,
1,
4,
1,
3,
2,
0,
1,
1,
2,
3,
0,
4,
0,
1,
1,
1,
3,
0,
1,
2,
2,
1,
1,
2,
3,
1,
0,
2,
1,
3,
1,
0,
1,
0,
2,
0,
2,
1,
0,
0,
1,
0,
2,
3,
1,
2,
0,
1,
0,
2,
1,
0,
2,
0,
2,
2,
1,
0,
1,
0,
0,
0,
0,
1,
1,
3,
1,
3,
2,
1,
2,
0,
3,
2,
2,
3,
2,
0,
2,
0,
0,
2,
2,
0,
2,
2,
0,
0,
1,
2,
2,
3,
0,
1,
2,
0,
1,
0,
2,
0,
1,
0,
0,
0,
1,
0,
0,
0,
0,
2,
1,
0,
0,
1,
1,
0,
0,
4,
0,
1,
0,
0,
0,
0,
0,
0,
1,
1,
1,
0,
0,
0,
1,
1,
0,
2,
0,
1,
2,
0,
0,
1,
1,
1,
0,
1,
1,
0,
0,
0,
0,
0,
1,
1,
0,
2,
0,
1,
1,
1,
0,
1,
2,
0,
0,
1,
1,
2,
0,
1,
0,
0,
1,
1,
0,
2,
0,
0,
0,
0,
0,
0,
0,
2,
1,
0,
0,
0,
0,
1,
0,
0,
0,
0,
0,
2,
0,
0,
0,
0,
0,
1,
1,
1,
0,
0,
0,
0,
0,
0,
0,
0,
0,
1,
0,
0,
0,
0,
0,
0,
0,
0,
0,
1,
0,
1,
0,
0,
0,
0,
0,
0,
0,
0,
0,
1,
0,
0,
0,
0,
0,
0,
0,
0,
1,
0,
0,
0,
0,
0,
0,
1,
0,
0,
0,
0,
0,
0,
0,
0,
0,
0,
0,
0,
0,
0,
0,
0,
0,
3,
0,
0,
0,
0,
0,
1,
1,
0,
0,
0,
0,
0,
0,
0,
0,
0,
0,
0,
0,
0,
0,
0,
0,
0,
0,
0,
0,
0,
0,
0,
0,
1,
0,
0,
0,
0,
0,
0,
0,
0,
0,
1,
0,
0,
0,
0,
0,
0,
0,
0,
0,
0,
0,
0,
1,
0,
0,
0,
0,
0,
0,
0,
0,
1,
0,
0,
0,
0,
0,
0,
1,
0,
0,
0,
0,
0,
0,
0,
1,
0,
0,
0,
0,
0,
0,
0,
0,
0,
0,
0,
0,
0,
0,
0,
0,
0,
0,
0,
0,
0,
0,
0,
0,
0,
0,
0,
0,
0,
0,
0,
0,
0,
0,
0,
0,
0,
0,
0,
0,
0,
0,
0,
0,
0,
0,
0,
0,
0,
0,
0,
0,
0,
0,
0,
0,
0,
0,
0,
0,
0,
0,
0,
0,
0,
0,
0,
0,
0,
0,
0,
0,
0,
0,
0,
0,
0,
0,
0,
0,
0,
0,
0,
0,
0,
0,
0,
0,
0,
0,
0,
0,
0,
0,
0,
0,
0,
0,
0,
0,
0,
0,
0,
0,
0,
0,
0,
0,
0,
0,
0,
0,
0,
0,
0,
0,
0,
0,
0,
0,
0,
0,
0,
0,
0,
0,
0,
0,
0,
0,
0,
0,
0,
0,
0,
0,
0,
0,
0,
0,
0,
0,
0,
0,
0,
0,
0,
0,
0,
0,
0,
0,
0,
0,
0,
0,
0,
0,
0,
0,
0,
0,
0,
0,
0,
0,
0,
0,
0,
0,
0,
0,
0,
0,
0,
0,
0,
0,
0,
0,
0,
0,
0,
0,
0,
0,
0,
0,
0,
0,
0,
0,
0,
0,
0,
0,
0,
0,
0,
0,
0,
0,
0,
0,
0,
0,
0,
0,
0,
0,
0,
0,
0,
0,
0,
0,
0,
0,
0,
0,
0,
0,
0,
0,
0,
0,
0,
0,
0,
0,
0,
0,
0,
0,
0,
0,
0,
0,
0,
0,
0,
0,
0,
0,
0,
0,
0,
0,
0,
0,
0,
0,
0,
0,
0,
0,
0,
0,
0,
0,
#ENDOFDATA   :