File: N132962/Quantification/20 keV/Glass Mount IIIB/GM IIIB K253[1][4].msa
#FORMAT      : EMSA/MAS Spectral Data File
#VERSION     : 1.0
#TITLE       : GM IIIB K253[1][all]
#DATE        : 10-SEP-2025
#TIME        : 19:06
#OWNER       : Unknown
#NPOINTS     : 4096
#NCOLUMNS    : 1
#XUNITS      : eV
#YUNITS      : counts
#DATATYPE    : Y
#XPERCHAN    : 9.99778
#OFFSET      : 1.69135
#BEAMKV      : 20
#SIGNALTYPE  : EDS
#ELEVANGLE   : 35
#AZIMANGLE   : 0
#LIVETIME    : 240.2238
#REALTIME    : 261.602
#PROBECUR    : 1.2221
#TAUWIND     : 0
#TDEADLYR    : 0
#TACTLYR     : 0.045
#TALWIND     : 0.025
#CHOFFSET    : 0.0
#XLABEL      : Energy (eV)
#YLABEL      : Counts
#XPOSITION   : 3.16249
#YPOSITION   : 0.66521
#ZPOSITION   : 34.00159
#EDSDET      : SD
##SPECIMEN   : GM IIIB K253[1][all]
##D2STDCMP   : K253,(O:31.64),(Si:18.7),(Mn:6.32),(Co:1.97),(Cu:2.0),(Zn:8.03),(Ba:31.35)
##DET_HASH   : 12273538-fd48-a23f-0a19-f1e6fa85caef
##CALIB_HASH : 6abaa72c-aa41-8738-0be9-f592914732f3
##WORKING    : 15.0 mm
##DET_NAME   : EDAX All
##DET_MODE   : MediumLE
#SPECTRUM    :
16,
18,
11,
32,
139,
497,
1399,
3100,
6722,
8544,
6193,
5295,
6038,
7237,
10685,
30232,
106648,
198208,
145722,
45098,
16044,
13072,
9990,
6780,
7183,
10185,
12137,
9385,
6825,
7157,
9586,
12329,
16499,
25130,
29501,
19736,
9309,
5355,
4548,
4363,
4318,
4495,
4559,
4847,
4959,
4967,
5087,
5344,
5705,
6289,
6356,
6459,
6228,
6644,
7392,
14740,
48840,
119261,
161727,
115368,
48244,
18351,
10171,
6384,
5146,
4856,
4772,
4648,
4890,
4741,
4864,
4898,
5013,
5056,
5268,
5411,
5593,
5466,
5191,
5224,
5144,
5033,
5101,
5139,
5171,
5001,
4989,
5322,
5104,
5200,
5369,
5607,
5167,
5023,
5002,
4976,
4926,
4912,
4810,
5083,
4825,
4984,
4949,
4943,
4874,
4696,
4802,
4671,
4713,
4573,
4474,
4657,
4429,
4571,
4633,
4599,
4706,
4570,
4505,
4334,
4395,
4339,
4368,
4380,
4339,
4365,
4241,
4355,
4215,
4573,
5194,
5932,
6063,
5824,
5046,
4463,
4260,
4153,
3977,
3990,
4094,
4222,
4361,
4889,
5591,
8713,
16793,
32645,
50511,
56690,
46198,
27576,
13530,
6518,
4463,
3991,
4192,
5455,
9147,
15801,
24235,
29501,
26857,
20270,
14075,
10031,
7250,
5491,
4961,
5963,
8101,
10805,
11943,
10611,
7661,
5221,
3764,
3221,
3091,
3020,
3239,
3615,
4164,
5417,
6164,
5924,
5109,
4175,
3239,
2947,
3197,
3685,
4750,
6917,
10527,
15315,
18818,
18371,
14215,
9165,
5211,
3405,
2768,
2462,
2425,
2409,
2432,
2431,
2382,
2410,
2372,
2560,
2801,
3137,
3614,
4122,
4530,
4129,
3641,
3007,
2523,
2242,
2178,
2106,
2144,
2165,
2318,
2634,
3463,
4446,
5205,
5506,
4831,
3822,
2918,
2435,
2088,
2005,
2026,
1846,
2019,
1919,
1861,
1918,
1853,
1908,
2004,
2034,
1916,
2011,
2061,
1957,
2058,
2129,
2308,
2299,
2083,
2110,
1864,
1842,
1734,
1708,
1755,
1818,
2199,
2765,
3547,
4230,
4400,
4074,
3312,
2528,
2105,
1738,
1675,
1631,
1621,
1616,
1576,
1586,
1595,
1645,
1891,
2515,
3705,
5655,
7912,
9390,
9406,
8174,
6078,
3970,
2584,
1911,
1709,
1731,
1793,
1758,
1775,
1613,
1432,
1452,
1359,
1314,
1334,
1341,
1413,
1275,
1335,
1338,
1271,
1278,
1344,
1355,
1408,
1623,
1782,
2064,
2299,
2333,
2176,
1931,
1589,
1456,
1290,
1248,
1250,
1136,
1135,
1185,
1065,
1114,
1146,
1087,
1072,
1096,
1085,
1109,
1055,
1069,
1010,
1053,
1016,
1058,
1004,
993,
1046,
1064,
1059,
1034,
1000,
997,
945,
967,
989,
942,
883,
922,
1019,
934,
893,
920,
852,
919,
911,
912,
914,
838,
904,
894,
944,
880,
791,
870,
846,
819,
810,
805,
817,
801,
820,
786,
793,
788,
765,
736,
785,
773,
773,
743,
733,
692,
696,
683,
720,
673,
677,
663,
701,
670,
660,
692,
654,
618,
671,
647,
648,
629,
649,
619,
617,
631,
628,
628,
641,
597,
616,
609,
576,
577,
576,
578,
526,
553,
571,
557,
523,
561,
510,
521,
481,
527,
519,
559,
545,
482,
515,
482,
494,
470,
438,
474,
476,
433,
441,
434,
463,
423,
469,
452,
413,
421,
421,
438,
405,
407,
424,
425,
414,
434,
402,
445,
393,
359,
391,
357,
347,
359,
376,
368,
380,
361,
368,
340,
368,
345,
319,
323,
306,
299,
319,
319,
313,
328,
356,
292,
270,
283,
275,
281,
271,
266,
281,
253,
259,
248,
246,
239,
294,
284,
223,
267,
240,
232,
257,
242,
260,
223,
235,
214,
210,
227,
209,
232,
218,
224,
196,
175,
221,
208,
202,
196,
185,
213,
197,
191,
184,
184,
188,
174,
185,
188,
170,
183,
136,
164,
146,
159,
161,
142,
188,
145,
148,
162,
128,
160,
148,
129,
134,
148,
128,
142,
149,
118,
135,
146,
132,
107,
126,
121,
102,
126,
140,
116,
110,
121,
103,
105,
121,
110,
103,
79,
108,
93,
85,
101,
94,
93,
85,
88,
77,
65,
96,
61,
82,
86,
60,
91,
79,
69,
64,
58,
92,
74,
69,
61,
85,
57,
65,
48,
72,
52,
55,
54,
62,
57,
63,
55,
44,
48,
49,
46,
43,
46,
47,
47,
37,
34,
38,
42,
33,
37,
45,
46,
38,
33,
26,
33,
27,
31,
21,
35,
19,
40,
15,
25,
27,
19,
25,
19,
28,
15,
19,
23,
14,
10,
14,
17,
7,
12,
18,
12,
9,
11,
8,
11,
10,
12,
6,
7,
1,
5,
2,
3,
3,
2,
2,
1,
1,
1,
5,
1,
3,
2,
1,
1,
0,
2,
3,
1,
1,
2,
1,
0,
1,
0,
2,
1,
1,
2,
0,
1,
2,
0,
0,
0,
1,
1,
2,
2,
0,
3,
0,
1,
1,
1,
0,
3,
2,
0,
1,
1,
1,
0,
1,
3,
2,
3,
2,
2,
0,
1,
0,
1,
0,
0,
1,
1,
0,
0,
2,
0,
1,
2,
0,
0,
0,
1,
0,
0,
1,
1,
0,
0,
0,
2,
0,
0,
1,
0,
0,
2,
0,
0,
2,
0,
1,
1,
0,
1,
2,
1,
1,
0,
0,
1,
0,
0,
2,
0,
1,
0,
1,
3,
0,
1,
1,
0,
0,
0,
2,
0,
0,
1,
0,
2,
0,
0,
0,
0,
1,
1,
0,
1,
0,
0,
0,
0,
0,
0,
0,
0,
0,
0,
0,
2,
0,
0,
0,
0,
0,
0,
0,
2,
0,
0,
0,
0,
2,
0,
0,
0,
0,
0,
0,
0,
0,
0,
0,
0,
1,
1,
2,
1,
0,
0,
1,
1,
0,
0,
0,
0,
0,
1,
0,
0,
0,
0,
0,
0,
1,
0,
0,
0,
1,
0,
1,
0,
0,
0,
1,
0,
0,
0,
0,
0,
0,
0,
0,
0,
0,
0,
0,
1,
0,
0,
0,
0,
0,
0,
0,
0,
0,
0,
0,
0,
0,
0,
1,
0,
0,
1,
0,
0,
0,
0,
0,
0,
0,
0,
0,
0,
0,
0,
0,
1,
0,
0,
0,
0,
0,
0,
0,
0,
0,
0,
0,
0,
0,
0,
1,
0,
0,
0,
0,
0,
0,
0,
0,
0,
0,
0,
1,
0,
0,
0,
0,
0,
0,
1,
0,
0,
0,
0,
0,
0,
0,
0,
0,
0,
0,
0,
1,
0,
0,
0,
0,
0,
0,
0,
0,
0,
0,
0,
0,
0,
0,
0,
0,
0,
0,
0,
1,
0,
0,
0,
0,
0,
0,
0,
0,
0,
0,
0,
0,
0,
0,
0,
1,
0,
0,
0,
0,
0,
0,
0,
0,
0,
0,
0,
0,
0,
0,
0,
0,
0,
0,
0,
0,
0,
0,
0,
0,
0,
0,
0,
0,
0,
0,
0,
0,
0,
0,
0,
0,
0,
0,
0,
0,
0,
0,
0,
1,
0,
0,
0,
0,
0,
0,
0,
0,
0,
0,
0,
0,
0,
0,
0,
0,
0,
0,
0,
0,
0,
0,
1,
0,
0,
0,
0,
0,
0,
0,
0,
0,
0,
0,
0,
0,
0,
0,
0,
0,
0,
0,
0,
0,
0,
0,
0,
0,
0,
0,
0,
0,
0,
0,
0,
0,
0,
0,
0,
0,
0,
0,
0,
0,
0,
0,
0,
0,
0,
0,
0,
0,
0,
0,
0,
0,
0,
0,
0,
0,
0,
0,
0,
0,
0,
0,
0,
0,
0,
0,
0,
0,
0,
0,
0,
0,
0,
0,
0,
0,
0,
0,
0,
0,
0,
0,
0,
0,
0,
0,
0,
0,
0,
0,
0,
0,
0,
0,
0,
0,
0,
0,
0,
0,
0,
0,
0,
0,
0,
0,
0,
0,
0,
0,
0,
0,
0,
0,
0,
0,
0,
0,
0,
0,
0,
0,
0,
0,
0,
0,
0,
0,
0,
0,
0,
0,
0,
0,
0,
0,
0,
0,
0,
0,
0,
0,
0,
0,
0,
0,
0,
0,
0,
0,
0,
0,
0,
0,
0,
0,
0,
0,
0,
0,
0,
0,
0,
0,
0,
0,
0,
0,
0,
0,
0,
0,
0,
0,
0,
0,
0,
0,
0,
0,
0,
0,
0,
0,
0,
0,
0,
0,
0,
0,
0,
0,
0,
0,
0,
0,
0,
0,
0,
0,
0,
0,
0,
0,
0,
0,
0,
0,
0,
0,
0,
0,
0,
0,
0,
0,
0,
0,
0,
0,
0,
0,
0,
0,
0,
0,
0,
0,
0,
0,
0,
0,
0,
0,
0,
0,
0,
0,
0,
0,
0,
0,
0,
0,
0,
0,
0,
0,
0,
0,
0,
0,
0,
0,
0,
0,
0,
0,
0,
0,
0,
0,
0,
0,
0,
0,
0,
0,
0,
0,
0,
0,
0,
0,
0,
0,
0,
0,
0,
0,
0,
0,
0,
0,
0,
0,
0,
0,
0,
0,
0,
0,
0,
0,
0,
0,
0,
0,
0,
0,
0,
0,
0,
0,
0,
0,
0,
0,
0,
#ENDOFDATA   :