File: N132962/Quantification/20 keV/Glass Mount IIIB/GM IIIB K963[2][4].msa
#FORMAT      : EMSA/MAS Spectral Data File
#VERSION     : 1.0
#TITLE       : GM IIIB K963[2][all]
#DATE        : 10-SEP-2025
#TIME        : 16:16
#OWNER       : Unknown
#NPOINTS     : 4096
#NCOLUMNS    : 1
#XUNITS      : eV
#YUNITS      : counts
#DATATYPE    : Y
#XPERCHAN    : 9.99778
#OFFSET      : 1.69135
#BEAMKV      : 20
#SIGNALTYPE  : EDS
#ELEVANGLE   : 35
#AZIMANGLE   : 0
#LIVETIME    : 240.106
#REALTIME    : 261.549
#PROBECUR    : 1.22413
#TAUWIND     : 0
#TDEADLYR    : 0
#TACTLYR     : 0.045
#TALWIND     : 0.025
#CHOFFSET    : 0.0
#XLABEL      : Energy (eV)
#YLABEL      : Counts
#XPOSITION   : 9.23851
#YPOSITION   : 12.47988
#ZPOSITION   : 34.06144
#EDSDET      : SD
##SPECIMEN   : GM IIIB K963[2][all]
##D2STDCMP   : K963,(O:31.92),(Mg:0.14),(Si:21.99),(P:0.36),(Ti:0.28),(Cr:0.3),(Ni:0.34),(Zn:3.0),(Ge:0.42),(Zr:0.53),(Ba:39.52),(Eu:0.88),(Th:0.13),(U:0.17)
##DET_HASH   : 12273538-fd48-a23f-0a19-f1e6fa85caef
##CALIB_HASH : 6abaa72c-aa41-8738-0be9-f592914732f3
##WORKING    : 15.0 mm
##DET_NAME   : EDAX All
##DET_MODE   : MediumLE
#SPECTRUM    :
28,
34,
12,
30,
138,
496,
1415,
3325,
7035,
8899,
6527,
5512,
6342,
7436,
10958,
31208,
107202,
199688,
145472,
44939,
13552,
7815,
5770,
5690,
6644,
8813,
9506,
8084,
6554,
5919,
5425,
6026,
8764,
13276,
15202,
11582,
7487,
5775,
5979,
6240,
6670,
7271,
7114,
6248,
5505,
5254,
5443,
5725,
6216,
6832,
7034,
6723,
6787,
6891,
7896,
16787,
56505,
138794,
188473,
134165,
55881,
21015,
11162,
7056,
5272,
5553,
6684,
7888,
7555,
6693,
6050,
5582,
5586,
5355,
5369,
5596,
5606,
5250,
5200,
5080,
5079,
5077,
5084,
4963,
4989,
4984,
4985,
5106,
5150,
5117,
5424,
5492,
5234,
5064,
5052,
4880,
4907,
4855,
4871,
5135,
5188,
5186,
5068,
5027,
5120,
5229,
5190,
4940,
4930,
4771,
4756,
4860,
4753,
4750,
4761,
4519,
4786,
4651,
4673,
4485,
4479,
4387,
4539,
4525,
4534,
4359,
4302,
4330,
4417,
4554,
5474,
6195,
6627,
6090,
5141,
4674,
4279,
4168,
3994,
4023,
4080,
4177,
4504,
5095,
6187,
9444,
19371,
38344,
59588,
67332,
55900,
33485,
16120,
7559,
4726,
4045,
4418,
5914,
10295,
18408,
28433,
34104,
31399,
23711,
16330,
11485,
8369,
6143,
5528,
6304,
9342,
12312,
13742,
12135,
8576,
5621,
3994,
3543,
3538,
3819,
4157,
4451,
5229,
6104,
7045,
6805,
5540,
4316,
3337,
2966,
3170,
3625,
4307,
4910,
4998,
4582,
3818,
3317,
3042,
2942,
2738,
2682,
2464,
2464,
2387,
2378,
2483,
2421,
2401,
2407,
2492,
2494,
2616,
2787,
2913,
2721,
2697,
2506,
2470,
2351,
2358,
2287,
2255,
2197,
2158,
2126,
2184,
2285,
2215,
2191,
2140,
2109,
2061,
2042,
2079,
1995,
2103,
2017,
1980,
2040,
1997,
1953,
2026,
1878,
1948,
1973,
2219,
2357,
2552,
2569,
2535,
2426,
2103,
1913,
1848,
1839,
1804,
1733,
1727,
1743,
1839,
1835,
1790,
1738,
1663,
1734,
1668,
1638,
1670,
1667,
1628,
1734,
1645,
1764,
1660,
1765,
1724,
1571,
1671,
1663,
1693,
1629,
1675,
1785,
2351,
3111,
3848,
4333,
4453,
3858,
3043,
2381,
1833,
1637,
1441,
1420,
1468,
1412,
1448,
1476,
1406,
1489,
1359,
1347,
1297,
1399,
1373,
1345,
1403,
1448,
1352,
1364,
1331,
1304,
1366,
1353,
1497,
1617,
1610,
1678,
1603,
1511,
1421,
1318,
1268,
1337,
1293,
1361,
1434,
1430,
1441,
1323,
1231,
1218,
1199,
1120,
1129,
1086,
1093,
1055,
1135,
1091,
1168,
1087,
1033,
1055,
1112,
1003,
1039,
1080,
987,
1016,
1049,
1019,
978,
974,
1008,
927,
988,
997,
905,
922,
949,
931,
936,
991,
991,
926,
908,
926,
921,
879,
836,
905,
847,
837,
798,
826,
847,
830,
881,
810,
814,
814,
782,
738,
805,
746,
773,
754,
769,
785,
777,
731,
735,
771,
719,
675,
702,
686,
722,
681,
663,
687,
688,
704,
616,
671,
650,
603,
658,
628,
602,
606,
634,
632,
615,
612,
562,
562,
630,
620,
577,
561,
560,
574,
560,
566,
540,
510,
552,
553,
573,
526,
543,
526,
558,
526,
463,
457,
485,
509,
439,
477,
456,
515,
452,
434,
439,
479,
471,
447,
391,
448,
423,
416,
435,
408,
380,
433,
422,
394,
391,
364,
393,
391,
363,
355,
384,
390,
355,
325,
383,
349,
360,
327,
352,
334,
341,
325,
326,
335,
302,
316,
314,
332,
307,
322,
296,
317,
294,
309,
311,
283,
280,
290,
255,
247,
287,
284,
265,
266,
268,
254,
263,
269,
265,
267,
226,
239,
229,
242,
216,
225,
238,
229,
204,
214,
203,
177,
199,
214,
183,
190,
205,
194,
215,
208,
197,
206,
185,
167,
180,
184,
191,
170,
148,
185,
168,
164,
178,
144,
150,
154,
157,
169,
140,
149,
159,
159,
139,
129,
149,
146,
119,
133,
140,
155,
117,
110,
121,
113,
136,
103,
124,
130,
139,
132,
95,
119,
100,
116,
87,
100,
88,
95,
98,
76,
109,
87,
94,
80,
79,
86,
75,
70,
83,
82,
82,
85,
73,
77,
77,
75,
63,
66,
69,
63,
59,
55,
67,
70,
52,
69,
49,
44,
50,
54,
53,
54,
42,
55,
35,
47,
51,
45,
37,
39,
38,
42,
38,
34,
33,
43,
31,
36,
36,
31,
40,
29,
24,
28,
26,
22,
26,
21,
23,
28,
24,
30,
29,
11,
21,
29,
9,
15,
13,
16,
11,
9,
13,
21,
6,
8,
6,
4,
11,
12,
11,
4,
6,
4,
3,
3,
1,
1,
3,
5,
3,
1,
1,
1,
4,
1,
1,
1,
2,
0,
1,
1,
3,
0,
0,
1,
1,
0,
2,
2,
1,
0,
0,
0,
1,
0,
2,
3,
0,
1,
3,
1,
0,
0,
1,
2,
1,
0,
1,
0,
1,
0,
2,
1,
0,
2,
0,
0,
1,
2,
0,
1,
0,
0,
0,
2,
0,
1,
0,
0,
0,
0,
0,
1,
0,
2,
0,
2,
0,
0,
0,
0,
1,
1,
2,
0,
0,
0,
1,
0,
0,
0,
0,
1,
1,
0,
3,
0,
0,
0,
2,
0,
1,
0,
1,
1,
1,
0,
0,
0,
0,
0,
0,
0,
0,
0,
0,
1,
1,
0,
0,
0,
1,
0,
1,
0,
1,
0,
0,
0,
2,
0,
0,
0,
0,
1,
0,
1,
0,
0,
0,
0,
0,
0,
1,
0,
0,
0,
0,
0,
0,
0,
0,
0,
1,
0,
0,
0,
0,
0,
0,
1,
0,
0,
0,
1,
0,
0,
0,
0,
0,
1,
0,
0,
0,
0,
0,
1,
0,
0,
0,
0,
0,
0,
0,
0,
1,
1,
2,
1,
0,
0,
1,
0,
0,
0,
0,
0,
0,
0,
0,
0,
0,
1,
0,
0,
0,
0,
0,
0,
0,
0,
0,
0,
0,
0,
0,
0,
0,
0,
1,
0,
0,
0,
0,
1,
0,
0,
0,
1,
1,
0,
0,
0,
0,
0,
0,
0,
0,
0,
1,
0,
0,
1,
0,
0,
0,
0,
0,
0,
0,
0,
0,
0,
0,
0,
0,
0,
0,
0,
0,
0,
0,
0,
1,
0,
0,
0,
0,
0,
0,
0,
0,
0,
0,
1,
0,
0,
0,
0,
0,
1,
0,
0,
0,
0,
0,
0,
0,
0,
0,
0,
0,
0,
0,
0,
0,
0,
0,
0,
0,
0,
1,
0,
0,
0,
0,
0,
0,
0,
0,
0,
0,
0,
0,
0,
0,
0,
0,
0,
0,
0,
0,
0,
0,
0,
0,
0,
0,
0,
0,
0,
0,
0,
0,
0,
0,
0,
0,
0,
0,
0,
0,
1,
0,
0,
0,
0,
0,
0,
0,
0,
0,
0,
0,
0,
0,
0,
0,
0,
0,
0,
0,
0,
0,
0,
0,
0,
0,
0,
0,
0,
0,
0,
0,
0,
0,
0,
0,
0,
0,
0,
0,
0,
0,
0,
0,
0,
0,
0,
0,
0,
0,
0,
0,
0,
0,
0,
0,
0,
0,
0,
0,
0,
0,
0,
0,
0,
0,
0,
0,
0,
0,
0,
0,
0,
0,
0,
0,
0,
0,
0,
0,
0,
0,
0,
0,
0,
0,
0,
0,
0,
0,
0,
0,
0,
0,
0,
0,
0,
0,
0,
0,
0,
0,
0,
0,
0,
0,
0,
0,
0,
0,
0,
0,
0,
0,
0,
0,
0,
0,
0,
0,
0,
0,
0,
0,
0,
0,
0,
0,
0,
0,
0,
0,
0,
0,
0,
0,
0,
0,
0,
0,
0,
0,
0,
0,
0,
0,
0,
0,
0,
0,
0,
0,
0,
0,
0,
0,
0,
0,
0,
0,
0,
0,
0,
0,
0,
0,
0,
0,
0,
0,
0,
0,
0,
0,
0,
0,
0,
0,
0,
0,
0,
0,
0,
0,
0,
0,
0,
0,
0,
0,
0,
0,
0,
0,
0,
0,
0,
0,
0,
0,
0,
0,
0,
0,
0,
0,
0,
0,
0,
0,
0,
0,
0,
0,
0,
0,
0,
0,
0,
0,
0,
0,
0,
0,
0,
0,
0,
0,
0,
0,
0,
0,
0,
0,
0,
0,
0,
0,
0,
0,
0,
0,
0,
0,
0,
0,
0,
0,
0,
0,
0,
0,
0,
0,
0,
0,
0,
0,
0,
0,
0,
0,
0,
0,
0,
0,
0,
0,
0,
0,
0,
0,
0,
0,
0,
0,
0,
0,
0,
0,
0,
0,
0,
0,
0,
0,
0,
0,
0,
0,
0,
0,
0,
0,
0,
0,
0,
0,
0,
0,
0,
0,
0,
0,
0,
0,
0,
0,
0,
0,
0,
0,
0,
0,
0,
0,
0,
0,
0,
0,
0,
0,
0,
0,
0,
0,
0,
0,
0,
0,
0,
0,
0,
0,
0,
0,
0,
0,
0,
0,
0,
0,
0,
0,
0,
0,
0,
0,
0,
0,
0,
0,
0,
0,
0,
0,
0,
0,
0,
0,
0,
0,
0,
0,
0,
#ENDOFDATA   :