File: N132962/Quantification/20 keV/Glass Mount IIIB/GM IIIB K493[4][4].msa
#FORMAT      : EMSA/MAS Spectral Data File
#VERSION     : 1.0
#TITLE       : GM IIIB K493[4][all]
#DATE        : 10-SEP-2025
#TIME        : 15:20
#OWNER       : Unknown
#NPOINTS     : 4096
#NCOLUMNS    : 1
#XUNITS      : eV
#YUNITS      : counts
#DATATYPE    : Y
#XPERCHAN    : 9.99778
#OFFSET      : 1.69135
#BEAMKV      : 20
#SIGNALTYPE  : EDS
#ELEVANGLE   : 35
#AZIMANGLE   : 0
#LIVETIME    : 240.297
#REALTIME    : 267.376
#PROBECUR    : 1.22616
#TAUWIND     : 0
#TDEADLYR    : 0
#TACTLYR     : 0.045
#TALWIND     : 0.025
#CHOFFSET    : 0.0
#XLABEL      : Energy (eV)
#YLABEL      : Counts
#XPOSITION   : 1.535
#YPOSITION   : 6.96658
#ZPOSITION   : 34.06144
#EDSDET      : SD
##SPECIMEN   : GM IIIB K493[4][all]
##D2STDCMP   : K493,(B:0.04),(O:20.63),(Al:0.11),(Si:13.04),(Ti:0.19),(Fe:0.22),(Zr:0.36),(Ce:0.55),(Ta:0.72),(Pb:64.13)
##DET_HASH   : 12273538-fd48-a23f-0a19-f1e6fa85caef
##CALIB_HASH : 6abaa72c-aa41-8738-0be9-f592914732f3
##WORKING    : 15.0 mm
##DET_NAME   : EDAX All
##DET_MODE   : MediumLE
#SPECTRUM    :
22,
22,
6,
31,
195,
971,
2361,
5148,
10709,
12861,
9110,
6495,
6189,
6457,
7603,
14580,
41573,
74574,
54790,
18949,
9439,
8001,
7687,
8605,
7937,
6582,
6520,
6758,
7345,
7507,
7283,
7490,
7604,
7875,
7931,
8116,
8252,
8420,
8668,
8762,
8839,
9191,
9452,
9678,
9882,
10081,
10154,
10554,
11319,
12553,
12345,
11860,
11410,
11549,
12334,
19883,
53042,
120841,
160998,
119646,
59557,
33518,
21870,
13711,
10210,
9235,
9351,
9562,
10153,
10055,
10425,
11004,
12130,
13130,
15419,
24243,
54454,
116058,
170558,
164733,
130970,
120894,
101921,
61467,
25608,
11382,
8941,
10635,
12825,
12485,
9452,
7020,
6073,
5482,
5621,
5730,
6009,
6127,
6025,
6321,
6662,
7043,
7561,
7661,
7122,
6685,
6242,
5871,
5635,
5456,
5249,
5417,
5346,
5285,
5384,
5499,
5605,
5625,
5716,
5416,
5258,
5329,
5432,
5483,
5400,
5363,
5317,
5402,
5265,
5212,
5200,
5105,
5184,
5183,
5183,
5227,
5329,
5421,
5595,
5410,
5401,
5308,
5336,
5089,
5331,
4993,
5127,
5255,
5719,
5979,
6377,
6397,
5920,
5289,
5234,
5029,
5184,
5139,
5311,
5508,
5665,
5884,
5813,
5447,
5246,
5076,
4907,
4935,
4779,
4749,
4729,
4694,
4710,
4758,
4943,
4993,
4968,
4924,
4756,
4649,
4634,
4556,
4567,
4659,
4618,
4578,
4663,
4538,
4472,
4408,
4459,
4113,
4321,
4213,
4260,
4360,
4461,
4226,
4197,
4324,
4309,
4200,
4261,
4234,
4080,
4134,
4088,
3993,
4058,
4169,
4215,
4389,
4878,
5046,
4971,
4658,
4220,
4017,
3925,
3690,
3823,
3804,
3798,
3667,
3640,
3704,
3687,
3700,
3595,
3694,
3684,
3720,
3662,
3533,
3723,
3655,
3710,
3495,
3514,
3497,
3523,
3461,
3466,
3392,
3422,
3346,
3388,
3490,
3538,
3493,
3538,
3382,
3343,
3325,
3243,
3219,
3170,
3148,
3141,
3208,
3059,
3109,
3064,
3079,
3047,
3029,
2966,
3051,
3131,
3327,
3390,
3353,
3319,
3127,
3032,
3046,
2900,
2932,
2920,
2897,
2824,
2850,
2746,
2666,
2717,
2731,
2695,
2762,
2721,
2695,
2638,
2603,
2657,
2647,
2674,
2533,
2603,
2612,
2512,
2620,
2511,
2664,
2652,
2692,
2938,
3092,
3212,
3044,
2904,
2807,
2789,
2628,
2475,
2433,
2396,
2395,
2456,
2278,
2368,
2333,
2321,
2307,
2327,
2308,
2280,
2237,
2188,
2090,
2220,
2102,
2110,
2076,
2125,
2179,
2133,
2115,
2045,
2122,
2010,
2130,
2089,
2120,
2092,
2083,
2499,
2959,
3710,
5107,
7122,
9496,
11783,
13229,
12818,
10876,
8392,
5539,
3757,
2611,
2107,
1910,
1915,
1858,
1883,
1759,
1731,
1698,
1680,
1670,
1657,
1725,
1647,
1631,
1677,
1656,
1645,
1662,
1624,
1650,
1642,
1592,
1570,
1577,
1543,
1526,
1417,
1390,
1400,
1436,
1447,
1457,
1417,
1456,
1351,
1364,
1388,
1350,
1372,
1354,
1343,
1347,
1375,
1416,
1474,
1404,
1413,
1471,
1537,
1533,
1489,
1437,
1378,
1462,
1387,
1366,
1506,
1814,
2432,
3223,
4169,
4985,
5305,
5115,
4444,
3592,
2694,
2016,
1650,
1444,
1353,
1290,
1259,
1292,
1308,
1307,
1157,
1199,
1131,
1092,
1019,
989,
923,
954,
893,
850,
831,
927,
896,
855,
848,
822,
806,
841,
831,
909,
835,
815,
770,
735,
821,
736,
782,
735,
785,
777,
771,
703,
761,
782,
708,
680,
667,
727,
712,
708,
671,
691,
680,
677,
692,
666,
663,
621,
678,
626,
610,
620,
683,
706,
825,
849,
868,
886,
938,
877,
803,
705,
652,
598,
571,
580,
578,
582,
593,
592,
556,
601,
589,
591,
569,
541,
495,
503,
482,
459,
489,
490,
449,
427,
400,
418,
444,
422,
415,
382,
465,
379,
369,
416,
407,
370,
329,
396,
361,
330,
393,
364,
344,
358,
342,
330,
329,
320,
312,
330,
320,
316,
345,
290,
312,
319,
319,
302,
298,
288,
269,
274,
254,
291,
257,
289,
261,
260,
241,
240,
260,
222,
245,
257,
228,
249,
207,
255,
220,
212,
202,
217,
215,
214,
215,
203,
217,
194,
187,
207,
203,
170,
187,
179,
162,
171,
177,
196,
150,
124,
157,
126,
166,
129,
136,
149,
115,
138,
126,
118,
121,
125,
130,
116,
110,
127,
114,
119,
104,
99,
124,
107,
101,
95,
87,
90,
93,
98,
89,
84,
97,
92,
81,
80,
87,
80,
75,
63,
64,
71,
72,
61,
56,
43,
53,
53,
45,
52,
55,
54,
52,
33,
38,
23,
32,
34,
36,
28,
19,
38,
28,
33,
34,
22,
16,
24,
13,
9,
10,
14,
9,
6,
7,
7,
4,
8,
5,
4,
1,
2,
3,
4,
8,
3,
3,
2,
3,
5,
7,
4,
2,
4,
2,
4,
3,
2,
3,
4,
3,
5,
2,
9,
3,
4,
4,
4,
3,
2,
2,
2,
3,
1,
5,
1,
3,
3,
2,
3,
3,
1,
3,
5,
3,
4,
6,
3,
2,
0,
1,
0,
4,
2,
2,
4,
3,
2,
3,
3,
0,
2,
1,
3,
4,
1,
3,
3,
1,
2,
4,
6,
2,
1,
1,
3,
0,
3,
0,
2,
1,
1,
2,
2,
0,
0,
4,
2,
0,
1,
1,
5,
3,
1,
2,
2,
2,
0,
4,
1,
1,
2,
2,
4,
1,
1,
1,
4,
1,
0,
0,
1,
4,
2,
1,
3,
0,
1,
0,
0,
3,
1,
0,
1,
2,
0,
3,
1,
0,
1,
2,
0,
1,
1,
1,
1,
0,
1,
0,
1,
1,
2,
2,
2,
1,
3,
0,
0,
1,
2,
1,
2,
3,
1,
0,
2,
1,
0,
0,
3,
1,
1,
0,
1,
3,
2,
2,
2,
0,
1,
0,
1,
1,
1,
1,
2,
1,
3,
1,
3,
1,
1,
1,
1,
1,
1,
2,
1,
0,
0,
0,
1,
1,
0,
0,
0,
0,
2,
1,
0,
0,
0,
1,
0,
0,
2,
0,
0,
2,
1,
1,
0,
0,
1,
0,
1,
0,
0,
0,
0,
0,
0,
1,
0,
0,
0,
1,
0,
0,
0,
0,
0,
0,
2,
0,
0,
1,
0,
3,
0,
1,
3,
1,
0,
1,
0,
0,
0,
0,
0,
0,
0,
2,
0,
0,
0,
0,
0,
0,
1,
0,
1,
0,
0,
0,
0,
1,
0,
0,
1,
0,
1,
0,
1,
0,
0,
1,
1,
0,
0,
0,
1,
0,
1,
0,
0,
0,
0,
0,
0,
1,
0,
0,
0,
0,
0,
0,
0,
0,
0,
0,
1,
0,
0,
0,
1,
1,
1,
0,
0,
0,
0,
0,
1,
0,
0,
0,
1,
0,
0,
1,
0,
0,
0,
0,
0,
0,
0,
0,
0,
0,
1,
0,
0,
1,
0,
1,
0,
1,
0,
0,
0,
1,
0,
0,
0,
0,
0,
0,
0,
0,
0,
0,
0,
0,
0,
0,
0,
0,
0,
0,
0,
0,
1,
0,
0,
0,
1,
0,
0,
0,
0,
0,
0,
0,
0,
0,
0,
0,
0,
0,
0,
0,
0,
0,
0,
0,
1,
0,
1,
0,
0,
0,
0,
0,
0,
0,
0,
0,
0,
0,
0,
0,
0,
0,
1,
0,
0,
0,
0,
1,
0,
0,
0,
0,
0,
0,
0,
0,
0,
1,
0,
0,
0,
0,
0,
0,
0,
0,
0,
0,
0,
0,
0,
0,
0,
0,
0,
0,
0,
0,
0,
0,
0,
0,
0,
0,
0,
0,
0,
0,
1,
0,
0,
0,
0,
0,
0,
0,
0,
0,
0,
0,
0,
0,
0,
0,
0,
0,
0,
0,
0,
0,
0,
0,
0,
0,
0,
0,
0,
0,
0,
0,
0,
0,
0,
0,
0,
0,
0,
0,
0,
0,
0,
0,
0,
0,
0,
0,
0,
0,
0,
0,
0,
0,
0,
0,
0,
0,
0,
0,
0,
0,
0,
0,
0,
0,
0,
0,
0,
0,
0,
0,
0,
0,
0,
0,
0,
0,
0,
0,
0,
0,
0,
0,
0,
0,
0,
0,
0,
0,
0,
0,
0,
0,
0,
0,
0,
0,
0,
0,
0,
0,
0,
0,
0,
0,
0,
0,
0,
0,
0,
0,
0,
0,
0,
0,
0,
0,
0,
0,
0,
0,
0,
0,
0,
0,
0,
0,
0,
0,
0,
0,
0,
0,
0,
0,
0,
0,
0,
0,
0,
0,
0,
0,
0,
0,
0,
0,
0,
0,
0,
0,
0,
0,
0,
0,
0,
0,
0,
0,
0,
0,
0,
0,
0,
0,
0,
0,
0,
0,
0,
0,
0,
0,
0,
0,
0,
0,
0,
0,
0,
0,
0,
0,
0,
0,
0,
0,
0,
0,
0,
0,
0,
0,
0,
0,
0,
0,
0,
0,
0,
0,
0,
0,
0,
0,
0,
0,
0,
0,
0,
0,
0,
0,
0,
0,
0,
0,
0,
0,
0,
0,
0,
0,
0,
0,
0,
0,
0,
0,
0,
0,
0,
0,
0,
0,
0,
0,
0,
0,
0,
0,
0,
#ENDOFDATA   :