File: N132962/Quantification/20 keV/Glass Mount IIIB/GM IIIB K968[1][4].msa
#FORMAT      : EMSA/MAS Spectral Data File
#VERSION     : 1.0
#TITLE       : GM IIIB K968[1][all]
#DATE        : 10-SEP-2025
#TIME        : 16:21
#OWNER       : Unknown
#NPOINTS     : 4096
#NCOLUMNS    : 1
#XUNITS      : eV
#YUNITS      : counts
#DATATYPE    : Y
#XPERCHAN    : 9.99778
#OFFSET      : 1.69135
#BEAMKV      : 20
#SIGNALTYPE  : EDS
#ELEVANGLE   : 35
#AZIMANGLE   : 0
#LIVETIME    : 240.2726
#REALTIME    : 266.541
#PROBECUR    : 1.22413
#TAUWIND     : 0
#TDEADLYR    : 0
#TACTLYR     : 0.045
#TALWIND     : 0.025
#CHOFFSET    : 0.0
#XLABEL      : Energy (eV)
#YLABEL      : Counts
#XPOSITION   : 7.2557
#YPOSITION   : 12.21592
#ZPOSITION   : 34.06144
#EDSDET      : SD
##SPECIMEN   : GM IIIB K968[1][all]
##D2STDCMP   : K968,(O:16.62),(Mg:0.08),(P:0.2),(Ti:0.16),(Cr:0.17),(Ni:0.19),(Ge:26.27),(Zr:0.3),(Ba:0.45),(Eu:0.49),(Pb:54.91),(Th:0.08),(U:0.09)
##DET_HASH   : 12273538-fd48-a23f-0a19-f1e6fa85caef
##CALIB_HASH : 6abaa72c-aa41-8738-0be9-f592914732f3
##WORKING    : 15.0 mm
##DET_NAME   : EDAX All
##DET_MODE   : MediumLE
#SPECTRUM    :
20,
17,
13,
49,
204,
869,
2298,
5015,
10487,
13021,
8791,
6356,
6332,
6640,
7624,
13403,
36220,
62913,
47443,
17326,
9385,
8152,
8463,
9011,
8321,
7244,
7295,
7912,
8409,
8802,
8641,
8715,
9213,
11085,
13836,
15332,
14946,
19715,
49377,
106976,
131357,
88359,
37407,
15065,
9589,
8022,
7749,
7940,
7795,
8190,
8267,
8339,
8181,
8233,
8330,
8680,
8942,
9650,
10680,
12593,
15726,
17115,
14318,
11007,
9486,
9457,
10081,
10996,
10943,
10183,
10179,
10599,
11350,
12175,
14200,
21359,
46163,
97816,
142811,
138403,
111643,
101248,
86709,
52125,
23177,
10751,
9029,
10612,
12260,
11751,
9590,
7252,
6236,
6041,
5968,
6076,
6298,
6526,
6688,
6737,
6958,
7248,
7831,
7755,
7800,
7168,
6733,
6402,
6002,
5767,
5714,
5979,
5922,
5809,
5897,
5700,
5923,
6177,
6175,
6021,
6056,
5924,
5823,
5775,
5882,
5799,
5611,
5676,
5537,
5402,
5477,
5433,
5570,
5595,
5534,
5243,
5423,
5481,
5476,
5562,
5501,
5357,
5376,
5387,
5412,
5457,
5593,
6068,
6484,
7043,
7381,
6986,
6257,
5702,
5555,
5277,
5453,
5493,
5467,
5478,
5541,
5665,
5614,
5575,
5459,
5329,
5296,
5240,
5127,
5105,
5097,
5133,
5174,
5177,
5048,
4969,
4881,
4864,
5094,
5252,
5371,
5249,
5026,
4841,
4752,
4757,
4725,
4601,
4672,
4568,
4685,
4696,
4815,
4994,
5127,
5073,
4930,
4742,
4719,
4598,
4404,
4331,
4242,
4422,
4369,
4210,
4289,
4241,
4273,
4305,
4220,
4371,
4666,
4796,
4747,
4616,
4483,
4433,
4195,
3930,
4051,
4031,
4022,
3955,
3968,
3909,
3868,
3919,
3818,
3760,
3786,
3867,
3842,
3789,
3752,
3780,
3703,
3761,
3701,
3657,
3615,
3583,
3600,
3585,
3561,
3589,
3622,
4061,
4092,
4025,
4028,
3806,
3628,
3555,
3412,
3302,
3346,
3298,
3337,
3252,
3218,
3231,
3177,
3204,
3105,
3190,
3183,
3033,
3110,
3058,
3103,
3220,
3126,
3084,
3040,
3063,
3020,
2964,
3028,
2982,
2952,
2828,
2861,
2878,
2830,
2825,
2772,
2773,
2734,
2800,
2723,
2778,
2715,
2706,
2678,
2717,
2621,
2587,
2732,
2651,
2626,
2655,
2617,
2808,
2902,
3108,
3100,
3028,
2921,
2822,
2695,
2623,
2477,
2573,
2454,
2524,
2391,
2421,
2464,
2440,
2369,
2565,
2664,
3150,
4450,
6764,
10520,
15133,
19558,
20891,
19228,
15229,
10586,
6461,
4218,
2917,
2384,
2330,
2218,
2058,
2045,
2164,
2201,
2270,
2398,
2894,
3589,
4827,
6716,
8811,
10807,
11964,
11644,
9925,
7645,
5285,
3695,
2692,
2199,
2110,
2172,
2280,
2657,
3122,
3746,
4137,
4323,
4018,
3369,
2854,
2308,
1966,
1794,
1658,
1694,
1662,
1608,
1645,
1636,
1577,
1611,
1570,
1519,
1527,
1546,
1498,
1548,
1484,
1474,
1526,
1433,
1413,
1489,
1434,
1422,
1372,
1417,
1348,
1300,
1374,
1414,
1399,
1445,
1444,
1441,
1426,
1468,
1484,
1447,
1405,
1438,
1360,
1362,
1476,
1505,
1873,
2249,
2975,
3736,
4441,
4772,
4727,
4050,
3216,
2589,
1938,
1605,
1402,
1338,
1248,
1245,
1240,
1275,
1228,
1254,
1207,
1149,
1096,
1060,
985,
914,
944,
982,
918,
912,
923,
933,
859,
879,
874,
867,
839,
878,
840,
819,
828,
827,
860,
865,
813,
771,
796,
867,
815,
745,
781,
767,
809,
726,
761,
760,
718,
707,
717,
722,
704,
710,
719,
710,
709,
700,
615,
660,
651,
593,
667,
654,
693,
730,
773,
848,
871,
864,
902,
819,
693,
650,
628,
554,
600,
605,
559,
592,
571,
606,
620,
604,
547,
566,
533,
484,
471,
462,
465,
472,
495,
465,
448,
469,
435,
440,
434,
404,
411,
433,
418,
433,
443,
416,
391,
421,
378,
405,
372,
405,
356,
362,
374,
359,
323,
381,
323,
356,
306,
325,
317,
294,
313,
283,
284,
303,
308,
303,
341,
292,
285,
281,
299,
282,
262,
287,
274,
268,
277,
255,
266,
246,
250,
239,
263,
248,
208,
217,
238,
220,
241,
216,
199,
200,
188,
183,
196,
195,
199,
214,
180,
196,
184,
187,
171,
175,
147,
174,
176,
144,
181,
170,
153,
139,
148,
140,
147,
145,
164,
128,
138,
146,
147,
130,
134,
130,
129,
112,
105,
118,
120,
109,
120,
115,
108,
95,
101,
84,
97,
86,
94,
88,
89,
79,
77,
81,
72,
64,
82,
88,
83,
63,
69,
59,
52,
53,
45,
53,
45,
67,
57,
50,
56,
43,
36,
38,
45,
27,
40,
31,
38,
24,
24,
24,
22,
15,
18,
11,
14,
16,
10,
6,
8,
8,
6,
5,
8,
7,
6,
4,
7,
7,
8,
2,
11,
6,
5,
7,
9,
9,
4,
5,
4,
4,
2,
4,
7,
4,
8,
6,
4,
5,
4,
2,
6,
3,
8,
5,
5,
5,
5,
5,
3,
3,
3,
7,
4,
5,
2,
5,
2,
8,
7,
2,
2,
4,
2,
3,
0,
1,
5,
4,
0,
0,
0,
6,
0,
1,
3,
4,
3,
2,
2,
0,
3,
2,
0,
2,
5,
3,
1,
5,
1,
3,
4,
3,
1,
4,
3,
0,
4,
2,
3,
5,
3,
0,
1,
3,
2,
3,
0,
4,
0,
2,
2,
3,
2,
1,
4,
2,
2,
3,
3,
1,
4,
0,
1,
1,
0,
3,
2,
2,
2,
1,
4,
1,
1,
2,
1,
0,
0,
2,
0,
1,
1,
2,
1,
1,
3,
1,
1,
2,
0,
1,
3,
1,
2,
0,
3,
0,
1,
1,
2,
1,
3,
1,
1,
1,
2,
2,
1,
3,
1,
1,
2,
3,
2,
2,
2,
3,
2,
1,
1,
3,
2,
2,
1,
3,
0,
0,
2,
1,
2,
2,
3,
1,
2,
0,
1,
1,
1,
2,
0,
0,
2,
0,
0,
2,
3,
3,
1,
0,
2,
2,
2,
0,
1,
1,
1,
1,
0,
2,
2,
0,
1,
0,
0,
2,
1,
0,
0,
0,
2,
2,
1,
2,
1,
2,
0,
0,
1,
0,
0,
0,
1,
1,
1,
0,
1,
0,
1,
0,
1,
1,
0,
0,
0,
0,
0,
0,
1,
1,
1,
1,
0,
0,
1,
1,
1,
1,
0,
0,
1,
1,
1,
2,
0,
0,
0,
1,
0,
0,
1,
0,
1,
0,
0,
3,
0,
0,
0,
1,
0,
0,
1,
0,
0,
1,
0,
1,
1,
0,
0,
0,
0,
0,
1,
1,
0,
0,
1,
1,
0,
1,
0,
1,
0,
0,
0,
0,
0,
0,
0,
0,
0,
1,
0,
0,
1,
0,
0,
0,
0,
0,
0,
0,
1,
0,
1,
0,
0,
0,
0,
0,
0,
0,
0,
1,
0,
1,
0,
0,
0,
0,
0,
0,
1,
0,
0,
0,
0,
0,
0,
0,
0,
0,
0,
0,
0,
0,
0,
0,
0,
0,
0,
0,
0,
0,
1,
0,
0,
0,
1,
0,
0,
0,
0,
0,
0,
0,
0,
0,
0,
0,
0,
0,
0,
0,
0,
0,
0,
1,
0,
0,
0,
0,
0,
0,
0,
0,
0,
0,
0,
0,
0,
1,
0,
0,
0,
1,
0,
0,
0,
0,
0,
0,
0,
0,
0,
0,
0,
0,
0,
0,
0,
0,
0,
0,
0,
0,
0,
0,
0,
0,
1,
0,
0,
0,
0,
0,
0,
0,
0,
1,
0,
0,
0,
0,
0,
0,
0,
0,
0,
0,
0,
0,
0,
0,
0,
0,
0,
0,
0,
0,
0,
0,
0,
0,
0,
0,
0,
0,
0,
0,
0,
0,
0,
0,
0,
0,
0,
0,
0,
0,
0,
0,
0,
0,
0,
0,
0,
0,
0,
0,
0,
0,
0,
0,
0,
0,
0,
0,
0,
0,
0,
0,
0,
0,
0,
0,
0,
0,
0,
0,
0,
0,
0,
0,
0,
0,
0,
0,
0,
0,
0,
0,
0,
0,
0,
0,
0,
0,
0,
0,
0,
0,
0,
0,
0,
0,
0,
0,
0,
0,
0,
0,
0,
0,
0,
0,
0,
0,
0,
0,
0,
0,
0,
0,
0,
0,
0,
0,
0,
0,
0,
0,
0,
0,
0,
0,
0,
0,
0,
0,
0,
0,
0,
0,
0,
0,
0,
0,
0,
0,
0,
0,
0,
0,
0,
0,
0,
0,
0,
0,
0,
0,
0,
0,
0,
0,
0,
0,
0,
0,
0,
0,
0,
0,
0,
0,
0,
0,
0,
0,
0,
0,
0,
0,
0,
0,
0,
0,
0,
0,
0,
0,
0,
0,
0,
0,
0,
0,
0,
0,
0,
0,
0,
0,
0,
0,
0,
0,
0,
0,
0,
0,
0,
0,
0,
0,
0,
0,
0,
0,
0,
0,
0,
0,
0,
0,
0,
0,
0,
0,
0,
0,
0,
0,
0,
0,
0,
0,
0,
0,
0,
0,
0,
0,
0,
0,
0,
0,
0,
0,
0,
0,
0,
0,
0,
0,
0,
0,
0,
0,
0,
0,
0,
0,
0,
0,
0,
#ENDOFDATA   :