File: N132962/Quantification/20 keV/Glass Mount IIIB/GM IIIB K371[4][4].msa
#FORMAT      : EMSA/MAS Spectral Data File
#VERSION     : 1.0
#TITLE       : GM IIIB K371[4][all]
#DATE        : 10-SEP-2025
#TIME        : 14:45
#OWNER       : Unknown
#NPOINTS     : 4096
#NCOLUMNS    : 1
#XUNITS      : eV
#YUNITS      : counts
#DATATYPE    : Y
#XPERCHAN    : 9.99778
#OFFSET      : 1.69135
#BEAMKV      : 20
#SIGNALTYPE  : EDS
#ELEVANGLE   : 35
#AZIMANGLE   : 0
#LIVETIME    : 240.24
#REALTIME    : 261.996
#PROBECUR    : 1.22592
#TAUWIND     : 0
#TDEADLYR    : 0
#TACTLYR     : 0.045
#TALWIND     : 0.025
#CHOFFSET    : 0.0
#XLABEL      : Energy (eV)
#YLABEL      : Counts
#XPOSITION   : 11.55697
#YPOSITION   : 5.35166
#ZPOSITION   : 34.06144
#EDSDET      : SD
##SPECIMEN   : GM IIIB K371[4][all]
##D2STDCMP   : K371,(O:31.93),(Si:23.08),(Zn:3.07),(Ba:41.92)
##DET_HASH   : 12273538-fd48-a23f-0a19-f1e6fa85caef
##CALIB_HASH : 6abaa72c-aa41-8738-0be9-f592914732f3
##WORKING    : 15.0 mm
##DET_NAME   : EDAX All
##DET_MODE   : MediumLE
#SPECTRUM    :
20,
23,
6,
30,
119,
523,
1454,
3336,
7473,
9438,
6696,
5597,
6197,
7274,
10981,
31508,
110150,
205573,
149655,
46064,
14376,
8208,
6090,
5903,
6599,
8742,
10085,
8100,
5871,
4954,
5106,
5961,
8779,
13531,
15143,
11534,
7144,
5308,
4724,
4836,
4666,
4891,
5071,
5091,
5265,
5380,
5495,
5708,
6008,
6568,
6849,
6809,
6735,
6724,
7949,
17112,
58802,
147072,
198511,
140503,
58601,
21699,
11267,
6980,
5084,
4757,
4621,
4767,
4732,
4746,
4836,
5015,
4983,
5031,
5274,
5464,
5632,
5424,
5246,
5056,
5114,
5206,
4977,
5035,
5048,
5108,
5193,
5084,
5284,
5315,
5472,
5573,
5375,
5260,
4998,
4921,
4859,
4913,
4923,
4906,
4932,
4982,
4974,
5136,
5047,
4886,
4866,
4776,
4801,
4669,
4678,
4591,
4666,
4674,
4606,
4947,
4821,
4748,
4602,
4468,
4518,
4458,
4498,
4493,
4385,
4362,
4354,
4313,
4504,
4720,
5438,
6368,
6782,
6231,
5415,
4735,
4385,
4115,
4188,
4184,
4041,
4274,
4564,
5027,
6214,
10010,
20251,
40807,
63906,
72585,
58802,
34883,
16428,
7577,
4756,
4017,
4412,
6047,
10562,
19635,
30291,
36328,
33225,
25200,
17162,
11869,
8481,
6262,
5672,
6786,
9658,
13113,
14299,
12758,
9028,
6051,
4021,
3472,
3195,
3222,
3335,
3684,
4635,
5881,
6943,
7042,
5728,
4342,
3340,
2985,
3090,
3406,
4116,
4430,
4274,
3744,
3300,
2885,
2868,
2810,
2663,
2571,
2488,
2461,
2436,
2456,
2471,
2521,
2449,
2295,
2380,
2412,
2448,
2575,
2435,
2453,
2226,
2328,
2203,
2235,
2269,
2201,
2167,
2206,
2126,
2089,
2140,
2173,
2110,
2127,
2073,
2083,
2068,
2078,
2053,
2049,
1977,
2021,
1976,
1942,
1917,
2033,
1964,
1976,
1939,
1944,
2003,
2114,
1965,
2075,
2025,
1936,
1916,
1921,
1864,
1808,
1775,
1808,
1841,
1860,
1809,
1725,
1827,
1851,
1852,
1703,
1722,
1772,
1747,
1769,
1741,
1667,
1669,
1613,
1628,
1600,
1703,
1594,
1548,
1627,
1637,
1642,
1759,
1961,
2418,
2997,
3810,
4533,
4588,
3934,
3236,
2298,
1887,
1625,
1587,
1471,
1414,
1446,
1448,
1446,
1410,
1497,
1392,
1424,
1334,
1429,
1388,
1401,
1426,
1345,
1362,
1308,
1397,
1412,
1332,
1338,
1476,
1623,
1718,
1691,
1612,
1522,
1400,
1306,
1276,
1216,
1212,
1177,
1150,
1234,
1276,
1170,
1199,
1144,
1153,
1122,
1164,
1169,
1136,
1114,
1091,
1117,
1100,
1130,
1044,
1043,
1153,
1043,
1051,
1071,
992,
1046,
1012,
1037,
1029,
1032,
969,
930,
987,
973,
976,
939,
921,
947,
936,
878,
985,
899,
946,
888,
870,
875,
854,
855,
840,
842,
868,
832,
888,
909,
825,
812,
851,
751,
791,
794,
777,
778,
775,
786,
778,
778,
720,
735,
750,
756,
680,
695,
749,
720,
744,
694,
699,
671,
663,
700,
664,
657,
716,
620,
629,
595,
633,
636,
603,
640,
582,
613,
589,
635,
632,
597,
573,
578,
585,
563,
555,
602,
570,
562,
565,
556,
548,
468,
513,
537,
521,
510,
498,
472,
513,
476,
468,
486,
501,
517,
504,
444,
450,
499,
451,
468,
453,
453,
420,
458,
429,
469,
389,
395,
444,
398,
404,
427,
370,
372,
368,
387,
364,
377,
402,
359,
350,
344,
384,
335,
332,
334,
335,
352,
352,
329,
315,
330,
314,
331,
312,
324,
300,
327,
279,
282,
314,
278,
271,
288,
279,
268,
289,
246,
270,
258,
250,
241,
282,
240,
239,
245,
240,
230,
228,
248,
215,
217,
268,
224,
209,
211,
195,
225,
188,
200,
217,
226,
188,
205,
199,
207,
195,
209,
205,
173,
168,
192,
179,
193,
181,
163,
168,
146,
184,
147,
176,
181,
150,
146,
157,
163,
157,
152,
133,
137,
135,
140,
130,
131,
136,
124,
132,
129,
132,
114,
133,
100,
119,
126,
134,
115,
97,
115,
117,
100,
102,
98,
92,
113,
89,
95,
94,
113,
96,
84,
113,
84,
77,
89,
76,
78,
83,
82,
79,
77,
80,
79,
63,
75,
67,
52,
67,
62,
54,
77,
63,
64,
60,
55,
45,
51,
60,
48,
61,
54,
46,
50,
43,
56,
47,
40,
45,
36,
41,
41,
37,
36,
42,
23,
37,
31,
29,
32,
37,
44,
22,
27,
27,
26,
23,
28,
21,
22,
24,
24,
21,
22,
23,
14,
14,
17,
16,
13,
11,
9,
9,
14,
7,
11,
9,
10,
5,
10,
6,
2,
4,
2,
6,
2,
2,
1,
3,
2,
1,
2,
3,
4,
1,
1,
1,
1,
2,
1,
4,
1,
1,
2,
1,
3,
0,
2,
2,
0,
1,
2,
2,
1,
1,
3,
2,
1,
2,
0,
2,
1,
1,
4,
3,
0,
2,
1,
1,
2,
0,
0,
2,
0,
1,
2,
0,
1,
1,
1,
2,
0,
0,
0,
1,
0,
1,
2,
0,
1,
1,
0,
0,
0,
0,
0,
0,
1,
1,
0,
3,
0,
0,
0,
0,
0,
0,
1,
1,
0,
1,
0,
3,
0,
1,
0,
0,
1,
0,
0,
1,
0,
1,
0,
0,
0,
0,
0,
1,
1,
0,
0,
2,
0,
0,
0,
0,
1,
0,
0,
0,
0,
0,
2,
1,
2,
0,
0,
0,
3,
0,
0,
0,
0,
2,
0,
0,
0,
0,
0,
0,
0,
0,
0,
0,
0,
0,
0,
0,
1,
0,
0,
0,
0,
1,
0,
1,
0,
0,
1,
0,
0,
1,
0,
0,
0,
0,
0,
0,
0,
1,
1,
0,
0,
0,
0,
1,
0,
1,
1,
0,
0,
0,
0,
0,
0,
0,
0,
0,
0,
0,
0,
0,
0,
0,
0,
0,
0,
0,
1,
0,
0,
0,
0,
0,
0,
0,
0,
0,
0,
0,
0,
0,
1,
0,
1,
0,
0,
0,
0,
0,
0,
0,
0,
0,
0,
0,
0,
0,
0,
0,
0,
0,
1,
0,
0,
0,
0,
0,
0,
0,
0,
0,
0,
0,
0,
0,
0,
0,
0,
0,
0,
0,
0,
0,
0,
0,
1,
0,
0,
0,
0,
0,
0,
0,
0,
0,
0,
1,
0,
0,
0,
0,
0,
0,
0,
0,
0,
0,
0,
0,
0,
0,
0,
0,
0,
0,
0,
0,
0,
0,
1,
1,
0,
0,
0,
0,
0,
0,
0,
0,
0,
0,
0,
0,
0,
0,
0,
1,
0,
0,
0,
0,
1,
0,
0,
0,
0,
0,
0,
0,
1,
0,
0,
0,
0,
0,
1,
0,
0,
0,
0,
0,
0,
0,
0,
0,
1,
0,
0,
0,
0,
0,
0,
0,
0,
0,
0,
0,
0,
0,
0,
0,
0,
0,
0,
0,
0,
0,
0,
0,
0,
0,
0,
0,
0,
0,
0,
0,
0,
0,
0,
0,
0,
0,
0,
0,
0,
0,
0,
0,
0,
0,
1,
0,
0,
0,
0,
1,
0,
0,
0,
0,
0,
0,
0,
0,
0,
0,
0,
0,
0,
0,
0,
0,
0,
0,
0,
0,
0,
0,
0,
0,
0,
0,
0,
0,
0,
0,
0,
0,
0,
0,
0,
0,
0,
0,
0,
0,
0,
0,
0,
0,
0,
0,
0,
0,
0,
0,
0,
0,
0,
0,
0,
0,
0,
0,
0,
0,
0,
0,
0,
0,
0,
0,
0,
0,
0,
0,
0,
0,
0,
0,
0,
0,
0,
0,
0,
0,
0,
0,
0,
0,
0,
0,
0,
0,
0,
0,
0,
0,
0,
0,
0,
0,
0,
0,
0,
0,
0,
0,
0,
0,
0,
0,
0,
0,
0,
0,
0,
0,
0,
0,
0,
0,
0,
0,
0,
0,
0,
0,
0,
0,
0,
0,
0,
0,
0,
0,
0,
0,
0,
0,
0,
0,
0,
0,
0,
0,
0,
0,
0,
0,
0,
0,
0,
0,
0,
0,
0,
0,
0,
0,
0,
0,
0,
0,
0,
0,
0,
0,
0,
0,
0,
0,
0,
0,
0,
0,
0,
0,
0,
0,
0,
0,
0,
0,
0,
0,
0,
0,
0,
0,
0,
0,
0,
0,
0,
0,
0,
0,
0,
0,
0,
0,
0,
0,
0,
0,
0,
0,
0,
0,
0,
0,
0,
0,
0,
0,
0,
0,
0,
0,
0,
0,
0,
0,
0,
0,
0,
0,
0,
0,
0,
0,
0,
0,
0,
0,
0,
0,
0,
0,
0,
0,
0,
0,
0,
0,
0,
0,
0,
0,
0,
0,
0,
0,
0,
1,
0,
0,
0,
0,
0,
0,
0,
0,
0,
0,
0,
0,
0,
0,
0,
0,
0,
0,
0,
0,
0,
0,
0,
0,
0,
0,
0,
0,
0,
0,
0,
0,
0,
0,
0,
0,
0,
0,
0,
0,
0,
0,
0,
0,
0,
0,
0,
0,
0,
0,
0,
0,
0,
0,
0,
0,
0,
0,
0,
0,
0,
0,
0,
0,
0,
0,
0,
#ENDOFDATA   :