File: N132962/Quantification/20 keV/Glass Mount IIIB/GM IIIA K1010[0][4].msa
#FORMAT      : EMSA/MAS Spectral Data File
#VERSION     : 1.0
#TITLE       : K1010 IIIA K1010[0][all]
#DATE        : 18-SEP-2025
#TIME        : 10:06
#OWNER       : Unknown
#NPOINTS     : 4096
#NCOLUMNS    : 1
#XUNITS      : eV
#YUNITS      : counts
#DATATYPE    : Y
#XPERCHAN    : 9.99778
#OFFSET      : 1.69135
#BEAMKV      : 20
#SIGNALTYPE  : EDS
#ELEVANGLE   : 35
#AZIMANGLE   : 0
#LIVETIME    : 240.15
#REALTIME    : 259.946
#PROBECUR    : 1.21237
#TAUWIND     : 0
#TDEADLYR    : 0
#TACTLYR     : 0.045
#TALWIND     : 0.025
#CHOFFSET    : 0.0
#XLABEL      : Energy (eV)
#YLABEL      : Counts
#XPOSITION   : 10.53362
#YPOSITION   : 15.55879
#ZPOSITION   : 37.3512
#EDSDET      : SD
##SPECIMEN   : K1010 IIIA K1010[0][all]
##DET_HASH   : 12273538-fd48-a23f-0a19-f1e6fa85caef
##CALIB_HASH : 6abaa72c-aa41-8738-0be9-f592914732f3
##WORKING    : 15.0 mm
##DET_NAME   : EDAX All
##DET_MODE   : MediumLE
#SPECTRUM    :
30,
26,
11,
27,
109,
379,
962,
2468,
5703,
7427,
5522,
3992,
3829,
4318,
6477,
20631,
74453,
139626,
101644,
27667,
4927,
3200,
3461,
3677,
3466,
3374,
3796,
4383,
5063,
5375,
5107,
5195,
5003,
5227,
6012,
6204,
6669,
7974,
11095,
14711,
15754,
12229,
8150,
6713,
6660,
6997,
8339,
16055,
45004,
86878,
88763,
48539,
19732,
11313,
10729,
22042,
70036,
164387,
225030,
178383,
103867,
60455,
35021,
19513,
10913,
6875,
5220,
4255,
3709,
3566,
3527,
3671,
3693,
3882,
3998,
4083,
3969,
3912,
3790,
3704,
3682,
3538,
3586,
3654,
3626,
3642,
3554,
3757,
3637,
3531,
3666,
3626,
3639,
3602,
3550,
3543,
3751,
3658,
3786,
3604,
3774,
3676,
3586,
3491,
3647,
3783,
3873,
4596,
6450,
10191,
13889,
13731,
9842,
6154,
4209,
3760,
3837,
4231,
4671,
6304,
10147,
19263,
32574,
40060,
33986,
20619,
10125,
5366,
3742,
3442,
3398,
4189,
5482,
7302,
7956,
6741,
5064,
3745,
3285,
3140,
3578,
4624,
5695,
6282,
5402,
4194,
3342,
2859,
2740,
2899,
3087,
3418,
4103,
5195,
6177,
6567,
5604,
4380,
3472,
2892,
2642,
2533,
2629,
2749,
2938,
3197,
3237,
3444,
3532,
3337,
3078,
2814,
2628,
2604,
2545,
2561,
2477,
2509,
2659,
2682,
2706,
2496,
2346,
2252,
2193,
2208,
2104,
2041,
2016,
1995,
2058,
2383,
2888,
3402,
4005,
4073,
3698,
2967,
2552,
2651,
3114,
3574,
3719,
3392,
2834,
2143,
1893,
1704,
1815,
1763,
1800,
1820,
2083,
2364,
2638,
2622,
2547,
2310,
2113,
1888,
1957,
2016,
2277,
2430,
2519,
2408,
2327,
2247,
2062,
2004,
1783,
1578,
1575,
1557,
1659,
1736,
1747,
1681,
1653,
1606,
1467,
1433,
1385,
1337,
1364,
1357,
1418,
1425,
1551,
1511,
1527,
1518,
1377,
1280,
1300,
1328,
1380,
1380,
1424,
1420,
1373,
1336,
1264,
1194,
1245,
1188,
1106,
1214,
1221,
1199,
1185,
1236,
1219,
1098,
1148,
1141,
1174,
1109,
1098,
1195,
1064,
1031,
1072,
1048,
1029,
995,
1034,
1053,
1070,
1033,
996,
1003,
939,
980,
917,
983,
963,
930,
979,
917,
1021,
956,
893,
977,
921,
927,
882,
904,
890,
854,
897,
868,
813,
828,
859,
836,
834,
859,
835,
812,
855,
855,
866,
870,
903,
1046,
1237,
1418,
1619,
1666,
1570,
1447,
1175,
935,
859,
747,
740,
736,
727,
723,
727,
690,
737,
708,
680,
695,
690,
665,
679,
646,
668,
659,
638,
672,
666,
647,
652,
614,
610,
634,
670,
632,
608,
675,
689,
703,
710,
648,
622,
592,
596,
603,
545,
551,
549,
569,
490,
511,
575,
492,
504,
529,
509,
486,
540,
509,
494,
452,
509,
504,
498,
439,
472,
474,
440,
456,
436,
445,
488,
476,
482,
471,
441,
410,
416,
424,
448,
401,
426,
432,
382,
391,
390,
396,
410,
382,
413,
347,
431,
414,
405,
349,
343,
378,
374,
350,
359,
317,
331,
364,
365,
342,
325,
306,
321,
302,
308,
327,
304,
332,
341,
374,
372,
425,
423,
426,
431,
432,
389,
371,
299,
297,
282,
291,
260,
245,
281,
260,
226,
290,
262,
245,
231,
239,
266,
266,
353,
445,
502,
649,
714,
689,
599,
606,
453,
384,
327,
272,
241,
218,
189,
190,
199,
198,
176,
225,
199,
184,
186,
176,
188,
190,
189,
187,
206,
183,
151,
188,
192,
165,
160,
178,
168,
157,
154,
148,
169,
172,
149,
132,
130,
121,
143,
130,
151,
131,
123,
147,
129,
121,
142,
151,
123,
131,
148,
169,
185,
171,
177,
158,
154,
140,
118,
129,
113,
113,
120,
102,
102,
98,
72,
77,
105,
92,
108,
67,
65,
84,
85,
99,
84,
79,
79,
69,
73,
74,
76,
67,
71,
81,
71,
59,
88,
76,
73,
54,
53,
55,
54,
51,
47,
53,
61,
46,
59,
56,
45,
50,
58,
53,
62,
46,
41,
51,
45,
34,
49,
50,
46,
44,
46,
41,
40,
46,
37,
47,
43,
33,
34,
47,
28,
37,
31,
34,
23,
28,
26,
32,
24,
36,
30,
26,
36,
28,
19,
16,
21,
21,
25,
30,
26,
18,
18,
20,
21,
20,
22,
20,
25,
23,
12,
10,
23,
15,
12,
12,
17,
13,
23,
7,
20,
10,
11,
10,
4,
7,
6,
12,
10,
9,
10,
3,
1,
3,
4,
3,
4,
1,
1,
3,
3,
2,
3,
1,
0,
0,
1,
1,
1,
0,
0,
1,
1,
1,
0,
1,
0,
1,
0,
1,
0,
0,
0,
0,
1,
1,
0,
1,
1,
0,
0,
0,
0,
0,
0,
0,
0,
1,
1,
0,
1,
1,
1,
0,
0,
0,
0,
0,
1,
2,
1,
1,
0,
0,
1,
1,
0,
0,
0,
1,
0,
1,
0,
0,
0,
0,
0,
0,
0,
0,
0,
0,
0,
0,
0,
1,
1,
1,
0,
0,
0,
0,
0,
0,
0,
0,
1,
1,
0,
1,
0,
0,
0,
0,
1,
0,
0,
0,
0,
0,
0,
0,
1,
1,
0,
0,
1,
0,
0,
0,
0,
0,
0,
0,
0,
0,
0,
0,
0,
1,
0,
1,
0,
0,
0,
0,
0,
0,
0,
0,
0,
0,
0,
0,
0,
0,
0,
0,
0,
0,
0,
0,
0,
0,
0,
0,
0,
0,
0,
0,
0,
0,
0,
0,
0,
0,
1,
0,
0,
0,
0,
0,
0,
0,
1,
0,
0,
0,
0,
0,
0,
0,
0,
0,
0,
0,
0,
0,
0,
1,
0,
0,
0,
0,
0,
0,
0,
0,
0,
0,
0,
0,
0,
0,
0,
0,
1,
0,
0,
0,
0,
0,
0,
0,
0,
0,
1,
0,
0,
0,
0,
0,
0,
0,
0,
0,
0,
0,
0,
0,
0,
0,
0,
0,
0,
0,
0,
0,
0,
1,
0,
0,
0,
0,
0,
0,
0,
0,
0,
0,
0,
0,
0,
0,
0,
0,
0,
0,
0,
0,
0,
0,
0,
0,
0,
1,
0,
0,
0,
0,
0,
0,
0,
0,
0,
0,
0,
0,
0,
0,
0,
0,
0,
0,
0,
0,
0,
0,
0,
0,
0,
0,
0,
0,
0,
0,
0,
0,
0,
0,
0,
0,
0,
0,
0,
0,
0,
0,
0,
0,
0,
0,
0,
0,
0,
0,
0,
0,
0,
0,
0,
0,
0,
0,
0,
0,
0,
0,
0,
0,
0,
0,
0,
0,
0,
0,
0,
0,
0,
0,
0,
0,
0,
0,
0,
0,
0,
0,
0,
0,
0,
0,
0,
0,
1,
0,
0,
0,
0,
0,
0,
0,
0,
0,
0,
0,
0,
0,
0,
0,
0,
0,
0,
0,
0,
0,
0,
0,
0,
0,
0,
0,
0,
0,
0,
0,
0,
0,
0,
0,
0,
0,
0,
0,
0,
0,
0,
0,
0,
0,
0,
0,
0,
0,
0,
0,
0,
0,
0,
0,
0,
0,
0,
0,
0,
0,
0,
0,
0,
0,
0,
0,
0,
0,
0,
0,
0,
0,
0,
0,
0,
0,
0,
0,
0,
0,
0,
0,
0,
0,
0,
0,
0,
0,
0,
0,
0,
0,
0,
0,
0,
0,
0,
0,
0,
0,
0,
0,
0,
0,
0,
0,
0,
0,
0,
0,
0,
0,
0,
0,
0,
0,
0,
0,
0,
0,
0,
0,
0,
0,
0,
0,
0,
0,
0,
0,
0,
0,
0,
0,
0,
0,
0,
0,
0,
0,
0,
0,
0,
0,
0,
0,
0,
0,
0,
0,
0,
0,
0,
0,
0,
0,
0,
0,
0,
0,
0,
0,
0,
0,
0,
0,
0,
0,
0,
0,
0,
0,
0,
0,
0,
0,
0,
0,
0,
0,
0,
0,
0,
0,
0,
0,
0,
0,
0,
0,
0,
0,
0,
0,
0,
0,
0,
0,
0,
0,
0,
0,
0,
0,
0,
0,
0,
0,
0,
0,
0,
0,
0,
0,
0,
0,
0,
0,
0,
0,
0,
0,
0,
0,
0,
0,
0,
0,
0,
0,
0,
0,
0,
0,
0,
0,
0,
0,
0,
0,
0,
0,
0,
0,
0,
0,
0,
0,
0,
0,
0,
0,
0,
0,
0,
0,
0,
0,
0,
0,
0,
0,
0,
0,
0,
0,
0,
0,
0,
0,
0,
0,
0,
0,
0,
0,
0,
0,
0,
0,
0,
0,
0,
0,
0,
0,
0,
0,
0,
0,
0,
0,
0,
0,
0,
0,
0,
0,
0,
0,
0,
0,
0,
0,
0,
0,
0,
0,
0,
0,
0,
0,
0,
0,
0,
0,
0,
0,
0,
0,
0,
0,
0,
0,
0,
0,
0,
0,
0,
0,
0,
0,
0,
0,
0,
0,
0,
0,
0,
0,
0,
0,
0,
0,
0,
0,
0,
0,
0,
0,
0,
0,
0,
0,
0,
0,
0,
0,
0,
0,
#ENDOFDATA   :