File: N132962/Quantification/20 keV/Glass Mount IIIB/GM IIIB K251[4][4].msa
#FORMAT      : EMSA/MAS Spectral Data File
#VERSION     : 1.0
#TITLE       : GM IIIB K251[4][all]
#DATE        : 10-SEP-2025
#TIME        : 18:58
#OWNER       : Unknown
#NPOINTS     : 4096
#NCOLUMNS    : 1
#XUNITS      : eV
#YUNITS      : counts
#DATATYPE    : Y
#XPERCHAN    : 9.99778
#OFFSET      : 1.69135
#BEAMKV      : 20
#SIGNALTYPE  : EDS
#ELEVANGLE   : 35
#AZIMANGLE   : 0
#LIVETIME    : 240.2055
#REALTIME    : 265.3949
#PROBECUR    : 1.2221
#TAUWIND     : 0
#TDEADLYR    : 0
#TACTLYR     : 0.045
#TALWIND     : 0.025
#CHOFFSET    : 0.0
#XLABEL      : Energy (eV)
#YLABEL      : Counts
#XPOSITION   : 7.38813
#YPOSITION   : 0.87921
#ZPOSITION   : 34.00159
#EDSDET      : SD
##SPECIMEN   : GM IIIB K251[4][all]
##D2STDCMP   : K251,(O:23.02),(Al:1.32),(Si:14.02),(Ba:8.96),(Ta:4.09),(Pb:44.1),(Bi:4.48)
##DET_HASH   : 12273538-fd48-a23f-0a19-f1e6fa85caef
##CALIB_HASH : 6abaa72c-aa41-8738-0be9-f592914732f3
##WORKING    : 15.0 mm
##DET_NAME   : EDAX All
##DET_MODE   : MediumLE
#SPECTRUM    :
34,
22,
10,
41,
193,
756,
2150,
4688,
9381,
11586,
8128,
6107,
6202,
6419,
7922,
16518,
50248,
90312,
66613,
21951,
9633,
7352,
6851,
7654,
7155,
7128,
7247,
6958,
6779,
6616,
6714,
6953,
7402,
7633,
7715,
7749,
7619,
7718,
7677,
7772,
7962,
8279,
8700,
9070,
9749,
9604,
9704,
10791,
15391,
22289,
22365,
16224,
11798,
10807,
12084,
21847,
59833,
132703,
171448,
123675,
59216,
29472,
18035,
11964,
9166,
8469,
8177,
7881,
7709,
7697,
8162,
8648,
9552,
10533,
12134,
17715,
37124,
76866,
112495,
110879,
94467,
88708,
75468,
47035,
24485,
13729,
10277,
9838,
10726,
10484,
8752,
7150,
6123,
5567,
5545,
5460,
5797,
5837,
5924,
5994,
6142,
6623,
6733,
6978,
6767,
6479,
5973,
5661,
5672,
5367,
5258,
5291,
5266,
5265,
5255,
5291,
5399,
5285,
5366,
5229,
5244,
5238,
5118,
5103,
5085,
5171,
5117,
5135,
5099,
5090,
5110,
5353,
5368,
5399,
5258,
5328,
5080,
5208,
5206,
5072,
5144,
4960,
5008,
4924,
5340,
6011,
8188,
12246,
16651,
18600,
15900,
11303,
7510,
5638,
4944,
4965,
4920,
5171,
6229,
7793,
10076,
11294,
10482,
8831,
7253,
6327,
5498,
5193,
4819,
5253,
5787,
6449,
6681,
6248,
5508,
4978,
4539,
4357,
4367,
4211,
4291,
4388,
4605,
4926,
4974,
4866,
4858,
4353,
4214,
4107,
4085,
4208,
4230,
4301,
4209,
4143,
4039,
3942,
3947,
3792,
3912,
3816,
3720,
3731,
3681,
3684,
3720,
3773,
3709,
3598,
3670,
3789,
3933,
3952,
4020,
3851,
3689,
3629,
3529,
3368,
3442,
3530,
3389,
3438,
3394,
3279,
3418,
3366,
3251,
3371,
3424,
3293,
3375,
3367,
3252,
3219,
3261,
3330,
3191,
3230,
3221,
3262,
3125,
3158,
3121,
3132,
3123,
3152,
3334,
3213,
3156,
3187,
2941,
2996,
2866,
2823,
2828,
2883,
2833,
2820,
2751,
2808,
2712,
2727,
2796,
2859,
2880,
3131,
3490,
3949,
4431,
4725,
4756,
4244,
3618,
3158,
2738,
2667,
2576,
2518,
2511,
2614,
2562,
2570,
2437,
2441,
2392,
2390,
2442,
2418,
2373,
2368,
2302,
2348,
2459,
2316,
2329,
2382,
2305,
2311,
2357,
2331,
2409,
2485,
2633,
2666,
2731,
2807,
2774,
2920,
2955,
3035,
3023,
2757,
2568,
2471,
2255,
2310,
2307,
2280,
2395,
2426,
2420,
2304,
2161,
2110,
2008,
2063,
2039,
1932,
1986,
1902,
1973,
1964,
1778,
1852,
1910,
1802,
1884,
1851,
1839,
1871,
1779,
1818,
2032,
2295,
2812,
3774,
5242,
6719,
8246,
9174,
8904,
7630,
5912,
4349,
3185,
2398,
2160,
2246,
2299,
2344,
2287,
2233,
2031,
1853,
1609,
1553,
1506,
1510,
1483,
1495,
1447,
1446,
1505,
1531,
1494,
1527,
1534,
1464,
1425,
1366,
1390,
1332,
1348,
1354,
1368,
1253,
1296,
1263,
1294,
1292,
1304,
1208,
1253,
1290,
1172,
1218,
1229,
1173,
1257,
1239,
1208,
1223,
1283,
1216,
1288,
1221,
1267,
1207,
1232,
1218,
1174,
1214,
1239,
1473,
1805,
2305,
3003,
3615,
3859,
3545,
3163,
2647,
2008,
1556,
1356,
1257,
1160,
1141,
1214,
1262,
1254,
1294,
1309,
1180,
1024,
999,
940,
912,
859,
820,
778,
841,
822,
844,
806,
774,
773,
760,
789,
702,
744,
732,
730,
690,
705,
702,
729,
682,
717,
717,
730,
684,
676,
639,
642,
670,
663,
621,
668,
622,
634,
588,
558,
587,
640,
625,
574,
602,
575,
605,
580,
589,
549,
611,
567,
618,
624,
712,
699,
717,
760,
730,
661,
581,
511,
502,
499,
461,
501,
513,
514,
520,
475,
515,
479,
477,
491,
496,
481,
387,
444,
397,
414,
385,
373,
394,
407,
371,
361,
353,
385,
410,
358,
384,
380,
357,
334,
356,
347,
337,
340,
319,
334,
304,
286,
300,
302,
317,
285,
294,
280,
301,
287,
277,
292,
267,
307,
244,
223,
243,
227,
253,
245,
266,
230,
239,
235,
230,
223,
225,
217,
213,
210,
224,
209,
206,
210,
177,
192,
191,
226,
185,
171,
181,
182,
182,
203,
164,
172,
159,
179,
145,
173,
154,
158,
164,
166,
165,
133,
159,
142,
134,
134,
120,
134,
138,
130,
120,
110,
121,
140,
119,
111,
111,
105,
106,
111,
110,
74,
101,
89,
102,
85,
96,
101,
85,
93,
81,
80,
86,
78,
77,
69,
73,
82,
69,
66,
70,
62,
69,
72,
52,
58,
47,
58,
45,
51,
53,
38,
51,
39,
32,
39,
35,
26,
26,
29,
40,
27,
25,
19,
18,
22,
24,
20,
11,
17,
17,
14,
12,
8,
5,
4,
8,
7,
3,
4,
2,
5,
3,
6,
2,
1,
0,
3,
1,
5,
1,
7,
3,
2,
5,
4,
5,
6,
2,
0,
1,
3,
2,
2,
3,
4,
2,
3,
1,
1,
1,
1,
0,
3,
2,
2,
3,
1,
3,
5,
0,
2,
3,
3,
4,
1,
2,
1,
1,
0,
3,
5,
3,
1,
2,
5,
2,
2,
1,
1,
2,
2,
4,
2,
2,
1,
3,
3,
1,
2,
3,
3,
2,
1,
1,
0,
1,
2,
4,
0,
3,
3,
3,
1,
0,
0,
0,
0,
0,
1,
0,
4,
0,
3,
2,
1,
2,
2,
1,
2,
0,
0,
2,
0,
2,
0,
0,
2,
0,
3,
1,
3,
1,
1,
2,
2,
1,
0,
0,
3,
0,
1,
1,
0,
2,
0,
0,
0,
1,
0,
1,
1,
1,
1,
1,
1,
1,
1,
0,
1,
0,
0,
1,
1,
0,
0,
1,
0,
2,
0,
0,
2,
1,
1,
2,
0,
2,
2,
0,
1,
1,
1,
0,
0,
1,
2,
1,
0,
1,
0,
1,
1,
0,
0,
1,
0,
0,
1,
1,
0,
0,
0,
0,
0,
0,
1,
0,
1,
0,
0,
0,
2,
1,
0,
1,
2,
0,
1,
0,
0,
1,
0,
0,
2,
3,
0,
0,
1,
0,
0,
0,
0,
0,
2,
0,
1,
0,
1,
0,
0,
0,
0,
2,
0,
1,
1,
0,
0,
0,
2,
0,
0,
0,
0,
0,
2,
0,
1,
1,
0,
1,
0,
0,
1,
0,
1,
0,
0,
0,
1,
1,
0,
0,
0,
0,
1,
1,
1,
0,
0,
0,
0,
1,
0,
0,
0,
0,
0,
0,
2,
1,
0,
1,
0,
0,
0,
0,
0,
0,
0,
0,
1,
0,
0,
1,
0,
0,
0,
0,
0,
0,
0,
0,
0,
0,
0,
0,
0,
0,
0,
0,
0,
0,
0,
0,
1,
0,
0,
0,
0,
0,
1,
0,
0,
0,
0,
0,
0,
0,
0,
0,
0,
0,
0,
0,
0,
0,
0,
0,
1,
0,
0,
0,
0,
0,
0,
0,
0,
0,
0,
0,
0,
1,
0,
0,
0,
0,
0,
0,
0,
0,
0,
0,
0,
0,
0,
0,
0,
1,
0,
0,
0,
0,
0,
0,
0,
0,
0,
2,
0,
0,
0,
0,
0,
0,
0,
0,
0,
0,
0,
0,
1,
0,
0,
0,
0,
0,
0,
0,
0,
0,
0,
0,
0,
0,
0,
0,
0,
0,
0,
0,
0,
0,
0,
0,
0,
0,
0,
0,
0,
0,
0,
0,
0,
0,
0,
0,
0,
0,
0,
0,
0,
0,
0,
0,
0,
0,
0,
0,
0,
0,
0,
0,
0,
0,
0,
0,
0,
0,
0,
0,
0,
0,
0,
0,
0,
0,
0,
0,
0,
0,
0,
0,
0,
0,
0,
0,
0,
0,
0,
0,
0,
0,
0,
0,
0,
0,
0,
0,
0,
0,
0,
0,
0,
0,
0,
0,
0,
0,
0,
0,
0,
0,
0,
0,
0,
0,
0,
0,
0,
0,
0,
0,
0,
0,
0,
0,
0,
0,
0,
0,
0,
0,
0,
0,
0,
0,
0,
0,
0,
0,
0,
0,
0,
0,
0,
0,
0,
0,
0,
0,
0,
0,
0,
0,
0,
0,
0,
0,
0,
0,
0,
0,
0,
0,
0,
0,
0,
0,
0,
0,
0,
0,
0,
0,
0,
0,
0,
0,
0,
0,
0,
0,
0,
0,
0,
0,
0,
0,
0,
0,
0,
0,
0,
0,
0,
0,
0,
0,
0,
0,
0,
0,
0,
0,
0,
0,
0,
0,
0,
0,
0,
0,
0,
0,
0,
0,
0,
0,
0,
0,
0,
0,
0,
0,
0,
0,
0,
0,
0,
0,
0,
0,
0,
0,
0,
0,
0,
0,
0,
0,
0,
0,
0,
0,
0,
0,
0,
0,
0,
0,
0,
0,
0,
0,
0,
0,
0,
0,
0,
0,
0,
0,
0,
0,
0,
0,
0,
0,
0,
0,
0,
0,
0,
0,
0,
0,
0,
0,
0,
0,
0,
0,
0,
0,
0,
0,
0,
0,
0,
0,
0,
0,
0,
0,
0,
0,
0,
0,
0,
0,
0,
0,
0,
0,
0,
0,
0,
0,
0,
0,
0,
0,
0,
0,
0,
0,
0,
0,
0,
0,
0,
0,
0,
0,
0,
0,
#ENDOFDATA   :