File: N132962/Quantification/20 keV/Glass Mount IIIB/GM IIIB K968[3][4].msa
#FORMAT      : EMSA/MAS Spectral Data File
#VERSION     : 1.0
#TITLE       : GM IIIB K968[3][all]
#DATE        : 10-SEP-2025
#TIME        : 16:24
#OWNER       : Unknown
#NPOINTS     : 4096
#NCOLUMNS    : 1
#XUNITS      : eV
#YUNITS      : counts
#DATATYPE    : Y
#XPERCHAN    : 9.99778
#OFFSET      : 1.69135
#BEAMKV      : 20
#SIGNALTYPE  : EDS
#ELEVANGLE   : 35
#AZIMANGLE   : 0
#LIVETIME    : 240.246
#REALTIME    : 266.597
#PROBECUR    : 1.22413
#TAUWIND     : 0
#TDEADLYR    : 0
#TACTLYR     : 0.045
#TALWIND     : 0.025
#CHOFFSET    : 0.0
#XLABEL      : Energy (eV)
#YLABEL      : Counts
#XPOSITION   : 7.10853
#YPOSITION   : 12.25957
#ZPOSITION   : 34.06144
#EDSDET      : SD
##SPECIMEN   : GM IIIB K968[3][all]
##D2STDCMP   : K968,(O:16.62),(Mg:0.08),(P:0.2),(Ti:0.16),(Cr:0.17),(Ni:0.19),(Ge:26.27),(Zr:0.3),(Ba:0.45),(Eu:0.49),(Pb:54.91),(Th:0.08),(U:0.09)
##DET_HASH   : 12273538-fd48-a23f-0a19-f1e6fa85caef
##CALIB_HASH : 6abaa72c-aa41-8738-0be9-f592914732f3
##WORKING    : 15.0 mm
##DET_NAME   : EDAX All
##DET_MODE   : MediumLE
#SPECTRUM    :
23,
28,
13,
47,
259,
898,
2296,
5112,
10463,
12738,
8665,
6515,
6362,
6585,
7464,
13370,
36196,
63023,
46932,
17158,
9443,
8246,
8251,
9057,
8176,
7351,
7533,
7981,
8685,
8475,
8560,
8690,
9394,
11080,
14126,
15425,
14717,
19788,
49904,
107819,
131690,
88791,
37786,
15152,
9532,
8216,
7886,
7870,
7804,
8077,
8215,
7993,
8220,
8188,
8340,
8722,
9124,
9848,
10567,
12894,
15504,
17161,
14627,
11153,
9401,
9589,
10050,
10854,
10591,
10184,
9926,
10621,
11624,
12376,
14310,
21427,
46864,
98661,
144595,
138419,
111774,
102178,
87032,
52376,
22877,
10951,
9092,
10622,
12459,
11788,
9426,
7307,
6367,
5974,
6052,
6124,
6141,
6522,
6586,
6800,
6824,
7472,
7853,
7981,
7834,
7151,
6861,
6339,
6181,
5925,
5880,
5874,
5915,
5767,
5748,
5746,
6022,
6033,
6037,
5971,
5894,
5826,
5784,
5824,
5803,
5760,
5862,
5698,
5553,
5478,
5535,
5386,
5491,
5473,
5594,
5314,
5557,
5433,
5493,
5529,
5501,
5505,
5407,
5508,
5432,
5395,
5569,
5889,
6485,
7134,
7278,
6953,
6329,
5704,
5498,
5250,
5198,
5462,
5401,
5518,
5613,
5433,
5590,
5622,
5392,
5463,
5171,
5167,
5075,
5157,
5019,
5159,
4978,
5102,
5036,
4884,
5006,
4895,
4996,
5204,
5319,
5233,
5176,
4940,
4967,
4761,
4746,
4657,
4613,
4561,
4605,
4662,
4812,
4836,
5111,
5203,
5002,
4869,
4756,
4559,
4385,
4405,
4336,
4198,
4258,
4341,
4237,
4303,
4288,
4164,
4357,
4562,
4622,
4797,
4837,
4671,
4481,
4341,
4263,
4092,
3935,
4042,
3971,
3907,
3909,
3783,
3866,
4041,
4026,
3870,
3923,
3863,
3808,
3733,
3802,
3821,
3610,
3679,
3629,
3619,
3735,
3573,
3642,
3593,
3608,
3654,
3787,
3932,
4071,
4162,
4074,
3867,
3678,
3466,
3508,
3426,
3252,
3475,
3295,
3272,
3341,
3359,
3290,
3165,
3213,
3237,
3164,
3074,
3221,
3091,
3194,
3187,
3149,
3089,
3086,
3093,
3081,
3049,
3045,
2963,
2899,
2876,
2906,
2916,
2863,
2859,
2851,
2797,
2734,
2788,
2733,
2820,
2717,
2721,
2682,
2727,
2699,
2594,
2638,
2711,
2632,
2670,
2766,
2957,
2970,
2993,
3195,
3109,
2961,
2718,
2541,
2550,
2464,
2451,
2405,
2461,
2428,
2449,
2455,
2464,
2353,
2424,
2661,
3127,
4325,
6719,
10780,
15451,
19388,
20928,
19243,
15002,
10476,
6488,
4009,
2905,
2364,
2390,
2128,
2150,
2134,
2095,
2144,
2223,
2389,
2891,
3641,
4756,
6604,
8837,
10758,
12018,
11765,
10083,
7729,
5432,
3641,
2686,
2261,
2090,
2061,
2344,
2696,
3221,
3629,
4161,
4418,
4078,
3428,
2799,
2249,
2035,
1888,
1652,
1693,
1640,
1568,
1692,
1674,
1648,
1568,
1619,
1518,
1577,
1471,
1435,
1486,
1498,
1478,
1463,
1488,
1439,
1404,
1392,
1437,
1338,
1376,
1349,
1296,
1386,
1389,
1442,
1403,
1413,
1458,
1440,
1532,
1420,
1474,
1387,
1456,
1418,
1434,
1413,
1493,
1818,
2282,
2906,
3778,
4470,
4992,
4631,
4114,
3255,
2568,
2013,
1586,
1398,
1349,
1278,
1186,
1213,
1269,
1260,
1184,
1195,
1149,
1082,
1073,
972,
957,
939,
925,
932,
937,
928,
958,
868,
904,
892,
838,
862,
866,
862,
786,
874,
858,
809,
784,
815,
840,
826,
801,
800,
766,
793,
742,
773,
760,
745,
738,
705,
742,
750,
723,
680,
648,
702,
685,
673,
670,
702,
621,
683,
662,
677,
645,
719,
747,
832,
826,
882,
876,
864,
760,
755,
699,
646,
628,
594,
621,
566,
578,
547,
595,
596,
549,
600,
532,
583,
484,
503,
495,
494,
513,
446,
471,
457,
431,
430,
456,
436,
443,
445,
420,
432,
444,
385,
423,
379,
391,
412,
365,
347,
374,
339,
347,
346,
340,
340,
368,
351,
381,
339,
346,
325,
309,
329,
314,
317,
329,
286,
329,
309,
314,
300,
270,
298,
280,
263,
247,
299,
269,
285,
277,
266,
244,
251,
225,
247,
222,
218,
252,
231,
234,
209,
223,
229,
215,
200,
206,
210,
204,
190,
194,
189,
203,
181,
177,
190,
178,
187,
184,
161,
156,
162,
159,
164,
138,
180,
146,
144,
146,
136,
149,
138,
130,
126,
143,
124,
138,
132,
133,
111,
130,
118,
91,
99,
95,
114,
96,
96,
85,
70,
100,
84,
77,
100,
70,
70,
74,
65,
76,
53,
73,
78,
50,
42,
54,
54,
55,
49,
62,
67,
42,
47,
45,
46,
44,
32,
46,
29,
26,
32,
28,
39,
33,
29,
21,
21,
25,
18,
12,
10,
14,
12,
8,
8,
8,
5,
6,
6,
9,
5,
4,
5,
6,
6,
10,
5,
10,
8,
8,
9,
4,
5,
6,
5,
4,
2,
1,
8,
11,
5,
3,
4,
8,
6,
6,
8,
3,
6,
6,
4,
3,
6,
5,
2,
1,
6,
5,
3,
3,
3,
4,
7,
4,
1,
2,
3,
2,
2,
0,
5,
1,
0,
6,
4,
3,
3,
4,
1,
2,
3,
3,
3,
0,
4,
4,
3,
2,
3,
1,
2,
4,
0,
3,
2,
1,
3,
5,
3,
2,
3,
1,
2,
4,
3,
6,
2,
6,
1,
0,
4,
2,
1,
1,
6,
3,
2,
2,
2,
2,
5,
4,
2,
1,
2,
2,
1,
4,
0,
1,
2,
1,
6,
3,
3,
3,
2,
3,
3,
1,
2,
2,
0,
3,
1,
2,
1,
0,
3,
1,
1,
2,
2,
1,
4,
1,
0,
0,
3,
0,
1,
1,
2,
1,
2,
2,
2,
1,
3,
5,
4,
2,
0,
2,
1,
1,
2,
4,
1,
2,
0,
0,
3,
2,
1,
1,
4,
1,
1,
1,
1,
0,
0,
1,
0,
0,
2,
2,
3,
2,
1,
1,
1,
4,
1,
0,
3,
0,
2,
1,
3,
0,
1,
1,
1,
0,
0,
0,
2,
0,
1,
3,
4,
0,
2,
2,
2,
0,
0,
0,
0,
1,
0,
1,
2,
0,
0,
1,
1,
2,
0,
2,
1,
1,
1,
1,
0,
1,
0,
0,
2,
0,
1,
0,
1,
1,
0,
1,
0,
0,
2,
2,
0,
1,
0,
1,
0,
2,
2,
0,
0,
0,
0,
2,
0,
2,
0,
0,
0,
1,
1,
0,
0,
1,
0,
1,
0,
1,
0,
1,
0,
0,
0,
0,
0,
1,
0,
0,
0,
0,
0,
1,
0,
0,
0,
0,
0,
0,
0,
0,
0,
0,
0,
0,
1,
0,
0,
0,
0,
0,
1,
0,
0,
0,
0,
0,
0,
0,
0,
0,
1,
0,
0,
0,
0,
0,
0,
0,
0,
0,
1,
0,
0,
1,
0,
0,
0,
0,
0,
0,
0,
0,
0,
0,
0,
0,
2,
0,
0,
0,
0,
0,
0,
0,
2,
0,
0,
0,
0,
0,
0,
0,
1,
0,
0,
0,
1,
0,
0,
0,
0,
0,
0,
0,
0,
0,
0,
2,
0,
0,
0,
0,
0,
0,
0,
0,
0,
0,
1,
0,
0,
0,
0,
0,
0,
0,
0,
0,
0,
0,
0,
0,
0,
0,
0,
0,
0,
0,
0,
0,
0,
0,
0,
0,
0,
0,
0,
0,
0,
0,
1,
0,
0,
0,
0,
0,
0,
1,
0,
0,
0,
0,
0,
0,
0,
0,
0,
0,
0,
0,
0,
0,
0,
0,
0,
0,
0,
0,
0,
1,
0,
0,
0,
0,
0,
0,
0,
0,
0,
0,
0,
0,
0,
0,
0,
0,
0,
0,
0,
0,
0,
0,
0,
0,
0,
0,
0,
0,
0,
0,
0,
0,
0,
0,
0,
0,
0,
0,
0,
0,
0,
0,
0,
0,
0,
0,
0,
0,
0,
0,
0,
0,
0,
0,
0,
0,
0,
0,
0,
0,
0,
0,
0,
0,
0,
0,
0,
0,
0,
0,
0,
0,
0,
0,
0,
0,
0,
0,
0,
0,
0,
0,
0,
0,
0,
0,
0,
0,
0,
0,
0,
0,
0,
0,
0,
0,
0,
0,
0,
0,
0,
0,
0,
0,
0,
0,
0,
0,
0,
0,
0,
0,
0,
0,
0,
0,
0,
0,
0,
0,
0,
0,
0,
0,
0,
0,
0,
0,
0,
0,
0,
0,
0,
0,
0,
0,
0,
0,
0,
0,
0,
0,
0,
0,
0,
0,
0,
0,
0,
0,
0,
0,
0,
0,
0,
0,
0,
0,
0,
0,
0,
0,
0,
1,
0,
0,
0,
0,
0,
0,
0,
0,
0,
0,
0,
0,
0,
0,
0,
0,
0,
0,
0,
0,
0,
0,
0,
0,
0,
0,
0,
0,
0,
0,
0,
0,
0,
0,
0,
0,
0,
0,
0,
0,
0,
0,
0,
0,
0,
0,
0,
0,
0,
0,
0,
0,
0,
0,
0,
0,
0,
0,
0,
0,
0,
0,
0,
0,
0,
0,
0,
0,
0,
0,
0,
0,
0,
0,
0,
0,
0,
0,
0,
0,
0,
0,
0,
0,
0,
0,
0,
0,
0,
#ENDOFDATA   :