File: N132962/Quantification/20 keV/Glass Mount IIIB/GM IIIB K249[3][4].msa
#FORMAT      : EMSA/MAS Spectral Data File
#VERSION     : 1.0
#TITLE       : GM IIIB K249[3][all]
#DATE        : 10-SEP-2025
#TIME        : 18:50
#OWNER       : Unknown
#NPOINTS     : 4096
#NCOLUMNS    : 1
#XUNITS      : eV
#YUNITS      : counts
#DATATYPE    : Y
#XPERCHAN    : 9.99778
#OFFSET      : 1.69135
#BEAMKV      : 20
#SIGNALTYPE  : EDS
#ELEVANGLE   : 35
#AZIMANGLE   : 0
#LIVETIME    : 240.182
#REALTIME    : 264.805
#PROBECUR    : 1.2221
#TAUWIND     : 0
#TDEADLYR    : 0
#TACTLYR     : 0.045
#TALWIND     : 0.025
#CHOFFSET    : 0.0
#XLABEL      : Energy (eV)
#YLABEL      : Counts
#XPOSITION   : 10.20145
#YPOSITION   : 0.74285
#ZPOSITION   : 34.00159
#EDSDET      : SD
##SPECIMEN   : GM IIIB K249[3][all]
##D2STDCMP   : K249,(O:24.49),(Al:2.65),(Si:14.02),(Ba:8.96),(Ta:8.19),(Pb:39.45),(Bi:2.24)
##DET_HASH   : 12273538-fd48-a23f-0a19-f1e6fa85caef
##CALIB_HASH : 6abaa72c-aa41-8738-0be9-f592914732f3
##WORKING    : 15.0 mm
##DET_NAME   : EDAX All
##DET_MODE   : MediumLE
#SPECTRUM    :
25,
22,
8,
41,
154,
689,
2015,
4427,
9043,
11058,
7821,
5973,
5928,
6283,
7911,
17495,
54059,
97672,
71504,
22930,
9186,
7037,
6405,
7080,
6765,
6950,
6979,
7070,
6736,
6586,
6434,
6728,
7288,
7356,
7547,
7657,
7370,
7511,
7541,
7733,
7958,
8143,
8537,
9516,
10227,
10286,
9890,
11901,
20270,
32605,
33027,
21361,
13210,
10985,
12593,
24908,
69716,
145375,
183260,
131207,
61269,
28547,
17058,
10954,
8591,
7919,
7898,
7528,
7144,
7154,
7318,
8064,
8620,
9607,
11138,
15834,
32249,
65910,
95372,
93325,
78026,
72796,
61470,
38583,
18978,
10740,
8480,
8809,
10179,
9735,
7996,
6431,
5751,
5390,
5416,
5291,
5498,
5555,
5593,
5645,
5945,
6142,
6545,
6617,
6296,
6198,
5802,
5637,
5446,
5169,
5107,
5266,
5166,
4992,
5292,
5208,
5363,
5329,
5138,
5159,
4975,
4977,
4918,
4895,
5105,
4922,
5018,
4895,
5020,
5077,
4991,
5398,
5382,
5313,
5138,
5008,
5050,
5107,
4957,
5024,
4903,
4914,
4977,
4981,
5197,
5995,
8050,
11786,
16868,
18575,
15770,
11170,
7299,
5494,
4912,
4604,
4792,
4994,
5991,
7699,
9885,
11110,
10488,
8742,
7139,
6134,
5392,
4890,
4850,
4891,
5402,
6142,
6618,
6080,
5534,
4803,
4265,
4205,
4048,
4029,
4215,
4274,
4395,
4588,
4902,
4885,
4484,
4185,
4068,
3911,
3991,
3947,
4202,
4276,
4121,
3958,
3881,
3752,
3680,
3790,
3782,
3674,
3643,
3478,
3667,
3508,
3548,
3541,
3458,
3442,
3594,
3645,
3852,
3858,
3877,
3547,
3457,
3421,
3461,
3317,
3263,
3271,
3241,
3323,
3245,
3167,
3136,
3223,
3173,
3183,
3119,
3230,
3144,
3094,
3138,
3113,
3166,
3168,
3135,
3234,
3211,
3086,
3001,
2922,
2861,
2920,
2933,
3081,
3115,
3149,
3028,
2955,
2878,
2800,
2747,
2722,
2729,
2757,
2698,
2625,
2729,
2634,
2608,
2655,
2638,
2744,
2908,
3239,
4038,
5083,
6166,
6708,
6534,
5580,
4456,
3554,
2949,
2627,
2483,
2551,
2478,
2399,
2423,
2339,
2391,
2320,
2353,
2289,
2334,
2199,
2305,
2306,
2279,
2282,
2228,
2215,
2221,
2155,
2194,
2246,
2140,
2216,
2233,
2361,
2451,
2645,
2762,
2951,
3084,
3261,
3585,
3523,
3484,
3299,
2845,
2628,
2438,
2326,
2389,
2494,
2508,
2652,
2638,
2557,
2360,
2156,
2021,
1903,
1938,
1901,
1797,
1830,
1794,
1827,
1766,
1665,
1781,
1721,
1687,
1680,
1772,
1787,
1768,
1776,
1870,
2188,
2705,
3424,
4580,
6027,
7389,
8151,
7956,
6796,
5263,
3821,
2715,
2183,
1882,
1901,
1981,
2088,
1970,
1910,
1810,
1787,
1620,
1494,
1497,
1440,
1464,
1446,
1456,
1440,
1478,
1398,
1385,
1389,
1354,
1330,
1298,
1327,
1202,
1250,
1310,
1190,
1263,
1245,
1244,
1269,
1197,
1169,
1146,
1223,
1161,
1110,
1160,
1193,
1149,
1134,
1128,
1132,
1121,
1104,
1180,
1215,
1096,
1211,
1107,
1189,
1130,
1118,
1096,
1123,
1188,
1390,
1678,
2114,
2731,
3209,
3459,
3246,
2915,
2391,
1753,
1428,
1196,
1152,
1019,
1026,
1085,
1078,
1111,
1136,
1128,
1026,
954,
924,
864,
771,
841,
744,
811,
774,
763,
771,
765,
771,
687,
733,
749,
697,
709,
711,
698,
687,
648,
662,
695,
685,
675,
628,
654,
686,
645,
652,
615,
596,
592,
604,
611,
615,
597,
572,
602,
597,
567,
522,
600,
559,
586,
544,
552,
509,
561,
521,
556,
530,
575,
617,
713,
684,
669,
646,
629,
528,
504,
488,
473,
465,
454,
465,
463,
479,
464,
451,
459,
459,
451,
456,
420,
413,
420,
401,
405,
391,
382,
375,
345,
310,
344,
354,
341,
328,
317,
344,
343,
301,
298,
286,
301,
286,
313,
296,
314,
294,
272,
278,
299,
291,
281,
277,
265,
252,
291,
263,
249,
239,
258,
236,
268,
257,
227,
234,
227,
221,
240,
227,
237,
208,
212,
194,
201,
200,
214,
230,
199,
209,
186,
194,
180,
191,
192,
170,
178,
184,
170,
173,
164,
179,
147,
150,
140,
137,
146,
154,
141,
126,
150,
136,
140,
141,
137,
129,
124,
110,
116,
135,
137,
126,
121,
124,
106,
110,
103,
107,
97,
109,
108,
88,
101,
99,
105,
80,
78,
87,
87,
86,
91,
74,
89,
72,
75,
53,
89,
63,
66,
66,
66,
55,
59,
50,
62,
46,
52,
44,
46,
50,
38,
46,
54,
37,
43,
42,
36,
38,
44,
33,
31,
39,
31,
19,
25,
22,
24,
28,
17,
14,
13,
11,
11,
16,
11,
13,
8,
10,
4,
6,
6,
7,
4,
2,
3,
3,
1,
4,
6,
0,
3,
2,
5,
4,
2,
6,
1,
0,
2,
3,
6,
4,
2,
2,
3,
4,
2,
2,
3,
1,
2,
1,
4,
3,
2,
3,
3,
1,
2,
1,
5,
1,
3,
1,
1,
2,
2,
4,
3,
4,
2,
2,
1,
1,
0,
2,
2,
1,
0,
2,
0,
4,
1,
4,
2,
5,
4,
5,
0,
3,
1,
0,
1,
3,
1,
2,
2,
0,
0,
0,
1,
2,
1,
0,
1,
1,
2,
1,
0,
1,
3,
0,
0,
0,
0,
3,
1,
2,
1,
1,
3,
1,
3,
0,
1,
0,
4,
1,
3,
2,
1,
1,
0,
0,
2,
0,
0,
1,
1,
1,
0,
2,
0,
0,
0,
3,
2,
1,
0,
0,
1,
0,
0,
2,
0,
0,
0,
1,
1,
0,
0,
0,
1,
0,
0,
2,
0,
1,
0,
0,
2,
3,
0,
0,
0,
0,
0,
0,
0,
2,
4,
1,
2,
1,
1,
1,
0,
0,
1,
0,
1,
0,
1,
1,
1,
0,
1,
1,
1,
0,
1,
0,
0,
0,
0,
1,
0,
1,
0,
1,
1,
0,
1,
1,
0,
2,
0,
0,
0,
0,
0,
0,
0,
0,
1,
1,
0,
3,
1,
2,
0,
1,
0,
0,
0,
1,
0,
0,
0,
2,
1,
1,
0,
0,
0,
0,
0,
0,
0,
0,
2,
0,
0,
0,
1,
0,
0,
0,
0,
0,
1,
0,
0,
0,
0,
0,
1,
1,
0,
0,
0,
0,
0,
1,
1,
0,
1,
0,
0,
0,
1,
0,
0,
2,
0,
1,
0,
0,
0,
0,
1,
0,
0,
0,
0,
0,
0,
0,
0,
0,
0,
0,
0,
0,
0,
0,
0,
0,
0,
0,
0,
0,
0,
0,
0,
0,
0,
0,
1,
0,
0,
0,
0,
0,
0,
0,
0,
0,
0,
0,
0,
0,
0,
0,
0,
0,
0,
0,
1,
0,
0,
1,
0,
0,
0,
0,
0,
0,
0,
0,
0,
0,
0,
0,
0,
0,
0,
0,
1,
0,
0,
0,
0,
0,
0,
0,
0,
0,
0,
0,
0,
0,
0,
0,
0,
0,
0,
0,
0,
0,
1,
0,
0,
0,
0,
0,
0,
0,
0,
0,
0,
0,
0,
0,
0,
0,
0,
0,
0,
0,
0,
0,
0,
0,
0,
0,
0,
0,
0,
0,
0,
0,
0,
0,
0,
0,
0,
0,
0,
0,
0,
0,
0,
0,
0,
0,
0,
0,
0,
0,
0,
0,
0,
0,
0,
0,
0,
0,
0,
0,
0,
0,
0,
0,
0,
0,
0,
0,
0,
0,
0,
0,
0,
0,
0,
0,
0,
0,
0,
0,
0,
0,
0,
0,
0,
0,
0,
0,
1,
0,
0,
0,
0,
0,
0,
0,
0,
0,
0,
0,
0,
0,
0,
0,
0,
0,
0,
0,
0,
0,
0,
0,
0,
0,
0,
0,
0,
0,
0,
0,
0,
0,
0,
0,
0,
0,
0,
0,
0,
0,
0,
0,
0,
0,
0,
0,
0,
0,
0,
0,
0,
0,
0,
0,
0,
0,
0,
0,
0,
0,
0,
0,
0,
0,
0,
0,
0,
0,
0,
0,
0,
0,
0,
0,
0,
0,
0,
0,
0,
0,
0,
0,
0,
0,
0,
0,
0,
0,
0,
0,
0,
0,
0,
0,
0,
0,
0,
0,
0,
0,
0,
0,
0,
0,
0,
0,
0,
0,
0,
0,
0,
0,
0,
0,
0,
0,
0,
0,
0,
0,
0,
0,
0,
0,
0,
0,
0,
0,
0,
0,
0,
0,
0,
0,
0,
0,
0,
0,
0,
0,
0,
0,
0,
0,
0,
0,
0,
0,
0,
0,
0,
0,
0,
0,
0,
0,
0,
0,
0,
0,
0,
0,
0,
0,
0,
0,
0,
0,
0,
0,
0,
0,
0,
0,
0,
0,
0,
0,
0,
0,
0,
0,
0,
0,
0,
0,
0,
0,
0,
0,
0,
0,
0,
0,
0,
0,
0,
0,
0,
0,
0,
0,
0,
0,
0,
0,
0,
0,
0,
0,
0,
0,
0,
0,
0,
0,
0,
0,
0,
0,
0,
0,
0,
0,
0,
0,
0,
0,
0,
0,
0,
0,
0,
0,
0,
0,
0,
0,
0,
0,
0,
0,
0,
0,
0,
0,
0,
0,
#ENDOFDATA   :