File: N132962/Quantification/20 keV/Glass Mount IIIB/GM IIIB K508[4][4].msa
#FORMAT      : EMSA/MAS Spectral Data File
#VERSION     : 1.0
#TITLE       : GM IIIB K508[4][all]
#DATE        : 11-SEP-2025
#TIME        : 09:34
#OWNER       : Unknown
#NPOINTS     : 4096
#NCOLUMNS    : 1
#XUNITS      : eV
#YUNITS      : counts
#DATATYPE    : Y
#XPERCHAN    : 9.99778
#OFFSET      : 1.69135
#BEAMKV      : 20
#SIGNALTYPE  : EDS
#ELEVANGLE   : 35
#AZIMANGLE   : 0
#LIVETIME    : 240.173
#REALTIME    : 258.776
#PROBECUR    : 1.22303
#TAUWIND     : 0
#TDEADLYR    : 0
#TACTLYR     : 0.045
#TALWIND     : 0.025
#CHOFFSET    : 0.0
#XLABEL      : Energy (eV)
#YLABEL      : Counts
#XPOSITION   : 8.57861
#YPOSITION   : 9.66521
#ZPOSITION   : 34.00161
#EDSDET      : SD
##SPECIMEN   : GM IIIB K508[4][all]
##D2STDCMP   : K508,(B:9.26),(O:41.14),(Si:12.06),(Sr:37.54)
##DET_HASH   : 12273538-fd48-a23f-0a19-f1e6fa85caef
##CALIB_HASH : 6abaa72c-aa41-8738-0be9-f592914732f3
##WORKING    : 15.0 mm
##DET_NAME   : EDAX All
##DET_MODE   : MediumLE
#SPECTRUM    :
25,
25,
11,
51,
287,
976,
1866,
3723,
8606,
10814,
5998,
3363,
4029,
4604,
5993,
17541,
62429,
116994,
84515,
23402,
5030,
5284,
8479,
7974,
4930,
3490,
3593,
3764,
4157,
4372,
4482,
4646,
4842,
5128,
5681,
5705,
5600,
5633,
5887,
5951,
6309,
6366,
6614,
6554,
6664,
6862,
7067,
7065,
7512,
7986,
8735,
10481,
14243,
16203,
15650,
20725,
52579,
127706,
200331,
233158,
242762,
199847,
127125,
72049,
35967,
16921,
8914,
5341,
3906,
3467,
3355,
3560,
3873,
4154,
4145,
4012,
4055,
4115,
4123,
3724,
3588,
3500,
3345,
3315,
3321,
3397,
3336,
3603,
3533,
3442,
3339,
3428,
3413,
3438,
3387,
3384,
3331,
3414,
3492,
3587,
3567,
3457,
3440,
3373,
3401,
3371,
3367,
3459,
3412,
3480,
3594,
3506,
3480,
3347,
3425,
3438,
3564,
3704,
3725,
3712,
3736,
3833,
3998,
3957,
3811,
3444,
3281,
3045,
3040,
2898,
2934,
2865,
3027,
2926,
2961,
2866,
2932,
2839,
2868,
2766,
2861,
2823,
2740,
2800,
2786,
2719,
2844,
2766,
2727,
2812,
2971,
2910,
2789,
2725,
2617,
2528,
2469,
2568,
2530,
2504,
2478,
2463,
2443,
2469,
2476,
2426,
2300,
2382,
2397,
2314,
2273,
2342,
2300,
2351,
2292,
2248,
2252,
2298,
2193,
2168,
2188,
2212,
2154,
2103,
2200,
2087,
2009,
2079,
2059,
2086,
2062,
2027,
1942,
1978,
1989,
1994,
1987,
1909,
1939,
1911,
1927,
1932,
1882,
1884,
1886,
1887,
1877,
1800,
1822,
1846,
1740,
1827,
1879,
1968,
1886,
1850,
1701,
1718,
1739,
1631,
1670,
1708,
1555,
1613,
1656,
1612,
1603,
1583,
1599,
1629,
1562,
1501,
1575,
1607,
1541,
1529,
1466,
1530,
1530,
1473,
1506,
1506,
1412,
1434,
1470,
1483,
1452,
1458,
1474,
1543,
1498,
1463,
1382,
1359,
1307,
1387,
1353,
1262,
1296,
1310,
1309,
1266,
1235,
1226,
1306,
1291,
1250,
1213,
1228,
1203,
1185,
1186,
1182,
1259,
1207,
1178,
1219,
1144,
1142,
1145,
1089,
1123,
1095,
1109,
1096,
1206,
1074,
1162,
1147,
1101,
986,
1109,
1018,
1058,
1041,
1015,
1034,
1071,
947,
986,
964,
1021,
979,
943,
944,
947,
947,
944,
916,
934,
854,
928,
874,
898,
872,
927,
873,
854,
856,
853,
917,
853,
923,
833,
816,
813,
786,
768,
816,
805,
831,
787,
818,
739,
720,
775,
757,
759,
750,
765,
761,
723,
712,
735,
719,
736,
750,
756,
715,
633,
732,
701,
703,
662,
696,
629,
706,
646,
640,
672,
657,
644,
608,
620,
671,
684,
599,
609,
609,
600,
579,
595,
612,
546,
551,
558,
576,
549,
561,
543,
547,
518,
542,
545,
547,
513,
522,
523,
474,
480,
439,
523,
503,
486,
493,
484,
444,
481,
419,
482,
457,
473,
473,
444,
465,
446,
435,
424,
423,
433,
425,
432,
394,
411,
391,
389,
391,
402,
400,
369,
403,
368,
367,
373,
352,
361,
357,
369,
335,
376,
388,
349,
375,
353,
351,
332,
326,
323,
311,
301,
331,
298,
280,
296,
314,
328,
308,
266,
344,
277,
286,
258,
248,
271,
281,
242,
276,
287,
261,
284,
255,
269,
289,
318,
376,
448,
657,
992,
1278,
1575,
1849,
1811,
1816,
1485,
1207,
858,
523,
424,
328,
293,
229,
197,
203,
233,
211,
214,
190,
196,
191,
204,
196,
174,
176,
178,
196,
149,
151,
193,
157,
165,
179,
150,
182,
143,
161,
159,
153,
157,
157,
149,
151,
157,
149,
131,
138,
145,
147,
154,
132,
147,
132,
157,
174,
185,
241,
290,
352,
342,
360,
291,
249,
188,
171,
166,
159,
140,
113,
119,
130,
104,
105,
94,
84,
66,
105,
88,
99,
83,
72,
71,
84,
84,
70,
79,
77,
74,
70,
84,
80,
65,
66,
68,
70,
65,
57,
58,
54,
77,
59,
57,
59,
41,
61,
54,
57,
60,
52,
57,
46,
45,
54,
49,
44,
48,
45,
46,
41,
39,
50,
43,
48,
48,
49,
43,
46,
41,
42,
37,
29,
26,
32,
31,
38,
28,
32,
26,
28,
30,
37,
37,
34,
26,
37,
32,
28,
39,
25,
34,
25,
11,
25,
16,
27,
13,
20,
21,
22,
20,
13,
12,
16,
17,
9,
20,
12,
16,
11,
9,
8,
13,
13,
15,
9,
16,
5,
12,
10,
6,
11,
5,
9,
6,
4,
9,
7,
5,
3,
2,
5,
4,
1,
3,
1,
3,
3,
1,
2,
1,
1,
1,
0,
0,
1,
0,
1,
0,
1,
1,
0,
0,
0,
0,
1,
1,
2,
1,
0,
0,
2,
0,
2,
2,
1,
0,
1,
0,
0,
0,
1,
0,
0,
0,
0,
2,
0,
0,
0,
0,
0,
2,
0,
1,
0,
0,
1,
0,
0,
0,
0,
0,
1,
0,
0,
1,
0,
0,
0,
0,
0,
0,
0,
0,
1,
0,
1,
2,
1,
0,
0,
1,
0,
0,
1,
0,
1,
1,
0,
0,
1,
0,
0,
0,
0,
0,
0,
0,
0,
0,
0,
0,
1,
0,
0,
0,
0,
0,
0,
0,
0,
0,
0,
1,
0,
0,
0,
0,
0,
0,
0,
0,
0,
0,
0,
0,
0,
0,
0,
0,
0,
0,
0,
0,
0,
0,
0,
0,
0,
0,
0,
0,
0,
1,
0,
0,
0,
0,
1,
0,
0,
0,
0,
0,
1,
0,
0,
0,
0,
0,
0,
0,
0,
0,
1,
0,
1,
0,
0,
0,
0,
0,
0,
1,
0,
0,
0,
0,
0,
0,
0,
1,
0,
0,
1,
0,
0,
0,
1,
0,
0,
0,
0,
0,
0,
0,
0,
1,
0,
0,
0,
0,
0,
0,
0,
0,
0,
0,
0,
0,
0,
0,
1,
0,
0,
0,
0,
0,
0,
0,
0,
0,
0,
0,
2,
0,
0,
0,
0,
0,
1,
0,
0,
0,
0,
0,
0,
0,
0,
0,
0,
0,
0,
0,
0,
0,
0,
0,
0,
0,
0,
0,
0,
0,
0,
0,
0,
0,
0,
0,
0,
0,
0,
0,
0,
0,
0,
0,
0,
0,
0,
0,
0,
0,
0,
0,
0,
0,
0,
0,
0,
0,
0,
0,
0,
0,
0,
0,
0,
0,
0,
0,
0,
0,
0,
0,
0,
0,
0,
0,
0,
0,
0,
0,
0,
0,
0,
0,
0,
0,
0,
0,
0,
0,
0,
0,
0,
0,
0,
0,
0,
0,
0,
0,
0,
0,
0,
0,
0,
0,
0,
0,
0,
0,
0,
0,
0,
1,
0,
0,
0,
0,
0,
0,
0,
0,
0,
0,
0,
0,
0,
0,
0,
0,
0,
0,
0,
0,
0,
0,
0,
0,
0,
0,
0,
0,
0,
0,
0,
0,
0,
0,
0,
0,
0,
0,
0,
0,
0,
0,
0,
0,
0,
0,
0,
0,
0,
0,
0,
0,
0,
0,
0,
0,
0,
0,
0,
0,
0,
0,
0,
0,
0,
0,
0,
0,
0,
0,
0,
0,
0,
0,
0,
0,
0,
0,
0,
0,
0,
0,
0,
0,
0,
0,
0,
0,
0,
0,
0,
0,
0,
0,
0,
0,
0,
0,
0,
0,
0,
0,
0,
0,
0,
0,
0,
0,
0,
0,
0,
0,
0,
0,
0,
0,
0,
0,
0,
0,
0,
0,
0,
0,
0,
0,
0,
0,
0,
0,
0,
0,
0,
0,
0,
0,
0,
0,
0,
0,
0,
0,
0,
0,
0,
0,
0,
0,
0,
0,
0,
0,
0,
0,
0,
0,
0,
0,
0,
0,
0,
0,
0,
0,
0,
0,
0,
0,
0,
0,
0,
0,
0,
0,
0,
0,
0,
0,
0,
0,
0,
0,
0,
0,
0,
0,
0,
0,
0,
0,
0,
0,
0,
0,
0,
0,
0,
0,
0,
0,
0,
0,
0,
0,
0,
0,
0,
0,
0,
0,
0,
0,
0,
0,
0,
0,
0,
0,
0,
0,
0,
0,
0,
0,
0,
0,
0,
0,
0,
0,
0,
0,
0,
0,
0,
0,
0,
0,
0,
0,
0,
0,
0,
0,
0,
0,
0,
0,
0,
0,
0,
0,
0,
0,
0,
0,
0,
0,
0,
0,
0,
0,
0,
0,
0,
0,
0,
0,
0,
0,
0,
0,
0,
0,
0,
0,
0,
0,
0,
0,
0,
0,
0,
0,
0,
0,
0,
0,
0,
0,
0,
0,
0,
0,
0,
0,
0,
0,
0,
0,
0,
0,
0,
0,
0,
0,
0,
0,
0,
0,
0,
0,
0,
0,
0,
0,
0,
0,
0,
0,
0,
0,
0,
0,
0,
0,
0,
0,
0,
0,
0,
0,
0,
0,
0,
0,
0,
0,
0,
0,
0,
0,
0,
0,
0,
0,
0,
0,
0,
0,
0,
0,
0,
0,
0,
0,
0,
0,
0,
0,
0,
0,
0,
0,
0,
0,
0,
0,
0,
0,
#ENDOFDATA   :