File: N132962/Quantification/20 keV/Glass Mount IIIB/GM IIIB K252[1][4].msa
#FORMAT      : EMSA/MAS Spectral Data File
#VERSION     : 1.0
#TITLE       : GM IIIB K252[1][all]
#DATE        : 10-SEP-2025
#TIME        : 19:00
#OWNER       : Unknown
#NPOINTS     : 4096
#NCOLUMNS    : 1
#XUNITS      : eV
#YUNITS      : counts
#DATATYPE    : Y
#XPERCHAN    : 9.99778
#OFFSET      : 1.69135
#BEAMKV      : 20
#SIGNALTYPE  : EDS
#ELEVANGLE   : 35
#AZIMANGLE   : 0
#LIVETIME    : 240.165
#REALTIME    : 261.423
#PROBECUR    : 1.2221
#TAUWIND     : 0
#TDEADLYR    : 0
#TACTLYR     : 0.045
#TALWIND     : 0.025
#CHOFFSET    : 0.0
#XLABEL      : Energy (eV)
#YLABEL      : Counts
#XPOSITION   : 5.61341
#YPOSITION   : 0.69859
#ZPOSITION   : 34.00159
#EDSDET      : SD
##SPECIMEN   : GM IIIB K252[1][all]
##D2STDCMP   : K252,(O:30.83),(Si:18.7),(Mn:3.16),(Co:3.93),(Cu:3.99),(Zn:8.03),(Ba:31.35)
##DET_HASH   : 12273538-fd48-a23f-0a19-f1e6fa85caef
##CALIB_HASH : 6abaa72c-aa41-8738-0be9-f592914732f3
##WORKING    : 15.0 mm
##DET_NAME   : EDAX All
##DET_MODE   : MediumLE
#SPECTRUM    :
23,
30,
7,
28,
117,
486,
1335,
3136,
6804,
8621,
6206,
5351,
6162,
7070,
10732,
30273,
104303,
194889,
142246,
42974,
14653,
10880,
8690,
7247,
8232,
12806,
15613,
11698,
7754,
8341,
12450,
16864,
19209,
26112,
29411,
19824,
9070,
5437,
4474,
4336,
4300,
4411,
4539,
4732,
4888,
5101,
5079,
5237,
5726,
6160,
6513,
6250,
6270,
6300,
7466,
14717,
48189,
118342,
159423,
113004,
47737,
18607,
9941,
6459,
5094,
4652,
4603,
4650,
4704,
4760,
4766,
4876,
4923,
5124,
5220,
5617,
5579,
5316,
5166,
5112,
5005,
5209,
4862,
5159,
5046,
4986,
5020,
4958,
5234,
5221,
5401,
5374,
5123,
5002,
4999,
4863,
4903,
4907,
4914,
4980,
5094,
4995,
4879,
5003,
4887,
4840,
4574,
4697,
4695,
4582,
4712,
4691,
4587,
4583,
4723,
4630,
4566,
4534,
4502,
4392,
4318,
4502,
4286,
4374,
4421,
4217,
4256,
4145,
4264,
4622,
5191,
5841,
6142,
5636,
4966,
4517,
4060,
4005,
4062,
4109,
4112,
4176,
4259,
4765,
5686,
8776,
16616,
32410,
49805,
56289,
46011,
27831,
13501,
6578,
4374,
4032,
4191,
5530,
9115,
16187,
24060,
28777,
26500,
20127,
13887,
9704,
7270,
5784,
5046,
5720,
8148,
10820,
11842,
10445,
7867,
5126,
3782,
3192,
3136,
3058,
3254,
3555,
4210,
5296,
6059,
6041,
5029,
3973,
3278,
3011,
3175,
3448,
4372,
5499,
7194,
9681,
11047,
10764,
8657,
6020,
4169,
2965,
2588,
2401,
2458,
2433,
2469,
2367,
2364,
2411,
2425,
2511,
2617,
2890,
3070,
3360,
3366,
3257,
2946,
2592,
2359,
2252,
2167,
2136,
2085,
2225,
2553,
3112,
4573,
6694,
8309,
8659,
7463,
5669,
3834,
2674,
2291,
2081,
2004,
2000,
1960,
1946,
1943,
1958,
1904,
1873,
1961,
1924,
1969,
2061,
2078,
2083,
2291,
2442,
2587,
2696,
2435,
2285,
2067,
1926,
1751,
1773,
1795,
2141,
2549,
3534,
4801,
6205,
6320,
5903,
4663,
3277,
2411,
1925,
1836,
1634,
1585,
1645,
1590,
1636,
1589,
1685,
2000,
2583,
3801,
5760,
7875,
9567,
9484,
8083,
5984,
4029,
2526,
2052,
1962,
1898,
2080,
1986,
1939,
1760,
1631,
1471,
1384,
1430,
1335,
1388,
1363,
1389,
1313,
1395,
1266,
1325,
1338,
1318,
1411,
1542,
1757,
2072,
2248,
2340,
2186,
1915,
1633,
1371,
1261,
1216,
1209,
1195,
1113,
1156,
1113,
1154,
1125,
1155,
1037,
1101,
1083,
1035,
1075,
1078,
1078,
1048,
1139,
1082,
1077,
1058,
1031,
970,
1014,
1052,
1033,
1047,
981,
974,
962,
1022,
933,
941,
914,
946,
907,
930,
911,
913,
894,
878,
883,
875,
880,
867,
894,
797,
875,
818,
844,
819,
837,
873,
776,
819,
804,
766,
776,
758,
727,
759,
790,
715,
779,
796,
719,
708,
666,
748,
718,
752,
722,
699,
681,
651,
695,
732,
683,
650,
630,
626,
653,
624,
688,
601,
646,
639,
625,
626,
590,
635,
580,
576,
583,
581,
579,
562,
575,
549,
587,
540,
563,
578,
545,
515,
522,
499,
525,
497,
509,
534,
505,
470,
501,
496,
476,
452,
494,
456,
457,
441,
454,
457,
446,
421,
442,
418,
397,
440,
434,
427,
399,
401,
349,
409,
401,
377,
421,
365,
347,
371,
378,
367,
364,
356,
367,
357,
397,
363,
338,
342,
309,
314,
345,
322,
327,
306,
347,
307,
342,
286,
325,
287,
300,
281,
276,
279,
282,
284,
283,
270,
266,
261,
255,
247,
252,
265,
289,
277,
248,
250,
235,
262,
230,
211,
204,
225,
237,
207,
221,
243,
209,
199,
214,
196,
198,
218,
221,
187,
182,
175,
189,
158,
162,
196,
168,
172,
185,
182,
162,
185,
183,
182,
140,
154,
152,
159,
154,
143,
139,
169,
126,
130,
138,
165,
173,
114,
141,
138,
115,
123,
154,
129,
136,
130,
115,
136,
102,
122,
121,
129,
108,
106,
90,
93,
97,
121,
104,
111,
104,
93,
101,
114,
81,
93,
78,
102,
76,
93,
81,
87,
86,
75,
85,
76,
71,
71,
78,
75,
83,
62,
57,
79,
70,
65,
46,
62,
59,
74,
70,
47,
51,
56,
50,
50,
55,
56,
52,
52,
47,
50,
40,
43,
45,
33,
40,
36,
29,
42,
41,
33,
37,
37,
35,
30,
26,
31,
28,
33,
28,
30,
19,
25,
26,
25,
18,
22,
19,
18,
20,
15,
18,
10,
15,
10,
12,
12,
5,
10,
9,
10,
9,
7,
4,
5,
5,
3,
6,
3,
4,
5,
3,
5,
2,
2,
4,
4,
2,
1,
1,
3,
1,
0,
0,
1,
1,
1,
1,
2,
2,
1,
2,
1,
0,
0,
1,
1,
0,
0,
1,
2,
1,
1,
1,
1,
2,
1,
1,
1,
3,
0,
1,
0,
0,
0,
1,
1,
1,
0,
1,
3,
2,
0,
0,
0,
0,
0,
0,
0,
1,
2,
0,
1,
1,
0,
0,
2,
2,
1,
1,
0,
1,
1,
0,
0,
0,
0,
2,
0,
0,
0,
2,
0,
0,
1,
0,
1,
0,
0,
0,
0,
2,
1,
1,
1,
1,
1,
0,
0,
2,
0,
1,
0,
0,
0,
1,
0,
0,
0,
0,
1,
0,
1,
1,
1,
1,
0,
0,
0,
0,
2,
0,
1,
0,
1,
0,
0,
1,
0,
1,
1,
0,
0,
0,
0,
0,
2,
1,
1,
0,
0,
0,
1,
1,
1,
0,
1,
0,
1,
0,
0,
1,
0,
0,
0,
0,
0,
0,
0,
1,
0,
0,
0,
0,
1,
0,
0,
0,
0,
0,
0,
0,
0,
0,
0,
0,
0,
0,
0,
0,
0,
0,
0,
0,
0,
0,
0,
0,
0,
0,
0,
0,
0,
0,
0,
0,
0,
0,
0,
0,
0,
1,
0,
0,
0,
0,
0,
1,
1,
0,
1,
0,
1,
0,
0,
0,
0,
0,
0,
0,
0,
0,
0,
0,
0,
0,
0,
0,
0,
0,
0,
0,
0,
0,
0,
0,
0,
0,
0,
0,
0,
0,
0,
0,
0,
0,
0,
0,
0,
0,
0,
0,
0,
0,
0,
1,
0,
0,
0,
0,
0,
0,
0,
0,
0,
0,
0,
0,
0,
0,
0,
1,
0,
0,
0,
0,
0,
0,
0,
0,
0,
1,
0,
0,
0,
1,
0,
0,
0,
0,
0,
0,
0,
0,
0,
0,
0,
0,
0,
0,
0,
0,
0,
0,
0,
0,
0,
0,
0,
0,
0,
0,
0,
0,
0,
0,
0,
0,
0,
0,
0,
0,
0,
0,
0,
0,
0,
0,
0,
0,
0,
0,
0,
0,
0,
0,
0,
0,
0,
0,
0,
0,
0,
0,
0,
0,
0,
0,
0,
0,
0,
0,
0,
0,
0,
0,
0,
0,
0,
1,
0,
0,
0,
0,
0,
0,
0,
0,
0,
0,
0,
0,
0,
0,
0,
0,
0,
0,
0,
0,
0,
0,
0,
0,
0,
0,
0,
0,
0,
0,
0,
0,
0,
0,
0,
0,
0,
0,
0,
0,
0,
0,
0,
0,
0,
0,
0,
0,
0,
0,
0,
0,
0,
0,
0,
0,
0,
0,
0,
0,
0,
0,
0,
0,
0,
0,
0,
0,
0,
0,
0,
0,
0,
0,
0,
0,
0,
0,
0,
0,
0,
0,
0,
0,
0,
0,
0,
0,
0,
0,
0,
0,
0,
0,
0,
0,
0,
0,
0,
0,
0,
0,
0,
0,
0,
0,
0,
0,
0,
0,
0,
0,
0,
0,
0,
0,
0,
0,
0,
0,
0,
0,
0,
0,
0,
0,
0,
0,
0,
0,
0,
0,
0,
0,
0,
0,
0,
0,
0,
0,
0,
0,
0,
0,
0,
0,
0,
0,
0,
0,
0,
0,
0,
0,
0,
0,
0,
0,
0,
0,
0,
0,
0,
0,
0,
0,
0,
0,
0,
0,
0,
0,
0,
0,
0,
0,
0,
0,
0,
0,
0,
0,
0,
0,
0,
0,
0,
0,
0,
0,
0,
0,
0,
0,
0,
0,
0,
0,
0,
0,
0,
0,
0,
0,
0,
0,
0,
0,
0,
0,
0,
0,
0,
0,
0,
0,
0,
0,
0,
0,
0,
0,
0,
0,
0,
0,
0,
0,
0,
0,
0,
0,
0,
0,
0,
0,
0,
0,
0,
0,
0,
0,
0,
0,
0,
0,
0,
0,
0,
0,
0,
0,
0,
0,
0,
0,
0,
0,
0,
0,
0,
0,
0,
0,
0,
0,
0,
0,
0,
0,
0,
0,
0,
0,
0,
0,
0,
0,
0,
0,
0,
0,
0,
0,
0,
0,
0,
0,
0,
0,
0,
0,
0,
0,
0,
0,
0,
0,
0,
0,
0,
0,
0,
0,
0,
0,
0,
0,
0,
0,
0,
0,
0,
0,
0,
0,
0,
0,
0,
0,
0,
0,
0,
0,
0,
0,
0,
0,
0,
0,
0,
0,
0,
0,
0,
0,
0,
0,
0,
0,
0,
#ENDOFDATA   :