File: N132962/Quantification/20 keV/Glass Mount IIIB/GM IIIB K508[1][4].msa
#FORMAT      : EMSA/MAS Spectral Data File
#VERSION     : 1.0
#TITLE       : GM IIIB K508[1][all]
#DATE        : 11-SEP-2025
#TIME        : 09:30
#OWNER       : Unknown
#NPOINTS     : 4096
#NCOLUMNS    : 1
#XUNITS      : eV
#YUNITS      : counts
#DATATYPE    : Y
#XPERCHAN    : 9.99778
#OFFSET      : 1.69135
#BEAMKV      : 20
#SIGNALTYPE  : EDS
#ELEVANGLE   : 35
#AZIMANGLE   : 0
#LIVETIME    : 240.052
#REALTIME    : 258.84
#PROBECUR    : 1.22303
#TAUWIND     : 0
#TDEADLYR    : 0
#TACTLYR     : 0.045
#TALWIND     : 0.025
#CHOFFSET    : 0.0
#XLABEL      : Energy (eV)
#YLABEL      : Counts
#XPOSITION   : 8.56472
#YPOSITION   : 9.63677
#ZPOSITION   : 34.00161
#EDSDET      : SD
##SPECIMEN   : GM IIIB K508[1][all]
##D2STDCMP   : K508,(B:9.26),(O:41.14),(Si:12.06),(Sr:37.54)
##DET_HASH   : 12273538-fd48-a23f-0a19-f1e6fa85caef
##CALIB_HASH : 6abaa72c-aa41-8738-0be9-f592914732f3
##WORKING    : 15.0 mm
##DET_NAME   : EDAX All
##DET_MODE   : MediumLE
#SPECTRUM    :
25,
25,
16,
68,
315,
1033,
1972,
3061,
5948,
7449,
4527,
3172,
3566,
4291,
6179,
18822,
67509,
125933,
91950,
24933,
4609,
3384,
4229,
4280,
3674,
3358,
3587,
3844,
4245,
4395,
4518,
4680,
5082,
5168,
5567,
5691,
5758,
5700,
5840,
5958,
6128,
6404,
6553,
6596,
6857,
6847,
7172,
7163,
7578,
8000,
8500,
10949,
14585,
16399,
16048,
20965,
52465,
127091,
199839,
236493,
247653,
204084,
130490,
74181,
36954,
17490,
9167,
5276,
3892,
3424,
3428,
3618,
3866,
4193,
4076,
4050,
3934,
4086,
3927,
3617,
3485,
3347,
3334,
3392,
3311,
3357,
3398,
3371,
3412,
3334,
3354,
3335,
3362,
3363,
3418,
3499,
3480,
3432,
3423,
3452,
3497,
3468,
3375,
3429,
3505,
3388,
3367,
3301,
3343,
3373,
3492,
3391,
3378,
3465,
3478,
3411,
3483,
3634,
3792,
3739,
3722,
3626,
3704,
3616,
3530,
3236,
3209,
3129,
2984,
3082,
3025,
3008,
2910,
3000,
2981,
3042,
2991,
2912,
2885,
2717,
2806,
2791,
2810,
2806,
2859,
2672,
2762,
2810,
2842,
2960,
2958,
2867,
2832,
2653,
2631,
2521,
2588,
2651,
2543,
2511,
2463,
2383,
2513,
2513,
2492,
2511,
2425,
2394,
2356,
2331,
2302,
2373,
2374,
2336,
2322,
2250,
2270,
2279,
2271,
2259,
2149,
2180,
2202,
2166,
2101,
2213,
2037,
2121,
2154,
2011,
2067,
2031,
2061,
2027,
2033,
1946,
1926,
1974,
1975,
1943,
1934,
1864,
1870,
1869,
1878,
1892,
1779,
1799,
1953,
1811,
1889,
1869,
1955,
1988,
1957,
1849,
1796,
1788,
1749,
1672,
1690,
1667,
1604,
1645,
1682,
1590,
1612,
1600,
1606,
1619,
1562,
1587,
1513,
1557,
1456,
1590,
1543,
1594,
1528,
1498,
1467,
1498,
1493,
1445,
1445,
1352,
1429,
1408,
1499,
1542,
1433,
1438,
1430,
1408,
1317,
1286,
1287,
1362,
1335,
1315,
1342,
1292,
1306,
1245,
1195,
1169,
1223,
1213,
1258,
1244,
1243,
1224,
1222,
1217,
1177,
1185,
1180,
1281,
1164,
1127,
1175,
1183,
1164,
1126,
1101,
1050,
1119,
1098,
1123,
1041,
1013,
1064,
1061,
1015,
969,
1013,
1034,
975,
981,
956,
965,
943,
1028,
968,
955,
987,
953,
938,
921,
963,
940,
874,
940,
914,
955,
909,
845,
858,
886,
860,
882,
867,
908,
829,
844,
859,
838,
864,
790,
854,
814,
842,
827,
777,
805,
811,
807,
760,
755,
777,
801,
778,
799,
747,
686,
743,
696,
744,
750,
716,
748,
666,
698,
665,
677,
669,
668,
675,
643,
686,
663,
678,
618,
612,
593,
614,
624,
624,
618,
597,
589,
589,
619,
612,
561,
588,
585,
514,
564,
577,
530,
545,
573,
536,
541,
526,
551,
550,
522,
530,
532,
461,
483,
533,
494,
456,
467,
445,
508,
475,
512,
435,
501,
457,
499,
429,
490,
503,
422,
429,
446,
426,
419,
426,
418,
403,
384,
408,
421,
395,
395,
394,
392,
389,
402,
333,
387,
361,
326,
354,
355,
332,
356,
358,
378,
352,
335,
330,
334,
341,
341,
342,
309,
341,
331,
305,
316,
309,
315,
320,
273,
307,
282,
291,
313,
283,
249,
272,
291,
274,
289,
259,
283,
302,
363,
471,
661,
992,
1302,
1624,
1895,
1952,
1809,
1526,
1160,
918,
595,
408,
321,
218,
228,
242,
176,
208,
220,
210,
213,
190,
209,
186,
173,
192,
168,
190,
193,
178,
188,
183,
158,
178,
202,
157,
153,
161,
174,
176,
187,
143,
137,
168,
147,
143,
147,
139,
143,
139,
142,
142,
156,
149,
154,
170,
170,
228,
235,
316,
335,
342,
334,
313,
261,
248,
175,
156,
164,
135,
135,
127,
124,
118,
92,
103,
86,
92,
91,
94,
83,
101,
94,
76,
83,
72,
78,
78,
94,
66,
99,
72,
72,
79,
68,
77,
70,
75,
70,
73,
78,
56,
49,
79,
61,
67,
54,
58,
54,
50,
64,
56,
58,
45,
52,
60,
52,
56,
50,
60,
35,
36,
63,
43,
45,
38,
50,
38,
38,
41,
44,
33,
32,
41,
35,
40,
36,
32,
33,
29,
29,
30,
26,
38,
27,
20,
31,
19,
21,
28,
35,
25,
17,
24,
21,
5,
16,
17,
31,
20,
15,
20,
14,
21,
17,
16,
17,
10,
23,
11,
15,
10,
14,
20,
13,
13,
15,
11,
4,
16,
7,
4,
5,
10,
6,
7,
4,
8,
5,
2,
6,
4,
8,
3,
2,
0,
1,
0,
1,
0,
0,
2,
1,
0,
1,
1,
0,
1,
1,
0,
0,
1,
0,
0,
0,
0,
0,
0,
0,
1,
0,
0,
0,
0,
0,
1,
1,
1,
0,
0,
0,
1,
1,
1,
0,
1,
0,
0,
1,
0,
1,
0,
0,
0,
1,
0,
0,
1,
2,
0,
0,
0,
1,
1,
1,
0,
0,
1,
0,
0,
1,
1,
0,
0,
0,
1,
0,
0,
0,
0,
0,
2,
0,
0,
0,
0,
1,
0,
2,
0,
0,
0,
0,
0,
0,
1,
0,
0,
0,
0,
0,
1,
0,
0,
1,
0,
0,
0,
1,
1,
0,
0,
0,
0,
0,
0,
0,
0,
0,
0,
0,
0,
1,
0,
0,
1,
0,
0,
0,
0,
0,
0,
0,
0,
0,
0,
0,
1,
0,
0,
1,
0,
0,
0,
0,
0,
0,
0,
1,
0,
0,
0,
0,
1,
0,
0,
0,
0,
0,
0,
0,
0,
0,
0,
0,
0,
0,
1,
0,
0,
0,
0,
0,
0,
0,
0,
0,
0,
0,
0,
0,
0,
0,
0,
1,
0,
0,
0,
0,
0,
0,
1,
0,
0,
0,
0,
0,
0,
0,
0,
1,
0,
0,
0,
0,
0,
0,
0,
0,
0,
0,
0,
0,
0,
0,
0,
0,
0,
0,
0,
0,
0,
0,
0,
0,
0,
0,
0,
0,
0,
0,
0,
0,
0,
0,
0,
0,
0,
0,
0,
0,
0,
0,
0,
0,
0,
0,
0,
0,
0,
0,
0,
0,
0,
0,
0,
0,
0,
0,
0,
0,
0,
0,
0,
0,
0,
0,
0,
0,
0,
0,
0,
0,
0,
0,
0,
0,
0,
0,
0,
0,
0,
0,
0,
0,
0,
0,
0,
0,
0,
0,
0,
0,
0,
0,
0,
1,
0,
0,
0,
0,
1,
0,
0,
0,
0,
0,
0,
0,
0,
0,
0,
0,
0,
0,
0,
0,
0,
0,
0,
0,
0,
0,
0,
0,
0,
0,
0,
0,
0,
0,
0,
0,
0,
0,
0,
0,
0,
0,
0,
0,
0,
0,
0,
0,
0,
0,
0,
0,
0,
0,
0,
0,
0,
0,
0,
0,
0,
0,
0,
0,
0,
0,
0,
0,
0,
1,
0,
0,
0,
0,
0,
0,
0,
0,
0,
0,
0,
0,
0,
0,
0,
0,
0,
0,
0,
0,
0,
0,
0,
0,
0,
0,
0,
0,
0,
0,
0,
0,
0,
0,
0,
0,
0,
0,
0,
0,
0,
0,
0,
0,
0,
0,
0,
0,
0,
0,
0,
0,
0,
0,
0,
0,
0,
0,
0,
0,
0,
0,
0,
0,
0,
0,
0,
0,
0,
0,
0,
0,
0,
0,
0,
0,
0,
0,
0,
0,
0,
0,
0,
0,
0,
0,
0,
0,
0,
0,
0,
0,
0,
0,
0,
0,
0,
0,
0,
0,
0,
0,
0,
0,
0,
0,
0,
0,
0,
0,
0,
0,
0,
0,
0,
0,
0,
0,
0,
0,
0,
0,
0,
0,
0,
0,
0,
0,
0,
0,
0,
0,
0,
0,
0,
0,
0,
0,
0,
0,
0,
0,
0,
0,
0,
0,
0,
0,
0,
0,
0,
0,
0,
0,
0,
0,
0,
0,
0,
0,
0,
0,
0,
0,
0,
0,
0,
0,
0,
0,
0,
0,
0,
0,
0,
0,
0,
0,
0,
0,
0,
0,
0,
0,
0,
0,
0,
0,
0,
0,
0,
0,
0,
0,
0,
0,
0,
0,
0,
0,
0,
0,
0,
0,
0,
0,
0,
0,
0,
0,
0,
0,
0,
0,
0,
0,
0,
0,
0,
0,
0,
0,
0,
0,
0,
0,
0,
0,
0,
0,
0,
0,
0,
0,
0,
0,
0,
0,
0,
0,
0,
0,
0,
0,
0,
0,
0,
0,
0,
0,
0,
0,
0,
0,
0,
0,
0,
0,
0,
0,
0,
0,
0,
0,
0,
0,
0,
0,
0,
0,
0,
0,
0,
0,
0,
0,
0,
0,
0,
0,
0,
0,
0,
0,
0,
0,
0,
0,
0,
0,
0,
0,
0,
0,
0,
0,
0,
0,
0,
0,
0,
0,
0,
0,
0,
0,
0,
0,
0,
0,
0,
0,
0,
0,
0,
0,
0,
0,
0,
0,
0,
0,
0,
0,
0,
0,
0,
0,
0,
0,
0,
0,
0,
0,
0,
0,
0,
0,
0,
0,
0,
0,
0,
#ENDOFDATA   :