File: N132962/Quantification/20 keV/Glass Mount IIIB/GM IIIA K1010[2][4].msa
#FORMAT      : EMSA/MAS Spectral Data File
#VERSION     : 1.0
#TITLE       : K1010 IIIA K1010[2][all]
#DATE        : 18-SEP-2025
#TIME        : 10:09
#OWNER       : Unknown
#NPOINTS     : 4096
#NCOLUMNS    : 1
#XUNITS      : eV
#YUNITS      : counts
#DATATYPE    : Y
#XPERCHAN    : 9.99778
#OFFSET      : 1.69135
#BEAMKV      : 20
#SIGNALTYPE  : EDS
#ELEVANGLE   : 35
#AZIMANGLE   : 0
#LIVETIME    : 240.158
#REALTIME    : 259.938
#PROBECUR    : 1.21237
#TAUWIND     : 0
#TDEADLYR    : 0
#TACTLYR     : 0.045
#TALWIND     : 0.025
#CHOFFSET    : 0.0
#XLABEL      : Energy (eV)
#YLABEL      : Counts
#XPOSITION   : 10.51443
#YPOSITION   : 15.55101
#ZPOSITION   : 37.3512
#EDSDET      : SD
##SPECIMEN   : K1010 IIIA K1010[2][all]
##DET_HASH   : 12273538-fd48-a23f-0a19-f1e6fa85caef
##CALIB_HASH : 6abaa72c-aa41-8738-0be9-f592914732f3
##WORKING    : 15.0 mm
##DET_NAME   : EDAX All
##DET_MODE   : MediumLE
#SPECTRUM    :
23,
32,
10,
21,
118,
389,
972,
2518,
5628,
7553,
5517,
3944,
3875,
4347,
6629,
20578,
74136,
139875,
101729,
27505,
4889,
3123,
3390,
3643,
3619,
3491,
3707,
4458,
4964,
5302,
5176,
5113,
5144,
5370,
6078,
6268,
6562,
7859,
10970,
14869,
15918,
12086,
8184,
6652,
6649,
7130,
8208,
15987,
45106,
87361,
88319,
48402,
19748,
11012,
10958,
22097,
70147,
164804,
224576,
178000,
103935,
60326,
34780,
19422,
11031,
6913,
5425,
4195,
3630,
3615,
3708,
3595,
3686,
3894,
3987,
4157,
3962,
3924,
3819,
3669,
3672,
3462,
3492,
3507,
3608,
3647,
3612,
3685,
3592,
3625,
3570,
3518,
3571,
3652,
3500,
3693,
3605,
3659,
3649,
3688,
3827,
3639,
3423,
3603,
3573,
3640,
3880,
4468,
6192,
10004,
13704,
13858,
9872,
6160,
4205,
3748,
3929,
4141,
4818,
6183,
10154,
19043,
32584,
39959,
34280,
20718,
10271,
5338,
3728,
3424,
3529,
4078,
5519,
7184,
7869,
6719,
5058,
3838,
3248,
3177,
3624,
4592,
5747,
6074,
5425,
4286,
3257,
2688,
2748,
2912,
3048,
3345,
4050,
5218,
6191,
6481,
5619,
4373,
3371,
2759,
2594,
2632,
2536,
2734,
2999,
3284,
3266,
3392,
3622,
3459,
3127,
2831,
2663,
2464,
2372,
2492,
2565,
2659,
2711,
2729,
2588,
2480,
2383,
2201,
2236,
2039,
2084,
2036,
1975,
2075,
2138,
2442,
2883,
3542,
3964,
3969,
3449,
2975,
2524,
2647,
3194,
3655,
3825,
3242,
2803,
2216,
1920,
1804,
1807,
1762,
1867,
1953,
2091,
2399,
2603,
2705,
2570,
2279,
2105,
2048,
1909,
2008,
2147,
2381,
2407,
2463,
2266,
2233,
2090,
1991,
1808,
1663,
1566,
1550,
1577,
1674,
1716,
1680,
1620,
1605,
1522,
1405,
1345,
1379,
1326,
1380,
1434,
1554,
1524,
1594,
1519,
1464,
1409,
1287,
1255,
1300,
1333,
1371,
1394,
1400,
1455,
1324,
1310,
1181,
1289,
1211,
1197,
1207,
1213,
1226,
1180,
1171,
1166,
1155,
1174,
1144,
1138,
1143,
1106,
1105,
1078,
1056,
1054,
1040,
1017,
971,
1067,
996,
1083,
1005,
1040,
1000,
973,
1015,
956,
934,
970,
984,
950,
884,
944,
912,
958,
892,
944,
869,
875,
815,
913,
880,
854,
859,
872,
852,
847,
841,
893,
932,
822,
830,
825,
797,
851,
812,
846,
1011,
1162,
1417,
1660,
1614,
1635,
1321,
1112,
960,
873,
776,
692,
727,
713,
739,
716,
717,
674,
650,
725,
675,
680,
700,
700,
653,
640,
649,
644,
624,
606,
650,
585,
632,
651,
599,
597,
622,
665,
637,
675,
717,
713,
658,
679,
607,
559,
568,
566,
559,
537,
533,
543,
546,
542,
546,
507,
512,
514,
529,
498,
554,
505,
458,
526,
498,
455,
439,
470,
452,
493,
441,
435,
460,
465,
443,
430,
439,
435,
416,
416,
407,
421,
413,
417,
398,
402,
406,
388,
361,
389,
402,
390,
389,
381,
326,
394,
368,
391,
362,
396,
332,
328,
338,
363,
332,
354,
360,
354,
306,
322,
339,
300,
329,
329,
326,
305,
362,
337,
426,
446,
436,
417,
432,
425,
372,
316,
271,
296,
249,
261,
266,
244,
255,
250,
217,
251,
266,
223,
249,
273,
272,
367,
446,
536,
590,
698,
682,
693,
611,
493,
378,
361,
254,
250,
224,
192,
195,
193,
181,
194,
190,
190,
178,
176,
173,
153,
194,
188,
161,
181,
192,
171,
200,
182,
204,
201,
196,
155,
163,
161,
156,
148,
129,
158,
146,
145,
142,
133,
150,
147,
147,
99,
128,
128,
130,
133,
157,
120,
152,
170,
162,
200,
180,
187,
137,
145,
141,
106,
108,
103,
121,
110,
98,
87,
95,
93,
86,
104,
82,
84,
92,
89,
83,
77,
78,
67,
95,
98,
66,
81,
63,
72,
59,
63,
72,
78,
69,
67,
61,
62,
82,
74,
63,
58,
65,
68,
55,
71,
59,
75,
63,
49,
56,
52,
63,
56,
47,
50,
58,
40,
54,
40,
39,
37,
50,
50,
39,
29,
38,
41,
35,
42,
37,
36,
31,
33,
44,
40,
29,
31,
33,
40,
34,
29,
35,
32,
27,
34,
27,
30,
29,
31,
28,
19,
22,
28,
22,
24,
13,
27,
19,
18,
11,
15,
15,
17,
12,
19,
18,
10,
20,
15,
11,
13,
17,
12,
15,
15,
11,
13,
11,
8,
10,
11,
5,
5,
11,
10,
5,
4,
1,
7,
5,
6,
6,
4,
7,
4,
3,
1,
2,
0,
0,
0,
3,
0,
1,
0,
0,
0,
0,
2,
1,
0,
2,
2,
1,
0,
1,
0,
0,
0,
1,
0,
0,
0,
0,
1,
1,
1,
0,
1,
1,
0,
1,
0,
0,
1,
0,
0,
0,
0,
0,
0,
0,
0,
0,
1,
0,
0,
1,
0,
0,
0,
0,
1,
0,
0,
0,
0,
0,
1,
0,
0,
0,
1,
0,
0,
0,
0,
0,
1,
1,
0,
2,
0,
0,
0,
0,
0,
0,
0,
0,
0,
1,
0,
0,
0,
0,
0,
0,
0,
0,
0,
0,
0,
1,
1,
1,
0,
0,
0,
0,
0,
0,
0,
1,
0,
0,
0,
0,
0,
0,
0,
1,
0,
0,
1,
1,
0,
0,
0,
0,
0,
0,
0,
0,
0,
0,
0,
0,
0,
0,
0,
0,
0,
1,
0,
1,
0,
0,
1,
0,
0,
0,
0,
0,
0,
0,
0,
0,
0,
0,
0,
1,
0,
0,
0,
0,
0,
0,
1,
1,
0,
0,
0,
0,
0,
0,
1,
0,
0,
0,
0,
0,
0,
0,
1,
0,
0,
0,
1,
0,
0,
0,
0,
0,
0,
0,
0,
0,
0,
0,
0,
0,
0,
0,
0,
0,
1,
0,
0,
0,
0,
0,
0,
0,
0,
0,
0,
0,
0,
0,
0,
0,
0,
0,
0,
0,
0,
0,
0,
0,
0,
0,
0,
0,
0,
0,
0,
1,
0,
0,
0,
0,
0,
0,
0,
0,
0,
0,
0,
0,
0,
0,
0,
0,
0,
1,
0,
1,
0,
0,
0,
1,
0,
0,
0,
0,
0,
0,
0,
0,
0,
0,
0,
0,
0,
0,
0,
0,
0,
0,
0,
0,
0,
0,
0,
0,
0,
0,
0,
0,
0,
0,
0,
0,
0,
0,
0,
0,
0,
1,
0,
0,
0,
0,
0,
0,
0,
0,
0,
0,
0,
0,
0,
0,
0,
0,
0,
0,
0,
0,
0,
0,
0,
0,
0,
0,
0,
0,
0,
0,
0,
0,
0,
0,
0,
0,
0,
0,
0,
0,
0,
0,
0,
0,
0,
0,
0,
0,
0,
0,
0,
0,
0,
0,
0,
0,
0,
0,
0,
0,
0,
0,
0,
0,
0,
0,
0,
0,
0,
0,
0,
0,
0,
0,
0,
0,
0,
0,
0,
0,
0,
0,
0,
0,
0,
0,
0,
0,
0,
0,
0,
0,
0,
0,
0,
0,
0,
0,
0,
0,
0,
0,
0,
0,
0,
0,
0,
0,
0,
0,
0,
0,
0,
0,
0,
0,
0,
0,
0,
0,
0,
0,
0,
0,
0,
0,
0,
0,
0,
0,
0,
0,
0,
0,
0,
0,
0,
0,
0,
0,
0,
0,
0,
0,
0,
0,
0,
0,
0,
0,
0,
0,
0,
0,
0,
0,
0,
0,
0,
0,
0,
0,
0,
0,
0,
0,
0,
0,
0,
0,
0,
0,
0,
0,
0,
0,
0,
0,
0,
0,
0,
0,
0,
0,
0,
0,
0,
0,
0,
0,
0,
0,
0,
0,
0,
0,
0,
0,
0,
0,
0,
0,
0,
0,
0,
0,
0,
0,
0,
0,
0,
0,
0,
0,
0,
0,
0,
0,
0,
0,
0,
0,
0,
0,
0,
0,
0,
0,
0,
0,
0,
0,
0,
0,
0,
0,
0,
0,
0,
0,
0,
0,
0,
0,
0,
0,
0,
0,
0,
0,
0,
0,
0,
0,
0,
0,
0,
0,
0,
0,
0,
0,
0,
0,
0,
0,
0,
0,
0,
0,
0,
0,
0,
0,
0,
0,
0,
0,
0,
0,
0,
0,
0,
0,
0,
0,
0,
0,
0,
0,
0,
0,
0,
0,
0,
0,
0,
0,
0,
0,
0,
0,
0,
0,
0,
0,
0,
0,
0,
0,
0,
0,
0,
0,
0,
0,
0,
0,
0,
0,
0,
0,
0,
0,
0,
0,
0,
0,
0,
0,
0,
0,
0,
0,
0,
0,
0,
0,
0,
0,
0,
0,
0,
0,
0,
0,
0,
0,
0,
0,
0,
0,
0,
0,
0,
0,
0,
0,
0,
0,
0,
0,
0,
0,
0,
0,
0,
0,
0,
0,
0,
0,
0,
0,
0,
0,
0,
0,
0,
0,
0,
0,
0,
0,
0,
0,
0,
0,
0,
0,
0,
0,
0,
0,
0,
0,
0,
0,
0,
0,
0,
0,
0,
0,
0,
0,
0,
0,
#ENDOFDATA   :