File: N132962/Quantification/20 keV/Glass Mount IIIB/GM IIIB K508[3][4].msa
#FORMAT      : EMSA/MAS Spectral Data File
#VERSION     : 1.0
#TITLE       : GM IIIB K508[3][all]
#DATE        : 11-SEP-2025
#TIME        : 09:33
#OWNER       : Unknown
#NPOINTS     : 4096
#NCOLUMNS    : 1
#XUNITS      : eV
#YUNITS      : counts
#DATATYPE    : Y
#XPERCHAN    : 9.99778
#OFFSET      : 1.69135
#BEAMKV      : 20
#SIGNALTYPE  : EDS
#ELEVANGLE   : 35
#AZIMANGLE   : 0
#LIVETIME    : 240.14
#REALTIME    : 258.981
#PROBECUR    : 1.22303
#TAUWIND     : 0
#TDEADLYR    : 0
#TACTLYR     : 0.045
#TALWIND     : 0.025
#CHOFFSET    : 0.0
#XLABEL      : Energy (eV)
#YLABEL      : Counts
#XPOSITION   : 8.57702
#YPOSITION   : 9.62458
#ZPOSITION   : 34.00161
#EDSDET      : SD
##SPECIMEN   : GM IIIB K508[3][all]
##D2STDCMP   : K508,(B:9.26),(O:41.14),(Si:12.06),(Sr:37.54)
##DET_HASH   : 12273538-fd48-a23f-0a19-f1e6fa85caef
##CALIB_HASH : 6abaa72c-aa41-8738-0be9-f592914732f3
##WORKING    : 15.0 mm
##DET_NAME   : EDAX All
##DET_MODE   : MediumLE
#SPECTRUM    :
25,
19,
12,
54,
329,
1136,
2037,
2729,
5219,
6351,
4036,
2972,
3334,
4089,
6131,
19153,
69094,
129936,
93591,
25456,
4513,
2838,
3299,
3563,
3475,
3409,
3584,
3973,
4271,
4493,
4514,
4647,
4988,
5202,
5422,
5590,
5711,
5749,
5916,
6079,
6304,
6430,
6456,
6705,
6659,
6965,
7005,
7410,
7606,
7978,
8818,
10774,
14419,
16594,
15897,
21538,
53189,
127309,
199950,
236448,
248728,
205107,
131265,
74331,
36844,
17213,
9045,
5384,
3938,
3500,
3321,
3459,
3839,
4094,
4197,
4057,
3827,
3932,
3729,
3634,
3560,
3375,
3350,
3467,
3295,
3428,
3388,
3437,
3480,
3487,
3396,
3412,
3470,
3430,
3401,
3357,
3365,
3430,
3509,
3414,
3487,
3368,
3381,
3479,
3397,
3354,
3415,
3291,
3414,
3373,
3439,
3284,
3347,
3324,
3488,
3455,
3552,
3626,
3710,
3696,
3754,
3767,
3665,
3490,
3405,
3313,
3185,
3070,
3062,
3024,
2983,
3074,
2909,
2917,
2954,
3055,
2836,
2921,
2854,
2781,
2847,
2773,
2885,
2817,
2714,
2802,
2720,
2764,
2827,
2835,
2969,
2864,
2905,
2675,
2726,
2589,
2539,
2601,
2597,
2432,
2494,
2503,
2485,
2486,
2515,
2458,
2361,
2408,
2406,
2335,
2328,
2388,
2296,
2310,
2330,
2310,
2288,
2281,
2204,
2234,
2122,
2173,
2210,
2192,
2153,
2130,
2115,
2065,
2078,
2061,
2077,
2013,
2012,
1966,
2074,
1987,
2087,
2006,
1882,
1982,
1876,
1921,
1977,
1942,
1923,
1861,
1862,
1894,
1844,
1854,
1803,
1922,
1993,
2007,
1879,
1859,
1822,
1777,
1721,
1676,
1677,
1638,
1608,
1715,
1665,
1607,
1601,
1671,
1604,
1601,
1595,
1578,
1551,
1606,
1529,
1511,
1536,
1499,
1525,
1504,
1451,
1443,
1397,
1517,
1417,
1547,
1496,
1461,
1460,
1586,
1536,
1486,
1433,
1376,
1349,
1327,
1335,
1338,
1266,
1282,
1277,
1346,
1277,
1322,
1264,
1343,
1259,
1242,
1257,
1190,
1243,
1191,
1215,
1200,
1166,
1251,
1178,
1140,
1134,
1141,
1094,
1128,
1122,
1190,
1135,
1100,
1125,
1038,
1102,
1144,
1098,
1108,
1092,
998,
1039,
985,
1035,
1023,
978,
967,
990,
949,
1038,
979,
976,
966,
946,
987,
981,
911,
935,
945,
946,
902,
923,
912,
836,
900,
867,
916,
877,
843,
861,
903,
767,
836,
820,
851,
837,
792,
811,
780,
825,
799,
792,
790,
796,
789,
738,
701,
748,
760,
755,
740,
722,
710,
757,
733,
702,
720,
725,
662,
683,
704,
683,
631,
700,
659,
693,
643,
655,
648,
617,
641,
595,
562,
604,
610,
622,
637,
695,
610,
595,
576,
642,
584,
603,
536,
529,
579,
550,
556,
512,
551,
532,
559,
477,
549,
519,
510,
528,
514,
479,
495,
471,
492,
453,
479,
480,
490,
446,
448,
462,
428,
421,
465,
442,
428,
458,
454,
457,
384,
423,
446,
440,
427,
410,
388,
403,
387,
368,
378,
398,
382,
374,
369,
375,
328,
392,
403,
330,
395,
361,
343,
353,
317,
336,
334,
320,
313,
314,
340,
286,
300,
299,
303,
339,
273,
315,
275,
286,
304,
294,
292,
275,
284,
285,
265,
259,
260,
257,
275,
296,
337,
390,
506,
667,
934,
1287,
1561,
1789,
1926,
1846,
1602,
1159,
847,
555,
382,
273,
241,
204,
220,
207,
187,
206,
221,
219,
191,
189,
182,
194,
177,
184,
202,
164,
193,
177,
196,
160,
163,
166,
148,
162,
156,
176,
164,
163,
150,
144,
157,
156,
146,
163,
136,
135,
135,
170,
146,
141,
132,
141,
157,
180,
207,
221,
287,
326,
362,
355,
279,
244,
204,
193,
172,
163,
139,
143,
133,
118,
115,
110,
107,
84,
83,
114,
83,
89,
90,
89,
83,
67,
74,
93,
76,
86,
78,
77,
87,
69,
83,
75,
85,
78,
73,
53,
71,
77,
67,
58,
66,
68,
71,
61,
66,
45,
72,
51,
58,
57,
61,
53,
54,
51,
44,
53,
63,
46,
60,
42,
44,
54,
44,
42,
40,
28,
52,
41,
34,
33,
50,
34,
43,
40,
42,
32,
23,
24,
37,
34,
31,
29,
28,
35,
27,
31,
32,
24,
24,
23,
28,
25,
24,
21,
29,
17,
25,
18,
20,
19,
16,
24,
13,
14,
19,
15,
13,
10,
14,
15,
9,
11,
7,
15,
8,
14,
13,
7,
11,
7,
11,
8,
7,
6,
7,
7,
5,
3,
5,
4,
3,
2,
2,
3,
0,
4,
2,
0,
3,
1,
0,
2,
0,
2,
0,
1,
0,
0,
1,
1,
0,
0,
0,
0,
0,
2,
0,
2,
1,
1,
0,
1,
1,
1,
0,
1,
1,
1,
1,
1,
1,
0,
0,
0,
1,
0,
0,
0,
0,
0,
1,
0,
2,
0,
0,
0,
0,
1,
0,
0,
0,
1,
0,
0,
0,
0,
0,
0,
1,
1,
0,
0,
0,
0,
0,
1,
0,
0,
0,
0,
1,
0,
0,
0,
0,
1,
0,
1,
1,
0,
0,
0,
1,
0,
1,
1,
0,
0,
0,
0,
0,
0,
0,
0,
0,
0,
0,
0,
0,
0,
0,
2,
0,
0,
0,
0,
0,
1,
0,
0,
0,
0,
0,
0,
0,
0,
0,
0,
0,
0,
0,
0,
0,
0,
0,
0,
0,
0,
0,
0,
0,
0,
0,
1,
0,
0,
0,
1,
0,
0,
0,
0,
1,
0,
0,
0,
0,
0,
0,
1,
0,
0,
0,
0,
0,
0,
0,
0,
0,
0,
0,
0,
0,
0,
1,
0,
0,
0,
0,
1,
0,
0,
1,
0,
0,
0,
0,
0,
0,
0,
0,
0,
0,
0,
0,
0,
0,
0,
0,
0,
0,
0,
0,
0,
0,
0,
0,
0,
0,
0,
0,
0,
0,
0,
0,
0,
0,
0,
0,
0,
0,
0,
0,
0,
0,
0,
0,
0,
0,
0,
0,
0,
0,
0,
0,
0,
0,
0,
0,
0,
0,
0,
0,
0,
0,
0,
0,
0,
0,
0,
0,
0,
0,
0,
0,
0,
0,
0,
1,
0,
0,
0,
0,
0,
0,
0,
0,
0,
0,
0,
0,
0,
0,
0,
0,
0,
0,
0,
1,
0,
0,
0,
0,
0,
0,
0,
0,
0,
0,
0,
0,
0,
0,
0,
0,
0,
0,
0,
0,
0,
0,
0,
0,
0,
0,
0,
0,
0,
0,
0,
0,
0,
0,
0,
0,
0,
0,
0,
0,
0,
0,
0,
0,
0,
0,
0,
0,
0,
0,
0,
0,
0,
0,
0,
0,
0,
0,
0,
0,
0,
0,
0,
0,
0,
0,
0,
0,
0,
0,
0,
0,
0,
0,
0,
0,
0,
0,
0,
0,
0,
0,
0,
0,
0,
0,
0,
0,
0,
0,
0,
0,
0,
0,
0,
0,
0,
0,
0,
0,
0,
0,
0,
0,
0,
0,
0,
0,
0,
0,
0,
0,
0,
0,
0,
0,
0,
0,
0,
0,
0,
0,
0,
0,
0,
0,
0,
0,
0,
0,
0,
0,
0,
0,
0,
0,
0,
0,
0,
0,
0,
0,
0,
0,
0,
0,
0,
0,
0,
0,
0,
0,
0,
0,
0,
0,
0,
0,
0,
0,
0,
0,
0,
0,
0,
0,
0,
0,
0,
0,
0,
0,
0,
0,
0,
0,
0,
0,
0,
0,
0,
0,
0,
0,
0,
0,
0,
0,
0,
0,
0,
0,
0,
0,
0,
0,
0,
0,
0,
0,
0,
0,
0,
0,
0,
0,
0,
0,
0,
0,
0,
0,
0,
0,
0,
0,
0,
0,
0,
0,
0,
0,
0,
0,
0,
0,
0,
0,
0,
0,
0,
0,
0,
0,
0,
0,
0,
0,
0,
0,
0,
0,
0,
0,
0,
0,
0,
0,
0,
0,
0,
0,
0,
0,
0,
0,
0,
0,
0,
0,
0,
0,
0,
0,
0,
0,
0,
0,
0,
0,
0,
0,
0,
0,
0,
0,
0,
0,
0,
0,
0,
0,
0,
0,
0,
0,
0,
0,
0,
0,
0,
0,
0,
0,
0,
0,
0,
0,
0,
0,
0,
0,
0,
0,
0,
0,
0,
0,
0,
0,
0,
0,
0,
0,
0,
0,
0,
0,
0,
0,
0,
0,
0,
0,
0,
0,
0,
0,
0,
0,
0,
0,
0,
0,
0,
0,
0,
0,
0,
0,
0,
0,
0,
0,
0,
0,
0,
0,
0,
0,
0,
0,
0,
0,
0,
0,
0,
0,
0,
0,
0,
0,
0,
0,
0,
0,
0,
0,
0,
0,
0,
0,
0,
0,
0,
0,
0,
0,
0,
0,
0,
0,
0,
0,
0,
0,
0,
0,
0,
0,
0,
0,
0,
0,
0,
0,
0,
0,
0,
0,
0,
0,
0,
0,
0,
0,
0,
0,
0,
0,
0,
0,
0,
0,
0,
0,
0,
0,
0,
0,
0,
0,
0,
0,
0,
0,
0,
0,
#ENDOFDATA   :