File: N132962/Quantification/20 keV/Glass Mount IIIB/GM IIIB K1053[0][4].msa
#FORMAT      : EMSA/MAS Spectral Data File
#VERSION     : 1.0
#TITLE       : GM IIIB K1053[0][all]
#DATE        : 10-SEP-2025
#TIME        : 16:55
#OWNER       : Unknown
#NPOINTS     : 4096
#NCOLUMNS    : 1
#XUNITS      : eV
#YUNITS      : counts
#DATATYPE    : Y
#XPERCHAN    : 9.99778
#OFFSET      : 1.69135
#BEAMKV      : 20
#SIGNALTYPE  : EDS
#ELEVANGLE   : 35
#AZIMANGLE   : 0
#LIVETIME    : 240.332
#REALTIME    : 269.028
#PROBECUR    : 1.22416
#TAUWIND     : 0
#TDEADLYR    : 0
#TACTLYR     : 0.045
#TALWIND     : 0.025
#CHOFFSET    : 0.0
#XLABEL      : Energy (eV)
#YLABEL      : Counts
#XPOSITION   : 3.44298
#YPOSITION   : 13.85781
#ZPOSITION   : 34.06144
#EDSDET      : SD
##SPECIMEN   : GM IIIB K1053[0][all]
##D2STDCMP   : K1053,(O:16.13),(F:0.39),(Si:9.35),(Cl:0.64),(Br:1.09),(I:1.37),(Pb:71.02)
##DET_HASH   : 12273538-fd48-a23f-0a19-f1e6fa85caef
##CALIB_HASH : 6abaa72c-aa41-8738-0be9-f592914732f3
##WORKING    : 15.0 mm
##DET_NAME   : EDAX All
##DET_MODE   : MediumLE
#SPECTRUM    :
27,
22,
8,
49,
287,
1094,
2919,
6265,
12264,
14685,
9732,
6669,
6403,
6460,
7420,
12903,
33244,
57031,
42953,
16652,
10480,
9559,
10224,
10573,
8609,
7192,
6759,
7198,
7907,
7851,
7877,
7998,
8126,
8197,
8442,
8691,
8643,
8971,
9299,
9263,
9703,
9679,
10037,
10316,
10620,
10910,
10815,
11747,
14010,
16968,
17638,
15534,
13337,
12319,
12597,
17472,
40453,
87783,
117104,
88354,
48792,
32010,
22377,
14873,
11415,
10151,
9971,
9785,
9924,
10138,
10561,
11636,
13155,
14828,
17531,
27603,
63630,
135767,
199457,
192220,
153160,
139465,
119739,
71138,
29647,
13346,
11798,
15016,
17328,
14971,
10987,
7755,
6297,
6162,
6239,
6355,
6279,
6452,
6500,
6722,
7077,
7509,
8040,
8260,
8006,
7245,
6656,
6269,
6042,
5702,
5719,
5801,
5745,
5838,
5816,
5884,
5960,
6135,
6046,
5922,
5833,
5855,
5640,
5740,
5692,
5849,
5908,
5662,
5798,
6400,
7194,
7650,
7506,
6763,
6210,
5990,
5804,
5942,
5969,
6176,
6707,
6787,
6414,
6084,
5914,
5730,
5638,
5587,
5842,
6296,
6592,
6460,
6147,
5647,
5552,
5592,
5569,
5636,
5763,
5853,
5769,
5670,
5364,
5410,
5482,
5296,
5359,
5249,
5345,
5439,
5224,
5125,
5105,
5145,
4934,
5054,
4980,
5029,
5074,
5065,
4994,
4861,
4938,
4940,
4971,
4921,
4912,
4713,
4944,
4777,
4731,
4858,
4815,
4643,
4720,
4639,
4653,
4647,
4550,
4508,
4455,
4610,
4503,
4576,
4457,
4448,
4532,
4539,
4493,
4377,
4554,
4697,
4948,
4906,
4813,
4703,
4487,
4334,
4289,
4277,
4272,
4191,
4167,
4190,
4183,
4159,
4013,
4077,
4095,
3854,
3930,
3964,
3939,
4008,
4116,
3957,
3948,
3837,
3841,
3842,
3807,
3840,
3808,
3831,
3813,
3744,
3835,
3896,
3997,
3952,
3896,
3831,
3623,
3664,
3608,
3555,
3529,
3454,
3466,
3459,
3470,
3485,
3433,
3425,
3415,
3384,
3285,
3385,
3368,
3384,
3394,
3273,
3339,
3221,
3325,
3254,
3258,
3200,
3152,
3089,
3125,
3089,
3055,
2983,
3085,
3039,
2999,
3040,
3053,
2943,
2966,
3030,
2927,
2890,
2885,
2971,
2924,
2863,
2850,
2885,
2830,
2981,
2933,
3123,
3291,
3495,
3484,
3383,
3296,
3045,
2873,
2745,
2658,
2595,
2665,
2608,
2648,
2651,
2584,
2538,
2583,
2460,
2458,
2473,
2596,
2473,
2495,
2468,
2520,
2419,
2471,
2462,
2392,
2403,
2380,
2318,
2213,
2379,
2295,
2323,
2337,
2287,
2332,
2504,
2756,
3326,
4295,
5779,
8143,
11209,
13769,
15485,
14892,
12807,
9605,
6391,
4324,
3120,
2482,
2148,
2065,
2031,
2021,
1956,
1871,
2016,
1881,
1899,
1941,
1936,
1901,
1882,
1864,
1841,
1823,
1800,
1875,
1868,
1892,
1816,
1752,
1726,
1719,
1677,
1760,
1622,
1666,
1633,
1667,
1649,
1603,
1648,
1618,
1759,
1747,
1796,
1828,
1851,
1763,
1741,
1577,
1683,
1599,
1665,
1641,
1642,
1592,
1607,
1667,
1704,
1599,
1624,
1676,
1619,
1721,
2093,
2764,
3702,
4836,
5787,
6185,
5910,
5290,
4158,
3099,
2374,
1955,
1682,
1534,
1538,
1387,
1453,
1467,
1498,
1437,
1393,
1233,
1190,
1118,
1131,
1147,
1077,
1098,
1090,
1024,
1078,
1011,
1026,
1002,
973,
961,
946,
965,
898,
981,
902,
938,
956,
889,
892,
869,
860,
852,
902,
840,
809,
880,
840,
857,
822,
886,
768,
778,
787,
779,
787,
764,
791,
791,
784,
749,
746,
711,
701,
770,
722,
752,
821,
907,
977,
1041,
1083,
998,
1006,
881,
835,
771,
694,
680,
611,
696,
682,
678,
657,
689,
748,
743,
676,
661,
586,
532,
571,
536,
526,
503,
533,
494,
496,
505,
507,
436,
476,
510,
493,
516,
463,
474,
458,
432,
493,
442,
433,
391,
436,
416,
395,
421,
401,
378,
400,
413,
383,
367,
395,
361,
337,
371,
350,
364,
352,
380,
341,
324,
333,
348,
307,
311,
301,
310,
311,
311,
279,
302,
287,
316,
282,
289,
293,
311,
271,
250,
256,
271,
249,
238,
264,
238,
255,
237,
223,
208,
240,
229,
222,
223,
180,
192,
178,
208,
191,
191,
189,
201,
199,
193,
170,
185,
188,
189,
153,
182,
178,
161,
166,
144,
158,
131,
122,
126,
140,
122,
128,
128,
134,
137,
126,
119,
131,
122,
100,
86,
98,
108,
86,
107,
99,
109,
93,
74,
76,
67,
71,
91,
73,
65,
71,
67,
59,
57,
62,
77,
61,
67,
54,
52,
44,
60,
63,
51,
47,
37,
21,
38,
30,
37,
26,
30,
25,
23,
17,
19,
15,
11,
11,
10,
7,
9,
5,
4,
8,
5,
7,
4,
5,
4,
3,
9,
3,
7,
6,
6,
10,
7,
5,
6,
5,
9,
4,
5,
7,
4,
5,
5,
4,
2,
3,
6,
3,
4,
2,
7,
4,
3,
7,
2,
6,
3,
5,
4,
5,
3,
8,
4,
2,
4,
1,
6,
5,
4,
4,
3,
6,
4,
3,
3,
0,
2,
5,
1,
5,
2,
2,
4,
1,
3,
2,
1,
2,
3,
0,
3,
1,
3,
1,
1,
3,
1,
2,
3,
2,
2,
7,
4,
4,
2,
1,
3,
2,
3,
1,
1,
1,
3,
1,
6,
0,
1,
0,
2,
1,
2,
3,
5,
4,
0,
1,
1,
2,
2,
2,
2,
4,
1,
0,
5,
1,
3,
1,
1,
2,
2,
2,
1,
0,
1,
1,
2,
3,
0,
2,
1,
2,
3,
0,
1,
1,
0,
0,
3,
1,
3,
1,
0,
2,
1,
1,
1,
1,
2,
4,
0,
2,
2,
3,
0,
0,
2,
6,
0,
3,
0,
2,
2,
0,
1,
1,
3,
2,
1,
0,
2,
0,
2,
4,
1,
2,
0,
1,
1,
1,
2,
0,
4,
0,
1,
1,
1,
1,
1,
1,
0,
1,
1,
2,
0,
1,
0,
2,
1,
0,
1,
2,
1,
3,
2,
0,
0,
0,
0,
0,
1,
2,
3,
1,
1,
1,
2,
0,
2,
0,
0,
0,
1,
0,
0,
0,
1,
1,
1,
3,
3,
2,
3,
1,
0,
1,
1,
0,
1,
0,
1,
0,
1,
1,
2,
0,
1,
0,
0,
2,
1,
1,
0,
1,
0,
1,
0,
1,
3,
0,
0,
1,
0,
1,
0,
0,
0,
0,
0,
1,
0,
0,
1,
1,
1,
0,
0,
0,
2,
0,
0,
1,
0,
0,
1,
0,
1,
0,
1,
0,
1,
1,
1,
0,
0,
0,
0,
0,
1,
0,
0,
0,
0,
1,
1,
0,
0,
0,
0,
0,
0,
0,
0,
0,
1,
1,
0,
0,
0,
1,
0,
0,
0,
0,
0,
1,
0,
0,
0,
1,
0,
0,
0,
0,
0,
1,
0,
0,
0,
0,
0,
0,
0,
0,
0,
0,
0,
0,
0,
0,
0,
0,
0,
0,
0,
0,
0,
1,
0,
0,
0,
0,
0,
0,
0,
0,
0,
0,
0,
0,
0,
0,
1,
0,
0,
0,
0,
0,
1,
0,
0,
0,
0,
0,
0,
0,
0,
1,
0,
0,
0,
0,
0,
0,
0,
0,
0,
0,
0,
0,
0,
0,
0,
0,
0,
0,
0,
0,
0,
0,
0,
0,
0,
0,
0,
0,
0,
0,
0,
0,
0,
0,
0,
0,
0,
0,
1,
0,
0,
0,
0,
0,
0,
0,
0,
0,
0,
0,
0,
0,
0,
0,
0,
0,
0,
0,
0,
0,
0,
0,
0,
0,
0,
0,
0,
0,
0,
0,
0,
0,
0,
0,
0,
0,
0,
0,
0,
0,
0,
0,
0,
0,
1,
0,
0,
0,
0,
0,
0,
0,
0,
0,
0,
0,
0,
0,
0,
0,
0,
0,
0,
0,
0,
0,
0,
0,
0,
0,
0,
0,
0,
0,
0,
0,
0,
0,
0,
0,
0,
0,
0,
0,
0,
0,
0,
0,
0,
0,
0,
0,
0,
0,
0,
0,
0,
0,
0,
0,
0,
0,
0,
0,
0,
0,
0,
0,
0,
0,
0,
0,
0,
0,
0,
0,
0,
0,
0,
0,
0,
0,
0,
0,
0,
0,
0,
0,
0,
0,
0,
0,
0,
0,
0,
0,
0,
0,
0,
0,
0,
0,
0,
0,
0,
0,
0,
0,
0,
0,
0,
0,
0,
0,
0,
0,
0,
0,
0,
0,
0,
0,
0,
0,
0,
0,
0,
0,
0,
0,
0,
0,
0,
0,
0,
0,
0,
0,
0,
0,
0,
0,
0,
0,
0,
0,
0,
0,
0,
0,
0,
0,
0,
0,
0,
0,
0,
0,
0,
0,
0,
0,
0,
0,
0,
0,
0,
0,
0,
0,
0,
0,
0,
0,
0,
0,
0,
0,
0,
0,
0,
0,
0,
0,
0,
0,
0,
0,
0,
0,
0,
0,
0,
0,
0,
0,
0,
0,
0,
0,
0,
0,
0,
0,
0,
0,
0,
0,
0,
0,
0,
0,
0,
0,
0,
0,
0,
0,
0,
0,
0,
0,
0,
0,
0,
0,
0,
0,
#ENDOFDATA   :