File: N132962/Quantification/20 keV/Glass Mount IIIB/GM IIIB K523[1][4].msa
#FORMAT      : EMSA/MAS Spectral Data File
#VERSION     : 1.0
#TITLE       : GM IIIB K523[1][all]
#DATE        : 11-SEP-2025
#TIME        : 09:14
#OWNER       : Unknown
#NPOINTS     : 4096
#NCOLUMNS    : 1
#XUNITS      : eV
#YUNITS      : counts
#DATATYPE    : Y
#XPERCHAN    : 9.99778
#OFFSET      : 1.69135
#BEAMKV      : 20
#SIGNALTYPE  : EDS
#ELEVANGLE   : 35
#AZIMANGLE   : 0
#LIVETIME    : 240.244
#REALTIME    : 267.303
#PROBECUR    : 1.22303
#TAUWIND     : 0
#TDEADLYR    : 0
#TACTLYR     : 0.045
#TALWIND     : 0.025
#CHOFFSET    : 0.0
#XLABEL      : Energy (eV)
#YLABEL      : Counts
#XPOSITION   : 1.58051
#YPOSITION   : 9.70845
#ZPOSITION   : 34.00161
#EDSDET      : SD
##SPECIMEN   : GM IIIB K523[1][all]
##D2STDCMP   : K523,(O:20.71),(Mg:0.1),(Si:12.9),(P:0.25),(Ti:0.19),(Cr:0.21),(Ni:0.24),(Ge:0.29),(Zr:0.36),(Ba:0.55),(Eu:0.6),(Pb:63.41),(Th:0.1),(U:0.11)
##DET_HASH   : 12273538-fd48-a23f-0a19-f1e6fa85caef
##CALIB_HASH : 6abaa72c-aa41-8738-0be9-f592914732f3
##WORKING    : 15.0 mm
##DET_NAME   : EDAX All
##DET_MODE   : MediumLE
#SPECTRUM    :
10,
23,
9,
55,
233,
772,
2297,
5176,
10519,
12823,
8797,
6638,
6296,
6613,
7491,
14813,
42768,
74547,
55618,
19251,
9499,
7847,
7542,
8193,
7581,
6696,
6681,
7082,
7697,
7884,
7582,
7442,
7595,
7817,
7936,
8347,
8543,
9014,
9732,
10366,
10693,
10802,
10582,
10295,
9946,
10034,
10074,
10182,
10911,
11364,
11620,
11235,
11087,
11129,
12047,
19194,
50798,
116428,
154742,
114607,
58020,
32930,
21880,
13641,
10560,
9914,
10634,
11446,
11460,
10585,
10633,
11101,
11812,
13106,
15177,
24373,
54528,
116398,
170043,
163595,
131606,
119322,
101629,
60789,
25403,
11532,
9063,
10515,
12632,
12158,
9651,
6915,
5959,
5695,
5667,
5847,
5892,
6149,
6176,
6351,
6696,
7226,
7575,
7746,
7536,
7046,
6410,
5962,
5701,
5366,
5359,
5474,
5416,
5634,
5457,
5497,
5578,
5753,
5652,
5519,
5319,
5268,
5349,
5536,
5504,
5441,
5386,
5282,
5377,
5218,
5275,
5220,
5137,
5262,
5303,
5461,
5496,
5475,
5487,
5503,
5460,
5267,
5115,
5184,
5082,
5270,
5382,
5634,
6451,
6852,
7233,
6800,
5831,
5383,
5291,
5131,
5093,
5116,
5183,
5313,
5428,
5554,
5308,
5325,
5226,
5086,
5061,
4966,
4836,
4766,
4706,
4804,
4811,
4793,
4752,
4688,
4654,
4671,
5057,
4969,
5257,
5140,
4895,
4783,
4515,
4586,
4567,
4433,
4257,
4592,
4420,
4463,
4626,
4703,
5010,
5086,
4923,
4592,
4367,
4432,
4290,
4199,
4196,
4110,
4072,
4052,
4047,
4014,
4139,
3983,
4051,
4216,
4420,
4556,
4463,
4406,
4224,
4122,
4033,
3878,
3834,
3759,
3783,
3741,
3837,
3750,
3749,
3681,
3812,
3871,
3764,
3671,
3568,
3641,
3618,
3607,
3526,
3484,
3551,
3469,
3525,
3421,
3389,
3417,
3441,
3480,
3648,
3835,
3975,
4164,
4005,
3782,
3495,
3323,
3306,
3183,
3113,
3115,
3071,
3171,
3122,
3045,
3139,
3092,
3040,
3085,
3015,
2964,
3046,
2937,
2881,
2940,
2950,
3078,
3022,
3025,
3001,
2965,
2936,
2770,
2830,
2824,
2690,
2782,
2793,
2762,
2760,
2708,
2736,
2580,
2558,
2678,
2668,
2671,
2673,
2644,
2585,
2578,
2486,
2621,
2555,
2593,
2705,
2803,
2894,
3062,
3167,
3036,
2778,
2650,
2506,
2417,
2344,
2389,
2347,
2333,
2254,
2276,
2262,
2372,
2264,
2214,
2277,
2300,
2234,
2215,
2265,
2354,
2367,
2331,
2354,
2346,
2236,
2114,
2078,
2067,
2084,
2076,
1991,
1973,
1988,
2091,
2060,
2099,
2335,
3000,
3686,
5028,
6882,
9520,
11530,
12974,
12639,
10842,
8175,
5445,
3732,
2720,
2145,
1873,
1790,
1740,
1793,
1799,
1759,
1705,
1732,
1753,
1668,
1668,
1651,
1692,
1596,
1653,
1665,
1673,
1612,
1660,
1518,
1591,
1596,
1583,
1546,
1421,
1533,
1513,
1504,
1466,
1412,
1447,
1377,
1389,
1405,
1425,
1401,
1383,
1347,
1284,
1331,
1321,
1376,
1329,
1448,
1421,
1489,
1468,
1499,
1468,
1468,
1416,
1463,
1396,
1343,
1462,
1509,
1785,
2353,
3220,
4155,
4912,
5323,
5142,
4483,
3587,
2656,
2079,
1630,
1455,
1317,
1253,
1316,
1293,
1249,
1256,
1274,
1185,
1139,
1011,
988,
996,
942,
934,
936,
893,
844,
905,
902,
927,
838,
909,
808,
839,
827,
842,
773,
785,
836,
826,
782,
835,
739,
763,
730,
772,
761,
721,
715,
700,
708,
680,
719,
731,
679,
686,
685,
670,
691,
720,
705,
642,
634,
651,
648,
647,
606,
641,
691,
692,
801,
821,
928,
968,
892,
896,
809,
737,
674,
630,
606,
538,
598,
568,
538,
574,
567,
582,
609,
533,
497,
527,
459,
515,
489,
503,
459,
455,
472,
416,
441,
400,
428,
406,
415,
397,
403,
413,
406,
456,
408,
415,
380,
391,
373,
360,
365,
355,
395,
359,
304,
319,
353,
316,
327,
330,
316,
331,
315,
296,
296,
278,
330,
291,
296,
297,
307,
256,
264,
259,
222,
280,
270,
273,
254,
259,
266,
227,
245,
210,
236,
237,
254,
214,
218,
208,
221,
213,
198,
213,
215,
223,
233,
187,
198,
214,
180,
189,
171,
173,
169,
179,
161,
169,
160,
158,
198,
132,
157,
177,
134,
139,
141,
133,
135,
109,
132,
129,
116,
113,
139,
120,
128,
120,
105,
97,
108,
87,
112,
115,
94,
100,
100,
86,
90,
77,
77,
63,
81,
89,
81,
73,
79,
59,
55,
58,
61,
62,
65,
60,
52,
73,
46,
57,
47,
40,
37,
39,
42,
32,
33,
31,
28,
38,
31,
24,
22,
27,
23,
32,
16,
18,
17,
15,
12,
14,
9,
5,
5,
1,
7,
5,
6,
3,
5,
5,
11,
5,
1,
3,
6,
4,
3,
4,
1,
2,
2,
3,
2,
3,
1,
2,
2,
5,
0,
1,
3,
4,
1,
1,
4,
3,
1,
6,
1,
5,
1,
7,
6,
4,
4,
3,
4,
4,
0,
3,
1,
2,
4,
3,
3,
1,
6,
1,
2,
3,
2,
1,
4,
4,
0,
6,
1,
0,
1,
1,
1,
2,
0,
3,
0,
2,
2,
3,
4,
5,
3,
2,
3,
0,
1,
3,
3,
3,
5,
0,
0,
5,
0,
2,
1,
0,
3,
2,
1,
3,
1,
3,
1,
3,
3,
5,
3,
3,
1,
1,
2,
0,
2,
1,
2,
2,
2,
3,
5,
0,
0,
4,
1,
1,
1,
2,
1,
0,
1,
2,
5,
1,
0,
0,
0,
3,
2,
0,
0,
0,
1,
0,
0,
2,
1,
1,
1,
1,
3,
4,
0,
1,
3,
0,
1,
0,
1,
0,
0,
0,
3,
0,
0,
0,
0,
1,
2,
1,
3,
2,
1,
2,
2,
0,
2,
3,
2,
0,
2,
0,
1,
0,
0,
0,
2,
1,
0,
0,
3,
1,
0,
2,
1,
0,
1,
2,
0,
0,
0,
1,
0,
3,
0,
0,
1,
1,
3,
1,
1,
1,
2,
1,
1,
1,
0,
1,
0,
0,
0,
0,
0,
2,
1,
2,
1,
2,
2,
0,
0,
0,
0,
0,
0,
0,
2,
0,
0,
0,
0,
0,
0,
1,
1,
0,
1,
0,
0,
0,
1,
2,
0,
0,
1,
0,
1,
0,
1,
0,
1,
0,
1,
2,
0,
0,
0,
1,
1,
0,
0,
0,
0,
1,
4,
0,
0,
1,
0,
0,
0,
0,
0,
0,
0,
0,
0,
1,
0,
0,
0,
0,
1,
1,
0,
0,
0,
0,
0,
0,
1,
0,
1,
0,
0,
0,
0,
1,
0,
0,
0,
1,
1,
0,
0,
0,
1,
0,
0,
1,
1,
0,
0,
0,
0,
0,
2,
0,
0,
1,
0,
0,
0,
0,
0,
1,
0,
0,
0,
0,
0,
0,
0,
0,
0,
0,
0,
0,
0,
1,
1,
0,
0,
1,
0,
0,
1,
0,
0,
0,
0,
0,
0,
0,
0,
1,
0,
0,
2,
0,
0,
0,
0,
0,
0,
0,
0,
0,
0,
0,
0,
0,
0,
0,
0,
0,
0,
0,
0,
0,
0,
0,
0,
0,
0,
0,
0,
0,
0,
0,
0,
0,
0,
0,
1,
0,
0,
0,
0,
0,
0,
0,
0,
0,
0,
1,
0,
0,
0,
0,
0,
1,
0,
0,
0,
0,
0,
0,
0,
0,
0,
0,
0,
0,
0,
0,
0,
0,
0,
0,
0,
0,
0,
0,
0,
0,
0,
0,
0,
0,
0,
0,
0,
0,
0,
0,
0,
0,
0,
0,
0,
0,
0,
0,
0,
0,
0,
0,
0,
1,
0,
0,
0,
0,
0,
0,
0,
0,
0,
0,
0,
0,
0,
0,
0,
0,
0,
0,
0,
0,
0,
0,
0,
0,
0,
0,
0,
0,
0,
0,
0,
0,
0,
0,
0,
0,
0,
0,
0,
0,
0,
0,
0,
0,
0,
0,
0,
0,
0,
0,
0,
0,
0,
0,
0,
0,
0,
0,
0,
0,
0,
0,
0,
0,
0,
0,
0,
0,
0,
0,
0,
0,
0,
0,
0,
0,
0,
0,
0,
0,
0,
0,
0,
0,
0,
0,
0,
0,
0,
0,
0,
0,
0,
0,
0,
0,
0,
0,
0,
0,
0,
0,
0,
0,
0,
0,
0,
0,
0,
0,
0,
0,
0,
0,
0,
0,
0,
0,
0,
0,
0,
0,
0,
0,
0,
0,
0,
0,
0,
0,
0,
0,
0,
0,
0,
0,
0,
0,
0,
0,
0,
0,
0,
0,
0,
0,
0,
0,
0,
0,
0,
0,
0,
0,
0,
0,
0,
0,
0,
0,
0,
0,
0,
0,
0,
0,
0,
0,
0,
0,
0,
0,
0,
0,
0,
0,
0,
0,
0,
0,
0,
0,
0,
0,
0,
0,
0,
0,
0,
0,
0,
0,
0,
0,
0,
0,
0,
0,
0,
0,
0,
0,
0,
0,
0,
0,
0,
0,
0,
0,
0,
0,
0,
0,
0,
0,
0,
0,
0,
0,
0,
0,
0,
0,
0,
0,
0,
0,
0,
0,
0,
0,
0,
0,
#ENDOFDATA   :