File: N132962/Quantification/20 keV/Glass Mount IIIB/GM IIIB K1053[4][4].msa
#FORMAT      : EMSA/MAS Spectral Data File
#VERSION     : 1.0
#TITLE       : GM IIIB K1053[4][all]
#DATE        : 10-SEP-2025
#TIME        : 17:00
#OWNER       : Unknown
#NPOINTS     : 4096
#NCOLUMNS    : 1
#XUNITS      : eV
#YUNITS      : counts
#DATATYPE    : Y
#XPERCHAN    : 9.99778
#OFFSET      : 1.69135
#BEAMKV      : 20
#SIGNALTYPE  : EDS
#ELEVANGLE   : 35
#AZIMANGLE   : 0
#LIVETIME    : 240.292
#REALTIME    : 268.972
#PROBECUR    : 1.22416
#TAUWIND     : 0
#TDEADLYR    : 0
#TACTLYR     : 0.045
#TALWIND     : 0.025
#CHOFFSET    : 0.0
#XLABEL      : Energy (eV)
#YLABEL      : Counts
#XPOSITION   : 3.46514
#YPOSITION   : 13.91132
#ZPOSITION   : 34.06144
#EDSDET      : SD
##SPECIMEN   : GM IIIB K1053[4][all]
##D2STDCMP   : K1053,(O:16.13),(F:0.39),(Si:9.35),(Cl:0.64),(Br:1.09),(I:1.37),(Pb:71.02)
##DET_HASH   : 12273538-fd48-a23f-0a19-f1e6fa85caef
##CALIB_HASH : 6abaa72c-aa41-8738-0be9-f592914732f3
##WORKING    : 15.0 mm
##DET_NAME   : EDAX All
##DET_MODE   : MediumLE
#SPECTRUM    :
13,
21,
13,
59,
278,
1135,
2963,
6194,
12298,
15088,
9881,
6644,
6355,
6500,
7398,
12668,
33331,
57289,
42649,
16766,
10517,
9644,
10011,
10438,
9016,
7224,
6890,
7183,
7733,
7849,
7902,
8052,
8147,
8357,
8483,
8594,
8713,
8967,
8985,
9408,
9540,
9717,
10149,
10416,
10496,
10655,
10976,
11753,
13876,
16866,
17355,
15530,
13247,
12261,
12514,
17591,
40119,
87559,
116047,
88639,
49501,
32017,
22538,
14700,
11149,
10128,
9923,
9848,
9823,
9995,
10520,
11425,
13110,
14751,
17408,
27337,
63032,
135322,
199912,
192183,
152978,
140319,
119043,
70518,
29858,
13535,
11975,
15167,
16842,
15349,
10974,
7754,
6418,
6017,
6302,
6238,
6457,
6575,
6616,
6614,
7053,
7616,
8041,
8289,
7933,
7255,
6482,
6156,
6134,
5789,
5626,
5668,
5637,
5822,
5836,
5791,
5898,
5953,
6056,
5875,
5844,
5691,
5768,
5687,
5826,
5922,
5921,
5934,
5930,
6406,
7175,
7560,
7454,
6816,
6068,
5816,
5746,
5830,
6010,
6403,
6544,
6772,
6468,
6088,
5990,
5718,
5729,
5709,
5792,
6105,
6442,
6592,
6172,
5800,
5618,
5708,
5576,
5694,
5785,
5715,
5776,
5655,
5590,
5440,
5405,
5317,
5470,
5388,
5223,
5290,
5255,
5146,
5121,
5103,
5068,
5109,
5073,
5059,
4963,
5054,
5028,
5053,
4899,
4852,
4840,
4891,
4775,
4790,
4863,
4827,
4849,
4896,
4785,
4723,
4679,
4641,
4722,
4593,
4537,
4623,
4621,
4477,
4526,
4553,
4433,
4584,
4566,
4401,
4522,
4545,
4652,
4694,
4913,
4908,
4848,
4616,
4390,
4357,
4307,
4267,
4168,
4253,
4128,
4151,
4041,
4142,
4071,
3981,
4054,
4046,
4061,
4072,
3973,
4096,
4010,
4131,
3876,
3930,
3811,
3835,
3789,
3730,
3787,
3738,
3772,
3739,
3869,
3904,
3995,
4014,
4017,
3767,
3714,
3776,
3587,
3675,
3448,
3499,
3588,
3523,
3497,
3547,
3424,
3398,
3367,
3387,
3354,
3298,
3374,
3291,
3340,
3350,
3245,
3225,
3232,
3211,
3184,
3264,
3202,
3097,
3150,
3029,
3041,
3047,
3154,
3055,
2951,
2966,
2998,
2949,
3004,
2969,
2971,
2982,
2885,
3046,
2915,
2923,
2864,
2824,
2722,
2800,
2926,
3042,
3308,
3451,
3483,
3420,
3234,
2999,
2901,
2794,
2623,
2637,
2633,
2579,
2664,
2662,
2540,
2613,
2549,
2485,
2493,
2572,
2525,
2496,
2490,
2448,
2410,
2470,
2586,
2442,
2353,
2458,
2410,
2354,
2322,
2405,
2284,
2335,
2299,
2274,
2318,
2388,
2723,
3276,
4070,
5830,
8311,
11134,
13904,
15324,
15134,
12858,
9720,
6555,
4313,
3100,
2550,
2169,
2055,
2051,
1990,
1988,
1930,
2029,
1991,
1952,
1928,
1864,
1854,
1867,
1828,
1891,
1809,
1882,
1790,
1853,
1840,
1826,
1858,
1778,
1666,
1682,
1669,
1716,
1660,
1644,
1658,
1606,
1600,
1647,
1600,
1687,
1763,
1756,
1726,
1822,
1689,
1736,
1644,
1572,
1720,
1602,
1673,
1723,
1695,
1658,
1614,
1652,
1623,
1595,
1567,
1599,
1752,
2115,
2766,
3729,
4785,
5777,
6168,
6038,
5174,
4106,
3189,
2421,
1980,
1652,
1542,
1427,
1407,
1497,
1528,
1389,
1375,
1389,
1278,
1232,
1163,
1050,
1111,
1114,
1078,
1061,
1026,
1029,
980,
960,
963,
937,
936,
940,
955,
884,
912,
932,
976,
939,
902,
927,
840,
872,
892,
833,
855,
829,
838,
863,
841,
843,
846,
837,
790,
776,
782,
823,
776,
782,
789,
767,
732,
707,
686,
710,
717,
753,
756,
832,
874,
923,
952,
1106,
1073,
1055,
943,
896,
770,
666,
672,
712,
638,
668,
665,
663,
664,
686,
638,
673,
645,
580,
588,
585,
556,
534,
532,
531,
526,
518,
503,
476,
524,
483,
501,
486,
489,
464,
471,
486,
445,
457,
452,
449,
427,
399,
421,
442,
385,
374,
380,
383,
389,
370,
376,
390,
389,
352,
376,
370,
391,
346,
338,
355,
321,
308,
309,
308,
317,
315,
292,
284,
318,
292,
279,
282,
318,
274,
266,
274,
261,
304,
260,
278,
255,
272,
284,
234,
255,
220,
231,
238,
221,
229,
199,
187,
228,
218,
212,
239,
193,
194,
189,
194,
173,
208,
158,
190,
157,
172,
170,
160,
174,
161,
209,
168,
172,
152,
113,
154,
132,
161,
157,
149,
131,
137,
136,
109,
116,
102,
102,
116,
122,
112,
110,
102,
120,
96,
87,
88,
86,
92,
87,
72,
90,
72,
62,
65,
62,
60,
61,
78,
62,
61,
50,
60,
60,
55,
41,
46,
50,
37,
37,
48,
46,
40,
30,
31,
28,
32,
22,
16,
16,
27,
13,
5,
6,
15,
10,
9,
8,
4,
4,
3,
4,
5,
6,
4,
0,
5,
6,
7,
4,
5,
3,
5,
7,
8,
4,
3,
4,
6,
5,
5,
2,
2,
5,
4,
4,
5,
2,
3,
6,
10,
4,
4,
6,
6,
6,
7,
6,
2,
6,
2,
5,
6,
2,
2,
1,
3,
4,
6,
6,
3,
5,
1,
2,
2,
5,
1,
3,
4,
4,
1,
4,
5,
5,
3,
1,
4,
1,
3,
3,
7,
2,
3,
1,
2,
1,
2,
1,
3,
2,
3,
4,
1,
1,
2,
3,
2,
1,
2,
2,
1,
1,
5,
0,
1,
2,
0,
1,
2,
3,
2,
2,
5,
5,
1,
2,
4,
0,
3,
1,
3,
2,
5,
4,
2,
1,
3,
1,
5,
0,
2,
1,
2,
2,
1,
1,
0,
1,
0,
1,
1,
1,
1,
0,
1,
1,
0,
2,
2,
1,
0,
2,
1,
0,
2,
0,
2,
1,
2,
0,
2,
2,
0,
3,
0,
3,
0,
1,
2,
2,
0,
1,
0,
0,
1,
2,
3,
2,
1,
3,
2,
1,
1,
2,
1,
0,
0,
2,
1,
1,
0,
2,
2,
0,
0,
0,
0,
1,
0,
2,
1,
0,
1,
1,
3,
0,
1,
1,
0,
0,
0,
3,
0,
0,
0,
0,
2,
0,
0,
0,
2,
1,
2,
2,
1,
3,
0,
0,
2,
1,
0,
0,
3,
0,
0,
1,
0,
1,
0,
0,
0,
1,
0,
0,
1,
0,
1,
0,
0,
1,
2,
2,
2,
3,
0,
0,
0,
0,
1,
0,
0,
1,
0,
0,
0,
0,
0,
0,
0,
0,
0,
1,
0,
0,
0,
0,
0,
1,
2,
0,
0,
1,
0,
0,
0,
1,
0,
0,
2,
0,
0,
1,
0,
0,
0,
0,
0,
0,
0,
1,
0,
0,
0,
1,
0,
1,
0,
1,
0,
0,
0,
0,
1,
0,
0,
0,
0,
0,
2,
0,
0,
0,
0,
1,
1,
0,
0,
0,
3,
0,
1,
1,
0,
0,
0,
0,
1,
0,
0,
0,
0,
0,
1,
0,
0,
0,
1,
0,
0,
0,
0,
0,
0,
0,
0,
0,
0,
0,
0,
0,
0,
0,
0,
0,
0,
0,
0,
1,
0,
0,
0,
0,
0,
0,
0,
0,
0,
0,
0,
0,
0,
0,
0,
0,
0,
0,
0,
0,
0,
0,
0,
0,
1,
0,
0,
0,
1,
0,
1,
1,
0,
1,
0,
0,
0,
0,
0,
0,
0,
0,
0,
0,
0,
0,
0,
0,
0,
0,
0,
0,
0,
0,
0,
0,
0,
0,
0,
0,
0,
0,
0,
0,
0,
0,
0,
0,
0,
0,
0,
0,
0,
0,
0,
0,
0,
0,
0,
0,
0,
0,
0,
0,
0,
0,
0,
0,
0,
0,
0,
0,
0,
0,
0,
0,
0,
0,
1,
0,
0,
0,
0,
0,
0,
0,
0,
0,
0,
0,
0,
0,
0,
0,
0,
0,
0,
0,
0,
0,
0,
0,
0,
0,
0,
0,
0,
0,
0,
0,
0,
0,
0,
0,
0,
0,
0,
0,
0,
0,
0,
0,
0,
0,
0,
0,
0,
0,
0,
0,
0,
0,
0,
0,
0,
0,
0,
0,
0,
0,
0,
0,
0,
0,
0,
0,
0,
0,
0,
0,
0,
0,
0,
0,
0,
0,
0,
0,
0,
0,
0,
0,
0,
0,
0,
0,
0,
0,
0,
0,
0,
0,
0,
0,
0,
1,
0,
0,
0,
0,
0,
0,
0,
0,
0,
0,
0,
0,
0,
0,
0,
0,
0,
0,
0,
0,
0,
0,
0,
0,
0,
0,
0,
0,
0,
0,
0,
0,
0,
0,
0,
0,
0,
0,
0,
0,
0,
0,
0,
0,
0,
0,
0,
0,
0,
0,
0,
0,
0,
0,
0,
0,
0,
0,
0,
0,
0,
0,
0,
0,
0,
0,
0,
0,
0,
0,
0,
0,
0,
0,
0,
0,
0,
0,
0,
0,
0,
0,
0,
0,
0,
0,
0,
0,
0,
0,
0,
0,
0,
0,
0,
0,
0,
0,
0,
0,
0,
0,
0,
0,
0,
0,
0,
0,
0,
0,
0,
0,
0,
0,
0,
0,
0,
0,
0,
0,
0,
0,
0,
0,
0,
0,
0,
0,
0,
0,
0,
0,
0,
0,
0,
0,
0,
0,
0,
0,
0,
#ENDOFDATA   :