File: N132962/Quantification/20 keV/Glass Mount IIIB/GM IIIB K251[3][4].msa
#FORMAT      : EMSA/MAS Spectral Data File
#VERSION     : 1.0
#TITLE       : GM IIIB K251[3][all]
#DATE        : 10-SEP-2025
#TIME        : 18:56
#OWNER       : Unknown
#NPOINTS     : 4096
#NCOLUMNS    : 1
#XUNITS      : eV
#YUNITS      : counts
#DATATYPE    : Y
#XPERCHAN    : 9.99778
#OFFSET      : 1.69135
#BEAMKV      : 20
#SIGNALTYPE  : EDS
#ELEVANGLE   : 35
#AZIMANGLE   : 0
#LIVETIME    : 240.257
#REALTIME    : 265.451
#PROBECUR    : 1.2221
#TAUWIND     : 0
#TDEADLYR    : 0
#TACTLYR     : 0.045
#TALWIND     : 0.025
#CHOFFSET    : 0.0
#XLABEL      : Energy (eV)
#YLABEL      : Counts
#XPOSITION   : 7.42593
#YPOSITION   : 0.83233
#ZPOSITION   : 34.00159
#EDSDET      : SD
##SPECIMEN   : GM IIIB K251[3][all]
##D2STDCMP   : K251,(O:23.02),(Al:1.32),(Si:14.02),(Ba:8.96),(Ta:4.09),(Pb:44.1),(Bi:4.48)
##DET_HASH   : 12273538-fd48-a23f-0a19-f1e6fa85caef
##CALIB_HASH : 6abaa72c-aa41-8738-0be9-f592914732f3
##WORKING    : 15.0 mm
##DET_NAME   : EDAX All
##DET_MODE   : MediumLE
#SPECTRUM    :
17,
25,
12,
27,
187,
754,
2157,
4822,
9729,
12117,
8263,
6078,
6136,
6449,
7951,
16584,
49993,
90430,
66247,
21890,
9608,
7594,
6991,
7306,
7255,
7002,
7223,
7125,
6778,
6721,
6566,
6742,
7278,
7568,
7754,
7903,
7712,
7539,
7709,
7666,
8063,
8404,
8607,
9058,
9637,
9796,
9845,
10977,
15404,
22031,
22414,
16009,
11783,
10703,
11879,
21735,
60305,
132164,
171551,
123776,
58872,
29440,
18224,
12008,
9058,
8461,
8121,
7715,
7681,
7768,
8046,
8695,
9499,
10449,
12351,
17769,
36917,
76628,
111801,
111114,
94731,
88395,
75753,
47434,
24432,
13881,
10243,
9937,
10782,
10563,
8792,
7058,
6028,
5660,
5469,
5617,
5700,
5814,
5945,
5791,
6082,
6528,
6863,
7039,
6862,
6408,
5945,
5757,
5604,
5385,
5181,
5180,
5286,
5199,
5190,
5451,
5220,
5475,
5477,
5242,
5068,
5111,
5193,
5289,
5186,
5245,
5249,
5132,
5042,
5232,
5243,
5315,
5510,
5369,
5230,
5166,
5174,
5173,
5218,
5203,
5141,
5039,
5082,
5283,
5266,
6055,
8188,
12222,
16812,
18608,
16169,
11262,
7457,
5595,
5113,
4825,
4925,
5193,
6264,
7970,
10186,
11208,
10633,
8931,
7520,
6417,
5535,
5134,
4928,
5155,
5675,
6394,
6647,
6399,
5640,
4906,
4527,
4366,
4292,
4321,
4155,
4366,
4563,
4913,
5158,
5014,
4715,
4341,
4206,
4038,
4078,
4252,
4229,
4380,
4345,
4249,
4081,
3887,
3969,
3991,
3816,
3800,
3838,
3772,
3649,
3696,
3722,
3710,
3743,
3754,
3726,
3751,
3900,
3933,
3935,
3866,
3583,
3564,
3469,
3492,
3451,
3373,
3413,
3501,
3430,
3444,
3296,
3312,
3395,
3319,
3334,
3371,
3338,
3344,
3274,
3232,
3283,
3238,
3266,
3255,
3283,
3148,
3097,
3168,
2992,
3122,
3077,
3074,
3193,
3198,
3186,
3145,
3042,
2965,
2910,
2990,
2903,
2703,
2794,
2771,
2787,
2784,
2742,
2779,
2762,
2818,
2801,
3185,
3381,
3999,
4456,
4678,
4586,
4115,
3764,
3096,
2816,
2733,
2614,
2505,
2559,
2472,
2475,
2533,
2476,
2458,
2451,
2334,
2410,
2421,
2383,
2472,
2405,
2357,
2408,
2334,
2263,
2291,
2264,
2317,
2286,
2273,
2403,
2399,
2634,
2614,
2779,
2820,
2834,
2970,
3092,
3059,
2962,
2807,
2564,
2462,
2377,
2302,
2251,
2293,
2277,
2465,
2380,
2312,
2295,
2089,
2021,
2005,
1968,
2007,
1949,
1919,
1908,
1881,
1886,
1882,
1835,
1859,
1794,
1782,
1826,
1780,
1817,
1941,
2097,
2279,
2890,
3887,
4995,
6582,
8444,
9179,
9060,
7570,
5807,
4235,
3013,
2389,
2210,
2273,
2296,
2377,
2254,
2123,
1936,
1848,
1716,
1685,
1545,
1517,
1538,
1424,
1502,
1491,
1543,
1469,
1441,
1511,
1396,
1400,
1437,
1422,
1333,
1341,
1360,
1360,
1300,
1324,
1242,
1361,
1269,
1255,
1306,
1314,
1217,
1205,
1267,
1189,
1232,
1137,
1184,
1214,
1181,
1277,
1218,
1281,
1213,
1265,
1197,
1248,
1182,
1162,
1141,
1207,
1298,
1518,
1784,
2354,
2907,
3476,
3834,
3606,
3273,
2561,
2097,
1688,
1362,
1193,
1186,
1162,
1150,
1223,
1201,
1229,
1301,
1164,
1073,
1017,
971,
882,
883,
851,
792,
843,
817,
813,
775,
769,
729,
756,
758,
745,
778,
758,
787,
707,
722,
724,
728,
696,
672,
632,
685,
667,
672,
649,
650,
678,
647,
660,
624,
630,
612,
600,
624,
597,
580,
599,
596,
609,
588,
576,
589,
572,
534,
548,
563,
574,
646,
667,
677,
742,
744,
719,
664,
618,
574,
598,
498,
474,
471,
513,
470,
513,
519,
492,
515,
488,
485,
491,
479,
413,
453,
430,
385,
374,
379,
355,
423,
375,
394,
382,
360,
353,
378,
350,
369,
347,
338,
341,
307,
353,
367,
303,
296,
320,
309,
287,
296,
264,
285,
306,
280,
284,
293,
288,
238,
278,
261,
235,
269,
224,
283,
284,
248,
254,
223,
209,
242,
235,
260,
216,
232,
193,
212,
203,
217,
224,
187,
225,
194,
204,
213,
200,
195,
180,
184,
184,
178,
181,
181,
168,
165,
167,
173,
178,
162,
148,
141,
143,
123,
151,
127,
120,
146,
145,
144,
137,
125,
118,
127,
123,
124,
110,
116,
107,
112,
122,
111,
109,
122,
93,
90,
98,
100,
85,
93,
93,
76,
86,
84,
84,
76,
74,
61,
65,
72,
76,
71,
66,
58,
62,
55,
58,
55,
57,
48,
35,
26,
38,
55,
38,
45,
55,
33,
35,
46,
35,
37,
34,
19,
29,
29,
20,
22,
20,
16,
20,
15,
23,
13,
15,
5,
8,
9,
7,
8,
8,
2,
7,
2,
5,
4,
5,
5,
4,
4,
3,
3,
4,
6,
8,
6,
3,
1,
3,
3,
4,
2,
4,
4,
6,
3,
4,
1,
3,
3,
2,
4,
3,
4,
1,
1,
5,
3,
2,
1,
3,
0,
3,
1,
5,
4,
1,
2,
3,
0,
1,
2,
1,
3,
1,
1,
2,
1,
3,
3,
1,
1,
2,
2,
1,
4,
1,
1,
1,
0,
1,
2,
1,
1,
2,
2,
1,
1,
2,
1,
2,
3,
1,
1,
2,
4,
0,
1,
0,
1,
3,
1,
0,
1,
1,
1,
2,
2,
1,
2,
0,
1,
2,
1,
2,
2,
1,
1,
1,
2,
1,
1,
2,
5,
2,
2,
1,
2,
0,
0,
1,
4,
0,
0,
0,
1,
0,
2,
1,
1,
0,
1,
1,
1,
1,
0,
0,
0,
0,
0,
0,
0,
1,
0,
0,
2,
1,
1,
0,
0,
0,
0,
0,
1,
1,
0,
2,
1,
0,
1,
2,
0,
1,
0,
1,
3,
1,
1,
1,
1,
1,
1,
4,
0,
0,
3,
1,
1,
0,
2,
0,
2,
2,
2,
0,
0,
1,
2,
0,
0,
0,
1,
0,
4,
0,
0,
0,
0,
1,
1,
0,
1,
1,
0,
3,
0,
2,
1,
2,
0,
1,
1,
1,
0,
1,
0,
0,
0,
1,
1,
0,
0,
0,
0,
3,
0,
0,
0,
0,
0,
0,
1,
0,
0,
0,
0,
1,
0,
1,
1,
2,
1,
1,
0,
0,
0,
0,
0,
1,
1,
0,
0,
1,
0,
0,
0,
0,
0,
0,
0,
0,
1,
0,
1,
0,
1,
1,
0,
0,
0,
0,
1,
0,
0,
0,
0,
0,
0,
0,
0,
1,
1,
0,
0,
0,
0,
0,
0,
0,
0,
0,
0,
0,
0,
0,
0,
1,
0,
1,
0,
0,
0,
0,
0,
0,
0,
0,
1,
0,
0,
0,
0,
0,
0,
0,
0,
0,
0,
0,
0,
0,
1,
1,
2,
0,
0,
0,
1,
0,
0,
0,
0,
0,
0,
0,
0,
0,
0,
0,
0,
1,
0,
0,
2,
0,
0,
1,
0,
0,
0,
0,
0,
0,
0,
0,
0,
0,
0,
0,
0,
0,
0,
0,
0,
0,
0,
0,
0,
0,
0,
0,
0,
0,
0,
0,
0,
0,
0,
0,
0,
0,
1,
1,
0,
0,
0,
0,
0,
0,
0,
0,
0,
0,
1,
0,
0,
0,
0,
0,
0,
0,
0,
0,
0,
0,
0,
0,
0,
0,
0,
0,
0,
0,
0,
0,
0,
0,
0,
0,
0,
0,
0,
0,
0,
0,
0,
0,
0,
0,
0,
0,
0,
0,
0,
0,
0,
0,
0,
0,
1,
0,
0,
0,
0,
0,
0,
0,
0,
0,
0,
0,
0,
0,
0,
0,
0,
0,
0,
0,
0,
0,
0,
0,
0,
0,
0,
0,
0,
0,
0,
0,
0,
0,
0,
0,
0,
0,
0,
0,
0,
0,
0,
0,
0,
0,
0,
0,
0,
0,
0,
0,
0,
0,
0,
0,
0,
0,
0,
0,
0,
0,
0,
0,
0,
0,
0,
0,
0,
0,
0,
0,
0,
0,
0,
0,
0,
0,
0,
0,
0,
0,
0,
0,
0,
0,
0,
0,
0,
0,
0,
0,
0,
0,
0,
0,
0,
0,
0,
0,
0,
0,
0,
0,
0,
0,
0,
0,
0,
0,
0,
0,
0,
0,
0,
0,
0,
0,
0,
0,
0,
0,
0,
0,
0,
0,
0,
0,
0,
0,
0,
0,
0,
0,
0,
0,
0,
0,
0,
0,
0,
0,
0,
0,
0,
0,
0,
0,
0,
0,
0,
0,
0,
0,
0,
0,
0,
0,
0,
0,
0,
0,
0,
0,
0,
0,
0,
0,
0,
0,
0,
0,
0,
0,
0,
0,
0,
0,
0,
0,
0,
0,
0,
0,
0,
0,
0,
0,
0,
0,
0,
0,
0,
0,
0,
0,
0,
0,
0,
0,
0,
0,
0,
0,
0,
0,
0,
0,
0,
0,
0,
0,
0,
0,
0,
0,
0,
0,
0,
0,
0,
0,
0,
0,
0,
0,
0,
0,
0,
0,
0,
0,
0,
0,
0,
0,
0,
0,
0,
0,
0,
0,
0,
0,
0,
0,
0,
0,
0,
0,
0,
0,
0,
0,
0,
0,
0,
0,
0,
0,
#ENDOFDATA   :