File: N132962/Quantification/20 keV/Glass Mount IIIB/GM IIIB K497[6][4].msa
#FORMAT      : EMSA/MAS Spectral Data File
#VERSION     : 1.0
#TITLE       : GM IIIB K497[6][all]
#DATE        : 11-SEP-2025
#TIME        : 09:44
#OWNER       : Unknown
#NPOINTS     : 4096
#NCOLUMNS    : 1
#XUNITS      : eV
#YUNITS      : counts
#DATATYPE    : Y
#XPERCHAN    : 9.99778
#OFFSET      : 1.69135
#BEAMKV      : 20
#SIGNALTYPE  : EDS
#ELEVANGLE   : 35
#AZIMANGLE   : 0
#LIVETIME    : 240.153
#REALTIME    : 258.985
#PROBECUR    : 1.22337
#TAUWIND     : 0
#TDEADLYR    : 0
#TACTLYR     : 0.045
#TALWIND     : 0.025
#CHOFFSET    : 0.0
#XLABEL      : Energy (eV)
#YLABEL      : Counts
#XPOSITION   : 12.87953
#YPOSITION   : 10.27209
#ZPOSITION   : 34.00161
#EDSDET      : SD
##SPECIMEN   : GM IIIB K497[6][all]
##D2STDCMP   : K497,(B:0.05),(O:52.45),(Mg:5.21),(Al:5.78),(Si:0.13),(P:33.18),(Ti:0.21),(Fe:0.24),(Zr:0.4),(Ce:0.62),(Ta:0.8),(Pb:0.92)
##DET_HASH   : 12273538-fd48-a23f-0a19-f1e6fa85caef
##CALIB_HASH : 6abaa72c-aa41-8738-0be9-f592914732f3
##WORKING    : 15.0 mm
##DET_NAME   : EDAX All
##DET_MODE   : MediumLE
#SPECTRUM    :
20,
29,
14,
34,
134,
419,
1017,
2542,
7652,
11369,
6994,
3621,
3902,
5199,
9007,
32489,
121617,
230917,
167903,
43834,
5917,
2397,
2591,
2791,
2904,
2746,
2739,
3011,
3287,
3660,
3769,
3671,
3795,
4347,
4925,
5236,
5025,
4863,
5459,
8775,
23578,
53875,
64027,
38086,
13714,
6466,
6077,
10973,
30372,
58054,
59128,
31818,
12306,
6461,
5310,
5665,
7436,
9738,
10560,
9397,
7698,
6883,
8095,
14098,
31319,
85171,
191961,
266782,
209401,
94701,
33719,
18990,
13611,
7755,
4231,
3190,
3185,
3780,
4393,
4363,
3959,
3868,
4020,
3821,
3701,
3389,
3122,
2924,
2740,
2809,
2652,
2703,
2571,
2510,
2510,
2537,
2564,
2522,
2597,
2685,
2525,
2619,
2521,
2544,
2527,
2503,
2435,
2475,
2599,
2644,
2600,
2506,
2503,
2360,
2404,
2473,
2500,
2528,
2489,
2294,
2402,
2569,
2767,
3053,
2864,
2654,
2355,
2206,
2140,
2121,
2134,
2206,
2261,
2498,
2580,
2459,
2365,
2166,
2105,
1995,
1905,
2010,
2029,
1964,
1934,
1865,
1918,
2034,
2218,
2523,
2907,
2675,
2423,
2066,
1758,
1788,
1716,
1834,
1776,
2002,
2306,
2470,
2559,
2253,
2064,
1909,
1730,
1721,
1529,
1611,
1560,
1597,
1588,
1713,
1758,
1916,
1855,
1759,
1657,
1534,
1605,
1493,
1510,
1466,
1411,
1469,
1566,
1477,
1516,
1490,
1362,
1393,
1371,
1329,
1362,
1296,
1368,
1301,
1296,
1276,
1304,
1348,
1323,
1327,
1232,
1198,
1140,
1165,
1164,
1225,
1356,
1526,
1691,
1798,
1744,
1539,
1352,
1227,
1077,
1130,
1092,
1081,
1071,
1114,
1089,
1073,
1037,
1087,
1025,
1066,
990,
1022,
1072,
1059,
1058,
1098,
1061,
1075,
1004,
921,
919,
973,
972,
931,
872,
963,
898,
977,
947,
948,
936,
888,
862,
905,
850,
809,
877,
852,
844,
909,
853,
825,
832,
798,
808,
836,
806,
797,
907,
1008,
1071,
1080,
1079,
1079,
990,
777,
745,
731,
715,
693,
714,
706,
734,
684,
700,
673,
673,
671,
711,
675,
673,
660,
621,
607,
641,
624,
633,
622,
651,
618,
609,
643,
624,
559,
563,
627,
641,
628,
643,
659,
718,
619,
671,
672,
634,
584,
578,
572,
613,
555,
553,
574,
589,
554,
582,
553,
522,
482,
531,
502,
495,
467,
485,
481,
492,
529,
458,
435,
457,
469,
451,
456,
442,
468,
459,
476,
441,
480,
460,
531,
543,
541,
553,
515,
469,
436,
425,
449,
425,
372,
430,
415,
371,
392,
393,
383,
357,
364,
386,
362,
344,
331,
346,
336,
354,
362,
321,
316,
304,
316,
380,
310,
342,
356,
324,
313,
303,
316,
255,
346,
305,
311,
272,
287,
331,
292,
264,
296,
291,
258,
245,
314,
228,
235,
243,
277,
259,
245,
268,
277,
230,
273,
234,
252,
257,
223,
260,
242,
278,
283,
270,
278,
271,
231,
233,
228,
227,
255,
199,
208,
199,
199,
220,
203,
210,
185,
189,
175,
187,
160,
191,
196,
196,
190,
181,
175,
167,
160,
157,
177,
155,
139,
157,
145,
155,
141,
134,
153,
137,
172,
151,
126,
167,
157,
136,
129,
142,
123,
129,
143,
115,
130,
135,
131,
138,
131,
119,
119,
132,
113,
122,
106,
142,
133,
114,
107,
108,
104,
94,
107,
105,
103,
118,
114,
105,
85,
108,
98,
89,
79,
104,
102,
88,
102,
87,
94,
82,
88,
74,
92,
77,
75,
90,
72,
80,
65,
86,
68,
94,
72,
77,
80,
74,
82,
69,
75,
64,
74,
66,
68,
41,
54,
68,
67,
78,
61,
53,
62,
48,
57,
32,
57,
55,
60,
46,
52,
49,
46,
43,
53,
43,
47,
51,
35,
44,
46,
63,
49,
28,
46,
44,
38,
41,
38,
41,
38,
23,
38,
33,
35,
30,
36,
26,
34,
28,
30,
26,
20,
29,
23,
38,
29,
28,
25,
19,
29,
22,
21,
23,
32,
15,
19,
26,
20,
14,
18,
23,
21,
25,
16,
18,
17,
15,
24,
16,
21,
13,
17,
10,
8,
14,
11,
12,
5,
23,
16,
11,
10,
13,
7,
8,
21,
17,
9,
17,
10,
13,
12,
9,
12,
9,
4,
11,
6,
8,
5,
5,
12,
8,
6,
4,
6,
7,
5,
5,
8,
6,
3,
2,
7,
4,
5,
7,
2,
4,
1,
3,
4,
3,
1,
3,
0,
1,
1,
0,
0,
0,
0,
0,
2,
0,
0,
0,
0,
1,
0,
0,
0,
1,
1,
0,
0,
0,
0,
1,
1,
0,
0,
0,
2,
0,
1,
2,
1,
0,
0,
0,
1,
0,
0,
0,
1,
0,
0,
0,
0,
0,
0,
0,
0,
0,
0,
0,
0,
0,
0,
0,
0,
0,
0,
0,
0,
0,
0,
0,
1,
0,
1,
0,
0,
0,
0,
0,
0,
0,
0,
1,
0,
0,
0,
0,
0,
0,
0,
0,
0,
0,
0,
0,
0,
0,
0,
0,
0,
0,
0,
0,
0,
0,
0,
0,
0,
0,
0,
0,
0,
0,
0,
0,
0,
0,
0,
0,
0,
0,
0,
0,
0,
0,
0,
0,
0,
0,
0,
0,
0,
0,
0,
0,
0,
0,
0,
0,
0,
0,
1,
0,
1,
0,
0,
0,
0,
0,
0,
0,
0,
0,
1,
0,
0,
0,
0,
0,
0,
0,
0,
0,
0,
0,
0,
0,
0,
0,
0,
0,
0,
0,
0,
0,
0,
0,
0,
0,
0,
0,
0,
1,
0,
0,
0,
0,
0,
0,
0,
0,
0,
0,
0,
0,
0,
0,
0,
0,
0,
0,
0,
0,
0,
0,
0,
0,
0,
0,
0,
0,
0,
0,
0,
0,
0,
0,
0,
0,
0,
0,
0,
0,
0,
0,
0,
0,
0,
0,
0,
0,
0,
0,
0,
0,
0,
0,
0,
0,
0,
0,
0,
0,
0,
0,
0,
0,
0,
0,
0,
0,
0,
0,
0,
0,
0,
0,
0,
0,
0,
0,
0,
0,
0,
0,
0,
0,
0,
0,
0,
0,
0,
0,
0,
0,
0,
0,
0,
0,
0,
0,
0,
0,
0,
0,
0,
0,
0,
0,
0,
0,
0,
0,
0,
0,
0,
0,
0,
1,
0,
0,
0,
0,
0,
0,
0,
0,
0,
0,
0,
0,
0,
0,
0,
0,
0,
0,
0,
0,
0,
0,
0,
0,
0,
0,
0,
0,
0,
0,
0,
0,
0,
0,
0,
0,
0,
0,
0,
0,
0,
0,
0,
0,
0,
0,
0,
0,
0,
0,
0,
0,
0,
0,
0,
0,
0,
0,
0,
0,
0,
0,
0,
0,
0,
0,
0,
0,
0,
0,
0,
0,
0,
0,
0,
0,
0,
0,
0,
0,
0,
0,
0,
0,
0,
0,
0,
0,
0,
0,
0,
0,
0,
0,
0,
0,
0,
0,
0,
0,
0,
0,
0,
0,
0,
0,
0,
0,
0,
0,
0,
0,
0,
0,
0,
0,
0,
0,
0,
0,
0,
0,
0,
0,
0,
0,
0,
0,
0,
0,
0,
0,
0,
0,
0,
0,
0,
0,
0,
0,
0,
0,
0,
0,
0,
0,
0,
0,
0,
0,
0,
0,
0,
0,
0,
0,
0,
0,
0,
0,
0,
0,
0,
0,
0,
0,
0,
0,
0,
0,
0,
0,
0,
0,
0,
0,
0,
0,
0,
0,
0,
0,
0,
0,
0,
0,
0,
0,
0,
0,
0,
0,
0,
0,
0,
0,
0,
0,
0,
0,
0,
0,
0,
0,
0,
0,
0,
0,
0,
0,
0,
0,
0,
0,
0,
0,
0,
0,
0,
0,
0,
0,
0,
0,
0,
0,
0,
0,
0,
0,
0,
0,
0,
0,
0,
0,
0,
0,
0,
0,
0,
0,
0,
0,
0,
0,
0,
0,
0,
0,
0,
0,
0,
0,
0,
0,
0,
0,
0,
0,
0,
0,
0,
0,
0,
0,
0,
0,
0,
0,
0,
0,
0,
0,
0,
0,
0,
0,
0,
0,
0,
0,
0,
0,
0,
0,
0,
0,
0,
0,
0,
0,
0,
0,
0,
0,
0,
0,
0,
0,
0,
0,
0,
0,
0,
0,
0,
0,
0,
0,
0,
0,
0,
0,
0,
0,
0,
0,
0,
0,
0,
0,
0,
0,
0,
0,
0,
0,
0,
0,
0,
0,
0,
0,
0,
0,
0,
0,
0,
0,
0,
0,
0,
0,
0,
0,
0,
0,
0,
0,
0,
0,
0,
0,
0,
0,
0,
0,
0,
0,
0,
0,
0,
0,
0,
0,
0,
0,
0,
0,
0,
0,
0,
0,
0,
0,
0,
0,
0,
0,
0,
0,
0,
0,
0,
0,
0,
0,
0,
0,
0,
0,
0,
0,
0,
0,
0,
0,
0,
0,
0,
0,
0,
0,
0,
0,
0,
0,
0,
0,
0,
0,
0,
#ENDOFDATA   :