File: N132962/Quantification/20 keV/Glass Mount IIIB/GM IIIB K963[3][4].msa
#FORMAT      : EMSA/MAS Spectral Data File
#VERSION     : 1.0
#TITLE       : GM IIIB K963[3][all]
#DATE        : 10-SEP-2025
#TIME        : 16:18
#OWNER       : Unknown
#NPOINTS     : 4096
#NCOLUMNS    : 1
#XUNITS      : eV
#YUNITS      : counts
#DATATYPE    : Y
#XPERCHAN    : 9.99778
#OFFSET      : 1.69135
#BEAMKV      : 20
#SIGNALTYPE  : EDS
#ELEVANGLE   : 35
#AZIMANGLE   : 0
#LIVETIME    : 240.153
#REALTIME    : 261.61
#PROBECUR    : 1.22413
#TAUWIND     : 0
#TDEADLYR    : 0
#TACTLYR     : 0.045
#TALWIND     : 0.025
#CHOFFSET    : 0.0
#XLABEL      : Energy (eV)
#YLABEL      : Counts
#XPOSITION   : 9.18582
#YPOSITION   : 12.43052
#ZPOSITION   : 34.06144
#EDSDET      : SD
##SPECIMEN   : GM IIIB K963[3][all]
##D2STDCMP   : K963,(O:31.92),(Mg:0.14),(Si:21.99),(P:0.36),(Ti:0.28),(Cr:0.3),(Ni:0.34),(Zn:3.0),(Ge:0.42),(Zr:0.53),(Ba:39.52),(Eu:0.88),(Th:0.13),(U:0.17)
##DET_HASH   : 12273538-fd48-a23f-0a19-f1e6fa85caef
##CALIB_HASH : 6abaa72c-aa41-8738-0be9-f592914732f3
##WORKING    : 15.0 mm
##DET_NAME   : EDAX All
##DET_MODE   : MediumLE
#SPECTRUM    :
13,
25,
7,
29,
123,
478,
1442,
3222,
6778,
8683,
6201,
5548,
6212,
7542,
11076,
31191,
107895,
199768,
146407,
44649,
13757,
7951,
5592,
5462,
6364,
8770,
9704,
8002,
6428,
5829,
5352,
5897,
8775,
13512,
15042,
11550,
7293,
5984,
5961,
6245,
6700,
7188,
7174,
6129,
5392,
5441,
5483,
5607,
6213,
6740,
6852,
6790,
6599,
6872,
8009,
16827,
56406,
138956,
187811,
133968,
55914,
21421,
11252,
7043,
5411,
5547,
6663,
7659,
7653,
6587,
5987,
5749,
5466,
5524,
5434,
5620,
5549,
5235,
5212,
5011,
5010,
4860,
5078,
4922,
4963,
5167,
5007,
5175,
5135,
5127,
5437,
5333,
5206,
5167,
4953,
4877,
4871,
4838,
4963,
5126,
5291,
5158,
5163,
5153,
5217,
5145,
5261,
4993,
4868,
4724,
4683,
4834,
4797,
4760,
4753,
4757,
4798,
4687,
4541,
4441,
4466,
4457,
4365,
4335,
4421,
4389,
4237,
4360,
4360,
4814,
5379,
6165,
6429,
6031,
5212,
4554,
4299,
4143,
4093,
4117,
4109,
4202,
4484,
5102,
6179,
9822,
19455,
38446,
59671,
68171,
55955,
33570,
16032,
7513,
4793,
4201,
4485,
5823,
10278,
18424,
28264,
34162,
31101,
23449,
16253,
11222,
8177,
6098,
5369,
6415,
8963,
12350,
13455,
11987,
8766,
5637,
3986,
3629,
3511,
3866,
4245,
4519,
5173,
6130,
6840,
6768,
5569,
4284,
3401,
3029,
3191,
3738,
4261,
4818,
5004,
4650,
3953,
3395,
3035,
2854,
2826,
2698,
2505,
2473,
2377,
2452,
2447,
2490,
2525,
2325,
2471,
2431,
2567,
2768,
2794,
2823,
2660,
2574,
2457,
2438,
2315,
2280,
2111,
2144,
2134,
2234,
2286,
2224,
2309,
2225,
2203,
2098,
2180,
2084,
2025,
2128,
2067,
2027,
2007,
2069,
1945,
1987,
1909,
1940,
1979,
2038,
2184,
2384,
2528,
2573,
2520,
2319,
2056,
1953,
1863,
1876,
1828,
1800,
1816,
1784,
1807,
1762,
1754,
1722,
1685,
1732,
1673,
1673,
1752,
1799,
1716,
1709,
1650,
1680,
1702,
1715,
1807,
1677,
1669,
1599,
1600,
1554,
1694,
1819,
2388,
3069,
3933,
4349,
4323,
3943,
3038,
2336,
1871,
1564,
1447,
1467,
1546,
1456,
1438,
1428,
1445,
1360,
1429,
1398,
1439,
1355,
1354,
1407,
1295,
1397,
1339,
1364,
1261,
1353,
1299,
1310,
1531,
1572,
1704,
1761,
1625,
1521,
1455,
1295,
1254,
1278,
1289,
1423,
1384,
1352,
1338,
1317,
1224,
1231,
1165,
1144,
1103,
1108,
1069,
1086,
1091,
1162,
1043,
1042,
1098,
1059,
1111,
1116,
1029,
1017,
1032,
1001,
1004,
991,
977,
951,
964,
956,
966,
933,
984,
951,
960,
871,
948,
945,
956,
942,
927,
914,
909,
868,
868,
876,
872,
863,
845,
812,
842,
774,
766,
796,
779,
788,
823,
807,
758,
762,
769,
731,
774,
760,
703,
745,
703,
754,
704,
729,
709,
705,
721,
685,
689,
708,
668,
704,
656,
663,
653,
685,
639,
602,
653,
610,
610,
595,
586,
569,
639,
618,
627,
578,
612,
574,
579,
527,
583,
560,
555,
493,
569,
477,
544,
525,
527,
506,
543,
481,
519,
520,
487,
465,
491,
491,
457,
461,
460,
461,
448,
478,
466,
436,
404,
468,
416,
408,
396,
448,
408,
396,
395,
366,
410,
370,
386,
388,
343,
387,
374,
370,
422,
403,
354,
369,
375,
357,
353,
356,
356,
315,
335,
327,
349,
306,
324,
329,
328,
313,
289,
290,
290,
298,
318,
279,
279,
288,
286,
260,
277,
281,
260,
242,
247,
231,
264,
248,
240,
256,
229,
237,
197,
240,
221,
252,
239,
216,
223,
227,
200,
191,
246,
240,
208,
190,
210,
213,
193,
189,
180,
222,
193,
182,
175,
180,
172,
175,
186,
173,
157,
147,
164,
160,
152,
150,
151,
165,
145,
153,
151,
148,
146,
159,
140,
150,
125,
160,
113,
124,
126,
122,
139,
124,
128,
113,
125,
111,
87,
95,
104,
104,
110,
89,
97,
106,
91,
109,
101,
100,
100,
90,
91,
89,
75,
105,
91,
71,
80,
75,
94,
78,
91,
91,
71,
91,
90,
74,
78,
57,
73,
59,
74,
66,
53,
60,
56,
46,
46,
55,
63,
59,
51,
37,
56,
52,
41,
42,
52,
52,
56,
38,
38,
38,
41,
28,
45,
36,
28,
28,
32,
21,
32,
33,
22,
28,
34,
18,
24,
22,
19,
17,
23,
15,
28,
22,
17,
14,
17,
15,
12,
19,
11,
17,
11,
5,
10,
6,
8,
5,
10,
2,
4,
4,
6,
2,
3,
2,
2,
2,
3,
1,
2,
0,
0,
2,
1,
2,
1,
1,
2,
1,
2,
0,
2,
2,
1,
0,
2,
1,
3,
2,
1,
1,
0,
2,
0,
1,
0,
3,
2,
1,
1,
2,
3,
2,
0,
0,
0,
1,
0,
0,
0,
0,
0,
0,
1,
1,
0,
0,
1,
0,
1,
2,
1,
0,
0,
0,
1,
0,
0,
0,
2,
0,
0,
0,
0,
0,
2,
0,
0,
1,
0,
0,
0,
0,
2,
1,
0,
0,
0,
1,
1,
0,
0,
0,
1,
1,
0,
0,
0,
0,
0,
1,
0,
2,
1,
0,
0,
0,
1,
0,
0,
1,
0,
0,
0,
0,
1,
0,
1,
0,
1,
0,
1,
1,
0,
1,
1,
0,
0,
0,
0,
0,
2,
1,
0,
0,
0,
0,
0,
0,
0,
1,
1,
0,
0,
0,
0,
0,
0,
0,
0,
0,
0,
0,
0,
0,
0,
1,
0,
0,
0,
0,
0,
0,
0,
0,
0,
1,
0,
0,
0,
0,
0,
1,
0,
1,
0,
0,
0,
2,
0,
0,
0,
0,
0,
0,
0,
0,
0,
1,
0,
0,
1,
0,
0,
1,
1,
0,
0,
0,
0,
0,
1,
0,
0,
0,
0,
1,
0,
0,
0,
0,
0,
1,
0,
0,
0,
1,
0,
1,
0,
0,
0,
0,
0,
0,
0,
0,
0,
0,
0,
0,
0,
0,
0,
0,
0,
0,
0,
0,
0,
0,
0,
1,
0,
0,
0,
0,
0,
0,
0,
0,
0,
0,
0,
0,
0,
0,
0,
0,
0,
0,
0,
0,
0,
0,
0,
1,
0,
0,
0,
0,
0,
0,
0,
0,
0,
0,
0,
0,
0,
0,
0,
0,
0,
0,
0,
0,
0,
0,
0,
0,
1,
0,
0,
0,
0,
0,
0,
0,
0,
0,
0,
0,
0,
0,
0,
0,
0,
0,
0,
0,
0,
0,
0,
0,
0,
0,
0,
0,
0,
0,
0,
0,
0,
0,
0,
0,
0,
1,
0,
0,
0,
0,
0,
0,
0,
0,
0,
0,
0,
0,
1,
0,
0,
0,
0,
0,
0,
0,
0,
0,
0,
0,
0,
0,
0,
0,
0,
0,
0,
0,
0,
0,
0,
0,
0,
0,
0,
0,
0,
0,
0,
0,
0,
0,
0,
0,
0,
0,
0,
0,
0,
0,
0,
0,
0,
0,
0,
0,
0,
0,
0,
0,
0,
0,
0,
0,
0,
0,
0,
0,
0,
0,
0,
0,
0,
0,
0,
0,
0,
0,
0,
0,
0,
0,
0,
0,
0,
0,
0,
0,
0,
0,
0,
0,
0,
0,
0,
0,
0,
0,
0,
0,
0,
0,
0,
0,
0,
0,
0,
0,
0,
0,
0,
0,
0,
0,
0,
0,
0,
0,
0,
0,
0,
0,
0,
0,
0,
0,
0,
0,
0,
0,
0,
0,
0,
0,
0,
0,
0,
0,
0,
0,
0,
0,
0,
0,
0,
0,
0,
0,
0,
0,
0,
0,
0,
0,
0,
0,
0,
0,
0,
0,
0,
0,
0,
0,
0,
0,
0,
0,
0,
0,
0,
0,
0,
0,
0,
0,
0,
0,
0,
0,
0,
0,
0,
0,
0,
0,
0,
0,
0,
0,
0,
0,
0,
0,
0,
0,
0,
0,
0,
0,
0,
0,
0,
0,
0,
0,
0,
0,
0,
0,
0,
0,
0,
0,
0,
0,
0,
0,
0,
0,
0,
0,
0,
0,
0,
0,
0,
0,
0,
0,
0,
0,
0,
0,
0,
0,
0,
0,
0,
0,
0,
0,
0,
0,
0,
0,
0,
0,
0,
0,
0,
0,
0,
0,
0,
0,
0,
0,
0,
0,
0,
0,
0,
0,
0,
0,
0,
0,
0,
0,
0,
0,
0,
0,
0,
0,
0,
0,
0,
0,
0,
0,
0,
0,
0,
0,
0,
0,
0,
0,
0,
0,
0,
0,
0,
0,
0,
0,
0,
0,
0,
0,
0,
0,
0,
0,
0,
0,
0,
0,
0,
0,
0,
0,
0,
0,
0,
0,
0,
0,
0,
0,
0,
0,
0,
0,
0,
0,
0,
0,
0,
0,
0,
0,
0,
0,
0,
0,
0,
0,
0,
0,
0,
0,
0,
0,
0,
0,
0,
0,
0,
0,
0,
0,
0,
0,
0,
0,
0,
0,
0,
0,
0,
0,
0,
0,
0,
0,
0,
0,
0,
0,
#ENDOFDATA   :