File: N132962/Quantification/20 keV/Glass Mount IIIB/GM IIIB K411[2][4].msa
#FORMAT      : EMSA/MAS Spectral Data File
#VERSION     : 1.0
#TITLE       : GM IIIB K411[2][all]
#DATE        : 10-SEP-2025
#TIME        : 14:25
#OWNER       : Unknown
#NPOINTS     : 4096
#NCOLUMNS    : 1
#XUNITS      : eV
#YUNITS      : counts
#DATATYPE    : Y
#XPERCHAN    : 9.99778
#OFFSET      : 1.69135
#BEAMKV      : 20
#SIGNALTYPE  : EDS
#ELEVANGLE   : 35
#AZIMANGLE   : 0
#LIVETIME    : 240.202
#REALTIME    : 258.856
#PROBECUR    : 1.22574
#TAUWIND     : 0
#TDEADLYR    : 0
#TACTLYR     : 0.045
#TALWIND     : 0.025
#CHOFFSET    : 0.0
#XLABEL      : Energy (eV)
#YLABEL      : Counts
#XPOSITION   : 5.19283
#YPOSITION   : 5.07868
#ZPOSITION   : 34.06144
#EDSDET      : SD
##SPECIMEN   : GM IIIB K411[2][all]
##D2STDCMP   : K411,(O:42.3664),(Mg:8.8466),(Si:25.3818),(Ca:11.0563),(Fe:11.2088),5.0
##DET_HASH   : 12273538-fd48-a23f-0a19-f1e6fa85caef
##CALIB_HASH : 6abaa72c-aa41-8738-0be9-f592914732f3
##WORKING    : 15.0 mm
##DET_NAME   : EDAX All
##DET_MODE   : MediumLE
#SPECTRUM    :
25,
21,
8,
22,
82,
327,
895,
1988,
4761,
7051,
5843,
4475,
4026,
4266,
6952,
23538,
88662,
170183,
123386,
33194,
6333,
4394,
6546,
11428,
10957,
5913,
3330,
2909,
3062,
3028,
3225,
3276,
3398,
3699,
4102,
4237,
4283,
4657,
5310,
8856,
26469,
62034,
74809,
43042,
14392,
5949,
4828,
4646,
4984,
5428,
5562,
5613,
5710,
5941,
7293,
19256,
73873,
188989,
255319,
180063,
72569,
24888,
11335,
6348,
4318,
3792,
3596,
3318,
3240,
3104,
3149,
3199,
3264,
3524,
3768,
3877,
3854,
3611,
3451,
3402,
3239,
3356,
3288,
3189,
3187,
3193,
3243,
3122,
3205,
3157,
3184,
3253,
3111,
3199,
3180,
3108,
3095,
3120,
3202,
3253,
3210,
3188,
3150,
3112,
3141,
3031,
3006,
2880,
2893,
2907,
2892,
2882,
2917,
2868,
3028,
3121,
3305,
3388,
3770,
5288,
11755,
27075,
49131,
61937,
52412,
29946,
12568,
5052,
3125,
2913,
3163,
4357,
6298,
8951,
9566,
8029,
5105,
3302,
2460,
2306,
2270,
2375,
2182,
2135,
2129,
2076,
2191,
2076,
2137,
2168,
2198,
2255,
2152,
2045,
2011,
1974,
1994,
1937,
1826,
1906,
1866,
1885,
1988,
1896,
1863,
1919,
1798,
1848,
1834,
1716,
1794,
1765,
1757,
1762,
1642,
1668,
1766,
1729,
1729,
1782,
1790,
1748,
1752,
1768,
1723,
1570,
1576,
1560,
1629,
1485,
1528,
1435,
1564,
1557,
1589,
1627,
1708,
1663,
1626,
1564,
1434,
1411,
1405,
1369,
1419,
1462,
1455,
1581,
2004,
3458,
6972,
13178,
20590,
25018,
23336,
17161,
9979,
4979,
2374,
1535,
1399,
1268,
1232,
1214,
1144,
1194,
1232,
1193,
1201,
1307,
1401,
1653,
2112,
2996,
3739,
4218,
3800,
2960,
2151,
1459,
1196,
1121,
1001,
1038,
1000,
1009,
1026,
1021,
1062,
1060,
1034,
1021,
1008,
960,
981,
970,
950,
945,
939,
869,
928,
875,
959,
923,
904,
912,
905,
935,
900,
889,
872,
865,
840,
911,
855,
883,
841,
796,
810,
805,
823,
754,
820,
813,
782,
817,
736,
777,
738,
736,
776,
755,
681,
737,
704,
687,
737,
698,
676,
651,
717,
722,
640,
642,
651,
669,
677,
661,
642,
646,
615,
631,
623,
589,
593,
580,
634,
625,
574,
592,
628,
593,
613,
610,
566,
560,
561,
604,
557,
597,
601,
556,
561,
520,
551,
536,
522,
559,
597,
527,
548,
539,
502,
533,
477,
532,
515,
489,
505,
534,
489,
450,
515,
478,
470,
424,
430,
447,
463,
460,
434,
415,
422,
422,
449,
386,
434,
430,
425,
413,
430,
433,
401,
381,
380,
372,
412,
389,
360,
394,
370,
398,
363,
355,
345,
352,
365,
342,
350,
347,
352,
327,
289,
332,
314,
315,
308,
322,
333,
299,
301,
311,
304,
286,
313,
304,
309,
290,
298,
291,
304,
255,
282,
294,
262,
245,
286,
289,
224,
260,
254,
248,
243,
244,
242,
213,
233,
242,
247,
247,
269,
231,
244,
229,
214,
208,
212,
214,
194,
229,
215,
210,
219,
181,
213,
224,
197,
180,
199,
202,
199,
207,
200,
209,
180,
161,
169,
171,
167,
186,
150,
151,
171,
173,
172,
157,
154,
141,
155,
154,
123,
149,
175,
137,
160,
150,
118,
168,
140,
134,
144,
138,
149,
144,
114,
143,
119,
128,
131,
130,
103,
118,
103,
107,
113,
126,
117,
119,
126,
111,
100,
111,
117,
102,
92,
84,
98,
101,
89,
85,
92,
86,
95,
88,
82,
90,
80,
83,
72,
71,
87,
85,
64,
64,
85,
67,
75,
76,
75,
70,
61,
67,
63,
66,
48,
78,
73,
63,
65,
56,
57,
66,
54,
71,
62,
66,
56,
60,
57,
59,
51,
52,
59,
50,
65,
46,
48,
54,
45,
57,
42,
32,
41,
28,
48,
31,
48,
39,
47,
44,
30,
43,
44,
41,
39,
35,
36,
33,
42,
44,
36,
35,
35,
38,
27,
33,
32,
27,
38,
18,
27,
21,
21,
21,
30,
27,
24,
17,
24,
26,
25,
22,
18,
21,
22,
21,
16,
12,
28,
22,
12,
17,
11,
19,
18,
15,
20,
11,
19,
10,
14,
15,
20,
7,
10,
9,
12,
7,
8,
9,
12,
18,
7,
12,
5,
12,
9,
5,
10,
14,
7,
3,
11,
7,
5,
5,
5,
5,
6,
2,
4,
5,
3,
2,
5,
3,
2,
4,
3,
2,
0,
2,
2,
0,
1,
1,
1,
1,
1,
1,
0,
1,
0,
0,
0,
0,
0,
2,
0,
0,
2,
1,
0,
0,
0,
1,
0,
0,
1,
1,
0,
0,
0,
1,
0,
1,
0,
1,
1,
0,
0,
1,
0,
1,
0,
1,
0,
0,
0,
0,
1,
0,
0,
1,
1,
0,
0,
0,
1,
0,
0,
0,
0,
0,
1,
0,
0,
0,
0,
0,
0,
0,
0,
0,
1,
1,
1,
0,
0,
0,
1,
1,
0,
0,
0,
0,
0,
0,
0,
0,
0,
0,
0,
0,
0,
0,
0,
0,
0,
0,
0,
0,
0,
0,
0,
0,
0,
0,
0,
0,
0,
0,
0,
0,
0,
0,
0,
0,
0,
0,
0,
0,
0,
0,
0,
0,
0,
0,
0,
0,
0,
0,
0,
0,
0,
0,
0,
0,
0,
0,
0,
0,
1,
0,
0,
0,
0,
0,
0,
0,
0,
0,
0,
0,
0,
0,
0,
0,
0,
0,
1,
0,
0,
0,
0,
0,
0,
0,
0,
0,
0,
0,
0,
0,
0,
0,
0,
0,
0,
0,
0,
0,
0,
0,
0,
0,
0,
0,
0,
0,
0,
0,
0,
0,
0,
0,
0,
0,
0,
0,
0,
0,
0,
0,
0,
0,
0,
0,
0,
0,
0,
0,
0,
0,
0,
0,
0,
0,
0,
0,
0,
0,
0,
0,
0,
0,
0,
0,
0,
0,
0,
0,
0,
0,
0,
0,
0,
0,
0,
0,
0,
0,
0,
0,
0,
0,
0,
0,
1,
0,
0,
0,
0,
0,
0,
0,
0,
0,
0,
0,
0,
0,
0,
0,
0,
0,
0,
0,
0,
0,
0,
0,
0,
0,
0,
0,
0,
0,
0,
0,
0,
0,
0,
0,
0,
0,
0,
0,
0,
0,
0,
0,
0,
0,
0,
0,
0,
0,
0,
0,
0,
0,
0,
0,
0,
0,
0,
0,
0,
0,
0,
0,
0,
0,
0,
0,
0,
0,
0,
0,
0,
0,
0,
0,
0,
0,
0,
0,
0,
0,
0,
0,
0,
0,
0,
0,
0,
0,
0,
0,
0,
0,
0,
0,
0,
0,
0,
0,
0,
0,
0,
0,
0,
0,
0,
0,
0,
0,
0,
0,
0,
0,
0,
0,
0,
0,
0,
0,
0,
0,
0,
0,
0,
0,
0,
0,
0,
0,
0,
0,
0,
0,
0,
0,
0,
0,
0,
0,
0,
0,
0,
0,
0,
0,
0,
0,
0,
0,
0,
0,
0,
0,
0,
0,
0,
0,
0,
0,
0,
0,
0,
0,
0,
0,
0,
0,
0,
0,
0,
0,
0,
0,
0,
0,
0,
0,
0,
0,
0,
0,
0,
0,
0,
0,
0,
0,
0,
0,
0,
0,
0,
0,
0,
0,
0,
0,
0,
0,
0,
0,
0,
0,
0,
0,
0,
0,
0,
0,
0,
0,
0,
0,
0,
0,
0,
0,
0,
0,
0,
0,
0,
0,
0,
0,
0,
0,
0,
0,
0,
0,
0,
0,
0,
0,
0,
0,
0,
0,
0,
0,
0,
0,
0,
0,
0,
0,
0,
0,
0,
0,
0,
0,
0,
0,
0,
0,
0,
0,
0,
0,
0,
0,
0,
0,
0,
0,
0,
0,
0,
0,
0,
0,
0,
0,
0,
0,
0,
0,
0,
0,
0,
0,
0,
0,
0,
0,
0,
0,
0,
0,
0,
0,
0,
0,
0,
0,
0,
0,
0,
0,
0,
0,
0,
0,
0,
0,
0,
0,
0,
0,
0,
0,
0,
0,
0,
0,
0,
0,
0,
0,
0,
0,
0,
0,
0,
0,
0,
0,
0,
0,
0,
0,
0,
0,
0,
0,
0,
0,
0,
0,
0,
0,
0,
0,
0,
0,
0,
0,
0,
0,
0,
0,
0,
0,
0,
0,
0,
0,
0,
0,
0,
0,
0,
0,
0,
0,
0,
0,
0,
0,
0,
0,
0,
0,
0,
0,
0,
0,
0,
0,
0,
0,
0,
0,
0,
0,
0,
0,
0,
0,
0,
0,
0,
0,
0,
0,
0,
0,
0,
0,
0,
0,
0,
0,
0,
0,
0,
0,
0,
0,
0,
0,
0,
0,
0,
0,
0,
0,
0,
0,
0,
0,
0,
0,
0,
0,
0,
0,
0,
0,
0,
0,
0,
0,
0,
0,
0,
0,
0,
0,
0,
0,
0,
0,
0,
0,
0,
0,
0,
0,
0,
0,
0,
0,
0,
0,
#ENDOFDATA   :