File: N132962/Quantification/20 keV/Glass Mount IIIB/GM IIIB K1132[4][4].msa
#FORMAT      : EMSA/MAS Spectral Data File
#VERSION     : 1.0
#TITLE       : GM IIIB K1132[4][all]
#DATE        : 10-SEP-2025
#TIME        : 17:35
#OWNER       : Unknown
#NPOINTS     : 4096
#NCOLUMNS    : 1
#XUNITS      : eV
#YUNITS      : counts
#DATATYPE    : Y
#XPERCHAN    : 9.99778
#OFFSET      : 1.69135
#BEAMKV      : 20
#SIGNALTYPE  : EDS
#ELEVANGLE   : 35
#AZIMANGLE   : 0
#LIVETIME    : 240.094
#REALTIME    : 258.737
#PROBECUR    : 1.22427
#TAUWIND     : 0
#TDEADLYR    : 0
#TACTLYR     : 0.045
#TALWIND     : 0.025
#CHOFFSET    : 0.0
#XLABEL      : Energy (eV)
#YLABEL      : Counts
#XPOSITION   : 7.10243
#YPOSITION   : 16.28055
#ZPOSITION   : 34.06144
#EDSDET      : SD
##SPECIMEN   : GM IIIB K1132[4][all]
##D2STDCMP   : K1132,(Li:2.32),(O:41.34),(Al:7.94),(Si:21.39),(Ca:10.72),(Cr:0.51),(Ni:1.18),(Mo:1.67),(Ba:13.43)
##DET_HASH   : 12273538-fd48-a23f-0a19-f1e6fa85caef
##CALIB_HASH : 6abaa72c-aa41-8738-0be9-f592914732f3
##WORKING    : 15.0 mm
##DET_NAME   : EDAX All
##DET_MODE   : MediumLE
#SPECTRUM    :
20,
23,
7,
18,
100,
345,
998,
2368,
5626,
8033,
6775,
5089,
4364,
4598,
7115,
23133,
85965,
164194,
119354,
32993,
6506,
3489,
3332,
3467,
3755,
4313,
5078,
5519,
6182,
5766,
4529,
4109,
4526,
4849,
5050,
5269,
4718,
4591,
4493,
4567,
4705,
4907,
5035,
5283,
5390,
5795,
6694,
12948,
36257,
70848,
71219,
38622,
15204,
7965,
7607,
16257,
58413,
147924,
200079,
140994,
57838,
20900,
10259,
6118,
4668,
4496,
4456,
4132,
4016,
3930,
3915,
3881,
3963,
4248,
5058,
7113,
8727,
8688,
7265,
6224,
5947,
5265,
4635,
4358,
3986,
3984,
3729,
3814,
3789,
3813,
3747,
3716,
3667,
3649,
3566,
3653,
3589,
3453,
3469,
3517,
3586,
3584,
3453,
3442,
3390,
3454,
3455,
3519,
3571,
3443,
3380,
3345,
3393,
3305,
3389,
3537,
3693,
3875,
4191,
5659,
11707,
27131,
49264,
61641,
51963,
30065,
12919,
5485,
3544,
3369,
3857,
5396,
7518,
9846,
10180,
8589,
5659,
3708,
2985,
2706,
2672,
2666,
2741,
2900,
3232,
4243,
7476,
12986,
19870,
22470,
18356,
11556,
6143,
3470,
2608,
2457,
2554,
3013,
4410,
6984,
10016,
11771,
10886,
8402,
6318,
4661,
3662,
3015,
2775,
3131,
3811,
4852,
5280,
4887,
3880,
2791,
2406,
2319,
2638,
3250,
3492,
3615,
3360,
3455,
3503,
3127,
2734,
2326,
1998,
1960,
1849,
2002,
2383,
2368,
2222,
2170,
1966,
1955,
1974,
1930,
1793,
1770,
1694,
1651,
1580,
1672,
1554,
1639,
1613,
1649,
1622,
1661,
1641,
1696,
1659,
1605,
1553,
1515,
1511,
1516,
1449,
1444,
1393,
1479,
1451,
1345,
1427,
1430,
1378,
1384,
1353,
1360,
1336,
1392,
1391,
1390,
1303,
1339,
1310,
1281,
1292,
1228,
1291,
1262,
1409,
1554,
1869,
2439,
2841,
3052,
2766,
2371,
1782,
1472,
1321,
1196,
1164,
1140,
1185,
1124,
1173,
1099,
1138,
1090,
1043,
1092,
1108,
1010,
1195,
1077,
1052,
1095,
1166,
1155,
1218,
1234,
1247,
1210,
1087,
1057,
1064,
1068,
999,
1010,
966,
972,
951,
952,
976,
924,
894,
925,
940,
913,
903,
880,
891,
907,
900,
871,
866,
888,
889,
826,
849,
862,
878,
818,
760,
790,
850,
781,
784,
782,
762,
810,
762,
823,
747,
782,
818,
767,
722,
755,
708,
724,
698,
731,
793,
709,
683,
680,
657,
684,
679,
673,
688,
648,
664,
669,
644,
677,
660,
693,
639,
590,
657,
632,
632,
653,
635,
586,
601,
576,
566,
598,
567,
610,
668,
549,
603,
524,
546,
574,
546,
532,
538,
561,
537,
534,
542,
509,
497,
509,
534,
519,
493,
504,
467,
482,
509,
487,
442,
469,
484,
515,
467,
470,
449,
458,
430,
447,
439,
429,
427,
438,
411,
428,
430,
412,
401,
445,
375,
406,
379,
361,
405,
371,
382,
363,
392,
364,
345,
351,
362,
367,
366,
346,
346,
368,
323,
321,
314,
314,
340,
341,
331,
319,
324,
309,
316,
343,
312,
269,
305,
290,
311,
297,
247,
286,
289,
299,
288,
275,
243,
209,
270,
273,
275,
251,
237,
246,
215,
228,
244,
238,
243,
233,
228,
214,
215,
240,
214,
220,
201,
220,
206,
202,
207,
220,
197,
183,
196,
192,
220,
222,
169,
185,
180,
207,
172,
183,
195,
164,
187,
163,
193,
167,
199,
165,
180,
172,
163,
169,
163,
145,
146,
138,
149,
139,
129,
140,
151,
128,
152,
161,
136,
135,
121,
151,
145,
135,
139,
116,
116,
124,
110,
96,
108,
99,
119,
107,
139,
111,
113,
102,
118,
115,
100,
108,
108,
82,
90,
98,
95,
92,
84,
84,
97,
85,
81,
84,
95,
91,
95,
86,
78,
74,
82,
74,
74,
63,
64,
63,
67,
66,
63,
70,
49,
62,
51,
59,
43,
77,
50,
63,
63,
51,
72,
50,
54,
62,
49,
44,
52,
49,
50,
65,
57,
33,
37,
48,
43,
41,
46,
41,
49,
36,
39,
44,
49,
30,
37,
42,
34,
31,
38,
32,
33,
38,
39,
36,
29,
40,
25,
23,
21,
21,
29,
21,
33,
19,
20,
26,
16,
19,
23,
26,
15,
18,
21,
18,
27,
17,
16,
17,
16,
10,
20,
14,
18,
11,
10,
8,
17,
15,
11,
10,
13,
13,
14,
5,
11,
11,
9,
7,
10,
8,
10,
9,
5,
7,
4,
4,
5,
0,
1,
2,
5,
3,
4,
5,
3,
1,
1,
2,
2,
2,
1,
0,
1,
0,
3,
2,
0,
0,
0,
0,
1,
0,
2,
0,
0,
0,
0,
0,
0,
0,
1,
0,
0,
2,
0,
0,
0,
0,
0,
0,
0,
0,
0,
0,
1,
0,
0,
2,
0,
0,
0,
0,
2,
0,
0,
0,
0,
1,
1,
0,
0,
1,
0,
0,
2,
0,
1,
1,
0,
0,
0,
0,
0,
0,
0,
1,
0,
0,
0,
0,
1,
0,
0,
0,
0,
0,
0,
0,
0,
0,
0,
0,
0,
0,
0,
0,
0,
0,
0,
0,
1,
0,
0,
0,
0,
0,
1,
0,
0,
0,
2,
0,
0,
0,
0,
0,
0,
0,
1,
0,
0,
0,
0,
0,
0,
0,
0,
0,
0,
0,
1,
0,
0,
0,
1,
0,
0,
0,
0,
0,
0,
0,
0,
0,
0,
0,
1,
0,
0,
0,
0,
1,
1,
0,
1,
0,
0,
0,
0,
0,
0,
0,
0,
0,
0,
0,
0,
0,
0,
0,
1,
0,
0,
0,
0,
0,
0,
0,
0,
0,
0,
0,
0,
0,
1,
0,
1,
0,
1,
0,
0,
0,
0,
0,
0,
0,
1,
0,
0,
0,
0,
1,
0,
0,
0,
0,
1,
0,
0,
0,
0,
0,
0,
2,
0,
0,
0,
0,
0,
0,
0,
0,
1,
0,
0,
0,
0,
1,
0,
0,
0,
0,
0,
0,
0,
0,
0,
0,
0,
0,
0,
0,
0,
0,
0,
0,
0,
0,
0,
0,
0,
0,
0,
0,
0,
0,
0,
0,
0,
0,
0,
0,
0,
0,
0,
0,
0,
0,
0,
0,
0,
0,
0,
0,
0,
0,
0,
0,
0,
0,
0,
0,
0,
0,
1,
0,
0,
0,
0,
1,
0,
0,
0,
0,
0,
0,
0,
0,
0,
0,
0,
0,
0,
0,
0,
0,
0,
0,
0,
0,
0,
0,
0,
0,
0,
1,
0,
0,
0,
0,
0,
0,
0,
0,
0,
0,
0,
0,
0,
0,
0,
0,
0,
0,
0,
0,
0,
0,
0,
0,
0,
0,
0,
0,
0,
0,
0,
0,
0,
0,
0,
0,
0,
0,
0,
0,
0,
0,
0,
0,
0,
0,
0,
0,
1,
0,
0,
0,
0,
0,
0,
0,
0,
0,
0,
0,
0,
0,
0,
0,
0,
0,
0,
0,
0,
0,
0,
0,
0,
0,
0,
0,
0,
0,
0,
0,
0,
0,
0,
0,
0,
0,
0,
0,
0,
0,
0,
0,
0,
0,
0,
0,
0,
0,
0,
0,
0,
0,
0,
0,
0,
0,
0,
0,
0,
0,
0,
0,
0,
0,
0,
0,
0,
0,
0,
0,
0,
0,
0,
0,
0,
0,
0,
0,
0,
0,
0,
0,
0,
0,
0,
0,
0,
0,
0,
0,
0,
0,
0,
0,
0,
0,
0,
0,
0,
0,
0,
0,
0,
0,
0,
0,
0,
0,
0,
0,
0,
0,
0,
0,
0,
0,
0,
0,
0,
0,
0,
0,
0,
0,
0,
0,
0,
0,
0,
0,
0,
0,
0,
0,
0,
0,
0,
0,
0,
0,
0,
0,
0,
0,
0,
0,
0,
0,
0,
0,
0,
0,
0,
0,
0,
0,
0,
0,
0,
0,
0,
0,
0,
0,
0,
0,
0,
0,
0,
0,
0,
0,
0,
0,
0,
0,
0,
0,
0,
0,
0,
0,
0,
0,
0,
0,
0,
0,
0,
0,
0,
0,
0,
0,
0,
0,
0,
0,
0,
0,
0,
0,
0,
0,
0,
0,
0,
0,
0,
0,
0,
0,
0,
0,
0,
0,
0,
0,
0,
0,
0,
0,
0,
0,
0,
0,
0,
0,
0,
0,
0,
0,
0,
0,
0,
0,
0,
0,
0,
0,
0,
0,
0,
0,
0,
0,
0,
0,
0,
0,
0,
0,
0,
0,
0,
0,
0,
0,
0,
0,
0,
0,
0,
0,
0,
0,
0,
0,
0,
0,
0,
0,
0,
0,
0,
0,
0,
0,
0,
0,
0,
0,
0,
0,
0,
0,
0,
0,
0,
0,
0,
0,
0,
0,
0,
0,
0,
0,
0,
0,
0,
0,
0,
0,
0,
0,
0,
0,
0,
0,
0,
0,
0,
0,
0,
0,
0,
0,
0,
0,
0,
0,
0,
0,
0,
0,
0,
0,
0,
0,
0,
0,
0,
0,
0,
0,
0,
0,
0,
0,
0,
0,
#ENDOFDATA   :