File: N132962/Quantification/20 keV/Glass Mount IIIB/GM IIIB K523[3][4].msa
#FORMAT      : EMSA/MAS Spectral Data File
#VERSION     : 1.0
#TITLE       : GM IIIB K523[3][all]
#DATE        : 11-SEP-2025
#TIME        : 09:16
#OWNER       : Unknown
#NPOINTS     : 4096
#NCOLUMNS    : 1
#XUNITS      : eV
#YUNITS      : counts
#DATATYPE    : Y
#XPERCHAN    : 9.99778
#OFFSET      : 1.69135
#BEAMKV      : 20
#SIGNALTYPE  : EDS
#ELEVANGLE   : 35
#AZIMANGLE   : 0
#LIVETIME    : 240.228
#REALTIME    : 267.291
#PROBECUR    : 1.22303
#TAUWIND     : 0
#TDEADLYR    : 0
#TACTLYR     : 0.045
#TALWIND     : 0.025
#CHOFFSET    : 0.0
#XLABEL      : Energy (eV)
#YLABEL      : Counts
#XPOSITION   : 1.57534
#YPOSITION   : 9.64171
#ZPOSITION   : 34.00161
#EDSDET      : SD
##SPECIMEN   : GM IIIB K523[3][all]
##D2STDCMP   : K523,(O:20.71),(Mg:0.1),(Si:12.9),(P:0.25),(Ti:0.19),(Cr:0.21),(Ni:0.24),(Ge:0.29),(Zr:0.36),(Ba:0.55),(Eu:0.6),(Pb:63.41),(Th:0.1),(U:0.11)
##DET_HASH   : 12273538-fd48-a23f-0a19-f1e6fa85caef
##CALIB_HASH : 6abaa72c-aa41-8738-0be9-f592914732f3
##WORKING    : 15.0 mm
##DET_NAME   : EDAX All
##DET_MODE   : MediumLE
#SPECTRUM    :
17,
21,
12,
43,
199,
873,
2403,
5111,
10531,
12676,
9008,
6487,
6392,
6443,
7635,
15001,
42461,
75304,
55682,
19088,
9524,
7961,
7579,
8282,
7771,
6681,
6562,
7041,
7837,
8148,
7466,
7563,
7707,
7926,
7927,
8238,
8392,
9107,
9716,
10393,
10805,
10719,
10602,
10214,
10036,
10000,
10034,
10350,
10935,
11211,
11511,
11378,
11018,
11052,
12092,
18937,
50548,
116654,
154678,
115155,
58115,
32770,
21694,
13709,
10195,
9915,
10477,
11624,
11600,
10725,
10542,
10983,
12195,
13021,
15182,
24104,
54443,
116486,
170627,
164506,
131337,
120022,
101146,
60548,
25495,
11516,
8717,
10367,
12720,
12155,
9436,
7040,
5836,
5634,
5474,
5768,
5993,
6193,
6253,
6423,
6649,
7362,
7547,
7873,
7624,
6958,
6553,
5921,
5560,
5340,
5356,
5430,
5435,
5463,
5480,
5554,
5574,
5478,
5360,
5534,
5483,
5183,
5394,
5345,
5451,
5347,
5487,
5251,
5092,
5068,
5164,
5197,
5268,
5157,
5352,
5460,
5401,
5425,
5262,
5383,
5344,
5283,
5102,
5010,
5219,
5210,
5370,
5727,
6456,
7013,
6851,
6684,
6163,
5465,
5108,
5069,
5094,
5261,
5231,
5370,
5508,
5517,
5415,
5411,
5212,
5076,
4899,
4852,
4753,
4764,
4762,
4859,
4845,
4868,
4783,
4699,
4732,
4723,
4789,
4999,
5276,
5166,
4929,
4769,
4700,
4656,
4439,
4412,
4460,
4504,
4340,
4456,
4609,
4751,
4881,
4974,
4872,
4679,
4341,
4386,
4241,
4275,
4160,
4104,
4202,
4076,
4039,
4052,
3968,
4136,
4112,
4243,
4404,
4578,
4562,
4548,
4361,
4108,
4050,
3933,
3923,
3847,
3772,
3714,
3929,
3775,
3679,
3769,
3793,
3776,
3687,
3622,
3692,
3635,
3613,
3655,
3605,
3633,
3500,
3438,
3413,
3392,
3464,
3369,
3311,
3537,
3572,
3806,
4050,
3978,
3952,
3729,
3436,
3415,
3234,
3141,
3212,
3193,
3264,
3084,
3156,
3141,
3141,
3065,
3020,
3062,
3092,
3046,
2987,
2946,
2902,
2973,
2935,
2960,
2969,
3018,
2886,
2924,
2971,
2806,
2799,
2796,
2762,
2798,
2717,
2775,
2727,
2649,
2607,
2642,
2673,
2581,
2659,
2582,
2638,
2602,
2574,
2532,
2495,
2531,
2549,
2583,
2658,
2712,
2896,
3069,
3084,
2993,
2887,
2778,
2545,
2486,
2323,
2318,
2344,
2284,
2332,
2238,
2331,
2259,
2287,
2211,
2318,
2311,
2247,
2310,
2332,
2372,
2276,
2235,
2416,
2179,
2207,
2084,
2157,
2033,
2039,
2050,
2026,
2043,
2031,
2093,
2119,
2198,
2324,
2918,
3615,
5120,
7014,
9578,
11656,
13197,
12573,
10792,
8060,
5645,
3714,
2569,
2101,
2035,
1835,
1732,
1771,
1738,
1772,
1695,
1809,
1689,
1784,
1680,
1723,
1585,
1599,
1638,
1562,
1646,
1586,
1644,
1609,
1619,
1631,
1513,
1537,
1491,
1523,
1456,
1363,
1507,
1449,
1440,
1468,
1499,
1338,
1406,
1428,
1390,
1351,
1359,
1357,
1337,
1375,
1353,
1433,
1416,
1461,
1460,
1413,
1438,
1435,
1469,
1415,
1450,
1481,
1402,
1417,
1817,
2355,
3250,
4183,
4997,
5324,
5022,
4396,
3505,
2671,
2087,
1598,
1494,
1282,
1275,
1224,
1263,
1258,
1251,
1257,
1195,
1101,
1053,
971,
1024,
910,
930,
907,
910,
878,
818,
889,
912,
903,
818,
831,
834,
870,
794,
848,
767,
846,
788,
829,
826,
787,
782,
805,
779,
725,
748,
747,
750,
751,
692,
676,
709,
749,
722,
656,
720,
704,
648,
663,
682,
670,
679,
664,
615,
610,
636,
666,
712,
752,
858,
936,
915,
962,
877,
821,
698,
655,
581,
545,
620,
581,
581,
581,
609,
595,
572,
556,
542,
530,
523,
499,
471,
463,
479,
465,
435,
430,
418,
440,
424,
426,
434,
443,
378,
456,
427,
413,
375,
383,
362,
390,
367,
350,
347,
365,
372,
349,
343,
321,
328,
346,
350,
307,
327,
313,
307,
297,
348,
334,
306,
273,
301,
320,
302,
280,
269,
254,
234,
233,
252,
269,
233,
246,
268,
226,
248,
236,
226,
245,
267,
225,
211,
224,
228,
219,
193,
207,
200,
201,
192,
191,
181,
181,
172,
188,
187,
187,
175,
158,
150,
173,
163,
154,
158,
179,
160,
154,
155,
163,
145,
146,
139,
151,
144,
135,
115,
127,
119,
122,
113,
132,
131,
131,
111,
106,
97,
91,
76,
88,
74,
93,
85,
81,
97,
96,
74,
92,
71,
85,
75,
79,
92,
70,
69,
68,
65,
70,
65,
43,
63,
54,
60,
71,
44,
47,
41,
34,
35,
43,
43,
36,
39,
36,
33,
22,
21,
31,
16,
22,
17,
18,
10,
19,
8,
10,
9,
6,
5,
3,
5,
5,
2,
6,
2,
4,
2,
6,
2,
4,
4,
2,
3,
1,
4,
8,
3,
3,
5,
3,
2,
3,
2,
7,
4,
4,
3,
3,
4,
4,
1,
5,
3,
2,
3,
5,
2,
4,
2,
6,
1,
1,
4,
1,
3,
4,
0,
1,
2,
3,
3,
1,
4,
5,
4,
6,
2,
4,
3,
2,
2,
0,
3,
0,
1,
2,
3,
2,
2,
1,
1,
6,
0,
3,
2,
0,
1,
3,
1,
2,
1,
2,
4,
2,
4,
0,
1,
0,
0,
1,
0,
0,
1,
3,
4,
1,
4,
1,
3,
3,
2,
1,
2,
2,
1,
0,
2,
1,
4,
3,
2,
1,
2,
1,
0,
0,
1,
0,
2,
2,
2,
3,
1,
1,
2,
2,
0,
2,
1,
3,
0,
0,
1,
1,
2,
1,
1,
0,
1,
0,
0,
1,
1,
3,
2,
0,
0,
1,
0,
1,
1,
0,
4,
1,
1,
1,
3,
0,
1,
2,
1,
0,
1,
0,
2,
0,
3,
1,
1,
2,
0,
1,
1,
0,
1,
1,
2,
0,
0,
1,
0,
2,
2,
1,
1,
2,
0,
1,
3,
1,
5,
0,
2,
0,
2,
1,
3,
0,
2,
0,
0,
0,
1,
2,
1,
1,
2,
3,
1,
0,
1,
1,
0,
0,
0,
1,
2,
2,
0,
0,
1,
1,
1,
1,
0,
1,
2,
0,
0,
0,
0,
2,
0,
0,
0,
3,
3,
1,
1,
1,
0,
0,
1,
1,
0,
1,
1,
0,
1,
0,
1,
0,
0,
0,
1,
0,
0,
1,
0,
3,
0,
0,
0,
0,
0,
0,
1,
1,
0,
0,
0,
0,
0,
1,
0,
2,
0,
0,
1,
1,
0,
0,
2,
0,
1,
0,
0,
0,
0,
1,
2,
0,
0,
0,
0,
0,
1,
1,
0,
0,
0,
0,
0,
0,
0,
0,
0,
0,
1,
0,
0,
1,
0,
0,
1,
0,
0,
0,
1,
0,
0,
0,
0,
0,
0,
2,
0,
0,
0,
0,
0,
0,
0,
0,
0,
0,
0,
0,
0,
0,
0,
0,
0,
0,
0,
0,
0,
0,
1,
0,
0,
0,
1,
1,
0,
0,
0,
0,
0,
0,
0,
1,
0,
0,
0,
0,
0,
0,
0,
0,
0,
0,
0,
0,
0,
0,
0,
0,
0,
0,
0,
0,
0,
0,
0,
0,
0,
0,
0,
0,
0,
0,
0,
0,
0,
0,
0,
0,
0,
0,
0,
0,
0,
0,
0,
0,
0,
0,
0,
0,
0,
0,
0,
0,
0,
1,
0,
0,
0,
0,
0,
0,
0,
0,
0,
0,
0,
0,
0,
0,
0,
0,
0,
0,
0,
0,
0,
0,
0,
0,
0,
0,
0,
0,
0,
0,
0,
0,
0,
0,
0,
0,
0,
0,
0,
0,
0,
0,
0,
0,
0,
0,
0,
0,
0,
0,
0,
0,
0,
0,
0,
0,
0,
0,
0,
0,
0,
0,
0,
0,
0,
0,
0,
0,
0,
0,
0,
0,
0,
0,
0,
0,
0,
0,
0,
0,
0,
0,
0,
0,
0,
0,
0,
0,
0,
0,
0,
0,
0,
0,
0,
0,
0,
0,
0,
0,
0,
0,
0,
0,
0,
0,
0,
0,
0,
0,
0,
0,
0,
0,
0,
0,
0,
0,
0,
0,
0,
0,
0,
0,
0,
0,
0,
0,
0,
0,
0,
0,
0,
0,
0,
0,
0,
0,
0,
0,
0,
0,
0,
0,
0,
0,
0,
0,
0,
0,
0,
0,
0,
0,
0,
0,
0,
0,
0,
0,
0,
0,
0,
0,
0,
0,
0,
0,
0,
0,
0,
0,
0,
0,
0,
0,
0,
0,
0,
0,
0,
0,
0,
0,
0,
0,
0,
0,
0,
0,
0,
0,
0,
0,
0,
0,
0,
0,
0,
0,
0,
0,
0,
0,
0,
0,
0,
0,
0,
0,
0,
0,
0,
0,
0,
0,
0,
0,
0,
0,
0,
0,
0,
0,
0,
0,
0,
0,
0,
0,
0,
0,
0,
0,
0,
0,
0,
0,
0,
0,
0,
0,
0,
0,
0,
0,
0,
0,
0,
0,
0,
0,
0,
0,
0,
0,
0,
0,
0,
0,
0,
0,
0,
0,
0,
0,
0,
0,
0,
0,
0,
0,
0,
0,
0,
0,
0,
0,
0,
0,
0,
#ENDOFDATA   :