File: N132962/Quantification/20 keV/Glass Mount IIIB/GM IIIB K508[0][4].msa
#FORMAT      : EMSA/MAS Spectral Data File
#VERSION     : 1.0
#TITLE       : GM IIIB K508[0][all]
#DATE        : 11-SEP-2025
#TIME        : 09:29
#OWNER       : Unknown
#NPOINTS     : 4096
#NCOLUMNS    : 1
#XUNITS      : eV
#YUNITS      : counts
#DATATYPE    : Y
#XPERCHAN    : 9.99778
#OFFSET      : 1.69135
#BEAMKV      : 20
#SIGNALTYPE  : EDS
#ELEVANGLE   : 35
#AZIMANGLE   : 0
#LIVETIME    : 240.189
#REALTIME    : 258.992
#PROBECUR    : 1.22303
#TAUWIND     : 0
#TDEADLYR    : 0
#TACTLYR     : 0.045
#TALWIND     : 0.025
#CHOFFSET    : 0.0
#XLABEL      : Energy (eV)
#YLABEL      : Counts
#XPOSITION   : 8.56882
#YPOSITION   : 9.66999
#ZPOSITION   : 34.00161
#EDSDET      : SD
##SPECIMEN   : GM IIIB K508[0][all]
##D2STDCMP   : K508,(B:9.26),(O:41.14),(Si:12.06),(Sr:37.54)
##DET_HASH   : 12273538-fd48-a23f-0a19-f1e6fa85caef
##CALIB_HASH : 6abaa72c-aa41-8738-0be9-f592914732f3
##WORKING    : 15.0 mm
##DET_NAME   : EDAX All
##DET_MODE   : MediumLE
#SPECTRUM    :
19,
31,
9,
56,
332,
1077,
1962,
2875,
5430,
6350,
4256,
3037,
3627,
4481,
6314,
18828,
68903,
128261,
93208,
25234,
4680,
3197,
4257,
4366,
3830,
3483,
3673,
3932,
4313,
4415,
4471,
4614,
4855,
5277,
5596,
5718,
5615,
5750,
5812,
5874,
6206,
6358,
6381,
6601,
6647,
6891,
7115,
7246,
7515,
7951,
8683,
10784,
14506,
16489,
15913,
21003,
53248,
127479,
200414,
235843,
247190,
204527,
130873,
74226,
36257,
17361,
9064,
5327,
3880,
3387,
3455,
3668,
3920,
4183,
4090,
3938,
3989,
3946,
3785,
3811,
3526,
3402,
3398,
3341,
3253,
3301,
3422,
3359,
3376,
3486,
3450,
3442,
3413,
3449,
3457,
3384,
3413,
3359,
3432,
3474,
3455,
3361,
3320,
3406,
3378,
3452,
3299,
3257,
3390,
3259,
3221,
3392,
3346,
3323,
3495,
3446,
3404,
3596,
3700,
3761,
3778,
3676,
3700,
3499,
3343,
3152,
3161,
3189,
3074,
3062,
3088,
3012,
3062,
3065,
3043,
3101,
2872,
2874,
2854,
2952,
2726,
2931,
2769,
2804,
2719,
2842,
2716,
2753,
2875,
2888,
2942,
2975,
2876,
2739,
2682,
2603,
2579,
2597,
2573,
2515,
2413,
2418,
2447,
2451,
2405,
2437,
2523,
2451,
2367,
2325,
2392,
2304,
2329,
2323,
2189,
2255,
2232,
2288,
2211,
2221,
2120,
2094,
2161,
2102,
2141,
2097,
2154,
2153,
2078,
2087,
2030,
2028,
1954,
2084,
2044,
2010,
1994,
1967,
1982,
1955,
1907,
1928,
1819,
1865,
1942,
1796,
1817,
1886,
1851,
1840,
1793,
1892,
1947,
1952,
1891,
1809,
1812,
1737,
1666,
1680,
1714,
1683,
1692,
1617,
1642,
1673,
1660,
1542,
1592,
1652,
1588,
1637,
1598,
1510,
1513,
1587,
1530,
1490,
1520,
1518,
1472,
1467,
1401,
1444,
1391,
1434,
1417,
1555,
1489,
1496,
1449,
1420,
1446,
1324,
1346,
1367,
1376,
1378,
1320,
1266,
1305,
1208,
1246,
1279,
1295,
1295,
1261,
1199,
1229,
1220,
1236,
1247,
1217,
1232,
1184,
1211,
1149,
1203,
1157,
1116,
1109,
1145,
1105,
1138,
1176,
1138,
1143,
1043,
1136,
1113,
1106,
1054,
1037,
1094,
1071,
1038,
1035,
1075,
1031,
1039,
982,
948,
962,
939,
953,
949,
993,
908,
959,
896,
937,
975,
892,
863,
865,
910,
887,
904,
847,
879,
859,
834,
791,
857,
829,
847,
791,
846,
805,
781,
820,
825,
769,
803,
852,
788,
782,
768,
780,
759,
723,
756,
748,
761,
753,
704,
703,
729,
718,
680,
684,
728,
674,
674,
672,
646,
674,
685,
646,
667,
655,
661,
649,
618,
594,
611,
633,
660,
606,
595,
598,
605,
533,
588,
612,
590,
574,
540,
604,
562,
562,
539,
583,
534,
529,
521,
565,
541,
518,
516,
480,
539,
463,
449,
456,
516,
483,
523,
491,
477,
436,
475,
452,
476,
440,
458,
423,
439,
405,
439,
464,
412,
406,
420,
437,
418,
388,
399,
386,
396,
388,
428,
392,
352,
381,
365,
386,
386,
366,
370,
334,
350,
359,
343,
349,
365,
343,
330,
328,
311,
306,
312,
312,
302,
276,
334,
294,
334,
285,
314,
283,
286,
291,
282,
266,
297,
263,
260,
275,
254,
272,
279,
299,
312,
375,
480,
626,
945,
1240,
1665,
1798,
1956,
1819,
1512,
1155,
886,
580,
408,
347,
248,
241,
206,
202,
218,
199,
217,
196,
185,
190,
208,
186,
194,
188,
172,
185,
175,
183,
158,
155,
170,
166,
172,
155,
134,
142,
157,
129,
161,
150,
146,
159,
136,
141,
152,
127,
178,
133,
155,
142,
132,
154,
138,
185,
236,
255,
293,
310,
327,
318,
318,
297,
216,
171,
176,
131,
162,
153,
132,
122,
133,
115,
106,
98,
76,
108,
106,
94,
98,
79,
86,
69,
77,
84,
79,
77,
96,
85,
66,
83,
63,
74,
68,
77,
69,
75,
67,
64,
81,
73,
49,
67,
65,
61,
57,
59,
50,
58,
57,
58,
56,
47,
55,
43,
51,
63,
57,
44,
45,
49,
44,
41,
44,
52,
37,
47,
45,
38,
40,
33,
32,
32,
33,
28,
36,
39,
32,
31,
40,
30,
27,
22,
27,
20,
27,
22,
31,
29,
26,
24,
16,
16,
16,
25,
22,
21,
11,
16,
19,
16,
15,
18,
14,
16,
22,
15,
19,
13,
13,
10,
8,
11,
10,
11,
14,
9,
2,
12,
7,
13,
8,
11,
13,
6,
7,
10,
4,
1,
4,
4,
1,
3,
3,
4,
1,
0,
0,
1,
0,
0,
0,
1,
0,
0,
0,
1,
2,
1,
0,
0,
2,
1,
1,
0,
0,
0,
0,
0,
2,
2,
0,
0,
0,
1,
1,
1,
0,
0,
0,
0,
1,
0,
0,
1,
0,
0,
0,
1,
1,
0,
2,
0,
1,
1,
0,
0,
0,
0,
0,
0,
0,
0,
0,
0,
0,
0,
0,
1,
0,
0,
0,
1,
1,
0,
0,
0,
0,
1,
0,
1,
0,
0,
0,
0,
0,
0,
0,
0,
0,
0,
0,
0,
0,
0,
0,
0,
0,
0,
1,
0,
0,
0,
0,
0,
0,
1,
0,
1,
0,
0,
0,
0,
0,
0,
0,
0,
0,
0,
1,
0,
0,
0,
0,
0,
0,
0,
0,
0,
0,
0,
1,
0,
0,
0,
0,
0,
0,
0,
0,
0,
0,
1,
0,
0,
0,
0,
0,
0,
0,
0,
0,
0,
0,
0,
0,
0,
0,
0,
0,
0,
2,
0,
0,
0,
0,
0,
1,
0,
0,
0,
0,
0,
0,
0,
1,
0,
0,
0,
0,
0,
0,
0,
0,
0,
0,
0,
0,
0,
0,
0,
0,
0,
0,
0,
0,
1,
1,
0,
0,
0,
0,
0,
0,
0,
0,
0,
0,
0,
0,
0,
0,
0,
0,
0,
0,
0,
0,
0,
0,
0,
0,
0,
0,
0,
0,
0,
0,
0,
0,
0,
0,
0,
0,
0,
0,
0,
0,
0,
0,
0,
0,
0,
0,
0,
0,
0,
0,
0,
0,
0,
0,
0,
0,
1,
0,
0,
0,
0,
0,
0,
0,
0,
0,
0,
0,
0,
0,
0,
0,
0,
0,
0,
0,
0,
0,
0,
0,
1,
0,
1,
0,
0,
0,
0,
0,
0,
0,
0,
0,
1,
1,
0,
0,
0,
0,
0,
0,
0,
0,
0,
0,
0,
0,
0,
0,
0,
0,
0,
0,
0,
0,
0,
0,
0,
0,
0,
0,
0,
0,
0,
0,
0,
0,
0,
0,
0,
0,
0,
0,
0,
0,
0,
0,
0,
1,
0,
0,
0,
0,
0,
0,
0,
0,
0,
0,
0,
0,
0,
0,
0,
0,
0,
0,
0,
0,
0,
0,
0,
0,
0,
0,
0,
0,
0,
0,
0,
0,
0,
0,
0,
0,
0,
0,
0,
0,
0,
0,
0,
0,
0,
0,
0,
0,
0,
0,
0,
0,
0,
0,
0,
0,
0,
0,
0,
0,
0,
0,
0,
0,
0,
0,
0,
0,
0,
0,
0,
0,
0,
0,
0,
0,
0,
0,
0,
0,
0,
0,
0,
0,
0,
0,
0,
0,
0,
0,
0,
0,
0,
0,
0,
0,
0,
0,
0,
0,
0,
0,
0,
0,
0,
0,
0,
0,
0,
0,
0,
0,
0,
0,
0,
0,
0,
0,
0,
0,
0,
0,
0,
0,
0,
0,
0,
0,
0,
0,
0,
0,
0,
0,
0,
0,
0,
0,
0,
0,
0,
0,
0,
0,
0,
0,
0,
0,
0,
0,
0,
0,
0,
0,
0,
0,
0,
0,
0,
0,
0,
0,
0,
0,
0,
0,
0,
0,
0,
0,
0,
0,
0,
0,
0,
0,
0,
0,
0,
0,
0,
0,
0,
0,
0,
0,
0,
0,
0,
0,
0,
0,
0,
0,
0,
0,
0,
0,
0,
0,
0,
0,
0,
0,
0,
0,
0,
0,
0,
0,
0,
0,
0,
0,
0,
0,
0,
0,
0,
0,
0,
0,
0,
0,
0,
0,
0,
0,
0,
0,
0,
0,
0,
0,
0,
0,
0,
0,
0,
0,
0,
0,
0,
0,
0,
0,
0,
0,
0,
0,
0,
0,
0,
0,
0,
0,
0,
0,
0,
0,
0,
0,
0,
0,
0,
0,
0,
0,
0,
0,
0,
0,
0,
0,
0,
0,
0,
0,
0,
0,
0,
0,
0,
0,
0,
0,
0,
0,
0,
0,
0,
0,
0,
0,
0,
0,
0,
0,
0,
0,
0,
0,
0,
0,
0,
0,
0,
0,
0,
0,
0,
0,
0,
0,
0,
0,
0,
0,
0,
0,
0,
0,
0,
0,
0,
0,
0,
0,
0,
0,
0,
0,
0,
0,
0,
0,
0,
0,
0,
0,
0,
0,
0,
0,
0,
0,
0,
0,
0,
0,
0,
0,
0,
0,
0,
0,
0,
0,
0,
0,
0,
0,
0,
0,
0,
0,
0,
0,
0,
0,
0,
0,
#ENDOFDATA   :