File: N132962/Quantification/20 keV/Glass Mount IIIB/GM IIIB K491[0][4].msa
#FORMAT      : EMSA/MAS Spectral Data File
#VERSION     : 1.0
#TITLE       : GM IIIB K491[0][all]
#DATE        : 10-SEP-2025
#TIME        : 15:10
#OWNER       : Unknown
#NPOINTS     : 4096
#NCOLUMNS    : 1
#XUNITS      : eV
#YUNITS      : counts
#DATATYPE    : Y
#XPERCHAN    : 9.99778
#OFFSET      : 1.69135
#BEAMKV      : 20
#SIGNALTYPE  : EDS
#ELEVANGLE   : 35
#AZIMANGLE   : 0
#LIVETIME    : 240.264
#REALTIME    : 266.797
#PROBECUR    : 1.22616
#TAUWIND     : 0
#TDEADLYR    : 0
#TACTLYR     : 0.045
#TALWIND     : 0.025
#CHOFFSET    : 0.0
#XLABEL      : Energy (eV)
#YLABEL      : Counts
#XPOSITION   : 4.01189
#YPOSITION   : 6.7894
#ZPOSITION   : 34.06144
#EDSDET      : SD
##SPECIMEN   : GM IIIB K491[0][all]
##D2STDCMP   : K491,(B:0.03),(O:16.65),(Al:0.08),(Si:0.09),(Ti:0.16),(Fe:0.18),(Ge:26.36),(Zr:0.3),(Ce:0.46),(Ta:0.59),(Pb:55.1)
##DET_HASH   : 12273538-fd48-a23f-0a19-f1e6fa85caef
##CALIB_HASH : 6abaa72c-aa41-8738-0be9-f592914732f3
##WORKING    : 15.0 mm
##DET_NAME   : EDAX All
##DET_MODE   : MediumLE
#SPECTRUM    :
29,
20,
11,
33,
219,
899,
2365,
5082,
10206,
12773,
8740,
6283,
6242,
6697,
7677,
13518,
36259,
62816,
46894,
17172,
9539,
8288,
8548,
9483,
8544,
7398,
7236,
7758,
8227,
8334,
8683,
8681,
9300,
11086,
14335,
15755,
14477,
19347,
50403,
110122,
134013,
89273,
37230,
14864,
9795,
8220,
7954,
7985,
8186,
8786,
8778,
8763,
8323,
8284,
8572,
9152,
10399,
11969,
13185,
14552,
16635,
17408,
14788,
11185,
9492,
9281,
9097,
9398,
9557,
9700,
9902,
10547,
11353,
12493,
14273,
21642,
46889,
98978,
145482,
139499,
112019,
102764,
87499,
52310,
23119,
11192,
9058,
10859,
12569,
12034,
9494,
7355,
6196,
5924,
5977,
6186,
6333,
6390,
6555,
6673,
6780,
7287,
7752,
7860,
7540,
7222,
6673,
6212,
5939,
5959,
5876,
5800,
5696,
5886,
5833,
5845,
5947,
6088,
6237,
6039,
5914,
5799,
5940,
5790,
5825,
5866,
5729,
5846,
5496,
5538,
5408,
5513,
5522,
5479,
5466,
5653,
5367,
5485,
5437,
5545,
5478,
5522,
5464,
5302,
5488,
5423,
5469,
5606,
6019,
6428,
6630,
6524,
6230,
5714,
5300,
5339,
5469,
5416,
5524,
5538,
5907,
5982,
5929,
5856,
5654,
5530,
5219,
5197,
5079,
4958,
4930,
5138,
5102,
5131,
5211,
5179,
5201,
5188,
5055,
5052,
4920,
4961,
4876,
4823,
4785,
4826,
4773,
4726,
4742,
4656,
4674,
4543,
4516,
4515,
4556,
4489,
4350,
4437,
4512,
4482,
4516,
4599,
4542,
4387,
4466,
4292,
4279,
4437,
4275,
4295,
4511,
4756,
5018,
5164,
5011,
4722,
4575,
4294,
4042,
4165,
4133,
3996,
3917,
3940,
4025,
4040,
3893,
3880,
3893,
3872,
3838,
3854,
3801,
4007,
3825,
3817,
3839,
3915,
3740,
3673,
3611,
3593,
3516,
3606,
3482,
3449,
3514,
3816,
3750,
3794,
3743,
3691,
3525,
3496,
3475,
3372,
3357,
3286,
3348,
3308,
3278,
3327,
3304,
3213,
3224,
3257,
3104,
3330,
3258,
3380,
3448,
3395,
3429,
3430,
3150,
3151,
3096,
3090,
2989,
2929,
2971,
2973,
2959,
2911,
2965,
2833,
2941,
2897,
2869,
2869,
2803,
2846,
2735,
2768,
2704,
2664,
2699,
2676,
2740,
2641,
2670,
2731,
2795,
2829,
3015,
3084,
3221,
3191,
3007,
2848,
2894,
2642,
2698,
2531,
2506,
2473,
2413,
2472,
2431,
2434,
2493,
2553,
2691,
3362,
4469,
6997,
10665,
15547,
19468,
21041,
19570,
15404,
10526,
6704,
4266,
2985,
2327,
2212,
2191,
2285,
2152,
2234,
2224,
2207,
2429,
2868,
3617,
4896,
6587,
8776,
11015,
12246,
12055,
10217,
7869,
5348,
3656,
2749,
2259,
2098,
2157,
2362,
2681,
3264,
3748,
4226,
4435,
3982,
3589,
2894,
2416,
1994,
1806,
1736,
1686,
1647,
1679,
1678,
1674,
1700,
1603,
1624,
1595,
1510,
1542,
1493,
1473,
1610,
1492,
1484,
1498,
1451,
1427,
1490,
1421,
1451,
1428,
1369,
1335,
1382,
1404,
1410,
1451,
1427,
1487,
1464,
1494,
1547,
1479,
1484,
1475,
1444,
1455,
1461,
1520,
1756,
2166,
2951,
3849,
4525,
4817,
4532,
4063,
3318,
2529,
1989,
1583,
1436,
1370,
1294,
1250,
1293,
1282,
1246,
1234,
1207,
1179,
1045,
1012,
979,
936,
1022,
979,
979,
914,
917,
875,
890,
883,
906,
862,
861,
884,
903,
847,
844,
858,
829,
896,
837,
838,
821,
818,
851,
816,
760,
772,
804,
783,
746,
701,
677,
714,
707,
713,
762,
678,
687,
712,
674,
771,
680,
662,
610,
706,
626,
740,
728,
752,
813,
884,
905,
965,
853,
806,
723,
669,
593,
595,
601,
614,
626,
624,
600,
614,
576,
582,
576,
557,
608,
516,
513,
483,
476,
457,
466,
452,
473,
434,
445,
449,
434,
452,
473,
425,
428,
466,
429,
387,
393,
451,
382,
358,
392,
382,
356,
385,
345,
377,
352,
355,
322,
372,
332,
350,
307,
351,
298,
302,
322,
330,
303,
323,
291,
315,
309,
286,
293,
287,
289,
258,
266,
271,
281,
242,
249,
270,
252,
243,
282,
268,
260,
259,
224,
223,
216,
240,
215,
217,
228,
202,
221,
189,
185,
178,
185,
181,
204,
163,
173,
177,
175,
163,
163,
171,
176,
179,
171,
168,
152,
172,
162,
152,
159,
140,
130,
147,
142,
135,
107,
114,
125,
122,
104,
119,
125,
109,
95,
113,
106,
97,
75,
84,
84,
90,
81,
79,
79,
73,
80,
91,
50,
80,
90,
65,
64,
60,
59,
69,
60,
61,
52,
53,
54,
59,
39,
52,
50,
39,
29,
36,
40,
46,
42,
30,
32,
23,
31,
33,
14,
20,
16,
12,
16,
11,
14,
10,
10,
7,
9,
9,
3,
3,
8,
4,
7,
4,
9,
7,
6,
0,
6,
9,
6,
7,
7,
2,
4,
5,
6,
3,
2,
5,
9,
4,
7,
3,
3,
4,
4,
7,
8,
6,
4,
4,
4,
6,
3,
3,
7,
3,
3,
5,
1,
6,
4,
2,
4,
6,
2,
7,
5,
2,
3,
6,
1,
6,
3,
3,
4,
4,
4,
0,
1,
6,
3,
4,
3,
1,
4,
3,
0,
5,
3,
4,
1,
3,
0,
2,
2,
5,
1,
2,
1,
2,
4,
2,
0,
2,
2,
2,
3,
2,
2,
1,
2,
0,
2,
2,
1,
1,
3,
2,
3,
3,
4,
4,
2,
1,
0,
1,
0,
1,
2,
2,
0,
1,
3,
4,
1,
0,
5,
2,
0,
1,
0,
1,
2,
4,
3,
1,
1,
2,
2,
1,
1,
3,
1,
3,
3,
0,
4,
1,
0,
1,
0,
3,
0,
0,
2,
2,
1,
2,
0,
3,
1,
3,
1,
3,
2,
1,
2,
1,
4,
1,
3,
4,
2,
1,
0,
4,
2,
2,
1,
2,
0,
3,
0,
3,
3,
0,
0,
3,
0,
1,
1,
1,
3,
0,
1,
2,
4,
1,
0,
0,
0,
1,
2,
1,
0,
1,
2,
2,
2,
2,
0,
1,
1,
1,
1,
0,
0,
1,
0,
0,
0,
0,
2,
0,
1,
0,
2,
0,
0,
1,
1,
1,
2,
1,
3,
0,
1,
0,
0,
1,
0,
1,
0,
0,
0,
0,
1,
2,
1,
1,
1,
0,
0,
4,
1,
0,
1,
0,
0,
1,
0,
0,
0,
0,
0,
1,
0,
0,
2,
1,
0,
2,
0,
0,
0,
0,
0,
0,
1,
0,
0,
0,
0,
0,
1,
0,
0,
1,
1,
0,
0,
0,
0,
0,
1,
1,
0,
0,
0,
0,
0,
0,
0,
0,
0,
0,
1,
0,
0,
0,
0,
0,
1,
0,
1,
0,
0,
1,
1,
0,
0,
0,
0,
0,
0,
0,
0,
1,
0,
0,
0,
0,
0,
0,
1,
0,
0,
0,
0,
0,
1,
0,
0,
0,
0,
0,
0,
0,
0,
0,
0,
0,
0,
0,
0,
0,
0,
0,
0,
0,
0,
0,
0,
0,
0,
0,
0,
1,
1,
0,
0,
0,
0,
0,
0,
0,
0,
0,
0,
0,
0,
0,
0,
0,
0,
0,
0,
0,
0,
0,
0,
0,
0,
0,
0,
0,
0,
0,
0,
0,
0,
0,
0,
0,
0,
0,
0,
0,
0,
0,
0,
0,
0,
0,
0,
0,
0,
0,
0,
0,
0,
0,
0,
0,
0,
0,
0,
0,
0,
0,
0,
0,
0,
0,
0,
0,
0,
0,
0,
0,
0,
0,
0,
0,
0,
0,
0,
0,
0,
0,
0,
0,
0,
0,
0,
0,
0,
0,
0,
0,
0,
0,
0,
0,
0,
0,
0,
0,
0,
0,
0,
0,
0,
0,
0,
0,
0,
0,
0,
0,
0,
0,
0,
0,
0,
1,
0,
0,
0,
0,
0,
0,
0,
0,
0,
0,
0,
0,
0,
0,
0,
0,
0,
0,
0,
0,
0,
0,
0,
0,
0,
0,
0,
0,
0,
0,
0,
0,
0,
0,
0,
0,
0,
0,
0,
0,
0,
0,
0,
0,
0,
0,
0,
0,
0,
0,
0,
0,
0,
0,
0,
0,
0,
0,
0,
0,
0,
0,
0,
0,
0,
0,
0,
0,
0,
0,
0,
0,
0,
0,
0,
0,
0,
0,
0,
0,
0,
0,
0,
0,
0,
0,
0,
0,
0,
0,
0,
0,
0,
0,
0,
0,
0,
0,
0,
0,
0,
0,
0,
0,
0,
0,
0,
0,
0,
0,
0,
0,
0,
0,
0,
0,
0,
0,
0,
0,
0,
0,
0,
0,
0,
0,
0,
0,
0,
0,
0,
0,
0,
0,
0,
0,
0,
0,
0,
0,
0,
0,
0,
0,
0,
0,
0,
0,
0,
0,
0,
0,
0,
0,
0,
0,
0,
0,
0,
0,
0,
0,
0,
0,
0,
0,
0,
0,
0,
0,
0,
0,
0,
0,
0,
0,
0,
0,
0,
0,
0,
0,
0,
0,
0,
0,
0,
0,
0,
0,
0,
0,
0,
0,
0,
0,
0,
0,
0,
0,
0,
0,
0,
0,
0,
0,
0,
0,
0,
0,
0,
0,
0,
0,
0,
#ENDOFDATA   :