File: N132962/Quantification/20 keV/Glass Mount IIIB/GM IIIB K408[2][4].msa
#FORMAT      : EMSA/MAS Spectral Data File
#VERSION     : 1.0
#TITLE       : GM IIIB K408[2][all]
#DATE        : 10-SEP-2025
#TIME        : 14:36
#OWNER       : Unknown
#NPOINTS     : 4096
#NCOLUMNS    : 1
#XUNITS      : eV
#YUNITS      : counts
#DATATYPE    : Y
#XPERCHAN    : 9.99778
#OFFSET      : 1.69135
#BEAMKV      : 20
#SIGNALTYPE  : EDS
#ELEVANGLE   : 35
#AZIMANGLE   : 0
#LIVETIME    : 240.249
#REALTIME    : 266.724
#PROBECUR    : 1.22592
#TAUWIND     : 0
#TDEADLYR    : 0
#TACTLYR     : 0.045
#TALWIND     : 0.025
#CHOFFSET    : 0.0
#XLABEL      : Energy (eV)
#YLABEL      : Counts
#XPOSITION   : 9.63788
#YPOSITION   : 4.81892
#ZPOSITION   : 34.06144
#EDSDET      : SD
##SPECIMEN   : GM IIIB K408[2][all]
##D2STDCMP   : K408,(O:21.32),(Si:14.02),(Eu:4.32),(Pb:60.34)
##DET_HASH   : 12273538-fd48-a23f-0a19-f1e6fa85caef
##CALIB_HASH : 6abaa72c-aa41-8738-0be9-f592914732f3
##WORKING    : 15.0 mm
##DET_NAME   : EDAX All
##DET_MODE   : MediumLE
#SPECTRUM    :
20,
25,
15,
32,
186,
736,
2145,
5126,
10778,
13301,
8843,
6239,
6149,
6416,
7613,
15332,
44393,
78957,
57947,
19674,
9234,
7467,
7220,
7824,
7462,
6458,
6496,
6959,
7755,
8172,
7652,
7576,
7726,
7797,
8119,
8470,
9273,
10978,
12344,
11428,
10135,
9365,
9413,
9487,
9901,
9945,
9972,
10175,
10446,
10859,
11106,
11016,
10872,
10808,
11876,
19209,
52916,
122601,
164050,
121166,
59334,
32924,
21208,
13304,
9623,
8667,
8481,
8413,
8481,
8595,
8938,
9859,
11093,
12403,
14264,
22446,
50930,
108433,
159273,
154253,
122648,
112123,
94542,
56548,
24138,
10931,
8458,
10389,
12181,
11732,
9239,
6892,
5875,
5520,
5627,
5613,
5826,
6172,
6045,
6040,
6493,
6976,
7308,
7431,
7299,
6563,
6191,
5676,
5530,
5267,
5439,
5202,
5215,
5441,
5363,
5479,
5586,
5627,
5488,
5384,
5208,
5177,
5155,
5328,
5234,
5357,
5323,
5263,
5129,
5058,
5216,
5240,
4989,
5131,
5187,
5225,
5312,
5412,
5512,
5266,
5211,
5024,
4971,
5030,
5029,
4921,
4933,
5066,
5246,
5547,
5572,
5722,
5474,
5053,
4962,
5019,
4920,
5036,
5025,
4977,
4971,
4946,
4829,
4903,
4807,
4794,
4834,
4709,
4635,
4694,
4646,
4757,
4691,
4700,
4759,
4629,
4422,
4495,
4549,
4456,
4437,
4352,
4458,
4477,
4310,
4475,
4362,
4433,
4319,
4425,
4423,
4894,
5736,
6833,
7996,
8194,
7374,
6207,
5151,
4472,
4215,
4100,
4100,
4010,
4032,
4117,
3993,
4061,
4017,
4032,
4022,
4462,
4861,
5381,
5817,
5945,
5667,
5012,
4652,
4338,
4015,
3926,
3778,
3691,
3851,
3775,
4085,
4218,
4276,
4131,
4035,
3712,
3684,
3630,
3579,
3492,
3491,
3429,
3404,
3359,
3269,
3319,
3294,
3371,
3376,
3333,
3446,
3653,
3827,
3718,
3715,
3509,
3291,
3233,
3179,
3094,
3165,
3106,
3202,
3130,
3132,
3064,
3015,
2965,
2964,
2954,
2867,
2953,
2892,
2925,
2855,
2921,
2811,
2894,
2796,
2922,
2858,
2681,
2780,
2828,
2701,
2662,
2711,
2672,
2634,
2706,
2624,
2613,
2684,
2600,
2651,
2517,
2567,
2582,
2527,
2518,
2463,
2443,
2442,
2415,
2558,
2514,
2524,
2668,
2811,
2857,
2935,
2979,
2726,
2622,
2461,
2352,
2304,
2312,
2339,
2266,
2242,
2210,
2220,
2216,
2229,
2212,
2095,
2125,
2155,
2154,
2212,
2084,
2061,
2042,
2089,
2061,
2070,
1990,
2089,
2051,
2041,
1972,
1940,
1990,
1998,
1845,
2041,
2110,
2342,
2758,
3534,
4776,
6591,
8849,
11127,
12443,
12081,
10337,
7864,
5331,
3505,
2681,
1959,
1807,
1755,
1702,
1723,
1733,
1694,
1677,
1583,
1654,
1652,
1678,
1574,
1623,
1608,
1615,
1584,
1539,
1492,
1629,
1507,
1589,
1450,
1464,
1432,
1454,
1495,
1402,
1439,
1506,
1389,
1349,
1311,
1333,
1353,
1335,
1403,
1384,
1388,
1318,
1306,
1287,
1339,
1315,
1308,
1439,
1467,
1353,
1367,
1399,
1399,
1389,
1343,
1247,
1350,
1359,
1469,
1715,
2296,
3013,
3865,
4668,
5043,
4851,
4291,
3392,
2620,
1923,
1518,
1375,
1233,
1179,
1212,
1222,
1254,
1169,
1218,
1129,
1143,
995,
949,
952,
930,
860,
869,
880,
824,
829,
855,
840,
786,
838,
834,
804,
807,
827,
803,
801,
781,
786,
727,
796,
759,
752,
699,
727,
754,
711,
731,
749,
722,
724,
696,
665,
744,
698,
682,
675,
640,
631,
666,
666,
655,
659,
655,
617,
600,
622,
639,
675,
765,
768,
834,
885,
897,
836,
797,
721,
608,
578,
559,
546,
557,
569,
596,
599,
576,
564,
568,
548,
543,
493,
460,
482,
443,
420,
438,
452,
468,
419,
406,
398,
404,
378,
399,
400,
422,
413,
377,
362,
343,
379,
338,
347,
353,
355,
346,
354,
321,
331,
336,
315,
330,
324,
319,
309,
309,
306,
284,
291,
298,
301,
286,
275,
271,
275,
263,
289,
282,
229,
270,
260,
251,
251,
264,
245,
241,
239,
247,
236,
230,
247,
229,
204,
222,
214,
201,
208,
207,
202,
201,
212,
187,
221,
186,
198,
181,
187,
171,
147,
162,
166,
157,
176,
146,
157,
146,
152,
140,
101,
130,
143,
128,
115,
123,
144,
119,
114,
103,
126,
123,
103,
135,
100,
112,
117,
112,
102,
84,
106,
97,
97,
88,
95,
93,
79,
70,
94,
77,
84,
74,
77,
71,
59,
65,
74,
66,
54,
70,
64,
56,
46,
50,
56,
54,
44,
46,
32,
43,
38,
32,
31,
36,
25,
26,
15,
20,
23,
16,
16,
24,
15,
17,
8,
18,
9,
8,
1,
6,
3,
6,
2,
6,
4,
4,
2,
4,
4,
5,
2,
7,
4,
2,
4,
5,
4,
6,
5,
2,
5,
2,
1,
4,
1,
4,
5,
5,
2,
5,
3,
1,
4,
2,
2,
6,
3,
6,
2,
3,
2,
6,
3,
0,
1,
2,
3,
1,
2,
0,
3,
3,
4,
3,
3,
3,
3,
1,
2,
1,
3,
1,
0,
5,
0,
0,
0,
2,
1,
2,
2,
5,
2,
2,
1,
3,
1,
0,
3,
0,
0,
2,
3,
2,
1,
1,
1,
2,
0,
1,
2,
2,
2,
1,
3,
1,
2,
3,
3,
6,
1,
2,
3,
0,
1,
5,
2,
2,
1,
3,
1,
4,
0,
2,
0,
1,
1,
1,
0,
0,
2,
0,
0,
1,
3,
1,
3,
2,
1,
1,
0,
1,
1,
1,
1,
3,
3,
1,
1,
0,
0,
0,
1,
1,
1,
1,
0,
0,
2,
1,
0,
1,
0,
2,
2,
0,
0,
2,
2,
0,
2,
3,
3,
1,
1,
2,
1,
0,
0,
1,
1,
0,
3,
0,
0,
0,
0,
1,
0,
0,
0,
0,
0,
0,
0,
2,
1,
0,
2,
2,
1,
2,
1,
0,
0,
0,
1,
0,
1,
0,
0,
0,
0,
0,
0,
0,
1,
1,
0,
1,
1,
2,
3,
0,
0,
0,
0,
0,
0,
0,
1,
1,
0,
1,
3,
2,
0,
0,
1,
0,
1,
1,
0,
0,
0,
1,
1,
0,
0,
0,
0,
0,
0,
0,
0,
0,
1,
2,
0,
1,
1,
0,
0,
0,
0,
1,
0,
0,
1,
1,
0,
1,
0,
0,
0,
0,
0,
0,
0,
0,
1,
1,
0,
0,
0,
0,
1,
0,
1,
0,
0,
0,
0,
0,
0,
0,
0,
0,
0,
0,
0,
1,
0,
0,
0,
0,
0,
0,
0,
0,
0,
0,
2,
0,
0,
0,
0,
0,
0,
0,
0,
0,
1,
0,
0,
0,
0,
0,
0,
0,
0,
0,
0,
1,
0,
0,
0,
0,
0,
0,
0,
0,
0,
0,
0,
0,
0,
0,
0,
0,
0,
0,
0,
0,
0,
0,
0,
0,
0,
1,
0,
0,
0,
0,
0,
2,
0,
0,
0,
0,
0,
0,
0,
0,
0,
0,
0,
0,
0,
0,
0,
0,
0,
0,
0,
0,
1,
0,
0,
0,
1,
1,
0,
1,
0,
0,
0,
0,
0,
0,
0,
0,
0,
0,
0,
0,
0,
0,
0,
0,
0,
0,
0,
0,
0,
0,
0,
0,
0,
0,
0,
0,
0,
0,
0,
0,
0,
0,
0,
0,
0,
0,
0,
0,
0,
0,
0,
0,
0,
0,
0,
0,
0,
0,
0,
0,
0,
0,
0,
0,
0,
0,
0,
0,
0,
0,
0,
0,
0,
0,
0,
0,
0,
0,
0,
0,
0,
0,
0,
0,
0,
0,
0,
0,
0,
0,
0,
0,
0,
0,
0,
0,
0,
0,
0,
0,
0,
0,
0,
0,
0,
0,
0,
0,
0,
0,
0,
0,
0,
0,
0,
0,
0,
0,
0,
0,
0,
0,
0,
0,
0,
0,
0,
0,
1,
0,
0,
0,
0,
0,
0,
0,
0,
0,
0,
0,
0,
0,
0,
0,
0,
0,
0,
0,
0,
0,
0,
0,
0,
0,
0,
0,
0,
0,
0,
0,
0,
0,
0,
0,
0,
0,
0,
0,
0,
0,
0,
0,
0,
0,
0,
0,
0,
0,
0,
0,
0,
0,
0,
0,
0,
0,
0,
0,
0,
0,
0,
0,
0,
0,
0,
0,
0,
0,
0,
0,
0,
0,
0,
0,
0,
0,
0,
0,
0,
0,
0,
0,
0,
0,
0,
0,
0,
0,
0,
0,
0,
0,
0,
0,
0,
0,
0,
0,
0,
0,
0,
0,
0,
0,
0,
0,
0,
0,
0,
0,
0,
0,
0,
0,
0,
0,
0,
0,
0,
0,
0,
0,
0,
0,
0,
0,
0,
0,
0,
0,
0,
0,
0,
0,
0,
0,
0,
0,
0,
0,
0,
0,
0,
0,
0,
0,
0,
0,
0,
0,
0,
0,
0,
0,
0,
0,
0,
0,
0,
0,
0,
0,
0,
0,
0,
0,
0,
0,
0,
0,
0,
0,
0,
0,
0,
0,
0,
0,
0,
0,
0,
0,
0,
0,
0,
0,
0,
0,
0,
0,
0,
0,
0,
#ENDOFDATA   :