File: N132962/Quantification/20 keV/Glass Mount IIIB/GM IIIB K1132[0][4].msa
#FORMAT      : EMSA/MAS Spectral Data File
#VERSION     : 1.0
#TITLE       : GM IIIB K1132[0][all]
#DATE        : 10-SEP-2025
#TIME        : 17:30
#OWNER       : Unknown
#NPOINTS     : 4096
#NCOLUMNS    : 1
#XUNITS      : eV
#YUNITS      : counts
#DATATYPE    : Y
#XPERCHAN    : 9.99778
#OFFSET      : 1.69135
#BEAMKV      : 20
#SIGNALTYPE  : EDS
#ELEVANGLE   : 35
#AZIMANGLE   : 0
#LIVETIME    : 240.14
#REALTIME    : 258.801
#PROBECUR    : 1.22427
#TAUWIND     : 0
#TDEADLYR    : 0
#TACTLYR     : 0.045
#TALWIND     : 0.025
#CHOFFSET    : 0.0
#XLABEL      : Energy (eV)
#YLABEL      : Counts
#XPOSITION   : 7.05082
#YPOSITION   : 16.28695
#ZPOSITION   : 34.06144
#EDSDET      : SD
##SPECIMEN   : GM IIIB K1132[0][all]
##D2STDCMP   : K1132,(Li:2.32),(O:41.34),(Al:7.94),(Si:21.39),(Ca:10.72),(Cr:0.51),(Ni:1.18),(Mo:1.67),(Ba:13.43)
##DET_HASH   : 12273538-fd48-a23f-0a19-f1e6fa85caef
##CALIB_HASH : 6abaa72c-aa41-8738-0be9-f592914732f3
##WORKING    : 15.0 mm
##DET_NAME   : EDAX All
##DET_MODE   : MediumLE
#SPECTRUM    :
24,
31,
7,
24,
84,
351,
989,
2390,
5485,
8131,
6616,
5081,
4365,
4496,
7049,
23514,
85924,
163621,
118892,
33043,
6369,
3399,
3237,
3540,
3652,
4391,
5072,
5478,
6184,
5802,
4493,
4030,
4594,
4762,
5195,
5194,
4753,
4461,
4562,
4547,
4750,
5007,
5070,
5266,
5344,
5571,
6896,
13166,
36925,
70757,
71358,
38413,
15163,
8006,
7463,
16479,
58234,
147522,
199768,
141341,
57650,
20536,
10320,
6089,
4687,
4579,
4355,
4045,
3977,
3921,
3743,
3765,
3953,
4150,
5152,
7055,
8581,
8880,
7199,
6190,
5925,
5176,
4708,
4293,
4118,
3843,
3829,
3763,
3872,
3735,
3744,
3813,
3761,
3653,
3625,
3639,
3678,
3492,
3617,
3537,
3568,
3527,
3549,
3627,
3498,
3477,
3545,
3712,
3499,
3490,
3374,
3260,
3281,
3299,
3301,
3456,
3568,
3895,
4114,
5712,
12025,
27086,
49403,
61498,
51450,
29894,
12864,
5364,
3539,
3475,
3914,
5416,
7665,
9654,
10219,
8438,
5686,
3729,
2911,
2785,
2717,
2658,
2794,
2848,
3288,
4232,
7355,
13223,
19734,
22268,
18387,
11554,
6081,
3539,
2662,
2500,
2528,
2979,
4330,
6925,
10009,
11757,
11098,
8471,
6236,
4629,
3715,
3065,
2813,
3053,
3954,
4930,
5361,
4919,
3783,
2903,
2334,
2357,
2615,
3272,
3540,
3653,
3470,
3421,
3400,
3187,
2781,
2297,
1997,
1931,
1914,
2039,
2241,
2379,
2206,
2200,
1999,
2021,
1983,
1959,
1861,
1838,
1686,
1642,
1697,
1648,
1531,
1547,
1597,
1541,
1648,
1636,
1616,
1688,
1691,
1662,
1531,
1567,
1480,
1422,
1544,
1454,
1454,
1488,
1394,
1356,
1432,
1333,
1393,
1368,
1312,
1367,
1316,
1365,
1389,
1409,
1322,
1259,
1272,
1347,
1202,
1277,
1401,
1371,
1300,
1514,
1879,
2314,
2867,
3060,
2760,
2367,
1771,
1414,
1332,
1203,
1199,
1101,
1147,
1175,
1123,
1102,
1180,
1115,
1134,
1066,
1095,
1108,
1042,
1097,
1070,
1099,
1110,
1189,
1237,
1292,
1167,
1221,
1149,
1000,
1016,
1011,
1031,
910,
990,
952,
944,
919,
968,
937,
919,
925,
871,
917,
913,
893,
869,
870,
892,
878,
866,
915,
879,
871,
850,
859,
831,
852,
802,
823,
818,
799,
802,
794,
796,
765,
784,
791,
792,
820,
733,
771,
831,
754,
750,
719,
765,
717,
684,
693,
719,
703,
712,
723,
724,
722,
686,
652,
656,
646,
691,
617,
611,
616,
607,
653,
674,
626,
652,
637,
595,
599,
581,
591,
630,
635,
596,
583,
564,
564,
552,
575,
563,
551,
573,
523,
552,
538,
510,
508,
524,
517,
490,
478,
516,
518,
532,
532,
488,
499,
496,
503,
513,
498,
502,
458,
459,
441,
467,
429,
453,
409,
412,
442,
397,
441,
440,
431,
393,
416,
383,
375,
367,
399,
398,
389,
364,
390,
393,
361,
379,
388,
373,
381,
352,
364,
364,
381,
378,
322,
325,
348,
346,
335,
319,
317,
321,
322,
340,
324,
293,
296,
274,
316,
301,
334,
301,
270,
283,
318,
265,
267,
264,
297,
247,
281,
239,
266,
247,
237,
258,
261,
276,
256,
246,
227,
267,
218,
211,
228,
253,
210,
233,
197,
237,
232,
221,
225,
190,
216,
188,
191,
192,
217,
209,
182,
217,
195,
191,
204,
166,
195,
188,
163,
189,
183,
158,
176,
177,
160,
152,
184,
149,
161,
142,
151,
153,
156,
144,
139,
134,
120,
142,
149,
128,
130,
119,
158,
143,
127,
125,
152,
111,
116,
137,
126,
114,
115,
93,
114,
106,
117,
106,
123,
105,
119,
113,
99,
103,
104,
97,
94,
101,
85,
88,
91,
92,
105,
71,
88,
88,
76,
112,
92,
84,
93,
79,
84,
85,
72,
80,
76,
70,
78,
68,
75,
64,
53,
60,
82,
60,
81,
55,
68,
50,
59,
50,
61,
63,
63,
51,
52,
48,
46,
60,
48,
46,
40,
40,
41,
43,
50,
52,
45,
43,
54,
51,
31,
43,
26,
40,
39,
40,
36,
43,
44,
29,
30,
43,
28,
27,
33,
32,
23,
26,
27,
28,
34,
26,
25,
23,
23,
31,
26,
20,
20,
25,
26,
21,
25,
22,
15,
16,
18,
16,
14,
18,
25,
17,
11,
9,
9,
7,
13,
10,
11,
15,
6,
12,
13,
7,
8,
7,
10,
4,
6,
3,
7,
7,
7,
4,
7,
6,
3,
4,
6,
3,
6,
7,
3,
5,
3,
4,
3,
3,
2,
1,
3,
0,
1,
2,
0,
0,
1,
0,
0,
0,
1,
0,
0,
1,
0,
1,
0,
2,
2,
0,
1,
0,
1,
0,
0,
0,
0,
0,
0,
0,
0,
0,
1,
0,
1,
0,
0,
0,
1,
0,
0,
0,
1,
0,
0,
0,
0,
0,
0,
0,
1,
0,
0,
0,
0,
0,
1,
0,
0,
0,
0,
1,
0,
0,
0,
0,
0,
0,
0,
0,
1,
0,
0,
0,
2,
0,
0,
0,
0,
0,
1,
1,
0,
1,
0,
0,
1,
0,
0,
0,
1,
0,
0,
0,
0,
0,
2,
0,
0,
0,
1,
0,
0,
0,
0,
0,
0,
1,
0,
0,
0,
0,
0,
0,
0,
0,
0,
0,
0,
0,
0,
0,
0,
0,
0,
0,
0,
0,
0,
0,
0,
0,
0,
0,
0,
0,
0,
0,
0,
0,
0,
0,
0,
0,
0,
0,
0,
0,
0,
0,
1,
0,
0,
0,
0,
0,
0,
0,
0,
0,
0,
0,
0,
0,
0,
0,
0,
0,
0,
0,
0,
0,
0,
0,
0,
0,
0,
0,
0,
0,
0,
0,
0,
0,
0,
0,
0,
0,
0,
0,
0,
0,
0,
0,
0,
0,
0,
0,
0,
0,
0,
0,
0,
0,
0,
0,
0,
0,
0,
0,
0,
0,
0,
0,
0,
0,
0,
0,
0,
0,
0,
0,
0,
0,
0,
0,
0,
0,
0,
0,
1,
0,
0,
0,
0,
0,
0,
0,
0,
0,
0,
0,
0,
0,
0,
0,
0,
0,
0,
0,
0,
0,
0,
0,
0,
0,
0,
0,
0,
0,
0,
0,
0,
0,
0,
0,
0,
0,
0,
0,
0,
0,
0,
0,
0,
0,
0,
0,
0,
0,
0,
0,
0,
0,
0,
0,
0,
0,
0,
0,
0,
0,
0,
0,
0,
0,
0,
0,
0,
0,
0,
0,
0,
0,
0,
0,
0,
0,
0,
0,
0,
0,
0,
0,
0,
0,
0,
0,
0,
0,
0,
0,
0,
0,
0,
0,
0,
0,
0,
0,
0,
0,
0,
0,
0,
0,
0,
0,
0,
0,
0,
0,
0,
0,
0,
0,
0,
0,
0,
0,
0,
0,
0,
0,
0,
0,
0,
0,
0,
0,
0,
0,
0,
0,
0,
0,
0,
0,
0,
0,
0,
0,
0,
0,
0,
0,
0,
0,
0,
0,
0,
0,
0,
0,
0,
0,
0,
0,
0,
0,
0,
0,
0,
0,
0,
0,
0,
0,
0,
0,
0,
0,
0,
0,
0,
0,
0,
0,
0,
0,
0,
0,
0,
0,
0,
0,
0,
0,
0,
0,
0,
0,
0,
0,
0,
0,
0,
0,
0,
0,
0,
0,
0,
0,
0,
0,
0,
0,
0,
0,
0,
0,
0,
0,
0,
0,
0,
0,
0,
0,
0,
0,
0,
0,
0,
0,
0,
0,
0,
0,
0,
0,
0,
0,
0,
0,
0,
0,
0,
0,
0,
0,
0,
0,
0,
0,
0,
0,
0,
0,
0,
0,
0,
0,
0,
0,
0,
0,
0,
0,
0,
0,
0,
0,
0,
0,
0,
0,
0,
0,
0,
0,
0,
0,
0,
0,
0,
0,
0,
0,
0,
0,
0,
0,
0,
0,
0,
0,
0,
0,
0,
0,
0,
0,
0,
0,
0,
0,
0,
0,
0,
0,
0,
0,
0,
0,
0,
0,
0,
0,
0,
0,
0,
0,
0,
0,
0,
0,
0,
0,
0,
0,
0,
0,
0,
0,
0,
0,
0,
0,
0,
0,
0,
0,
0,
0,
0,
0,
0,
0,
0,
0,
0,
0,
0,
0,
0,
0,
0,
0,
0,
0,
0,
0,
0,
0,
0,
0,
0,
0,
0,
0,
0,
0,
0,
0,
0,
0,
0,
0,
0,
0,
0,
0,
0,
0,
0,
0,
0,
0,
0,
0,
0,
0,
0,
0,
0,
0,
0,
0,
0,
0,
0,
0,
0,
0,
0,
0,
0,
0,
0,
0,
0,
0,
0,
0,
0,
0,
0,
0,
0,
0,
0,
0,
0,
0,
0,
0,
0,
0,
0,
0,
0,
0,
0,
0,
0,
0,
0,
0,
0,
0,
0,
0,
0,
0,
0,
0,
0,
0,
0,
0,
0,
0,
0,
0,
0,
0,
0,
0,
0,
0,
0,
0,
0,
0,
0,
0,
0,
0,
0,
0,
0,
0,
0,
0,
0,
0,
0,
#ENDOFDATA   :