File: N132962/Quantification/20 keV/Glass Mount IIIB/GM IIIB K493[0][4].msa
#FORMAT      : EMSA/MAS Spectral Data File
#VERSION     : 1.0
#TITLE       : GM IIIB K493[0][all]
#DATE        : 10-SEP-2025
#TIME        : 15:16
#OWNER       : Unknown
#NPOINTS     : 4096
#NCOLUMNS    : 1
#XUNITS      : eV
#YUNITS      : counts
#DATATYPE    : Y
#XPERCHAN    : 9.99778
#OFFSET      : 1.69135
#BEAMKV      : 20
#SIGNALTYPE  : EDS
#ELEVANGLE   : 35
#AZIMANGLE   : 0
#LIVETIME    : 240.437
#REALTIME    : 267.559
#PROBECUR    : 1.22616
#TAUWIND     : 0
#TDEADLYR    : 0
#TACTLYR     : 0.045
#TALWIND     : 0.025
#CHOFFSET    : 0.0
#XLABEL      : Energy (eV)
#YLABEL      : Counts
#XPOSITION   : 1.69358
#YPOSITION   : 7.00159
#ZPOSITION   : 34.06144
#EDSDET      : SD
##SPECIMEN   : GM IIIB K493[0][all]
##D2STDCMP   : K493,(B:0.04),(O:20.63),(Al:0.11),(Si:13.04),(Ti:0.19),(Fe:0.22),(Zr:0.36),(Ce:0.55),(Ta:0.72),(Pb:64.13)
##DET_HASH   : 12273538-fd48-a23f-0a19-f1e6fa85caef
##CALIB_HASH : 6abaa72c-aa41-8738-0be9-f592914732f3
##WORKING    : 15.0 mm
##DET_NAME   : EDAX All
##DET_MODE   : MediumLE
#SPECTRUM    :
18,
26,
7,
37,
229,
878,
2309,
5177,
10546,
12707,
8930,
6494,
6367,
6624,
7459,
14854,
42089,
75339,
55482,
19154,
9410,
7762,
7715,
8448,
7811,
6570,
6228,
6734,
7081,
7583,
7604,
7443,
7639,
7856,
8007,
8210,
8339,
8546,
8716,
8820,
9154,
9310,
9577,
9831,
9902,
10158,
10400,
10555,
11428,
12482,
12549,
11942,
11440,
11528,
12738,
20088,
53508,
121562,
160787,
119302,
60062,
33174,
21826,
13670,
10382,
9373,
9267,
9760,
10025,
10075,
10164,
11055,
12119,
13037,
15260,
24123,
54439,
116205,
170307,
164309,
131701,
120417,
102067,
61259,
25636,
11182,
9057,
10541,
12760,
12164,
9512,
7067,
5875,
5490,
5590,
5545,
5977,
6041,
6300,
6250,
6577,
7087,
7486,
7658,
7372,
6687,
6278,
5810,
5504,
5386,
5281,
5403,
5388,
5399,
5403,
5660,
5598,
5638,
5510,
5480,
5289,
5309,
5322,
5439,
5534,
5397,
5526,
5277,
5167,
5191,
5283,
5185,
5259,
5279,
5297,
5262,
5404,
5469,
5377,
5421,
5262,
5148,
5297,
5112,
5171,
5077,
5178,
5084,
5542,
6156,
6624,
6249,
5958,
5297,
5162,
5016,
5256,
5142,
5157,
5418,
5706,
5780,
5742,
5472,
5331,
5223,
4826,
4806,
4651,
4799,
4707,
4632,
4686,
4921,
5004,
5063,
5015,
4950,
4702,
4670,
4569,
4550,
4425,
4496,
4432,
4639,
4639,
4450,
4415,
4522,
4405,
4459,
4301,
4369,
4254,
4301,
4245,
4121,
4281,
4204,
4191,
4221,
4231,
4160,
4131,
4017,
4141,
4087,
4043,
4188,
4259,
4416,
4769,
5098,
4925,
4669,
4313,
4056,
4000,
3827,
3747,
3744,
3635,
3847,
3753,
3740,
3787,
3733,
3698,
3694,
3747,
3600,
3645,
3629,
3772,
3659,
3625,
3654,
3505,
3300,
3456,
3468,
3272,
3434,
3389,
3458,
3384,
3392,
3628,
3726,
3529,
3443,
3304,
3295,
3240,
3187,
3197,
3106,
3078,
3053,
3041,
3131,
3097,
3102,
3040,
3068,
2995,
3036,
3176,
3217,
3316,
3456,
3355,
3234,
3086,
3036,
2771,
2910,
2885,
2723,
2784,
2701,
2823,
2747,
2705,
2685,
2705,
2754,
2633,
2633,
2691,
2697,
2586,
2649,
2631,
2666,
2458,
2645,
2552,
2508,
2556,
2482,
2570,
2734,
2953,
3025,
3015,
3001,
2886,
2917,
2636,
2604,
2478,
2446,
2389,
2348,
2344,
2344,
2247,
2353,
2285,
2334,
2355,
2257,
2233,
2190,
2222,
2136,
2176,
2048,
2162,
2192,
2145,
2107,
2075,
2061,
2052,
2049,
2021,
2017,
2062,
1967,
2039,
2204,
2463,
2857,
3693,
5019,
7068,
9526,
11916,
13179,
13026,
11115,
7993,
5666,
3885,
2704,
2126,
1878,
1920,
1857,
1727,
1759,
1744,
1782,
1725,
1646,
1774,
1634,
1648,
1601,
1678,
1623,
1552,
1645,
1664,
1628,
1593,
1652,
1526,
1565,
1504,
1459,
1544,
1495,
1397,
1521,
1418,
1482,
1474,
1413,
1367,
1362,
1332,
1378,
1325,
1381,
1363,
1380,
1295,
1379,
1397,
1507,
1440,
1449,
1436,
1509,
1508,
1425,
1428,
1438,
1359,
1400,
1573,
1869,
2401,
3109,
4065,
4970,
5332,
5123,
4453,
3661,
2639,
2040,
1634,
1425,
1378,
1210,
1338,
1236,
1280,
1206,
1233,
1180,
1169,
1063,
1039,
934,
948,
938,
922,
896,
900,
871,
875,
930,
890,
819,
813,
848,
891,
835,
800,
779,
835,
767,
749,
816,
775,
793,
763,
727,
777,
801,
723,
691,
696,
742,
689,
699,
689,
719,
677,
739,
695,
683,
646,
641,
623,
637,
594,
642,
645,
629,
625,
722,
744,
845,
908,
843,
892,
868,
799,
756,
640,
623,
595,
636,
553,
561,
606,
548,
557,
566,
622,
579,
570,
496,
492,
479,
483,
434,
493,
473,
484,
456,
412,
454,
436,
397,
425,
436,
402,
393,
386,
423,
412,
404,
336,
327,
388,
395,
352,
356,
345,
339,
331,
329,
325,
355,
311,
344,
317,
306,
287,
313,
306,
324,
303,
309,
342,
304,
284,
256,
246,
269,
272,
258,
263,
234,
274,
264,
251,
255,
241,
232,
226,
238,
238,
241,
198,
215,
225,
204,
212,
217,
197,
184,
202,
177,
195,
165,
170,
168,
205,
194,
197,
176,
167,
169,
176,
169,
154,
163,
168,
166,
140,
135,
153,
116,
133,
141,
132,
121,
128,
125,
134,
110,
136,
106,
102,
95,
104,
122,
90,
112,
107,
94,
94,
95,
100,
79,
83,
67,
69,
72,
83,
66,
71,
67,
60,
75,
90,
69,
50,
51,
62,
49,
49,
41,
37,
52,
47,
55,
38,
47,
34,
42,
41,
30,
35,
31,
25,
30,
29,
17,
20,
17,
21,
19,
13,
14,
10,
6,
5,
7,
6,
9,
6,
4,
3,
9,
5,
1,
2,
4,
6,
1,
4,
3,
1,
4,
6,
2,
1,
1,
2,
3,
2,
4,
1,
1,
2,
3,
2,
1,
3,
4,
8,
5,
1,
3,
2,
5,
4,
7,
3,
0,
2,
6,
0,
2,
2,
2,
2,
1,
3,
1,
1,
3,
0,
6,
2,
1,
1,
0,
1,
7,
1,
1,
2,
3,
4,
0,
1,
4,
2,
2,
2,
1,
2,
1,
1,
1,
0,
4,
0,
2,
2,
2,
1,
2,
2,
1,
1,
2,
3,
1,
3,
2,
1,
4,
4,
1,
2,
0,
2,
1,
3,
2,
3,
5,
5,
1,
0,
0,
1,
1,
1,
0,
0,
1,
1,
0,
1,
2,
1,
0,
4,
1,
2,
1,
2,
3,
1,
2,
2,
1,
1,
0,
1,
0,
1,
1,
1,
2,
0,
1,
2,
0,
1,
1,
1,
0,
0,
2,
2,
2,
0,
2,
1,
0,
1,
3,
1,
1,
3,
1,
0,
1,
0,
0,
0,
2,
1,
0,
3,
1,
1,
1,
3,
1,
0,
0,
1,
0,
0,
1,
1,
1,
0,
1,
0,
0,
2,
1,
0,
1,
0,
2,
0,
1,
0,
1,
2,
1,
1,
0,
2,
2,
0,
0,
0,
1,
1,
1,
0,
1,
2,
2,
0,
2,
0,
1,
1,
0,
1,
0,
1,
0,
2,
0,
0,
0,
1,
2,
1,
1,
0,
1,
0,
2,
0,
0,
1,
1,
0,
1,
0,
2,
0,
0,
0,
0,
1,
1,
0,
0,
1,
0,
2,
0,
0,
0,
0,
1,
0,
2,
1,
0,
0,
0,
0,
0,
1,
1,
1,
0,
0,
0,
0,
0,
1,
0,
1,
1,
0,
0,
0,
2,
1,
1,
0,
0,
0,
1,
0,
0,
0,
0,
1,
0,
0,
1,
1,
1,
1,
0,
0,
0,
0,
1,
0,
1,
0,
1,
0,
1,
0,
0,
1,
0,
0,
0,
0,
0,
0,
0,
0,
1,
0,
0,
0,
0,
0,
0,
0,
0,
0,
0,
0,
0,
0,
0,
0,
1,
0,
0,
1,
1,
0,
0,
0,
0,
0,
1,
0,
0,
0,
0,
0,
0,
0,
1,
0,
0,
0,
0,
0,
0,
0,
0,
0,
0,
0,
0,
0,
1,
0,
0,
0,
0,
0,
0,
0,
0,
0,
0,
0,
0,
0,
0,
0,
0,
0,
0,
0,
0,
0,
0,
0,
0,
0,
0,
0,
0,
0,
0,
0,
0,
0,
0,
0,
0,
0,
0,
0,
0,
0,
0,
0,
0,
0,
0,
0,
0,
0,
0,
0,
0,
0,
0,
0,
0,
0,
0,
0,
0,
0,
0,
0,
0,
0,
0,
0,
0,
0,
0,
0,
0,
0,
0,
0,
0,
0,
0,
0,
0,
0,
0,
0,
0,
0,
0,
0,
0,
0,
0,
0,
0,
0,
0,
0,
0,
0,
0,
0,
0,
0,
0,
0,
0,
0,
0,
0,
0,
0,
0,
0,
0,
0,
0,
0,
0,
0,
0,
0,
0,
0,
0,
0,
0,
0,
0,
0,
0,
0,
0,
0,
0,
0,
0,
0,
0,
0,
0,
0,
0,
0,
0,
0,
0,
0,
0,
0,
0,
0,
0,
0,
0,
0,
0,
0,
0,
0,
0,
0,
0,
0,
0,
0,
0,
0,
0,
0,
0,
0,
0,
0,
0,
0,
0,
0,
0,
0,
0,
0,
0,
0,
0,
0,
0,
0,
0,
0,
0,
0,
0,
0,
0,
0,
0,
0,
0,
0,
0,
0,
0,
0,
0,
0,
0,
0,
0,
0,
0,
0,
0,
0,
0,
0,
0,
0,
0,
0,
0,
0,
0,
0,
0,
0,
0,
0,
0,
0,
0,
0,
0,
0,
0,
0,
0,
0,
0,
0,
0,
0,
0,
0,
0,
0,
0,
0,
0,
0,
0,
0,
0,
0,
0,
0,
0,
0,
0,
0,
0,
0,
0,
0,
0,
0,
0,
0,
0,
0,
0,
0,
0,
0,
0,
0,
0,
0,
0,
0,
0,
0,
0,
0,
0,
0,
0,
0,
0,
0,
0,
0,
0,
0,
0,
0,
0,
0,
0,
0,
0,
0,
0,
0,
0,
0,
0,
0,
0,
0,
0,
0,
0,
0,
0,
0,
0,
0,
0,
0,
0,
0,
0,
0,
0,
0,
0,
0,
0,
#ENDOFDATA   :