File: N132962/Quantification/20 keV/Glass Mount IIIB/GM IIIB K230[4][4].msa
#FORMAT      : EMSA/MAS Spectral Data File
#VERSION     : 1.0
#TITLE       : GM IIIB K230[4][all]
#DATE        : 10-SEP-2025
#TIME        : 19:15
#OWNER       : Unknown
#NPOINTS     : 4096
#NCOLUMNS    : 1
#XUNITS      : eV
#YUNITS      : counts
#DATATYPE    : Y
#XPERCHAN    : 9.99778
#OFFSET      : 1.69135
#BEAMKV      : 20
#SIGNALTYPE  : EDS
#ELEVANGLE   : 35
#AZIMANGLE   : 0
#LIVETIME    : 240.199
#REALTIME    : 264.4877
#PROBECUR    : 1.21918
#TAUWIND     : 0
#TDEADLYR    : 0
#TACTLYR     : 0.045
#TALWIND     : 0.025
#CHOFFSET    : 0.0
#XLABEL      : Energy (eV)
#YLABEL      : Counts
#XPOSITION   : 4.52585
#YPOSITION   : -1.14287
#ZPOSITION   : 34.00159
#EDSDET      : SD
##SPECIMEN   : GM IIIB K230[4][all]
##D2STDCMP   : K230,(O:24.49),(Al:2.65),(Si:14.02),(Zn:4.02),(Ba:8.96),(Ta:4.09),(Pb:41.77)
##DET_HASH   : 12273538-fd48-a23f-0a19-f1e6fa85caef
##CALIB_HASH : 6abaa72c-aa41-8738-0be9-f592914732f3
##WORKING    : 15.0 mm
##DET_NAME   : EDAX All
##DET_MODE   : MediumLE
#SPECTRUM    :
27,
19,
9,
25,
169,
652,
1819,
4362,
8954,
11098,
7742,
5765,
5712,
6256,
7928,
17485,
54055,
99362,
71979,
23197,
9324,
7042,
6501,
6917,
6976,
6856,
7029,
6874,
6871,
7332,
7424,
7903,
11246,
18228,
21818,
16210,
9737,
7784,
7375,
7321,
7446,
7664,
7796,
8259,
8945,
8883,
9107,
11388,
19239,
30621,
31132,
20119,
12531,
10380,
11238,
20398,
57044,
126551,
164012,
119221,
56066,
27143,
16480,
10629,
8163,
7714,
7366,
7166,
6884,
7002,
7471,
7923,
8704,
9503,
11226,
16292,
34098,
71032,
102238,
99196,
79822,
73368,
62451,
37995,
17292,
8753,
7507,
8774,
10056,
9840,
7868,
6346,
5609,
5399,
5282,
5353,
5504,
5758,
5557,
5675,
5947,
6239,
6535,
6643,
6312,
6103,
5720,
5470,
5319,
5210,
5060,
5148,
5169,
5212,
5210,
5234,
5209,
5094,
5165,
5113,
4832,
4935,
4970,
5101,
5041,
5025,
4928,
4951,
5077,
4855,
5070,
5169,
5239,
5157,
4995,
4958,
4890,
4940,
4886,
4813,
4833,
4818,
4799,
4972,
5106,
5775,
7830,
11897,
16409,
18219,
15743,
11079,
7110,
5332,
4761,
4615,
4580,
4896,
6030,
7693,
9804,
10920,
10373,
8768,
7173,
5959,
5345,
4876,
4699,
4878,
5419,
6060,
6405,
6101,
5286,
4646,
4188,
4050,
4153,
4172,
3977,
4195,
4293,
4507,
4824,
4803,
4458,
4176,
3961,
3837,
3888,
3991,
3998,
4007,
4135,
3985,
3799,
3814,
3699,
3666,
3784,
3534,
3574,
3532,
3495,
3541,
3440,
3515,
3482,
3561,
3545,
3603,
3528,
3710,
3646,
3576,
3435,
3281,
3332,
3257,
3229,
3289,
3294,
3173,
3170,
3259,
3144,
3179,
3180,
3192,
3074,
3076,
3080,
3121,
3043,
3047,
2987,
2986,
3106,
2984,
3006,
2936,
2856,
2930,
2853,
2781,
2779,
2927,
3048,
2908,
3052,
2936,
2814,
2651,
2758,
2651,
2607,
2719,
2562,
2563,
2556,
2672,
2695,
2543,
2575,
2682,
2710,
2842,
3322,
3827,
4194,
4518,
4454,
4029,
3458,
3055,
2610,
2381,
2357,
2460,
2376,
2419,
2544,
2936,
3498,
4562,
5763,
6675,
6703,
5811,
4597,
3503,
2847,
2469,
2271,
2145,
2262,
2102,
2192,
2162,
2130,
2191,
2116,
2255,
2406,
2566,
2602,
2614,
2741,
2726,
2799,
2802,
2690,
2618,
2397,
2439,
2405,
2627,
2734,
2626,
2700,
2654,
2460,
2291,
2200,
1967,
1895,
1742,
1713,
1798,
1813,
1802,
1722,
1717,
1701,
1717,
1645,
1768,
1680,
1644,
1655,
1738,
1683,
1751,
1844,
2192,
2690,
3495,
4700,
6250,
7656,
8296,
8235,
7177,
5425,
3913,
2734,
2025,
1742,
1523,
1580,
1577,
1586,
1544,
1511,
1521,
1432,
1393,
1374,
1434,
1403,
1370,
1433,
1331,
1370,
1284,
1408,
1339,
1371,
1327,
1339,
1292,
1234,
1242,
1198,
1254,
1258,
1251,
1188,
1205,
1168,
1161,
1164,
1119,
1174,
1083,
1063,
1121,
1131,
1088,
1168,
1119,
1112,
1120,
1101,
1191,
1191,
1189,
1182,
1187,
1126,
1165,
1151,
1065,
1207,
1390,
1688,
2166,
2759,
3308,
3550,
3357,
2961,
2411,
1835,
1497,
1249,
1086,
1073,
950,
999,
968,
1007,
964,
938,
895,
904,
851,
860,
765,
729,
775,
707,
720,
748,
720,
748,
687,
747,
679,
720,
663,
690,
713,
657,
660,
653,
667,
658,
665,
623,
619,
622,
632,
615,
662,
621,
580,
609,
601,
549,
570,
559,
568,
531,
551,
562,
551,
545,
598,
566,
473,
513,
543,
464,
497,
551,
546,
557,
643,
687,
654,
673,
695,
601,
555,
489,
498,
474,
453,
426,
426,
452,
484,
455,
460,
473,
441,
449,
431,
394,
418,
374,
362,
360,
365,
339,
385,
355,
315,
329,
351,
345,
286,
327,
314,
318,
300,
340,
303,
310,
280,
316,
321,
248,
281,
306,
249,
243,
284,
274,
267,
254,
253,
251,
250,
243,
278,
250,
271,
219,
226,
239,
214,
252,
207,
227,
200,
222,
189,
185,
199,
185,
205,
188,
195,
182,
185,
178,
167,
185,
153,
169,
169,
162,
169,
166,
163,
163,
162,
164,
167,
146,
140,
148,
146,
147,
130,
146,
129,
138,
124,
125,
144,
132,
102,
126,
117,
99,
126,
105,
110,
109,
105,
105,
94,
97,
111,
87,
86,
79,
91,
76,
89,
72,
84,
80,
80,
66,
79,
75,
61,
62,
53,
52,
72,
59,
53,
58,
51,
61,
55,
55,
61,
44,
40,
54,
30,
38,
45,
34,
40,
41,
36,
30,
23,
34,
33,
34,
25,
25,
30,
24,
27,
18,
13,
13,
19,
12,
15,
10,
7,
12,
5,
13,
4,
6,
4,
6,
3,
5,
0,
3,
1,
2,
5,
7,
0,
1,
3,
2,
4,
2,
4,
4,
0,
0,
2,
3,
1,
4,
2,
2,
6,
1,
4,
2,
5,
1,
1,
0,
2,
0,
5,
3,
2,
2,
2,
2,
0,
3,
2,
1,
3,
0,
2,
1,
4,
1,
1,
4,
2,
0,
2,
1,
6,
1,
7,
2,
1,
0,
2,
2,
0,
1,
1,
2,
0,
2,
1,
1,
3,
0,
3,
2,
2,
3,
0,
1,
1,
2,
0,
0,
2,
0,
0,
0,
0,
1,
1,
2,
1,
0,
2,
1,
0,
2,
0,
1,
0,
1,
3,
1,
2,
1,
1,
1,
2,
2,
2,
0,
1,
1,
2,
1,
0,
1,
1,
1,
0,
3,
1,
0,
2,
1,
0,
2,
1,
0,
4,
1,
0,
2,
0,
0,
0,
1,
1,
2,
0,
0,
0,
1,
0,
5,
2,
0,
0,
0,
1,
1,
2,
0,
2,
1,
0,
0,
3,
1,
1,
1,
0,
0,
0,
0,
0,
1,
1,
1,
1,
1,
0,
1,
1,
0,
1,
2,
0,
0,
2,
0,
1,
2,
0,
1,
1,
1,
0,
2,
0,
0,
0,
0,
0,
0,
1,
0,
1,
0,
0,
0,
1,
3,
1,
0,
0,
0,
0,
0,
0,
0,
0,
1,
1,
1,
0,
1,
0,
1,
0,
1,
1,
0,
0,
0,
0,
0,
0,
0,
0,
1,
1,
0,
0,
1,
0,
0,
0,
1,
0,
0,
0,
0,
0,
0,
0,
1,
0,
0,
0,
0,
0,
1,
0,
0,
0,
0,
2,
0,
1,
0,
0,
1,
0,
0,
0,
0,
0,
1,
0,
0,
0,
0,
0,
0,
0,
0,
1,
0,
1,
0,
0,
0,
0,
0,
0,
0,
0,
0,
0,
0,
0,
0,
0,
0,
1,
0,
0,
1,
0,
0,
0,
0,
0,
0,
0,
0,
0,
1,
0,
1,
0,
0,
0,
0,
0,
0,
1,
0,
1,
0,
0,
0,
0,
0,
0,
0,
0,
0,
0,
0,
0,
0,
0,
0,
0,
0,
0,
0,
0,
0,
0,
0,
0,
0,
0,
0,
0,
0,
0,
0,
1,
0,
0,
0,
0,
0,
0,
0,
0,
0,
0,
0,
0,
0,
0,
0,
0,
0,
0,
1,
0,
0,
0,
0,
0,
0,
1,
0,
0,
0,
0,
0,
0,
0,
0,
0,
0,
0,
0,
0,
0,
0,
0,
0,
0,
0,
0,
0,
0,
0,
0,
1,
0,
0,
0,
0,
0,
0,
0,
0,
0,
0,
0,
0,
0,
0,
0,
0,
0,
0,
0,
0,
0,
0,
0,
0,
0,
0,
0,
0,
0,
0,
0,
0,
0,
0,
0,
0,
0,
0,
0,
0,
0,
0,
0,
0,
0,
0,
0,
0,
0,
0,
0,
0,
0,
0,
0,
0,
0,
0,
0,
0,
0,
0,
0,
0,
0,
0,
0,
0,
0,
0,
0,
0,
0,
0,
0,
0,
0,
0,
0,
0,
0,
0,
0,
0,
0,
0,
0,
0,
0,
0,
0,
0,
0,
0,
0,
0,
0,
0,
0,
0,
0,
0,
0,
0,
0,
0,
0,
0,
0,
0,
0,
0,
0,
0,
0,
0,
0,
0,
0,
0,
0,
0,
0,
0,
0,
0,
0,
0,
0,
0,
0,
0,
0,
0,
0,
0,
0,
0,
0,
0,
0,
0,
0,
0,
0,
0,
0,
0,
0,
0,
0,
0,
0,
0,
0,
0,
0,
0,
0,
0,
0,
0,
0,
0,
0,
0,
0,
0,
0,
0,
0,
0,
0,
0,
0,
0,
0,
0,
0,
0,
0,
0,
0,
0,
0,
0,
0,
0,
0,
0,
0,
0,
0,
0,
0,
0,
0,
0,
0,
0,
0,
0,
0,
0,
0,
0,
0,
0,
0,
0,
0,
0,
0,
0,
0,
0,
0,
0,
0,
0,
0,
0,
0,
0,
0,
0,
0,
0,
0,
0,
0,
0,
0,
0,
0,
0,
0,
0,
0,
0,
0,
0,
0,
0,
0,
0,
0,
0,
0,
0,
0,
0,
0,
0,
0,
0,
0,
0,
0,
0,
0,
0,
0,
0,
0,
0,
0,
0,
0,
0,
0,
0,
0,
0,
0,
0,
0,
0,
0,
0,
0,
0,
0,
0,
0,
0,
0,
0,
0,
0,
0,
0,
0,
#ENDOFDATA   :