File: N132962/Quantification/20 keV/Glass Mount IIIB/GM IIIB K493[1][4].msa
#FORMAT      : EMSA/MAS Spectral Data File
#VERSION     : 1.0
#TITLE       : GM IIIB K493[1][all]
#DATE        : 10-SEP-2025
#TIME        : 15:17
#OWNER       : Unknown
#NPOINTS     : 4096
#NCOLUMNS    : 1
#XUNITS      : eV
#YUNITS      : counts
#DATATYPE    : Y
#XPERCHAN    : 9.99778
#OFFSET      : 1.69135
#BEAMKV      : 20
#SIGNALTYPE  : EDS
#ELEVANGLE   : 35
#AZIMANGLE   : 0
#LIVETIME    : 240.382
#REALTIME    : 267.492
#PROBECUR    : 1.22616
#TAUWIND     : 0
#TDEADLYR    : 0
#TACTLYR     : 0.045
#TALWIND     : 0.025
#CHOFFSET    : 0.0
#XLABEL      : Energy (eV)
#YLABEL      : Counts
#XPOSITION   : 1.59679
#YPOSITION   : 6.97482
#ZPOSITION   : 34.06144
#EDSDET      : SD
##SPECIMEN   : GM IIIB K493[1][all]
##D2STDCMP   : K493,(B:0.04),(O:20.63),(Al:0.11),(Si:13.04),(Ti:0.19),(Fe:0.22),(Zr:0.36),(Ce:0.55),(Ta:0.72),(Pb:64.13)
##DET_HASH   : 12273538-fd48-a23f-0a19-f1e6fa85caef
##CALIB_HASH : 6abaa72c-aa41-8738-0be9-f592914732f3
##WORKING    : 15.0 mm
##DET_NAME   : EDAX All
##DET_MODE   : MediumLE
#SPECTRUM    :
22,
30,
12,
42,
244,
839,
2297,
5178,
10281,
12557,
8909,
6293,
6336,
6453,
7624,
14569,
42339,
74206,
54733,
19200,
9270,
8042,
7739,
8608,
7945,
6553,
6293,
6749,
7209,
7616,
7589,
7454,
7504,
7766,
7810,
8172,
8255,
8436,
8551,
8952,
9096,
9323,
9426,
9839,
10032,
10040,
10312,
10650,
11454,
12402,
12650,
11837,
11527,
11558,
12596,
19957,
53050,
121225,
161024,
119009,
59875,
33558,
22072,
13755,
10170,
9332,
9375,
9777,
9996,
10089,
10178,
11065,
12034,
13015,
15370,
24418,
54911,
116268,
171122,
164062,
131951,
120358,
102295,
60542,
25846,
11413,
8965,
10628,
12696,
12193,
9494,
6841,
5800,
5595,
5714,
5722,
5867,
6208,
6232,
6279,
6509,
7230,
7650,
7645,
7447,
6782,
6155,
5757,
5661,
5454,
5415,
5332,
5443,
5274,
5510,
5499,
5597,
5572,
5500,
5479,
5297,
5376,
5375,
5418,
5425,
5451,
5371,
5299,
5313,
5142,
5189,
5088,
5191,
5296,
5248,
5317,
5330,
5320,
5466,
5335,
5295,
5268,
5204,
5201,
5184,
5188,
5056,
5322,
5605,
6009,
6589,
6281,
5818,
5338,
5257,
5143,
4970,
5156,
5267,
5474,
5567,
5855,
5663,
5532,
5195,
5065,
5044,
4838,
4886,
4851,
4831,
4706,
4634,
4800,
4872,
5188,
4989,
4931,
4761,
4695,
4637,
4545,
4439,
4714,
4572,
4487,
4559,
4571,
4600,
4388,
4462,
4298,
4326,
4344,
4243,
4274,
4245,
4294,
4196,
4303,
4145,
4227,
4172,
4179,
4112,
4064,
4094,
4130,
4092,
4069,
4174,
4506,
4871,
5025,
4809,
4602,
4310,
3954,
3852,
3768,
3724,
3836,
3731,
3733,
3838,
3751,
3745,
3629,
3723,
3580,
3568,
3516,
3626,
3712,
3741,
3628,
3617,
3604,
3558,
3387,
3596,
3500,
3532,
3550,
3368,
3403,
3424,
3518,
3646,
3584,
3430,
3410,
3307,
3270,
3306,
3126,
3230,
3198,
3137,
3161,
3145,
3117,
3106,
3098,
3046,
3191,
3059,
3059,
3168,
3158,
3251,
3363,
3266,
3246,
3092,
2923,
2974,
2933,
2864,
2785,
2808,
2772,
2766,
2672,
2716,
2752,
2726,
2727,
2741,
2722,
2568,
2639,
2723,
2608,
2597,
2596,
2540,
2562,
2582,
2599,
2540,
2428,
2685,
2784,
2944,
3074,
3235,
3137,
2859,
2778,
2676,
2657,
2491,
2449,
2409,
2361,
2367,
2359,
2309,
2314,
2307,
2286,
2284,
2307,
2256,
2197,
2126,
2152,
2203,
2125,
2141,
2125,
2178,
2045,
2142,
2119,
2021,
2150,
2043,
2084,
2028,
2110,
1979,
2231,
2435,
2878,
3664,
4925,
7006,
9521,
11810,
13191,
12750,
10944,
8173,
5561,
3778,
2658,
2121,
1945,
1836,
1934,
1800,
1722,
1720,
1725,
1769,
1805,
1665,
1721,
1667,
1650,
1647,
1602,
1737,
1601,
1603,
1708,
1658,
1577,
1637,
1584,
1566,
1456,
1514,
1469,
1485,
1455,
1520,
1378,
1380,
1480,
1395,
1447,
1450,
1362,
1337,
1352,
1372,
1351,
1391,
1309,
1359,
1471,
1439,
1455,
1503,
1456,
1408,
1428,
1443,
1352,
1373,
1434,
1545,
1820,
2436,
3152,
4011,
4967,
5331,
5025,
4466,
3571,
2668,
2059,
1695,
1471,
1332,
1276,
1263,
1286,
1244,
1220,
1226,
1217,
1144,
1050,
946,
980,
987,
880,
987,
934,
890,
880,
889,
889,
848,
834,
858,
823,
795,
821,
875,
805,
809,
822,
862,
784,
800,
795,
760,
746,
725,
717,
766,
750,
683,
715,
703,
702,
725,
690,
669,
679,
690,
688,
679,
689,
696,
660,
607,
638,
623,
621,
670,
688,
757,
822,
849,
930,
915,
920,
787,
707,
678,
600,
607,
606,
572,
544,
577,
546,
609,
594,
625,
549,
547,
557,
466,
501,
450,
454,
459,
436,
445,
431,
445,
427,
454,
390,
417,
411,
416,
413,
387,
369,
448,
396,
379,
382,
364,
343,
356,
370,
348,
344,
345,
321,
349,
330,
342,
337,
298,
327,
275,
305,
294,
283,
312,
305,
309,
298,
237,
276,
279,
270,
295,
262,
238,
286,
289,
255,
238,
263,
262,
246,
225,
218,
224,
230,
237,
201,
218,
176,
203,
195,
209,
215,
199,
176,
175,
180,
193,
174,
186,
181,
158,
145,
155,
155,
171,
164,
161,
175,
148,
134,
143,
128,
144,
145,
135,
125,
154,
131,
124,
135,
113,
130,
120,
115,
115,
90,
119,
106,
100,
113,
92,
84,
95,
108,
91,
95,
85,
88,
80,
70,
70,
80,
68,
75,
67,
68,
64,
67,
58,
60,
52,
55,
42,
42,
62,
43,
51,
35,
49,
38,
37,
27,
40,
22,
33,
29,
20,
22,
20,
28,
26,
15,
19,
16,
12,
15,
11,
5,
7,
5,
5,
3,
6,
3,
8,
3,
7,
2,
6,
6,
5,
5,
4,
4,
4,
7,
8,
7,
2,
5,
7,
2,
3,
1,
3,
3,
5,
3,
8,
4,
1,
5,
8,
1,
3,
4,
1,
5,
1,
4,
4,
2,
2,
1,
1,
1,
5,
2,
2,
3,
2,
6,
2,
1,
4,
2,
2,
0,
3,
4,
1,
2,
5,
6,
2,
4,
2,
2,
3,
4,
2,
1,
2,
1,
1,
1,
1,
0,
2,
2,
2,
1,
2,
0,
1,
2,
1,
4,
2,
2,
2,
3,
0,
1,
0,
3,
1,
3,
2,
2,
1,
4,
0,
2,
2,
3,
3,
1,
3,
0,
0,
3,
0,
1,
1,
0,
2,
0,
0,
2,
2,
3,
1,
0,
1,
3,
0,
4,
2,
1,
0,
2,
0,
0,
0,
2,
1,
3,
3,
4,
1,
0,
1,
1,
1,
1,
1,
0,
1,
3,
0,
0,
2,
0,
1,
2,
0,
1,
1,
0,
0,
1,
0,
2,
2,
0,
2,
1,
1,
0,
0,
1,
0,
1,
3,
0,
1,
3,
0,
2,
1,
0,
1,
0,
2,
1,
2,
0,
0,
1,
0,
0,
2,
1,
0,
0,
0,
0,
0,
1,
0,
0,
1,
2,
0,
1,
0,
0,
2,
0,
1,
0,
0,
0,
2,
2,
0,
0,
3,
0,
0,
0,
0,
0,
0,
0,
0,
0,
0,
0,
1,
0,
0,
0,
1,
1,
0,
0,
0,
0,
1,
0,
0,
0,
1,
0,
1,
0,
0,
2,
0,
4,
0,
0,
1,
0,
0,
1,
1,
0,
1,
1,
1,
0,
0,
0,
1,
1,
0,
0,
0,
0,
0,
0,
0,
0,
0,
0,
0,
0,
0,
0,
0,
0,
0,
0,
0,
0,
1,
0,
0,
0,
0,
1,
0,
1,
0,
0,
0,
1,
0,
0,
0,
0,
0,
0,
0,
0,
0,
0,
1,
0,
1,
0,
0,
0,
0,
0,
0,
0,
0,
0,
0,
1,
0,
0,
0,
0,
0,
0,
0,
0,
0,
0,
0,
0,
0,
1,
0,
0,
0,
0,
0,
0,
0,
0,
0,
0,
0,
0,
1,
0,
0,
0,
0,
0,
1,
1,
0,
0,
0,
0,
0,
0,
0,
0,
0,
0,
0,
0,
0,
0,
0,
0,
0,
0,
0,
0,
0,
0,
0,
0,
0,
0,
0,
0,
0,
1,
0,
0,
0,
0,
0,
0,
0,
0,
0,
0,
0,
0,
0,
0,
1,
1,
0,
0,
0,
0,
0,
0,
0,
0,
0,
0,
0,
0,
1,
0,
0,
1,
0,
0,
0,
0,
0,
0,
0,
0,
0,
0,
0,
0,
0,
0,
0,
0,
0,
0,
0,
0,
0,
0,
0,
0,
0,
0,
0,
0,
0,
0,
0,
0,
0,
0,
0,
0,
0,
0,
0,
0,
0,
0,
0,
0,
0,
0,
0,
0,
0,
0,
0,
0,
0,
0,
0,
0,
0,
0,
0,
0,
0,
0,
0,
0,
0,
0,
0,
0,
0,
0,
0,
0,
0,
0,
0,
0,
0,
0,
0,
0,
0,
0,
0,
0,
0,
0,
0,
0,
0,
0,
0,
0,
0,
0,
0,
0,
0,
0,
0,
0,
0,
0,
0,
0,
0,
0,
0,
0,
0,
0,
0,
0,
0,
0,
0,
0,
0,
0,
0,
0,
0,
0,
0,
0,
0,
0,
0,
0,
0,
0,
0,
0,
0,
0,
0,
0,
0,
0,
0,
0,
0,
0,
0,
0,
0,
0,
0,
0,
0,
0,
0,
0,
0,
0,
0,
0,
0,
0,
0,
0,
0,
0,
0,
0,
0,
0,
0,
0,
0,
0,
0,
0,
0,
0,
0,
0,
0,
0,
0,
0,
0,
0,
0,
0,
0,
0,
0,
0,
0,
0,
0,
0,
0,
0,
0,
0,
0,
0,
0,
0,
0,
0,
0,
0,
0,
0,
0,
0,
0,
0,
0,
0,
0,
0,
0,
0,
0,
0,
0,
0,
0,
0,
0,
0,
0,
0,
0,
0,
0,
0,
0,
0,
0,
0,
0,
0,
0,
0,
0,
0,
0,
0,
0,
0,
0,
0,
0,
0,
0,
0,
0,
0,
0,
0,
0,
0,
0,
0,
0,
0,
0,
0,
0,
0,
0,
0,
0,
0,
0,
0,
0,
0,
0,
0,
0,
0,
0,
0,
#ENDOFDATA   :