File: N132962/Quantification/20 keV/Glass Mount IIIB/GM IIIB K1234[3][4].msa
#FORMAT      : EMSA/MAS Spectral Data File
#VERSION     : 1.0
#TITLE       : GM IIIB K1234[3][all]
#DATE        : 10-SEP-2025
#TIME        : 17:57
#OWNER       : Unknown
#NPOINTS     : 4096
#NCOLUMNS    : 1
#XUNITS      : eV
#YUNITS      : counts
#DATATYPE    : Y
#XPERCHAN    : 9.99778
#OFFSET      : 1.69135
#BEAMKV      : 20
#SIGNALTYPE  : EDS
#ELEVANGLE   : 35
#AZIMANGLE   : 0
#LIVETIME    : 240.152
#REALTIME    : 259.695
#PROBECUR    : 1.22375
#TAUWIND     : 0
#TDEADLYR    : 0
#TACTLYR     : 0.045
#TALWIND     : 0.025
#CHOFFSET    : 0.0
#XLABEL      : Energy (eV)
#YLABEL      : Counts
#XPOSITION   : 0.57586
#YPOSITION   : 15.81392
#ZPOSITION   : 34.06144
#EDSDET      : SD
##SPECIMEN   : GM IIIB K1234[3][all]
##D2STDCMP   : K1234,(O:39.85),(Al:9.15),(Si:21.56),(Ca:12.36),(Ba:15.49),(W:1.59)
##DET_HASH   : 12273538-fd48-a23f-0a19-f1e6fa85caef
##CALIB_HASH : 6abaa72c-aa41-8738-0be9-f592914732f3
##WORKING    : 15.0 mm
##DET_NAME   : EDAX All
##DET_MODE   : MediumLE
#SPECTRUM    :
14,
30,
5,
17,
93,
353,
1003,
2432,
5819,
8753,
7479,
5311,
4405,
4549,
6948,
21886,
80656,
154162,
111790,
30758,
6513,
3716,
3448,
3509,
3652,
4441,
5035,
4840,
4220,
3851,
3937,
4239,
4936,
5126,
5428,
5481,
4937,
4697,
4623,
4857,
4856,
5086,
5411,
5576,
5864,
6248,
7493,
14652,
41811,
81276,
82021,
44017,
16666,
8550,
7808,
16445,
59384,
150007,
205476,
147399,
63526,
24938,
12773,
7040,
4992,
4656,
4513,
4283,
4127,
3993,
3884,
3949,
3848,
4095,
4189,
4355,
4595,
4356,
4156,
3977,
3865,
3780,
3868,
3829,
3898,
3942,
3963,
3889,
4048,
4017,
4045,
3881,
3943,
3821,
3867,
3771,
3636,
3852,
3691,
3808,
3797,
3713,
3700,
3739,
3636,
3728,
3738,
3873,
3721,
3764,
3617,
3511,
3404,
3465,
3691,
3741,
3901,
4120,
4416,
6555,
13461,
31497,
57198,
71863,
60139,
34956,
14801,
5960,
3831,
3735,
4381,
5949,
8530,
11326,
11738,
9570,
6282,
4195,
3116,
2855,
2753,
2986,
2897,
3116,
3444,
4756,
8378,
14713,
23196,
25606,
21441,
13016,
6878,
3805,
2802,
2707,
2762,
3345,
4865,
7758,
11465,
13273,
12452,
9747,
6917,
5261,
4080,
3286,
2986,
3335,
4495,
5653,
6153,
5481,
4311,
3175,
2471,
2254,
2148,
2245,
2347,
2420,
2817,
3248,
3541,
3648,
3089,
2444,
2192,
2021,
1984,
2249,
2408,
2528,
2412,
2307,
2096,
2026,
1996,
1906,
1882,
1781,
1809,
1718,
1817,
1735,
1749,
1745,
1734,
1743,
1655,
1741,
1841,
1841,
1802,
1807,
1661,
1629,
1596,
1571,
1593,
1605,
1543,
1593,
1553,
1567,
1486,
1500,
1500,
1546,
1514,
1430,
1524,
1476,
1387,
1411,
1435,
1377,
1416,
1429,
1374,
1429,
1339,
1388,
1383,
1472,
1446,
1479,
1434,
1423,
1349,
1391,
1379,
1303,
1298,
1259,
1303,
1252,
1200,
1242,
1184,
1279,
1187,
1191,
1240,
1249,
1155,
1164,
1179,
1197,
1176,
1202,
1197,
1195,
1178,
1268,
1257,
1423,
1624,
1816,
1727,
1564,
1450,
1234,
1081,
1116,
1083,
1044,
1055,
1047,
1013,
1072,
1032,
988,
1023,
953,
984,
984,
983,
992,
907,
967,
945,
880,
969,
855,
944,
879,
879,
905,
889,
889,
918,
906,
924,
904,
851,
943,
901,
892,
1021,
978,
1073,
1044,
1052,
967,
899,
910,
823,
943,
891,
888,
902,
870,
846,
799,
780,
709,
774,
715,
699,
722,
695,
674,
704,
741,
672,
671,
706,
666,
670,
655,
663,
690,
661,
655,
620,
663,
590,
620,
612,
597,
636,
593,
623,
642,
666,
587,
584,
579,
583,
530,
602,
606,
585,
577,
626,
598,
523,
472,
508,
528,
481,
516,
498,
524,
506,
501,
500,
500,
452,
554,
496,
509,
494,
489,
488,
449,
452,
421,
474,
432,
457,
431,
428,
423,
423,
438,
417,
416,
405,
360,
395,
410,
351,
423,
369,
408,
412,
386,
392,
375,
390,
398,
372,
393,
356,
369,
337,
346,
372,
326,
373,
350,
339,
333,
334,
309,
310,
300,
318,
309,
293,
273,
315,
261,
296,
278,
316,
279,
284,
282,
274,
268,
262,
261,
282,
266,
249,
260,
268,
277,
253,
255,
247,
248,
236,
243,
205,
224,
204,
197,
226,
234,
235,
228,
227,
211,
212,
216,
181,
203,
184,
171,
191,
214,
175,
201,
173,
205,
167,
172,
181,
137,
180,
173,
194,
175,
162,
161,
176,
155,
150,
151,
148,
173,
143,
149,
148,
147,
143,
154,
142,
147,
124,
147,
130,
134,
134,
125,
118,
138,
133,
129,
109,
142,
138,
126,
111,
122,
106,
121,
83,
109,
108,
98,
116,
77,
108,
110,
108,
116,
89,
79,
98,
83,
83,
88,
109,
85,
97,
90,
74,
74,
78,
76,
66,
65,
95,
78,
70,
66,
97,
64,
65,
67,
59,
51,
57,
67,
68,
59,
52,
63,
53,
52,
61,
50,
50,
49,
56,
60,
50,
46,
64,
48,
49,
49,
51,
51,
40,
35,
37,
40,
39,
38,
33,
42,
54,
52,
39,
37,
32,
42,
23,
33,
31,
33,
38,
21,
29,
32,
31,
26,
33,
30,
26,
19,
27,
23,
23,
21,
26,
10,
16,
25,
16,
16,
15,
14,
21,
17,
18,
11,
9,
11,
14,
15,
20,
16,
6,
17,
12,
14,
8,
11,
11,
13,
6,
7,
5,
8,
3,
6,
5,
10,
4,
3,
6,
6,
2,
5,
4,
3,
1,
3,
1,
2,
1,
1,
0,
0,
2,
1,
0,
0,
2,
0,
0,
2,
0,
1,
1,
0,
1,
1,
0,
0,
0,
1,
2,
1,
0,
0,
0,
0,
2,
0,
0,
1,
1,
0,
0,
0,
1,
0,
0,
1,
0,
0,
0,
0,
0,
0,
0,
0,
2,
0,
0,
0,
0,
0,
3,
2,
0,
0,
0,
0,
0,
0,
0,
0,
2,
1,
0,
1,
0,
0,
1,
0,
0,
0,
0,
1,
0,
0,
0,
0,
0,
0,
0,
0,
0,
0,
0,
0,
1,
0,
0,
0,
1,
0,
0,
1,
0,
0,
0,
0,
0,
0,
0,
0,
0,
0,
0,
0,
0,
0,
0,
0,
1,
0,
0,
0,
0,
0,
0,
0,
0,
0,
0,
0,
0,
0,
0,
0,
0,
0,
0,
0,
0,
0,
0,
0,
0,
0,
0,
0,
0,
0,
1,
0,
0,
1,
0,
1,
0,
0,
0,
0,
0,
0,
0,
0,
0,
0,
1,
0,
0,
0,
0,
0,
0,
0,
0,
0,
0,
0,
0,
0,
0,
0,
0,
0,
0,
0,
0,
0,
0,
0,
0,
0,
0,
0,
0,
0,
0,
0,
0,
0,
0,
0,
0,
0,
0,
0,
0,
0,
1,
0,
0,
0,
0,
0,
0,
0,
0,
0,
0,
0,
0,
0,
0,
0,
0,
0,
0,
0,
0,
0,
0,
0,
0,
0,
1,
0,
0,
0,
0,
0,
0,
0,
0,
0,
0,
0,
1,
0,
0,
0,
0,
0,
0,
0,
0,
0,
0,
0,
0,
0,
0,
0,
0,
0,
0,
0,
0,
0,
0,
0,
0,
0,
0,
0,
0,
0,
0,
0,
0,
0,
0,
0,
0,
0,
0,
0,
0,
0,
0,
0,
0,
0,
0,
0,
0,
0,
0,
0,
0,
0,
0,
0,
0,
0,
0,
0,
0,
0,
0,
0,
0,
0,
0,
0,
0,
0,
0,
0,
0,
0,
0,
0,
0,
0,
0,
0,
0,
0,
0,
0,
0,
0,
0,
0,
0,
0,
0,
0,
0,
1,
0,
0,
0,
0,
0,
0,
0,
0,
0,
0,
0,
0,
0,
0,
0,
0,
0,
0,
0,
0,
0,
0,
0,
0,
0,
0,
0,
0,
0,
0,
0,
0,
0,
0,
0,
0,
0,
0,
0,
0,
0,
0,
0,
0,
0,
0,
0,
0,
0,
0,
0,
0,
0,
0,
0,
0,
0,
0,
0,
0,
0,
0,
0,
0,
0,
0,
0,
0,
0,
0,
0,
0,
0,
0,
0,
0,
0,
0,
0,
0,
0,
0,
0,
0,
0,
0,
0,
0,
0,
0,
0,
0,
0,
0,
0,
0,
0,
0,
0,
0,
0,
0,
0,
0,
0,
0,
0,
0,
0,
0,
0,
0,
0,
0,
0,
0,
0,
0,
0,
0,
0,
0,
0,
0,
0,
0,
0,
0,
0,
0,
0,
0,
0,
0,
0,
0,
0,
0,
0,
0,
0,
0,
0,
0,
0,
0,
0,
0,
0,
0,
0,
0,
0,
0,
0,
0,
0,
0,
0,
0,
0,
0,
0,
0,
0,
0,
0,
0,
0,
0,
0,
0,
0,
0,
0,
0,
0,
0,
0,
0,
0,
0,
0,
0,
0,
0,
0,
0,
0,
0,
0,
0,
0,
0,
0,
0,
0,
0,
0,
0,
0,
0,
0,
0,
0,
0,
0,
0,
0,
0,
0,
0,
0,
0,
0,
0,
0,
0,
0,
0,
0,
0,
0,
0,
0,
0,
0,
0,
0,
0,
0,
0,
0,
0,
0,
0,
0,
0,
0,
0,
0,
0,
0,
0,
0,
0,
0,
0,
0,
0,
0,
0,
0,
0,
0,
0,
0,
0,
0,
0,
0,
0,
0,
0,
0,
0,
0,
0,
0,
0,
0,
0,
0,
0,
0,
0,
0,
0,
0,
0,
0,
0,
0,
0,
0,
0,
0,
0,
0,
0,
0,
0,
0,
0,
0,
0,
0,
0,
0,
0,
0,
0,
0,
0,
0,
0,
0,
0,
0,
0,
0,
0,
0,
0,
0,
0,
0,
0,
0,
0,
0,
0,
0,
0,
0,
0,
0,
0,
0,
0,
0,
0,
0,
0,
0,
0,
0,
0,
0,
0,
0,
0,
0,
0,
0,
0,
0,
0,
0,
0,
0,
0,
0,
0,
0,
0,
0,
0,
0,
0,
0,
0,
0,
0,
0,
0,
#ENDOFDATA   :