File: N132962/Quantification/20 keV/Glass Mount IIIB/GM IIIB K1132[1][4].msa
#FORMAT      : EMSA/MAS Spectral Data File
#VERSION     : 1.0
#TITLE       : GM IIIB K1132[1][all]
#DATE        : 10-SEP-2025
#TIME        : 17:31
#OWNER       : Unknown
#NPOINTS     : 4096
#NCOLUMNS    : 1
#XUNITS      : eV
#YUNITS      : counts
#DATATYPE    : Y
#XPERCHAN    : 9.99778
#OFFSET      : 1.69135
#BEAMKV      : 20
#SIGNALTYPE  : EDS
#ELEVANGLE   : 35
#AZIMANGLE   : 0
#LIVETIME    : 240.138
#REALTIME    : 258.7903
#PROBECUR    : 1.22427
#TAUWIND     : 0
#TDEADLYR    : 0
#TACTLYR     : 0.045
#TALWIND     : 0.025
#CHOFFSET    : 0.0
#XLABEL      : Energy (eV)
#YLABEL      : Counts
#XPOSITION   : 7.08303
#YPOSITION   : 16.32423
#ZPOSITION   : 34.06144
#EDSDET      : SD
##SPECIMEN   : GM IIIB K1132[1][all]
##D2STDCMP   : K1132,(Li:2.32),(O:41.34),(Al:7.94),(Si:21.39),(Ca:10.72),(Cr:0.51),(Ni:1.18),(Mo:1.67),(Ba:13.43)
##DET_HASH   : 12273538-fd48-a23f-0a19-f1e6fa85caef
##CALIB_HASH : 6abaa72c-aa41-8738-0be9-f592914732f3
##WORKING    : 15.0 mm
##DET_NAME   : EDAX All
##DET_MODE   : MediumLE
#SPECTRUM    :
12,
27,
17,
20,
95,
386,
998,
2329,
5267,
7874,
6803,
4873,
4388,
4529,
7258,
23052,
86160,
163630,
119151,
32933,
6450,
3518,
3170,
3418,
3587,
4409,
5222,
5444,
6112,
5689,
4503,
4089,
4552,
4798,
5119,
5150,
4763,
4624,
4442,
4615,
4748,
5016,
5060,
5302,
5390,
5662,
6925,
13369,
36305,
70386,
71850,
38819,
15196,
7955,
7478,
16211,
57989,
146924,
200291,
141009,
57817,
20848,
10347,
6028,
4756,
4392,
4301,
4226,
3900,
3827,
3886,
3834,
4028,
4138,
5173,
6990,
8679,
8614,
7187,
6116,
5901,
5413,
4718,
4368,
4170,
3936,
3755,
3823,
3762,
3738,
3633,
3823,
3724,
3671,
3559,
3688,
3501,
3562,
3621,
3474,
3524,
3521,
3561,
3476,
3470,
3598,
3478,
3508,
3464,
3531,
3479,
3292,
3220,
3332,
3246,
3428,
3575,
3778,
4183,
5692,
11800,
26787,
48956,
61697,
51840,
29663,
12766,
5616,
3644,
3390,
3986,
5360,
7468,
9647,
10289,
8453,
5611,
3845,
2815,
2716,
2717,
2692,
2784,
2885,
3255,
4227,
7353,
13177,
20028,
22262,
18184,
11586,
6114,
3421,
2665,
2475,
2572,
2905,
4208,
6896,
10109,
11815,
11055,
8627,
6263,
4681,
3651,
2963,
2856,
3045,
4032,
4906,
5432,
4852,
3784,
2826,
2407,
2300,
2560,
3144,
3523,
3707,
3530,
3526,
3333,
3288,
2720,
2307,
2038,
1900,
1954,
2076,
2175,
2310,
2335,
2117,
2033,
2028,
1969,
1880,
1768,
1810,
1661,
1696,
1706,
1654,
1633,
1606,
1593,
1587,
1533,
1644,
1702,
1665,
1678,
1614,
1568,
1497,
1526,
1537,
1514,
1422,
1463,
1440,
1486,
1440,
1394,
1388,
1379,
1340,
1387,
1382,
1406,
1350,
1368,
1272,
1329,
1333,
1401,
1333,
1302,
1278,
1267,
1315,
1301,
1496,
1939,
2351,
2845,
3062,
2812,
2275,
1775,
1455,
1242,
1214,
1201,
1196,
1153,
1166,
1092,
1091,
1075,
1110,
1100,
1053,
1177,
1082,
1078,
1141,
1050,
1071,
1151,
1192,
1242,
1298,
1216,
1189,
1128,
1081,
954,
1040,
915,
959,
952,
941,
912,
926,
938,
973,
911,
881,
948,
880,
913,
870,
946,
893,
899,
873,
886,
874,
870,
840,
873,
849,
832,
810,
828,
813,
804,
798,
782,
836,
771,
776,
792,
767,
781,
786,
782,
730,
721,
710,
735,
743,
735,
720,
724,
691,
697,
681,
651,
705,
698,
682,
705,
685,
685,
688,
614,
599,
649,
611,
668,
607,
641,
632,
640,
630,
578,
571,
575,
575,
581,
581,
555,
580,
562,
538,
592,
615,
549,
561,
560,
541,
553,
563,
507,
553,
535,
496,
530,
553,
552,
545,
492,
508,
496,
512,
543,
490,
472,
472,
508,
456,
470,
475,
466,
447,
439,
454,
385,
440,
425,
436,
422,
455,
415,
395,
406,
395,
368,
390,
370,
368,
368,
400,
391,
374,
363,
352,
396,
358,
358,
345,
328,
307,
328,
358,
331,
358,
339,
337,
309,
373,
334,
333,
321,
276,
317,
311,
309,
304,
301,
281,
308,
310,
248,
290,
291,
285,
268,
279,
231,
253,
264,
304,
255,
253,
255,
262,
269,
237,
252,
218,
253,
223,
245,
214,
236,
234,
240,
237,
204,
216,
217,
232,
199,
233,
232,
193,
207,
190,
189,
171,
206,
175,
203,
191,
177,
167,
178,
206,
158,
170,
154,
159,
168,
184,
154,
172,
155,
165,
154,
140,
166,
160,
129,
144,
125,
156,
140,
139,
149,
145,
150,
131,
132,
130,
126,
138,
128,
120,
124,
123,
123,
133,
112,
111,
123,
107,
108,
100,
104,
105,
100,
108,
104,
109,
129,
112,
72,
91,
74,
97,
86,
98,
80,
74,
80,
87,
89,
67,
83,
72,
59,
61,
87,
82,
93,
60,
85,
63,
75,
61,
82,
61,
67,
52,
57,
60,
61,
66,
63,
60,
56,
63,
59,
51,
54,
56,
49,
49,
59,
44,
58,
40,
37,
62,
48,
41,
36,
41,
37,
50,
39,
33,
40,
45,
39,
43,
39,
52,
33,
39,
36,
33,
37,
27,
26,
34,
31,
34,
21,
30,
29,
35,
32,
23,
36,
17,
24,
24,
25,
21,
16,
21,
16,
18,
17,
24,
18,
19,
25,
13,
19,
18,
15,
23,
19,
13,
12,
10,
9,
9,
17,
10,
16,
6,
7,
7,
8,
9,
15,
7,
5,
4,
8,
8,
8,
5,
5,
8,
4,
4,
2,
4,
3,
7,
2,
6,
2,
2,
0,
2,
3,
1,
1,
0,
1,
1,
1,
0,
0,
0,
0,
1,
0,
1,
1,
1,
0,
1,
0,
0,
1,
0,
0,
2,
0,
1,
1,
0,
0,
0,
0,
0,
0,
0,
0,
0,
0,
0,
0,
0,
1,
0,
0,
2,
0,
1,
0,
0,
0,
0,
0,
0,
0,
0,
0,
1,
0,
1,
0,
1,
2,
1,
1,
1,
0,
0,
1,
1,
1,
1,
0,
1,
0,
0,
1,
0,
0,
0,
0,
0,
0,
0,
0,
0,
0,
0,
0,
0,
0,
0,
0,
0,
0,
0,
0,
0,
0,
0,
0,
0,
0,
0,
0,
0,
0,
0,
0,
1,
0,
0,
0,
0,
0,
0,
0,
1,
0,
0,
0,
0,
0,
0,
0,
0,
0,
0,
0,
0,
0,
0,
0,
0,
0,
1,
0,
0,
0,
0,
0,
0,
0,
0,
0,
0,
0,
0,
1,
0,
1,
0,
0,
0,
0,
0,
0,
0,
0,
0,
0,
0,
0,
0,
0,
0,
1,
0,
0,
0,
0,
0,
0,
0,
0,
0,
0,
0,
0,
0,
0,
0,
1,
0,
1,
0,
0,
0,
1,
0,
0,
0,
0,
0,
0,
0,
0,
0,
0,
0,
0,
0,
0,
1,
0,
0,
0,
0,
0,
0,
0,
0,
0,
0,
1,
0,
0,
0,
0,
0,
0,
0,
0,
0,
0,
0,
0,
0,
1,
0,
0,
0,
0,
0,
0,
0,
0,
0,
0,
0,
0,
0,
0,
0,
0,
0,
0,
0,
1,
0,
0,
0,
0,
0,
0,
0,
0,
0,
0,
0,
0,
0,
0,
0,
0,
0,
0,
0,
0,
0,
0,
0,
1,
0,
0,
0,
0,
0,
0,
0,
0,
0,
0,
0,
0,
0,
0,
0,
0,
0,
0,
0,
0,
0,
0,
0,
0,
0,
0,
0,
0,
0,
0,
0,
0,
0,
0,
0,
0,
0,
0,
0,
0,
0,
0,
0,
0,
0,
0,
0,
0,
0,
0,
0,
0,
0,
0,
0,
0,
0,
0,
0,
0,
0,
0,
0,
0,
0,
0,
0,
0,
0,
0,
0,
0,
0,
0,
0,
0,
0,
0,
0,
0,
0,
0,
0,
0,
0,
0,
0,
0,
0,
0,
0,
0,
0,
0,
0,
0,
0,
0,
0,
0,
0,
0,
0,
0,
0,
0,
0,
0,
0,
0,
0,
0,
0,
0,
0,
0,
0,
0,
0,
0,
0,
0,
0,
0,
0,
0,
0,
0,
0,
0,
0,
0,
0,
0,
0,
0,
0,
0,
0,
0,
0,
0,
0,
0,
0,
0,
0,
0,
0,
0,
0,
0,
0,
0,
0,
0,
0,
0,
0,
0,
0,
0,
0,
0,
0,
0,
0,
0,
0,
0,
0,
0,
0,
0,
0,
0,
0,
0,
0,
0,
0,
0,
0,
0,
0,
0,
0,
0,
0,
0,
0,
0,
0,
0,
0,
0,
0,
0,
0,
0,
0,
0,
0,
0,
0,
0,
0,
0,
0,
0,
0,
0,
0,
0,
0,
0,
0,
0,
0,
0,
0,
0,
0,
0,
0,
0,
0,
0,
0,
0,
0,
0,
0,
0,
0,
0,
0,
0,
0,
0,
0,
0,
0,
0,
0,
0,
0,
0,
0,
0,
0,
0,
0,
0,
0,
0,
0,
0,
0,
0,
0,
0,
0,
0,
0,
0,
0,
0,
0,
0,
0,
0,
0,
0,
0,
0,
0,
0,
0,
0,
0,
0,
0,
0,
0,
0,
0,
0,
0,
0,
0,
0,
0,
0,
0,
0,
0,
0,
0,
0,
0,
0,
0,
0,
0,
0,
0,
0,
0,
0,
0,
0,
0,
0,
0,
0,
0,
0,
0,
0,
0,
0,
0,
0,
0,
0,
0,
0,
0,
0,
0,
0,
0,
0,
0,
0,
0,
0,
0,
0,
0,
0,
0,
0,
0,
0,
0,
0,
0,
0,
0,
0,
0,
0,
0,
0,
0,
0,
0,
0,
0,
0,
0,
0,
0,
0,
0,
0,
0,
0,
0,
0,
0,
0,
0,
0,
0,
0,
0,
0,
0,
0,
0,
0,
0,
0,
0,
0,
0,
0,
0,
0,
0,
0,
0,
0,
0,
0,
0,
0,
0,
0,
0,
0,
0,
0,
0,
0,
0,
0,
0,
0,
0,
0,
0,
0,
0,
0,
0,
0,
0,
0,
0,
0,
0,
0,
0,
0,
0,
#ENDOFDATA   :