File: N132962/Quantification/20 keV/Glass Mount IIIB/GM IIIB K873[1][4].msa
#FORMAT      : EMSA/MAS Spectral Data File
#VERSION     : 1.0
#TITLE       : GM IIIB K873[1][all]
#DATE        : 10-SEP-2025
#TIME        : 15:28
#OWNER       : Unknown
#NPOINTS     : 4096
#NCOLUMNS    : 1
#XUNITS      : eV
#YUNITS      : counts
#DATATYPE    : Y
#XPERCHAN    : 9.99778
#OFFSET      : 1.69135
#BEAMKV      : 20
#SIGNALTYPE  : EDS
#ELEVANGLE   : 35
#AZIMANGLE   : 0
#LIVETIME    : 240.189
#REALTIME    : 262.497
#PROBECUR    : 1.22616
#TAUWIND     : 0
#TDEADLYR    : 0
#TACTLYR     : 0.045
#TALWIND     : 0.025
#CHOFFSET    : 0.0
#XLABEL      : Energy (eV)
#YLABEL      : Counts
#XPOSITION   : -2.46939
#YPOSITION   : 9.58993
#ZPOSITION   : 34.06144
#EDSDET      : SD
##SPECIMEN   : GM IIIB K873[1][all]
##D2STDCMP   : K873,(O:25.46),(Al:0.26),(Si:11.45),(Mn:0.32),(Ge:17.0),(Ba:21.94),(Ce:0.41),(Ta:0.41),(Pb:22.74)
##DET_HASH   : 12273538-fd48-a23f-0a19-f1e6fa85caef
##CALIB_HASH : 6abaa72c-aa41-8738-0be9-f592914732f3
##WORKING    : 15.0 mm
##DET_NAME   : EDAX All
##DET_MODE   : MediumLE
#SPECTRUM    :
23,
22,
10,
30,
143,
643,
1705,
3766,
7670,
9785,
7031,
5531,
6213,
6731,
8828,
20616,
66145,
121572,
89769,
28925,
11438,
8009,
6956,
6816,
7171,
7916,
8571,
7717,
6640,
6271,
6151,
6689,
7589,
8882,
10368,
10683,
10015,
12072,
27639,
58374,
71341,
48530,
21739,
9908,
7115,
6492,
6249,
6602,
7403,
8467,
8676,
7917,
7083,
7159,
8007,
12654,
34584,
78368,
104406,
75865,
35774,
17679,
11734,
7958,
6508,
6145,
6166,
6057,
6118,
6137,
6282,
6857,
7204,
7653,
8449,
10959,
20340,
38793,
55276,
53259,
43435,
39558,
34523,
22530,
11673,
7431,
6752,
7649,
8433,
8381,
7367,
6216,
5675,
5490,
5497,
5405,
5698,
5808,
5714,
5790,
5700,
6063,
6188,
6209,
6025,
5893,
5572,
5430,
5502,
5420,
5045,
4999,
5270,
5197,
5176,
5139,
5199,
5142,
5197,
5122,
5119,
4937,
5026,
5169,
5067,
4955,
5070,
4736,
4810,
5051,
5579,
5942,
6052,
5838,
5364,
4978,
4933,
4917,
4618,
4602,
4880,
4827,
4976,
5128,
5750,
7777,
13393,
23688,
35524,
40218,
32949,
20749,
11216,
6348,
4965,
4827,
4744,
5715,
8194,
13018,
18692,
22110,
20401,
16024,
11524,
8749,
6864,
5720,
5135,
5726,
7227,
9048,
9981,
8858,
7292,
5611,
4658,
4125,
3911,
3833,
3972,
4204,
4605,
5317,
5986,
5911,
5375,
4561,
4092,
3728,
3806,
3992,
4162,
4566,
4535,
4652,
4480,
4259,
4150,
3744,
3579,
3309,
3314,
3202,
3063,
3185,
3222,
3126,
3186,
3135,
3189,
3177,
3244,
3315,
3354,
3333,
3159,
3168,
3032,
3019,
3009,
2910,
2879,
2903,
2771,
2972,
2743,
2726,
2884,
2828,
2799,
2796,
2733,
2728,
2808,
2655,
2656,
2672,
2674,
2657,
2605,
2678,
2571,
2613,
2552,
2573,
2680,
2626,
2623,
2764,
2689,
2643,
2445,
2530,
2412,
2411,
2308,
2382,
2346,
2389,
2246,
2318,
2287,
2317,
2250,
2358,
2323,
2195,
2329,
2436,
2402,
2546,
2463,
2239,
2331,
2277,
2187,
2140,
2163,
2148,
2092,
2092,
2126,
2117,
2015,
1994,
2081,
2051,
1966,
2026,
1969,
1937,
1880,
2032,
1907,
1907,
1889,
1981,
1905,
1860,
1868,
1920,
1897,
1965,
2012,
1915,
2039,
1981,
2000,
1876,
1920,
1869,
1876,
1818,
1771,
1765,
1787,
1693,
1700,
1755,
1739,
1773,
1806,
2162,
2913,
4226,
6472,
8942,
11419,
12316,
11292,
9023,
6343,
4228,
2749,
1975,
1734,
1553,
1519,
1517,
1517,
1551,
1498,
1544,
1600,
1758,
2005,
2368,
3038,
3898,
4637,
5169,
4990,
4450,
3436,
2517,
2031,
1585,
1479,
1501,
1441,
1567,
1714,
2055,
2379,
2598,
2692,
2550,
2186,
1793,
1633,
1432,
1248,
1241,
1180,
1150,
1115,
1145,
1182,
1112,
1084,
1166,
1015,
1069,
1134,
1062,
1036,
1026,
1025,
1049,
978,
1047,
1032,
1077,
987,
966,
984,
973,
972,
941,
986,
1011,
940,
938,
1005,
1001,
949,
988,
1035,
938,
942,
904,
897,
898,
963,
1005,
1212,
1469,
1824,
2047,
2110,
2110,
1870,
1557,
1312,
1080,
989,
851,
841,
832,
841,
806,
834,
792,
747,
769,
748,
706,
703,
673,
673,
684,
642,
639,
642,
624,
593,
598,
657,
635,
588,
588,
675,
593,
532,
576,
598,
609,
562,
536,
533,
535,
549,
550,
561,
562,
506,
559,
550,
523,
536,
483,
492,
484,
484,
509,
521,
494,
481,
505,
470,
449,
467,
397,
476,
442,
441,
486,
492,
507,
552,
533,
525,
549,
488,
448,
405,
424,
361,
412,
396,
387,
378,
395,
361,
378,
346,
364,
370,
380,
323,
325,
346,
332,
311,
329,
322,
306,
281,
307,
282,
272,
285,
290,
303,
267,
295,
264,
264,
283,
271,
253,
268,
254,
278,
240,
244,
245,
239,
260,
260,
204,
250,
211,
219,
226,
226,
192,
222,
218,
192,
206,
219,
215,
191,
179,
199,
195,
187,
153,
202,
185,
178,
175,
174,
179,
166,
161,
160,
155,
149,
164,
147,
134,
144,
143,
150,
156,
138,
145,
116,
122,
128,
120,
125,
132,
116,
119,
100,
116,
116,
118,
116,
85,
92,
96,
85,
94,
105,
85,
82,
94,
95,
95,
94,
85,
107,
76,
80,
66,
69,
58,
71,
57,
70,
64,
72,
71,
47,
68,
54,
55,
49,
58,
46,
52,
54,
44,
44,
35,
58,
52,
49,
33,
48,
39,
37,
25,
35,
32,
35,
43,
31,
33,
40,
23,
27,
32,
25,
21,
12,
19,
16,
15,
16,
11,
20,
12,
14,
11,
7,
9,
9,
7,
10,
2,
2,
2,
1,
4,
3,
1,
2,
2,
5,
2,
1,
3,
2,
3,
2,
1,
3,
0,
5,
4,
3,
5,
3,
3,
1,
8,
2,
3,
2,
1,
4,
2,
1,
4,
2,
0,
3,
0,
2,
2,
2,
0,
0,
4,
1,
4,
4,
0,
4,
4,
4,
1,
1,
1,
0,
3,
3,
0,
1,
1,
1,
1,
2,
1,
1,
2,
0,
2,
1,
0,
2,
2,
1,
2,
2,
1,
2,
0,
1,
2,
1,
2,
0,
0,
1,
2,
3,
3,
1,
1,
2,
1,
0,
1,
0,
1,
1,
1,
0,
1,
3,
0,
2,
5,
1,
0,
1,
1,
0,
1,
1,
0,
1,
0,
0,
0,
1,
3,
0,
2,
0,
2,
0,
1,
1,
1,
0,
1,
1,
0,
1,
1,
0,
0,
1,
2,
2,
0,
1,
0,
0,
3,
0,
0,
2,
3,
0,
1,
0,
0,
0,
1,
0,
1,
1,
1,
0,
1,
0,
1,
1,
0,
0,
2,
2,
2,
1,
1,
0,
0,
2,
0,
1,
1,
1,
0,
0,
2,
0,
0,
0,
1,
0,
0,
0,
2,
1,
0,
1,
0,
0,
1,
0,
1,
1,
1,
0,
1,
2,
0,
2,
1,
0,
0,
1,
1,
0,
0,
1,
0,
0,
1,
1,
1,
0,
0,
1,
0,
0,
0,
0,
0,
1,
0,
0,
1,
1,
1,
1,
0,
0,
0,
0,
0,
0,
2,
0,
0,
0,
0,
0,
0,
1,
1,
0,
0,
0,
0,
0,
0,
0,
1,
0,
1,
0,
0,
0,
1,
0,
0,
0,
0,
0,
0,
0,
1,
0,
0,
1,
0,
0,
0,
0,
2,
0,
0,
0,
0,
0,
0,
0,
0,
0,
0,
0,
0,
0,
0,
0,
0,
0,
0,
0,
0,
0,
1,
0,
0,
0,
0,
0,
0,
0,
0,
0,
0,
0,
0,
0,
0,
0,
0,
0,
0,
0,
0,
0,
0,
0,
0,
0,
0,
0,
0,
0,
0,
0,
0,
0,
0,
0,
0,
0,
0,
0,
0,
0,
0,
0,
0,
0,
0,
0,
0,
0,
0,
0,
0,
0,
0,
0,
0,
0,
0,
0,
0,
0,
0,
0,
0,
0,
0,
0,
0,
0,
0,
0,
0,
0,
0,
0,
0,
0,
0,
0,
0,
1,
0,
0,
0,
0,
0,
0,
0,
0,
0,
0,
0,
0,
0,
0,
0,
0,
0,
0,
0,
0,
1,
0,
0,
0,
0,
0,
0,
0,
0,
0,
0,
0,
0,
0,
0,
0,
0,
0,
0,
0,
0,
0,
0,
0,
0,
0,
1,
0,
0,
0,
0,
0,
0,
0,
0,
0,
0,
0,
0,
0,
0,
0,
0,
0,
0,
0,
0,
0,
0,
0,
0,
0,
1,
0,
0,
0,
0,
0,
0,
0,
0,
0,
0,
0,
0,
0,
0,
0,
0,
0,
0,
0,
0,
0,
0,
0,
0,
0,
0,
0,
0,
0,
0,
0,
0,
0,
0,
0,
0,
0,
0,
0,
0,
0,
0,
0,
0,
0,
0,
0,
0,
0,
0,
0,
0,
0,
0,
0,
0,
0,
0,
0,
0,
0,
0,
0,
0,
0,
0,
0,
0,
0,
0,
0,
0,
0,
0,
0,
0,
0,
0,
0,
0,
0,
0,
0,
0,
0,
0,
0,
0,
0,
0,
0,
0,
0,
0,
0,
0,
0,
0,
0,
0,
0,
0,
0,
0,
0,
0,
0,
0,
0,
0,
0,
0,
0,
0,
0,
0,
0,
0,
0,
0,
0,
0,
0,
0,
0,
0,
0,
0,
0,
0,
0,
0,
0,
0,
0,
0,
0,
0,
0,
0,
0,
0,
0,
0,
0,
0,
0,
0,
0,
0,
0,
0,
0,
0,
0,
0,
0,
0,
0,
0,
0,
0,
0,
0,
0,
0,
0,
0,
0,
0,
0,
0,
0,
0,
0,
0,
0,
0,
0,
0,
0,
0,
0,
0,
0,
0,
0,
0,
0,
0,
0,
0,
0,
0,
0,
0,
0,
0,
0,
0,
0,
0,
0,
0,
0,
0,
0,
0,
0,
0,
0,
0,
0,
0,
0,
0,
0,
0,
0,
0,
0,
0,
0,
0,
0,
0,
0,
0,
0,
0,
0,
0,
0,
0,
0,
0,
0,
0,
0,
0,
0,
0,
0,
0,
0,
0,
0,
0,
0,
0,
#ENDOFDATA   :