File: N132962/Quantification/20 keV/Glass Mount IIIB/GM IIIB K373[0][4].msa
#FORMAT      : EMSA/MAS Spectral Data File
#VERSION     : 1.0
#TITLE       : GM IIIB K373[0][all]
#DATE        : 10-SEP-2025
#TIME        : 18:12
#OWNER       : Unknown
#NPOINTS     : 4096
#NCOLUMNS    : 1
#XUNITS      : eV
#YUNITS      : counts
#DATATYPE    : Y
#XPERCHAN    : 9.99778
#OFFSET      : 1.69135
#BEAMKV      : 20
#SIGNALTYPE  : EDS
#ELEVANGLE   : 35
#AZIMANGLE   : 0
#LIVETIME    : 240.064
#REALTIME    : 260.016
#PROBECUR    : 1.22475
#TAUWIND     : 0
#TDEADLYR    : 0
#TACTLYR     : 0.045
#TALWIND     : 0.025
#CHOFFSET    : 0.0
#XLABEL      : Energy (eV)
#YLABEL      : Counts
#XPOSITION   : 4.39833
#YPOSITION   : 2.3185
#ZPOSITION   : 34.00159
#EDSDET      : SD
##SPECIMEN   : GM IIIB K373[0][all]
##D2STDCMP   : K373,(O:42.34),(Na:10.43),(Si:31.85),(Zn:4.94),(Ba:10.38),(U:0.05)
##DET_HASH   : 12273538-fd48-a23f-0a19-f1e6fa85caef
##CALIB_HASH : 6abaa72c-aa41-8738-0be9-f592914732f3
##WORKING    : 15.0 mm
##DET_NAME   : EDAX All
##DET_MODE   : MediumLE
#SPECTRUM    :
20,
21,
10,
12,
95,
364,
912,
2082,
4767,
5899,
4265,
3753,
4704,
6283,
10256,
34698,
132690,
251792,
182165,
48201,
7530,
3373,
3481,
3552,
3614,
4087,
4630,
4448,
4417,
4783,
5142,
6404,
13242,
33567,
60443,
57143,
27010,
8553,
4374,
3984,
3941,
3964,
4285,
4332,
4277,
4544,
4604,
5053,
5509,
5994,
6372,
6402,
6309,
6639,
8081,
22801,
90763,
234234,
318318,
223556,
89842,
30031,
13410,
6428,
3843,
3166,
3076,
3055,
3150,
3170,
3114,
3264,
3292,
3590,
4004,
4337,
4268,
3701,
3441,
3307,
3306,
3344,
3274,
3258,
3247,
3258,
3299,
3411,
3212,
3445,
3424,
3623,
3519,
3398,
3264,
3323,
3300,
3176,
3068,
3224,
3065,
3129,
3230,
3128,
3163,
3152,
3026,
3060,
3101,
3059,
3044,
3013,
3055,
3012,
3236,
3364,
3470,
3303,
3145,
2985,
2906,
2812,
2779,
2746,
2769,
2702,
2702,
2745,
2718,
2704,
2847,
3089,
3278,
3169,
2929,
2696,
2511,
2589,
2414,
2460,
2460,
2515,
2623,
2763,
2945,
3817,
6254,
10825,
16146,
18359,
15235,
9647,
5248,
3215,
2489,
2321,
2348,
2724,
3784,
5901,
8433,
9639,
8968,
7229,
5253,
4035,
3186,
2838,
2535,
2727,
3331,
4176,
4524,
4111,
3337,
2539,
2074,
1960,
1951,
1890,
1902,
2040,
2337,
2590,
2761,
2807,
2526,
2130,
1828,
1772,
1871,
1907,
2017,
2008,
2026,
1884,
1794,
1694,
1680,
1602,
1639,
1595,
1492,
1563,
1434,
1455,
1542,
1535,
1523,
1538,
1482,
1504,
1476,
1530,
1552,
1500,
1366,
1398,
1369,
1398,
1391,
1347,
1375,
1381,
1356,
1328,
1351,
1280,
1279,
1306,
1263,
1283,
1243,
1228,
1232,
1260,
1252,
1184,
1121,
1234,
1193,
1151,
1196,
1190,
1184,
1181,
1154,
1170,
1208,
1256,
1177,
1120,
1135,
1156,
1131,
1095,
1142,
1019,
1112,
1097,
1083,
1026,
1017,
992,
994,
1033,
998,
1000,
969,
1010,
1044,
970,
974,
944,
986,
992,
955,
991,
920,
885,
922,
978,
1080,
1445,
2144,
3390,
4485,
5367,
5460,
4525,
3341,
2171,
1469,
1041,
859,
859,
844,
786,
821,
763,
745,
813,
791,
807,
755,
754,
803,
732,
727,
748,
710,
713,
755,
792,
825,
911,
1054,
1165,
1306,
1358,
1225,
1061,
956,
792,
745,
687,
692,
665,
659,
671,
669,
617,
657,
639,
618,
596,
643,
600,
670,
642,
570,
615,
578,
550,
633,
599,
580,
588,
543,
555,
537,
543,
533,
556,
500,
548,
512,
521,
480,
505,
505,
541,
507,
507,
495,
466,
519,
512,
486,
467,
452,
470,
466,
492,
455,
455,
445,
415,
455,
446,
443,
428,
452,
382,
435,
436,
400,
401,
383,
377,
386,
424,
381,
422,
401,
385,
393,
344,
396,
387,
376,
333,
344,
364,
371,
348,
341,
338,
315,
349,
341,
365,
332,
298,
306,
304,
336,
293,
297,
308,
297,
305,
298,
258,
310,
250,
270,
286,
273,
321,
255,
253,
261,
277,
233,
273,
297,
277,
243,
232,
227,
263,
251,
227,
231,
221,
263,
219,
241,
208,
252,
226,
229,
222,
197,
196,
177,
222,
203,
206,
214,
188,
177,
208,
204,
197,
196,
184,
182,
180,
196,
200,
181,
183,
177,
156,
150,
140,
190,
188,
172,
133,
151,
141,
155,
156,
168,
135,
138,
144,
144,
140,
133,
157,
144,
157,
131,
153,
143,
127,
115,
136,
133,
115,
120,
117,
95,
142,
117,
118,
109,
98,
124,
106,
122,
98,
87,
98,
110,
112,
103,
95,
99,
105,
106,
99,
88,
83,
84,
93,
80,
72,
85,
77,
71,
70,
92,
69,
81,
78,
96,
79,
81,
76,
75,
90,
71,
50,
67,
60,
63,
67,
69,
58,
71,
50,
68,
50,
61,
65,
52,
43,
51,
54,
64,
45,
55,
41,
40,
40,
57,
54,
43,
43,
37,
54,
54,
42,
50,
41,
31,
43,
38,
50,
32,
36,
33,
28,
37,
27,
45,
31,
20,
28,
30,
39,
35,
29,
30,
29,
26,
24,
26,
26,
23,
24,
28,
24,
18,
26,
18,
16,
16,
16,
13,
22,
9,
17,
19,
16,
20,
22,
20,
13,
13,
12,
21,
9,
12,
13,
7,
10,
17,
17,
14,
13,
9,
14,
13,
6,
11,
11,
5,
8,
5,
2,
5,
8,
10,
7,
5,
8,
2,
5,
2,
4,
2,
6,
3,
4,
1,
3,
1,
1,
0,
0,
0,
0,
0,
0,
0,
1,
1,
0,
0,
1,
0,
0,
0,
0,
0,
0,
0,
1,
0,
1,
0,
0,
0,
2,
1,
0,
1,
0,
1,
0,
0,
0,
0,
0,
0,
0,
0,
0,
0,
0,
2,
1,
1,
0,
0,
1,
0,
0,
0,
1,
0,
1,
1,
0,
0,
0,
0,
0,
0,
0,
0,
0,
0,
0,
0,
0,
0,
0,
0,
0,
0,
0,
0,
0,
0,
0,
0,
0,
0,
1,
0,
0,
0,
0,
0,
1,
0,
0,
0,
1,
1,
0,
1,
0,
0,
0,
0,
0,
0,
0,
0,
0,
0,
0,
0,
0,
0,
0,
0,
1,
0,
0,
0,
0,
1,
0,
0,
1,
0,
0,
0,
0,
0,
0,
0,
0,
0,
0,
0,
0,
0,
0,
0,
0,
0,
0,
0,
0,
0,
0,
0,
0,
0,
0,
0,
0,
0,
1,
1,
0,
0,
0,
0,
0,
0,
0,
0,
0,
0,
0,
0,
0,
0,
0,
0,
0,
0,
0,
0,
0,
0,
0,
0,
0,
0,
0,
0,
0,
0,
0,
0,
0,
0,
0,
0,
0,
1,
0,
0,
0,
0,
0,
0,
0,
1,
0,
0,
0,
0,
0,
0,
0,
0,
0,
0,
0,
0,
0,
0,
0,
0,
0,
0,
0,
0,
0,
0,
0,
0,
0,
0,
0,
0,
0,
0,
0,
0,
0,
0,
0,
0,
0,
0,
0,
0,
0,
0,
0,
0,
0,
0,
0,
0,
0,
0,
0,
0,
0,
0,
1,
0,
0,
0,
0,
0,
0,
0,
0,
0,
0,
0,
0,
0,
0,
0,
0,
0,
0,
0,
0,
0,
0,
0,
0,
0,
0,
0,
0,
0,
0,
0,
1,
0,
0,
0,
0,
0,
0,
0,
0,
0,
0,
0,
0,
0,
0,
0,
0,
0,
0,
0,
0,
0,
0,
0,
0,
0,
0,
0,
0,
0,
0,
0,
0,
0,
0,
0,
0,
0,
0,
0,
0,
0,
1,
0,
0,
0,
0,
0,
0,
0,
0,
0,
0,
0,
0,
0,
0,
0,
0,
0,
0,
0,
0,
0,
0,
0,
0,
0,
0,
0,
0,
0,
0,
0,
0,
0,
0,
0,
0,
0,
0,
0,
0,
0,
0,
0,
0,
0,
0,
0,
0,
0,
0,
0,
0,
0,
0,
0,
0,
0,
0,
0,
0,
0,
0,
0,
0,
0,
0,
0,
0,
0,
0,
0,
0,
0,
0,
0,
0,
0,
0,
0,
0,
0,
0,
0,
0,
0,
0,
0,
0,
0,
0,
0,
0,
0,
0,
0,
0,
0,
0,
0,
0,
0,
0,
0,
0,
0,
0,
0,
0,
0,
0,
0,
0,
0,
0,
0,
0,
0,
0,
0,
0,
0,
0,
0,
0,
0,
0,
0,
0,
0,
0,
0,
0,
0,
0,
0,
0,
0,
0,
0,
0,
0,
0,
0,
0,
0,
0,
0,
0,
0,
0,
0,
0,
0,
0,
0,
0,
0,
0,
0,
0,
0,
0,
0,
0,
0,
0,
0,
0,
0,
0,
0,
0,
0,
0,
0,
0,
0,
0,
0,
0,
0,
0,
0,
0,
0,
0,
0,
0,
0,
0,
0,
0,
0,
0,
0,
0,
0,
0,
0,
0,
0,
0,
0,
0,
0,
0,
0,
0,
0,
0,
0,
0,
0,
0,
0,
0,
0,
0,
0,
0,
0,
0,
0,
0,
0,
0,
0,
0,
0,
0,
0,
0,
0,
0,
0,
0,
0,
0,
0,
0,
0,
0,
0,
0,
0,
0,
0,
0,
0,
0,
0,
0,
0,
0,
0,
0,
0,
0,
0,
0,
0,
0,
0,
0,
0,
0,
0,
0,
0,
0,
0,
0,
0,
0,
0,
0,
0,
0,
0,
0,
0,
0,
0,
0,
0,
0,
0,
0,
0,
0,
0,
0,
0,
0,
0,
0,
0,
0,
0,
0,
0,
0,
0,
0,
0,
0,
0,
0,
0,
0,
0,
0,
0,
0,
0,
0,
0,
0,
0,
0,
0,
0,
0,
0,
0,
0,
0,
0,
0,
0,
0,
0,
0,
0,
0,
0,
0,
0,
0,
0,
0,
0,
0,
0,
0,
0,
0,
0,
0,
0,
0,
0,
0,
0,
0,
0,
0,
0,
0,
0,
0,
0,
0,
0,
0,
0,
0,
0,
0,
0,
0,
0,
0,
0,
0,
0,
#ENDOFDATA   :