File: N132962/Quantification/20 keV/Glass Mount IIIB/GM IIIB K491[4][4].msa
#FORMAT      : EMSA/MAS Spectral Data File
#VERSION     : 1.0
#TITLE       : GM IIIB K491[4][all]
#DATE        : 10-SEP-2025
#TIME        : 15:14
#OWNER       : Unknown
#NPOINTS     : 4096
#NCOLUMNS    : 1
#XUNITS      : eV
#YUNITS      : counts
#DATATYPE    : Y
#XPERCHAN    : 9.99778
#OFFSET      : 1.69135
#BEAMKV      : 20
#SIGNALTYPE  : EDS
#ELEVANGLE   : 35
#AZIMANGLE   : 0
#LIVETIME    : 240.193
#REALTIME    : 266.659
#PROBECUR    : 1.22616
#TAUWIND     : 0
#TDEADLYR    : 0
#TACTLYR     : 0.045
#TALWIND     : 0.025
#CHOFFSET    : 0.0
#XLABEL      : Energy (eV)
#YLABEL      : Counts
#XPOSITION   : 4.01449
#YPOSITION   : 6.72817
#ZPOSITION   : 34.06144
#EDSDET      : SD
##SPECIMEN   : GM IIIB K491[4][all]
##D2STDCMP   : K491,(B:0.03),(O:16.65),(Al:0.08),(Si:0.09),(Ti:0.16),(Fe:0.18),(Ge:26.36),(Zr:0.3),(Ce:0.46),(Ta:0.59),(Pb:55.1)
##DET_HASH   : 12273538-fd48-a23f-0a19-f1e6fa85caef
##CALIB_HASH : 6abaa72c-aa41-8738-0be9-f592914732f3
##WORKING    : 15.0 mm
##DET_NAME   : EDAX All
##DET_MODE   : MediumLE
#SPECTRUM    :
26,
23,
9,
32,
259,
895,
2390,
5173,
10100,
12568,
8617,
6335,
6256,
6559,
7522,
13392,
35842,
63345,
46852,
17345,
9361,
8273,
8744,
9304,
8412,
7548,
7285,
7738,
8325,
8411,
8788,
8681,
9204,
10942,
14296,
15617,
14647,
19706,
50121,
109776,
133980,
88758,
37188,
14808,
9582,
8108,
7810,
7831,
8358,
8822,
8846,
8570,
8412,
8349,
8543,
9194,
10556,
12052,
13271,
14389,
16685,
17203,
14508,
11023,
9146,
8959,
9185,
9466,
9786,
9721,
9959,
10455,
11418,
12181,
14213,
21677,
47008,
98725,
144421,
139503,
111738,
102588,
87792,
53165,
22976,
11004,
9052,
10824,
12394,
12135,
9458,
7284,
6187,
6009,
5865,
6126,
6278,
6339,
6617,
6684,
6857,
7390,
7692,
7951,
7712,
7046,
6578,
6127,
6031,
5907,
5787,
5703,
5747,
5887,
5772,
5768,
5951,
5966,
6074,
6105,
5989,
5844,
5920,
5832,
5849,
5849,
5751,
5719,
5698,
5458,
5473,
5609,
5481,
5500,
5561,
5485,
5625,
5494,
5415,
5619,
5531,
5484,
5447,
5467,
5470,
5434,
5438,
5347,
5977,
6397,
6707,
6553,
6104,
5680,
5538,
5457,
5381,
5526,
5569,
5651,
5827,
6051,
5871,
5700,
5606,
5344,
5315,
5176,
4922,
5006,
4920,
5054,
5072,
5102,
5153,
5138,
5301,
5188,
4984,
4957,
4892,
4868,
4948,
4803,
4814,
4740,
4944,
4805,
4830,
4787,
4570,
4548,
4478,
4570,
4491,
4478,
4481,
4403,
4387,
4444,
4514,
4408,
4330,
4408,
4422,
4292,
4345,
4275,
4241,
4274,
4534,
4728,
5071,
5158,
5049,
4725,
4427,
4232,
4129,
4055,
4119,
4097,
4101,
3936,
4038,
3939,
3831,
3868,
3858,
3918,
3729,
3758,
3735,
3877,
3877,
3848,
3789,
3843,
3789,
3599,
3598,
3601,
3584,
3563,
3542,
3677,
3576,
3652,
3864,
3797,
3753,
3643,
3530,
3466,
3496,
3402,
3271,
3291,
3290,
3297,
3302,
3260,
3269,
3223,
3134,
3099,
3170,
3181,
3307,
3295,
3418,
3435,
3307,
3332,
3272,
3097,
3129,
3146,
2982,
2917,
3008,
2954,
2841,
2844,
2920,
2824,
2776,
2819,
2879,
2766,
2858,
2713,
2829,
2783,
2702,
2720,
2653,
2761,
2725,
2704,
2735,
2734,
2715,
2834,
3029,
3121,
3265,
3068,
2991,
2993,
2813,
2673,
2632,
2593,
2558,
2559,
2533,
2485,
2516,
2408,
2490,
2526,
2650,
3197,
4425,
6976,
10998,
15547,
19380,
21038,
19370,
15241,
10681,
6598,
4130,
2973,
2331,
2225,
2181,
2196,
2159,
2157,
2142,
2294,
2454,
2855,
3647,
4928,
6627,
8829,
10974,
12106,
11873,
10154,
7701,
5507,
3732,
2759,
2304,
2107,
2115,
2300,
2764,
3170,
3793,
4285,
4294,
4152,
3528,
2894,
2487,
2017,
1896,
1714,
1638,
1641,
1675,
1728,
1635,
1632,
1675,
1560,
1583,
1591,
1561,
1480,
1564,
1537,
1446,
1526,
1469,
1482,
1424,
1441,
1399,
1409,
1358,
1399,
1401,
1326,
1384,
1471,
1469,
1479,
1427,
1471,
1423,
1493,
1493,
1411,
1500,
1434,
1391,
1409,
1604,
1811,
2193,
3015,
3836,
4595,
4887,
4549,
4062,
3265,
2501,
1974,
1631,
1449,
1330,
1305,
1297,
1222,
1296,
1298,
1212,
1233,
1133,
1021,
1032,
1020,
991,
972,
920,
937,
951,
976,
959,
890,
909,
862,
868,
888,
823,
838,
859,
901,
853,
890,
843,
804,
845,
821,
823,
797,
781,
786,
788,
766,
776,
746,
754,
734,
690,
729,
714,
733,
681,
715,
758,
704,
714,
688,
638,
676,
706,
667,
708,
697,
740,
815,
886,
957,
877,
856,
812,
749,
708,
614,
632,
608,
591,
565,
595,
592,
579,
584,
574,
582,
577,
539,
522,
502,
492,
447,
473,
450,
467,
469,
466,
456,
446,
432,
462,
457,
457,
441,
423,
415,
405,
393,
431,
411,
345,
397,
379,
407,
382,
379,
345,
310,
317,
349,
350,
326,
325,
307,
316,
312,
325,
328,
312,
317,
322,
293,
301,
280,
322,
280,
279,
296,
296,
245,
278,
279,
247,
256,
258,
258,
243,
258,
240,
250,
248,
259,
231,
245,
213,
209,
195,
209,
214,
197,
191,
219,
223,
219,
172,
205,
214,
162,
190,
174,
182,
191,
173,
167,
140,
159,
166,
163,
155,
142,
154,
144,
166,
153,
134,
121,
130,
149,
119,
123,
118,
111,
116,
105,
111,
109,
123,
99,
117,
99,
121,
98,
89,
103,
105,
74,
86,
77,
72,
84,
63,
78,
79,
81,
68,
60,
68,
53,
45,
51,
67,
48,
52,
50,
35,
32,
39,
28,
28,
27,
31,
32,
23,
27,
30,
32,
26,
21,
13,
15,
13,
27,
13,
17,
13,
4,
9,
8,
5,
6,
4,
7,
7,
3,
7,
3,
11,
2,
4,
10,
6,
5,
8,
5,
2,
8,
5,
5,
4,
5,
5,
7,
6,
5,
2,
3,
10,
6,
5,
6,
2,
2,
4,
9,
2,
4,
6,
5,
3,
3,
0,
4,
2,
2,
2,
2,
6,
6,
5,
2,
1,
2,
2,
6,
1,
4,
2,
1,
2,
6,
9,
2,
5,
1,
3,
3,
2,
3,
3,
1,
3,
2,
1,
5,
0,
3,
4,
3,
4,
3,
2,
3,
5,
5,
5,
2,
1,
4,
1,
1,
6,
1,
2,
3,
0,
2,
3,
4,
2,
0,
1,
3,
2,
0,
2,
6,
2,
1,
0,
1,
0,
1,
0,
0,
2,
3,
1,
5,
0,
0,
2,
6,
0,
1,
2,
0,
1,
1,
2,
4,
1,
2,
0,
1,
1,
2,
2,
3,
0,
0,
2,
1,
2,
1,
0,
3,
1,
3,
2,
0,
2,
2,
6,
0,
0,
3,
3,
0,
1,
2,
3,
1,
2,
1,
3,
4,
2,
1,
4,
1,
1,
2,
0,
1,
3,
0,
2,
1,
1,
1,
2,
1,
1,
3,
2,
0,
1,
0,
0,
1,
2,
0,
0,
1,
2,
3,
2,
0,
2,
1,
2,
1,
1,
0,
2,
2,
1,
2,
0,
1,
1,
0,
0,
0,
0,
0,
1,
1,
0,
0,
1,
1,
0,
0,
0,
1,
2,
0,
0,
0,
0,
2,
0,
2,
0,
1,
0,
0,
1,
0,
1,
2,
1,
1,
1,
1,
1,
0,
1,
1,
1,
0,
2,
0,
1,
0,
2,
1,
1,
2,
0,
1,
1,
0,
1,
0,
0,
0,
1,
0,
0,
0,
1,
0,
0,
1,
0,
0,
0,
0,
1,
0,
0,
0,
0,
0,
0,
0,
0,
1,
1,
0,
1,
0,
0,
1,
2,
0,
0,
0,
0,
1,
0,
0,
1,
1,
0,
0,
0,
0,
0,
0,
0,
0,
1,
1,
0,
0,
0,
0,
0,
1,
0,
0,
0,
0,
0,
0,
0,
0,
0,
1,
0,
0,
0,
0,
0,
0,
0,
0,
0,
0,
0,
0,
0,
0,
0,
0,
0,
0,
0,
0,
0,
0,
0,
0,
0,
1,
0,
0,
0,
0,
0,
1,
1,
0,
1,
0,
0,
0,
0,
0,
0,
0,
0,
0,
0,
0,
0,
0,
0,
0,
0,
0,
1,
0,
0,
0,
0,
0,
1,
0,
1,
0,
0,
0,
0,
0,
0,
0,
0,
0,
0,
0,
0,
0,
0,
0,
0,
0,
0,
0,
0,
0,
0,
0,
0,
0,
0,
0,
0,
0,
0,
0,
0,
0,
0,
0,
0,
0,
1,
0,
0,
0,
0,
0,
0,
0,
0,
0,
0,
0,
0,
0,
0,
0,
0,
0,
0,
0,
0,
0,
0,
0,
0,
0,
0,
0,
0,
0,
0,
0,
0,
0,
0,
0,
0,
0,
0,
0,
0,
0,
0,
0,
0,
0,
0,
0,
0,
0,
0,
0,
0,
0,
0,
0,
0,
0,
0,
0,
0,
0,
0,
0,
0,
0,
0,
0,
0,
0,
0,
0,
0,
0,
0,
0,
0,
0,
0,
0,
0,
0,
0,
0,
0,
0,
0,
0,
0,
0,
0,
0,
0,
0,
0,
0,
0,
0,
0,
0,
0,
0,
0,
0,
0,
0,
0,
0,
0,
0,
0,
0,
0,
0,
0,
0,
0,
0,
0,
0,
0,
0,
0,
0,
0,
0,
0,
0,
0,
0,
0,
0,
0,
0,
0,
0,
0,
0,
0,
0,
0,
0,
0,
0,
0,
0,
0,
0,
0,
0,
0,
0,
0,
0,
0,
0,
0,
0,
0,
0,
0,
0,
0,
0,
0,
0,
0,
0,
0,
0,
0,
0,
0,
0,
0,
0,
0,
0,
0,
0,
0,
0,
0,
0,
0,
0,
0,
0,
0,
0,
0,
0,
0,
0,
0,
0,
0,
0,
0,
0,
0,
0,
0,
0,
0,
0,
0,
0,
0,
0,
0,
0,
0,
0,
0,
0,
0,
0,
0,
0,
0,
0,
0,
0,
0,
0,
0,
0,
0,
0,
0,
0,
0,
0,
0,
0,
0,
0,
0,
0,
0,
0,
0,
0,
0,
0,
0,
0,
0,
0,
0,
0,
0,
0,
0,
0,
0,
0,
0,
0,
0,
0,
0,
0,
#ENDOFDATA   :