File: N132962/Quantification/20 keV/Glass Mount IIIB/GM IIIB K493[3][4].msa
#FORMAT      : EMSA/MAS Spectral Data File
#VERSION     : 1.0
#TITLE       : GM IIIB K493[3][all]
#DATE        : 10-SEP-2025
#TIME        : 15:19
#OWNER       : Unknown
#NPOINTS     : 4096
#NCOLUMNS    : 1
#XUNITS      : eV
#YUNITS      : counts
#DATATYPE    : Y
#XPERCHAN    : 9.99778
#OFFSET      : 1.69135
#BEAMKV      : 20
#SIGNALTYPE  : EDS
#ELEVANGLE   : 35
#AZIMANGLE   : 0
#LIVETIME    : 240.397
#REALTIME    : 267.498
#PROBECUR    : 1.22616
#TAUWIND     : 0
#TDEADLYR    : 0
#TACTLYR     : 0.045
#TALWIND     : 0.025
#CHOFFSET    : 0.0
#XLABEL      : Energy (eV)
#YLABEL      : Counts
#XPOSITION   : 1.743
#YPOSITION   : 7.01806
#ZPOSITION   : 34.06144
#EDSDET      : SD
##SPECIMEN   : GM IIIB K493[3][all]
##D2STDCMP   : K493,(B:0.04),(O:20.63),(Al:0.11),(Si:13.04),(Ti:0.19),(Fe:0.22),(Zr:0.36),(Ce:0.55),(Ta:0.72),(Pb:64.13)
##DET_HASH   : 12273538-fd48-a23f-0a19-f1e6fa85caef
##CALIB_HASH : 6abaa72c-aa41-8738-0be9-f592914732f3
##WORKING    : 15.0 mm
##DET_NAME   : EDAX All
##DET_MODE   : MediumLE
#SPECTRUM    :
28,
16,
12,
37,
221,
865,
2354,
5235,
10351,
12895,
8847,
6481,
6371,
6626,
7598,
14767,
42062,
75068,
54937,
18887,
9344,
7865,
7755,
8572,
7789,
6667,
6428,
6857,
7302,
7454,
7359,
7410,
7532,
7734,
7840,
8294,
8394,
8370,
8471,
8910,
9096,
9178,
9433,
9713,
9963,
10165,
10425,
10711,
11377,
12403,
12720,
11899,
11479,
11365,
12541,
20053,
53293,
121720,
160898,
119818,
59840,
33643,
22012,
13812,
10194,
9382,
9374,
9665,
9991,
10194,
10241,
11077,
11957,
12993,
15586,
24288,
54347,
116111,
170530,
164653,
131179,
119926,
102426,
60672,
25437,
11112,
8954,
10760,
12493,
12264,
9369,
6882,
6002,
5602,
5483,
5637,
5866,
6100,
6224,
6299,
6580,
7004,
7514,
7656,
7394,
6970,
6317,
5830,
5629,
5421,
5263,
5443,
5379,
5461,
5274,
5489,
5515,
5604,
5616,
5517,
5325,
5207,
5271,
5428,
5500,
5448,
5356,
5226,
5296,
5241,
5174,
5160,
5226,
5249,
5402,
5421,
5429,
5453,
5392,
5298,
5288,
5193,
5164,
5090,
4998,
5065,
5063,
5272,
5554,
6181,
6365,
6288,
5879,
5340,
5018,
5130,
5020,
5160,
5328,
5351,
5626,
5823,
5738,
5619,
5194,
5129,
5024,
4857,
4835,
4683,
4689,
4724,
4746,
4788,
4858,
5006,
4979,
4830,
4701,
4734,
4804,
4698,
4471,
4407,
4533,
4615,
4658,
4662,
4588,
4497,
4469,
4514,
4246,
4280,
4265,
4272,
4241,
4271,
4203,
4315,
4285,
4290,
4225,
4210,
4182,
4127,
4105,
4118,
4112,
4212,
4128,
4495,
4804,
4845,
4917,
4538,
4250,
4006,
3932,
3885,
3821,
3816,
3792,
3754,
3691,
3658,
3646,
3615,
3639,
3686,
3707,
3606,
3682,
3570,
3795,
3632,
3618,
3523,
3612,
3490,
3515,
3444,
3430,
3445,
3427,
3491,
3402,
3535,
3519,
3663,
3464,
3514,
3444,
3244,
3216,
3182,
3254,
3145,
3117,
3172,
3039,
3124,
3076,
3105,
3087,
3005,
2957,
3073,
3115,
3190,
3309,
3357,
3334,
3206,
3085,
3016,
2923,
2909,
2898,
2891,
2761,
2872,
2744,
2714,
2723,
2726,
2780,
2706,
2708,
2718,
2657,
2574,
2624,
2655,
2557,
2639,
2599,
2499,
2573,
2576,
2645,
2615,
2727,
2754,
2904,
2958,
3120,
3074,
2930,
2726,
2578,
2660,
2582,
2433,
2395,
2473,
2316,
2386,
2370,
2328,
2356,
2336,
2431,
2286,
2304,
2271,
2180,
2153,
2139,
2170,
2243,
2082,
2078,
2121,
2070,
2057,
2109,
2029,
1956,
1980,
2056,
2038,
2105,
2124,
2353,
2810,
3826,
5053,
7037,
9470,
11714,
13132,
12683,
10799,
8289,
5519,
3798,
2601,
2184,
1903,
1775,
1872,
1855,
1728,
1804,
1731,
1673,
1720,
1729,
1607,
1630,
1669,
1662,
1619,
1714,
1673,
1700,
1615,
1625,
1597,
1572,
1543,
1545,
1586,
1509,
1563,
1431,
1519,
1506,
1390,
1434,
1411,
1429,
1354,
1349,
1426,
1466,
1379,
1332,
1354,
1427,
1350,
1419,
1475,
1458,
1380,
1510,
1458,
1462,
1380,
1435,
1345,
1416,
1400,
1435,
1770,
2358,
3211,
4182,
4896,
5283,
5140,
4489,
3651,
2681,
2148,
1617,
1428,
1324,
1251,
1236,
1260,
1248,
1266,
1289,
1179,
1114,
1039,
993,
970,
939,
945,
901,
844,
897,
836,
874,
831,
859,
866,
799,
831,
881,
853,
814,
760,
758,
804,
793,
763,
805,
822,
772,
766,
772,
737,
706,
734,
732,
782,
751,
737,
750,
687,
726,
692,
665,
677,
622,
659,
624,
650,
609,
596,
659,
624,
684,
679,
775,
865,
878,
909,
922,
911,
819,
739,
636,
584,
594,
614,
612,
592,
614,
566,
626,
607,
536,
555,
531,
527,
502,
458,
489,
447,
487,
474,
418,
443,
454,
390,
438,
453,
403,
427,
438,
435,
413,
409,
361,
386,
376,
402,
375,
348,
351,
366,
341,
353,
373,
351,
313,
323,
307,
323,
336,
297,
299,
298,
306,
311,
279,
300,
295,
321,
276,
279,
282,
250,
295,
282,
251,
266,
265,
278,
272,
249,
241,
226,
205,
227,
230,
210,
224,
236,
222,
211,
190,
201,
207,
211,
197,
188,
178,
180,
202,
177,
188,
171,
185,
169,
177,
181,
164,
186,
160,
149,
162,
161,
133,
126,
116,
138,
133,
122,
125,
144,
134,
120,
123,
124,
116,
111,
114,
116,
92,
131,
92,
102,
95,
111,
86,
94,
86,
82,
101,
93,
81,
106,
94,
82,
68,
65,
64,
70,
66,
67,
59,
53,
52,
67,
52,
39,
62,
49,
47,
43,
35,
33,
41,
38,
45,
18,
37,
26,
18,
25,
19,
25,
21,
19,
13,
16,
14,
16,
11,
6,
5,
6,
5,
7,
8,
4,
3,
7,
8,
4,
3,
4,
5,
5,
4,
4,
3,
6,
4,
2,
2,
3,
3,
4,
4,
5,
3,
1,
3,
5,
1,
3,
4,
2,
4,
6,
5,
7,
2,
3,
4,
5,
3,
1,
5,
1,
5,
2,
6,
3,
2,
3,
1,
4,
4,
2,
0,
3,
1,
4,
2,
0,
4,
1,
4,
1,
2,
5,
5,
4,
4,
1,
2,
2,
3,
3,
2,
0,
3,
0,
0,
2,
2,
4,
1,
0,
5,
2,
0,
1,
2,
5,
0,
0,
4,
3,
3,
1,
0,
1,
1,
2,
1,
3,
2,
3,
2,
0,
2,
0,
4,
2,
1,
1,
2,
0,
3,
0,
0,
1,
0,
0,
2,
1,
3,
1,
0,
3,
0,
0,
1,
1,
1,
1,
1,
1,
2,
1,
1,
1,
1,
3,
0,
0,
1,
0,
1,
2,
0,
0,
1,
1,
0,
2,
0,
2,
0,
3,
2,
2,
2,
2,
0,
3,
1,
1,
0,
1,
1,
2,
0,
2,
2,
1,
0,
2,
3,
0,
0,
0,
1,
0,
0,
1,
2,
0,
1,
0,
3,
1,
2,
1,
1,
0,
2,
0,
0,
1,
1,
0,
0,
1,
2,
1,
2,
0,
0,
0,
0,
1,
0,
1,
0,
0,
2,
1,
0,
1,
1,
2,
0,
0,
0,
0,
1,
0,
0,
1,
0,
0,
2,
0,
0,
0,
0,
1,
0,
1,
0,
1,
0,
1,
0,
0,
1,
0,
1,
1,
1,
0,
0,
0,
2,
0,
0,
1,
0,
0,
0,
2,
1,
0,
0,
0,
0,
2,
0,
1,
0,
0,
0,
1,
0,
0,
0,
0,
0,
0,
1,
0,
0,
0,
0,
0,
0,
0,
1,
2,
0,
0,
0,
0,
0,
0,
0,
2,
1,
0,
0,
0,
0,
0,
0,
0,
0,
1,
0,
0,
0,
0,
0,
0,
0,
0,
1,
0,
0,
0,
0,
0,
1,
0,
0,
0,
0,
0,
0,
1,
0,
0,
0,
0,
1,
0,
0,
0,
0,
0,
1,
0,
0,
1,
1,
0,
0,
1,
0,
0,
0,
0,
0,
0,
0,
0,
0,
0,
0,
0,
0,
0,
0,
1,
0,
0,
0,
0,
0,
0,
0,
0,
0,
0,
0,
0,
0,
0,
0,
0,
0,
0,
0,
0,
0,
0,
1,
0,
0,
0,
0,
0,
0,
0,
0,
0,
0,
0,
0,
0,
0,
0,
0,
0,
1,
0,
0,
0,
0,
0,
0,
0,
0,
0,
0,
0,
0,
0,
0,
0,
0,
0,
0,
0,
0,
0,
0,
0,
0,
0,
0,
0,
0,
0,
0,
0,
0,
0,
0,
0,
0,
0,
0,
0,
0,
0,
0,
0,
0,
0,
0,
0,
0,
1,
0,
0,
0,
0,
0,
0,
0,
0,
0,
0,
0,
0,
0,
0,
0,
0,
0,
0,
0,
0,
0,
0,
0,
0,
0,
0,
0,
0,
0,
0,
0,
0,
0,
0,
0,
0,
0,
0,
0,
0,
0,
0,
0,
0,
0,
0,
0,
0,
0,
0,
0,
0,
0,
0,
0,
0,
0,
0,
0,
0,
0,
0,
0,
0,
0,
0,
0,
0,
0,
0,
0,
0,
0,
0,
0,
0,
0,
0,
0,
0,
0,
0,
0,
0,
0,
0,
0,
0,
0,
0,
0,
0,
0,
0,
0,
0,
0,
0,
0,
0,
0,
0,
0,
0,
0,
0,
0,
0,
0,
0,
0,
0,
0,
0,
0,
0,
0,
0,
0,
0,
0,
0,
0,
0,
0,
0,
0,
0,
0,
0,
0,
0,
0,
0,
0,
0,
0,
0,
0,
0,
0,
0,
0,
0,
0,
0,
0,
0,
0,
0,
0,
0,
0,
0,
0,
0,
0,
0,
0,
0,
0,
0,
0,
0,
0,
0,
0,
0,
0,
0,
0,
0,
0,
0,
0,
0,
0,
0,
0,
0,
0,
0,
0,
0,
0,
0,
0,
0,
0,
0,
0,
0,
0,
0,
0,
0,
0,
0,
0,
0,
0,
0,
0,
0,
0,
0,
0,
0,
0,
0,
0,
0,
0,
0,
0,
0,
0,
0,
0,
0,
0,
0,
0,
0,
0,
0,
0,
0,
0,
0,
0,
0,
0,
0,
0,
0,
0,
0,
0,
0,
0,
0,
0,
0,
0,
0,
0,
0,
#ENDOFDATA   :