File: N132962/Quantification/20 keV/Glass Mount IIIB/GM IIIB K229[2][4].msa
#FORMAT      : EMSA/MAS Spectral Data File
#VERSION     : 1.0
#TITLE       : GM IIIB K229[2][all]
#DATE        : 10-SEP-2025
#TIME        : 19:19
#OWNER       : Unknown
#NPOINTS     : 4096
#NCOLUMNS    : 1
#XUNITS      : eV
#YUNITS      : counts
#DATATYPE    : Y
#XPERCHAN    : 9.99778
#OFFSET      : 1.69135
#BEAMKV      : 20
#SIGNALTYPE  : EDS
#ELEVANGLE   : 35
#AZIMANGLE   : 0
#LIVETIME    : 240.428
#REALTIME    : 267.554
#PROBECUR    : 1.21918
#TAUWIND     : 0
#TDEADLYR    : 0
#TACTLYR     : 0.045
#TALWIND     : 0.025
#CHOFFSET    : 0.0
#XLABEL      : Energy (eV)
#YLABEL      : Counts
#XPOSITION   : 6.56517
#YPOSITION   : -0.93368
#ZPOSITION   : 34.00159
#EDSDET      : SD
##SPECIMEN   : GM IIIB K229[2][all]
##D2STDCMP   : K229,(O:20.99),(Si:14.02),(Pb:64.98)
##DET_HASH   : 12273538-fd48-a23f-0a19-f1e6fa85caef
##CALIB_HASH : 6abaa72c-aa41-8738-0be9-f592914732f3
##WORKING    : 15.0 mm
##DET_NAME   : EDAX All
##DET_MODE   : MediumLE
#SPECTRUM    :
24,
17,
13,
42,
207,
813,
2376,
5077,
10303,
12940,
8937,
6436,
5950,
6129,
7475,
14595,
42521,
75872,
55892,
19139,
9461,
7969,
7544,
8220,
7583,
6429,
6335,
6606,
6964,
7253,
7376,
7256,
7526,
7584,
7767,
8182,
8203,
8363,
8698,
8681,
8796,
9058,
9536,
9578,
9653,
9979,
10007,
10525,
10975,
11456,
11544,
11248,
11214,
11332,
12150,
19831,
54297,
126338,
169897,
124178,
61848,
34789,
22254,
14060,
10015,
9087,
8703,
8627,
8610,
8991,
9301,
10261,
11570,
12921,
15204,
24300,
55458,
118626,
175080,
167044,
133863,
122787,
104608,
62127,
25999,
11383,
8776,
10586,
12743,
12297,
9523,
7078,
5808,
5426,
5493,
5740,
5749,
5973,
6053,
6140,
6434,
6955,
7344,
7522,
7372,
6656,
6234,
5872,
5678,
5282,
5408,
5207,
5225,
5373,
5310,
5544,
5514,
5635,
5437,
5462,
5347,
5237,
5305,
5334,
5493,
5413,
5243,
5284,
5228,
5173,
5279,
5070,
5168,
5168,
5268,
5228,
5472,
5359,
5423,
5432,
5255,
5139,
4976,
5101,
4969,
4954,
4815,
5004,
5235,
5227,
5523,
5621,
5213,
5064,
5069,
5134,
5176,
5023,
5199,
5134,
4978,
4933,
4898,
5050,
4874,
4881,
4813,
4712,
4701,
4613,
4726,
4674,
4619,
4711,
4645,
4637,
4575,
4580,
4566,
4397,
4508,
4599,
4496,
4564,
4276,
4402,
4525,
4503,
4286,
4298,
4340,
4250,
4290,
4155,
4250,
4228,
4232,
4264,
4106,
4146,
4125,
4184,
4096,
3967,
4108,
4062,
4006,
3982,
3979,
3969,
3978,
4162,
4386,
4397,
4313,
4148,
4015,
3884,
3892,
3769,
3792,
3775,
3735,
3791,
3711,
3748,
3689,
3599,
3646,
3681,
3672,
3645,
3565,
3504,
3628,
3552,
3579,
3514,
3548,
3406,
3494,
3490,
3336,
3395,
3346,
3326,
3517,
3483,
3684,
3585,
3451,
3359,
3282,
3234,
3139,
3143,
3131,
3119,
3187,
3096,
3065,
3160,
3011,
3076,
3085,
2947,
3034,
3048,
2951,
2968,
2934,
2943,
2977,
2999,
2901,
2952,
2883,
2899,
2905,
2847,
2776,
2669,
2683,
2801,
2685,
2775,
2616,
2688,
2668,
2676,
2686,
2652,
2570,
2580,
2492,
2641,
2558,
2553,
2569,
2495,
2507,
2591,
2747,
2726,
2871,
2998,
3074,
3044,
2849,
2693,
2508,
2422,
2378,
2329,
2352,
2276,
2273,
2331,
2212,
2253,
2236,
2131,
2175,
2234,
2284,
2235,
2194,
2187,
2212,
2171,
2114,
2033,
2137,
2098,
2101,
2028,
2095,
2032,
2134,
2024,
2069,
2037,
2025,
2108,
2358,
2873,
3690,
5069,
7081,
9535,
11960,
13196,
13046,
11180,
8326,
5741,
3779,
2693,
2163,
1885,
1880,
1694,
1737,
1773,
1706,
1755,
1729,
1726,
1699,
1669,
1648,
1662,
1589,
1590,
1624,
1589,
1629,
1662,
1615,
1594,
1503,
1559,
1476,
1542,
1450,
1469,
1461,
1377,
1430,
1402,
1456,
1440,
1416,
1457,
1352,
1363,
1327,
1332,
1308,
1355,
1344,
1362,
1429,
1408,
1407,
1449,
1462,
1498,
1467,
1424,
1393,
1389,
1382,
1367,
1610,
1757,
2381,
3212,
4112,
5020,
5290,
5189,
4511,
3527,
2773,
2118,
1711,
1429,
1330,
1302,
1255,
1207,
1260,
1282,
1277,
1202,
1120,
1022,
1030,
957,
937,
897,
883,
878,
905,
870,
898,
850,
821,
865,
813,
810,
800,
858,
855,
783,
803,
805,
804,
741,
751,
783,
795,
719,
727,
671,
720,
725,
673,
708,
691,
736,
662,
669,
662,
699,
685,
638,
735,
633,
628,
628,
649,
649,
653,
660,
651,
735,
770,
784,
880,
894,
947,
848,
728,
703,
679,
629,
615,
582,
599,
587,
592,
586,
610,
604,
557,
542,
557,
523,
487,
506,
511,
441,
452,
423,
473,
414,
441,
441,
438,
433,
404,
430,
410,
375,
390,
384,
395,
393,
396,
322,
357,
356,
362,
376,
308,
319,
352,
330,
311,
330,
328,
361,
330,
338,
287,
321,
293,
311,
281,
340,
300,
294,
257,
260,
279,
277,
254,
272,
284,
269,
241,
252,
250,
276,
251,
268,
215,
226,
228,
208,
216,
204,
219,
212,
204,
202,
194,
193,
190,
220,
197,
183,
199,
185,
185,
157,
173,
193,
177,
164,
184,
161,
150,
148,
152,
128,
147,
130,
161,
140,
153,
133,
146,
113,
119,
122,
118,
125,
117,
115,
105,
113,
115,
139,
97,
103,
97,
106,
92,
94,
96,
68,
78,
96,
79,
68,
64,
65,
58,
59,
68,
62,
77,
70,
61,
68,
54,
52,
40,
40,
57,
37,
54,
46,
39,
42,
28,
31,
41,
31,
34,
26,
20,
23,
29,
13,
19,
19,
23,
15,
19,
6,
8,
7,
2,
6,
9,
5,
5,
2,
2,
3,
4,
2,
1,
3,
2,
3,
5,
5,
7,
2,
1,
5,
5,
5,
3,
2,
5,
3,
6,
1,
3,
6,
4,
4,
4,
5,
2,
1,
3,
7,
2,
3,
1,
5,
2,
3,
1,
5,
2,
2,
3,
1,
1,
3,
6,
3,
3,
1,
2,
3,
3,
3,
5,
3,
1,
3,
5,
1,
2,
4,
5,
0,
0,
4,
5,
4,
2,
1,
2,
3,
2,
1,
4,
0,
2,
0,
2,
3,
2,
0,
2,
2,
2,
3,
1,
2,
3,
1,
1,
1,
1,
3,
2,
4,
1,
3,
6,
2,
2,
0,
2,
0,
1,
0,
3,
4,
0,
1,
1,
2,
1,
1,
2,
3,
0,
0,
4,
1,
0,
2,
3,
1,
1,
0,
0,
0,
1,
0,
2,
1,
0,
1,
0,
0,
2,
1,
2,
0,
0,
0,
1,
1,
1,
0,
0,
0,
0,
1,
2,
2,
0,
1,
1,
0,
3,
2,
1,
2,
4,
3,
1,
0,
1,
1,
0,
2,
1,
0,
1,
0,
3,
1,
4,
2,
2,
1,
2,
1,
0,
0,
3,
1,
1,
1,
1,
1,
0,
0,
0,
0,
1,
1,
0,
1,
0,
0,
1,
0,
0,
0,
0,
1,
0,
2,
0,
0,
1,
2,
0,
1,
0,
0,
0,
1,
0,
1,
0,
2,
0,
3,
1,
0,
0,
1,
0,
0,
0,
1,
1,
1,
1,
0,
0,
0,
2,
0,
2,
0,
0,
0,
0,
1,
0,
0,
0,
0,
1,
0,
0,
0,
0,
1,
1,
1,
0,
0,
1,
2,
0,
0,
0,
0,
0,
0,
0,
1,
0,
0,
0,
0,
0,
0,
1,
1,
0,
0,
0,
0,
0,
0,
1,
0,
1,
3,
0,
0,
1,
0,
0,
0,
0,
0,
0,
1,
1,
0,
0,
0,
1,
0,
0,
1,
0,
0,
0,
0,
0,
0,
0,
0,
0,
0,
0,
0,
0,
0,
1,
1,
1,
0,
0,
0,
1,
0,
0,
0,
1,
1,
1,
0,
0,
0,
0,
0,
0,
0,
0,
0,
0,
0,
0,
0,
0,
0,
0,
0,
1,
0,
0,
0,
0,
0,
0,
0,
0,
0,
1,
1,
0,
0,
0,
0,
0,
0,
0,
0,
0,
0,
0,
0,
0,
0,
0,
0,
0,
0,
0,
0,
1,
0,
0,
0,
0,
0,
0,
0,
0,
0,
0,
0,
0,
0,
0,
0,
0,
0,
0,
0,
0,
0,
0,
0,
0,
1,
0,
0,
0,
0,
0,
0,
0,
0,
0,
0,
0,
0,
0,
0,
0,
0,
0,
0,
0,
0,
0,
0,
0,
0,
0,
0,
0,
0,
0,
0,
0,
0,
0,
0,
0,
0,
0,
0,
0,
0,
0,
0,
0,
0,
0,
0,
0,
0,
0,
0,
0,
0,
0,
0,
0,
0,
0,
0,
0,
0,
0,
0,
0,
0,
0,
0,
0,
0,
0,
0,
0,
0,
0,
0,
0,
0,
0,
0,
0,
0,
0,
0,
0,
0,
0,
0,
0,
0,
0,
0,
0,
0,
0,
0,
0,
0,
0,
0,
0,
0,
0,
0,
0,
0,
0,
0,
0,
0,
0,
0,
0,
0,
0,
0,
0,
0,
0,
0,
0,
0,
0,
0,
0,
0,
0,
0,
0,
0,
0,
0,
0,
0,
0,
0,
0,
0,
0,
0,
0,
0,
0,
0,
0,
0,
0,
0,
0,
0,
0,
0,
0,
0,
0,
0,
0,
0,
0,
0,
0,
0,
0,
0,
0,
0,
0,
0,
0,
0,
0,
0,
0,
0,
0,
0,
0,
0,
0,
0,
0,
0,
0,
0,
0,
0,
0,
0,
0,
0,
0,
0,
0,
0,
0,
0,
0,
0,
0,
0,
0,
0,
0,
0,
0,
0,
0,
0,
0,
0,
0,
0,
0,
0,
0,
0,
0,
0,
0,
0,
0,
0,
0,
0,
0,
0,
0,
0,
0,
0,
0,
0,
0,
0,
0,
0,
0,
0,
0,
0,
0,
0,
0,
0,
0,
0,
0,
0,
0,
0,
0,
0,
0,
0,
0,
0,
0,
0,
0,
0,
0,
0,
0,
0,
0,
0,
0,
0,
0,
0,
0,
0,
0,
0,
0,
0,
0,
0,
0,
0,
0,
0,
0,
0,
0,
0,
0,
0,
0,
0,
#ENDOFDATA   :