File: N132962/Quantification/20 keV/Glass Mount IIIB/GM IIIB K979[4][4].msa
#FORMAT      : EMSA/MAS Spectral Data File
#VERSION     : 1.0
#TITLE       : GM IIIB K979[4][all]
#DATE        : 10-SEP-2025
#TIME        : 16:42
#OWNER       : Unknown
#NPOINTS     : 4096
#NCOLUMNS    : 1
#XUNITS      : eV
#YUNITS      : counts
#DATATYPE    : Y
#XPERCHAN    : 9.99778
#OFFSET      : 1.69135
#BEAMKV      : 20
#SIGNALTYPE  : EDS
#ELEVANGLE   : 35
#AZIMANGLE   : 0
#LIVETIME    : 240.113
#REALTIME    : 259.424
#PROBECUR    : 1.22416
#TAUWIND     : 0
#TDEADLYR    : 0
#TACTLYR     : 0.045
#TALWIND     : 0.025
#CHOFFSET    : 0.0
#XLABEL      : Energy (eV)
#YLABEL      : Counts
#XPOSITION   : -1.93168
#YPOSITION   : 11.30811
#ZPOSITION   : 34.06144
#EDSDET      : SD
##SPECIMEN   : GM IIIB K979[4][all]
##D2STDCMP   : K979,(Li:1.05),(O:40.58),(Al:8.92),(Si:21.02),(K:1.87),(Ca:6.75),(Ti:1.35),(Sr:10.05),(Nb:1.57),(Sb:0.84),(Cs:2.12),(Sm:1.94),(Dy:1.96)
##DET_HASH   : 12273538-fd48-a23f-0a19-f1e6fa85caef
##CALIB_HASH : 6abaa72c-aa41-8738-0be9-f592914732f3
##WORKING    : 15.0 mm
##DET_NAME   : EDAX All
##DET_MODE   : MediumLE
#SPECTRUM    :
31,
20,
8,
23,
139,
426,
1008,
2293,
5297,
6915,
5384,
4039,
4042,
4515,
6798,
20571,
73620,
139401,
100854,
27344,
4466,
2771,
3066,
3282,
3294,
3312,
3576,
4018,
4275,
4284,
4314,
4341,
4893,
5255,
5948,
6280,
6916,
6678,
5878,
5569,
5687,
6392,
8071,
9726,
10066,
8717,
8742,
16005,
45815,
88709,
90500,
49427,
19599,
11117,
9747,
18695,
63206,
158447,
220573,
175392,
103293,
61239,
35715,
20026,
11218,
7052,
5377,
4263,
4011,
3899,
4763,
6485,
7967,
7835,
6658,
6401,
5725,
4925,
4312,
3938,
3720,
3639,
3399,
3446,
3616,
3595,
3467,
3524,
3486,
3421,
3605,
3515,
3518,
3563,
3487,
3447,
3483,
3522,
3431,
3647,
3512,
3605,
3224,
3303,
3431,
3498,
3792,
4412,
6203,
9936,
13247,
13322,
9712,
5975,
4119,
3701,
3783,
4139,
5130,
7216,
11577,
20262,
32558,
39471,
33222,
19695,
9391,
5129,
4076,
3990,
3902,
4204,
5413,
6826,
7248,
6302,
4738,
3553,
2974,
2980,
3400,
4306,
5477,
5950,
5252,
3993,
3330,
3466,
4671,
6514,
7940,
7718,
6479,
5166,
4531,
3858,
3465,
3012,
2784,
2428,
2462,
2623,
2723,
3244,
3353,
3482,
3120,
2736,
2323,
2296,
2155,
2141,
2151,
2175,
2153,
2228,
2183,
2153,
2127,
2087,
2040,
2157,
2102,
2227,
2277,
2646,
3277,
3654,
3835,
3499,
2827,
2379,
2092,
1899,
1853,
1757,
1814,
1743,
1670,
1761,
1762,
1758,
1745,
1850,
2025,
2249,
2463,
2610,
2346,
2163,
2008,
1966,
2048,
2281,
2583,
2897,
3139,
3228,
2918,
2439,
2143,
1980,
1717,
1527,
1479,
1449,
1505,
1460,
1334,
1504,
1447,
1412,
1407,
1315,
1446,
1414,
1434,
1540,
1662,
1799,
1948,
2066,
2015,
1824,
1682,
1553,
1544,
1484,
1442,
1487,
1321,
1351,
1453,
1418,
1462,
1433,
1348,
1368,
1215,
1189,
1129,
1139,
1205,
1141,
1109,
1138,
1187,
1145,
1133,
1114,
1100,
1075,
1074,
1039,
1013,
1096,
1017,
1092,
1081,
1115,
1127,
1112,
967,
1037,
1061,
993,
968,
1004,
1025,
1009,
1042,
988,
963,
966,
905,
977,
887,
864,
932,
866,
880,
868,
877,
863,
832,
874,
816,
800,
839,
882,
816,
830,
843,
792,
770,
811,
793,
808,
754,
741,
763,
768,
745,
707,
754,
741,
758,
723,
727,
729,
694,
710,
752,
708,
689,
672,
722,
692,
669,
665,
700,
647,
668,
581,
662,
609,
621,
626,
676,
638,
665,
579,
621,
623,
639,
596,
591,
598,
571,
614,
569,
601,
584,
533,
530,
527,
545,
519,
514,
513,
582,
516,
539,
527,
490,
508,
526,
526,
486,
481,
464,
467,
493,
445,
499,
486,
466,
452,
455,
477,
467,
417,
451,
468,
451,
414,
440,
424,
417,
420,
437,
428,
414,
389,
426,
332,
388,
409,
418,
343,
361,
363,
368,
357,
356,
348,
344,
351,
344,
331,
323,
358,
360,
360,
309,
310,
338,
305,
320,
303,
316,
300,
314,
300,
293,
337,
313,
276,
279,
293,
286,
252,
247,
268,
265,
288,
274,
260,
256,
245,
244,
279,
253,
251,
273,
242,
249,
254,
216,
214,
240,
266,
206,
242,
250,
291,
379,
399,
514,
582,
705,
601,
623,
601,
477,
367,
304,
221,
208,
186,
194,
200,
186,
174,
192,
178,
187,
145,
149,
165,
161,
150,
162,
157,
158,
162,
168,
154,
149,
138,
155,
161,
152,
150,
155,
133,
141,
130,
141,
124,
138,
136,
126,
134,
136,
115,
133,
123,
135,
115,
128,
123,
135,
125,
136,
167,
184,
165,
152,
162,
132,
129,
114,
110,
92,
94,
118,
85,
100,
88,
80,
84,
93,
92,
74,
83,
81,
76,
79,
74,
68,
88,
86,
57,
64,
76,
75,
83,
58,
76,
74,
76,
65,
68,
61,
75,
60,
53,
42,
63,
52,
57,
46,
56,
43,
50,
61,
48,
45,
44,
42,
46,
47,
50,
42,
48,
43,
48,
44,
45,
38,
34,
41,
49,
31,
37,
42,
27,
22,
33,
31,
26,
38,
35,
35,
28,
27,
28,
28,
35,
26,
31,
27,
22,
27,
23,
19,
12,
23,
29,
15,
29,
20,
16,
22,
15,
17,
21,
13,
10,
12,
15,
17,
13,
14,
13,
13,
13,
16,
8,
13,
10,
8,
7,
9,
7,
9,
11,
5,
11,
5,
8,
7,
6,
6,
7,
6,
2,
3,
6,
2,
1,
2,
3,
0,
0,
1,
0,
0,
0,
1,
1,
0,
2,
0,
0,
1,
0,
1,
0,
3,
1,
2,
0,
4,
1,
0,
1,
0,
0,
1,
2,
0,
1,
3,
0,
0,
0,
0,
0,
0,
2,
1,
3,
1,
0,
1,
1,
0,
0,
0,
0,
1,
0,
1,
0,
0,
1,
1,
1,
0,
0,
0,
0,
0,
2,
0,
0,
1,
0,
0,
0,
1,
1,
0,
0,
0,
0,
0,
0,
0,
0,
0,
0,
0,
0,
0,
0,
1,
0,
0,
0,
0,
1,
0,
0,
0,
0,
0,
0,
0,
0,
0,
0,
2,
0,
1,
0,
0,
0,
0,
0,
0,
1,
1,
0,
1,
0,
0,
0,
0,
0,
0,
0,
0,
0,
0,
0,
0,
0,
0,
0,
0,
0,
0,
0,
0,
0,
0,
0,
0,
0,
0,
0,
0,
0,
0,
0,
0,
0,
0,
0,
1,
0,
0,
0,
0,
1,
1,
0,
0,
0,
0,
0,
0,
0,
0,
0,
0,
1,
0,
0,
0,
0,
0,
0,
1,
0,
0,
0,
0,
1,
0,
0,
0,
0,
0,
0,
0,
0,
0,
1,
0,
0,
0,
1,
0,
0,
0,
0,
0,
0,
0,
0,
0,
0,
0,
0,
0,
0,
0,
0,
1,
0,
0,
0,
1,
0,
0,
0,
0,
0,
0,
0,
0,
0,
0,
0,
0,
0,
0,
0,
0,
0,
0,
0,
0,
0,
0,
0,
0,
1,
0,
0,
0,
0,
0,
0,
0,
0,
0,
0,
0,
0,
0,
0,
0,
0,
0,
0,
0,
0,
0,
0,
0,
0,
0,
0,
0,
0,
0,
1,
0,
0,
0,
0,
0,
0,
0,
0,
0,
0,
0,
0,
0,
0,
0,
0,
1,
0,
0,
0,
0,
0,
0,
0,
0,
0,
0,
0,
0,
0,
0,
0,
0,
0,
0,
0,
0,
0,
0,
0,
0,
0,
0,
0,
0,
0,
0,
0,
0,
0,
0,
0,
0,
0,
0,
0,
0,
0,
0,
0,
0,
0,
0,
1,
0,
0,
0,
0,
0,
0,
1,
0,
0,
0,
0,
0,
0,
0,
0,
0,
0,
0,
0,
0,
0,
0,
0,
0,
0,
0,
0,
0,
0,
0,
0,
0,
0,
0,
0,
0,
0,
0,
0,
0,
0,
0,
0,
0,
0,
0,
0,
0,
0,
0,
0,
0,
0,
0,
0,
0,
0,
0,
0,
0,
0,
0,
0,
0,
0,
0,
0,
0,
0,
0,
0,
0,
0,
0,
0,
0,
0,
0,
0,
0,
0,
0,
0,
0,
0,
0,
0,
0,
0,
0,
0,
0,
0,
0,
0,
0,
0,
0,
0,
0,
0,
0,
0,
0,
0,
0,
0,
0,
0,
0,
0,
0,
0,
0,
0,
0,
0,
0,
0,
0,
0,
0,
0,
0,
0,
0,
0,
0,
0,
0,
0,
0,
0,
0,
0,
0,
0,
0,
0,
0,
0,
0,
0,
0,
0,
0,
0,
0,
0,
0,
0,
0,
0,
0,
0,
0,
0,
0,
0,
0,
0,
0,
0,
0,
0,
0,
0,
0,
0,
0,
0,
0,
0,
0,
0,
0,
0,
0,
0,
0,
0,
0,
0,
0,
0,
0,
0,
0,
0,
0,
0,
0,
0,
0,
0,
0,
0,
0,
0,
0,
0,
0,
0,
0,
0,
0,
0,
0,
0,
0,
0,
0,
0,
0,
0,
0,
0,
0,
0,
0,
0,
0,
0,
0,
0,
0,
0,
0,
0,
0,
0,
0,
0,
0,
0,
0,
0,
0,
0,
0,
0,
0,
0,
0,
0,
0,
0,
0,
0,
0,
0,
0,
0,
0,
0,
0,
0,
0,
0,
0,
0,
0,
0,
0,
0,
0,
0,
0,
0,
0,
0,
0,
0,
0,
0,
0,
0,
0,
0,
0,
0,
0,
0,
0,
0,
0,
0,
0,
0,
0,
0,
0,
0,
0,
0,
0,
0,
0,
0,
0,
0,
0,
0,
0,
0,
0,
0,
0,
0,
0,
0,
0,
0,
0,
0,
0,
0,
0,
0,
0,
0,
0,
0,
0,
0,
0,
0,
0,
0,
0,
0,
0,
0,
0,
0,
0,
0,
0,
0,
0,
0,
0,
0,
0,
0,
0,
0,
0,
0,
0,
0,
0,
0,
0,
0,
0,
0,
0,
0,
0,
0,
0,
0,
0,
0,
0,
0,
0,
0,
0,
#ENDOFDATA   :