File: N132962/Quantification/20 keV/Glass Mount IIIB/GM IIIB K366[0][4].msa
#FORMAT      : EMSA/MAS Spectral Data File
#VERSION     : 1.0
#TITLE       : GM IIIB K366[0][all]
#DATE        : 10-SEP-2025
#TIME        : 18:23
#OWNER       : Unknown
#NPOINTS     : 4096
#NCOLUMNS    : 1
#XUNITS      : eV
#YUNITS      : counts
#DATATYPE    : Y
#XPERCHAN    : 9.99778
#OFFSET      : 1.69135
#BEAMKV      : 20
#SIGNALTYPE  : EDS
#ELEVANGLE   : 35
#AZIMANGLE   : 0
#LIVETIME    : 240.32
#REALTIME    : 267.751
#PROBECUR    : 1.22475
#TAUWIND     : 0
#TDEADLYR    : 0
#TACTLYR     : 0.045
#TALWIND     : 0.025
#CHOFFSET    : 0.0
#XLABEL      : Energy (eV)
#YLABEL      : Counts
#XPOSITION   : 8.46941
#YPOSITION   : 3.0126
#ZPOSITION   : 34.00159
#EDSDET      : SD
##SPECIMEN   : GM IIIB K366[0][all]
##D2STDCMP   : K366,(O:20.43),(Si:13.45),(Pb:66.12)
##DET_HASH   : 12273538-fd48-a23f-0a19-f1e6fa85caef
##CALIB_HASH : 6abaa72c-aa41-8738-0be9-f592914732f3
##WORKING    : 15.0 mm
##DET_NAME   : EDAX All
##DET_MODE   : MediumLE
#SPECTRUM    :
25,
23,
5,
42,
248,
884,
2435,
5239,
10609,
13076,
8993,
6397,
6116,
6380,
7349,
14532,
41634,
73812,
54290,
19010,
9859,
8088,
7648,
8523,
7713,
6658,
6525,
6921,
7214,
7109,
7491,
7362,
7516,
7720,
7976,
8245,
8460,
8442,
8558,
8838,
9077,
9129,
9552,
9674,
9893,
10218,
10270,
10518,
10818,
11381,
11813,
11460,
11263,
11444,
12511,
19479,
52655,
122513,
164734,
121249,
60689,
34458,
22407,
14167,
10220,
9446,
8984,
8724,
8886,
9067,
9539,
10483,
11825,
13213,
15592,
24934,
56865,
121641,
178466,
172577,
137380,
125866,
107460,
63268,
26930,
11740,
9150,
10794,
12759,
12370,
9546,
7057,
5892,
5666,
5634,
5724,
5888,
6156,
6247,
6061,
6470,
7175,
7390,
7623,
7306,
6645,
6304,
5924,
5617,
5486,
5269,
5297,
5323,
5552,
5492,
5604,
5626,
5679,
5560,
5460,
5386,
5131,
5406,
5356,
5365,
5274,
5326,
5416,
5244,
5074,
5270,
5262,
5260,
5216,
5279,
5371,
5521,
5392,
5485,
5473,
5298,
5326,
5233,
5331,
5192,
5264,
5071,
5208,
5385,
5479,
5672,
5581,
5255,
5211,
5062,
5118,
4989,
5250,
5219,
5325,
5246,
5147,
5053,
5080,
4890,
5047,
4878,
4908,
4843,
4796,
4948,
4730,
4792,
4713,
4615,
4787,
4688,
4725,
4630,
4566,
4544,
4500,
4609,
4419,
4439,
4529,
4447,
4414,
4467,
4419,
4404,
4370,
4358,
4408,
4488,
4339,
4153,
4357,
4286,
4273,
4224,
4231,
4166,
4203,
4085,
4059,
4129,
3994,
4006,
4087,
4223,
4152,
4343,
4409,
4453,
4220,
4153,
3880,
3902,
3831,
3783,
3776,
3832,
3789,
3731,
3833,
3755,
3683,
3780,
3705,
3659,
3687,
3651,
3612,
3713,
3724,
3520,
3527,
3669,
3543,
3383,
3475,
3490,
3432,
3538,
3427,
3546,
3594,
3680,
3578,
3637,
3509,
3394,
3331,
3243,
3226,
3180,
3259,
3233,
3258,
3111,
3180,
3102,
2987,
3107,
3109,
3034,
3172,
3010,
2953,
3000,
2983,
2938,
2912,
3041,
2932,
2962,
2898,
2779,
2840,
2808,
2761,
2847,
2861,
2793,
2707,
2835,
2776,
2590,
2681,
2662,
2707,
2714,
2620,
2678,
2594,
2725,
2647,
2564,
2563,
2550,
2589,
2729,
2917,
2990,
3010,
3238,
3045,
2953,
2823,
2587,
2442,
2402,
2397,
2369,
2282,
2387,
2359,
2341,
2225,
2330,
2250,
2254,
2252,
2253,
2216,
2162,
2170,
2213,
2225,
2177,
2187,
2186,
2080,
2110,
2162,
2213,
2070,
2074,
2068,
2057,
2127,
2137,
2269,
2469,
3020,
3746,
5269,
7237,
9962,
12315,
13457,
13418,
11427,
8451,
5855,
3788,
2698,
2233,
1956,
1889,
1819,
1797,
1824,
1796,
1781,
1732,
1806,
1747,
1681,
1672,
1677,
1570,
1684,
1638,
1611,
1620,
1704,
1644,
1617,
1606,
1482,
1482,
1480,
1486,
1482,
1478,
1388,
1506,
1456,
1472,
1439,
1377,
1368,
1437,
1349,
1394,
1360,
1329,
1364,
1436,
1480,
1375,
1475,
1468,
1486,
1587,
1475,
1525,
1442,
1448,
1451,
1452,
1414,
1519,
1822,
2459,
3273,
4260,
5193,
5635,
5230,
4603,
3662,
2769,
2126,
1690,
1491,
1340,
1222,
1226,
1303,
1312,
1244,
1318,
1205,
1156,
1095,
998,
965,
921,
939,
920,
915,
894,
905,
918,
909,
893,
889,
847,
820,
823,
825,
825,
834,
859,
804,
808,
767,
791,
798,
703,
753,
689,
752,
755,
727,
768,
705,
734,
693,
714,
758,
708,
716,
680,
622,
666,
699,
655,
644,
631,
660,
581,
638,
675,
727,
753,
845,
918,
920,
990,
904,
801,
780,
695,
661,
617,
606,
562,
579,
627,
555,
669,
616,
586,
578,
577,
546,
541,
509,
474,
454,
443,
480,
451,
468,
409,
405,
442,
448,
445,
420,
410,
424,
425,
381,
399,
431,
424,
379,
419,
363,
355,
372,
380,
389,
358,
340,
362,
316,
358,
334,
330,
326,
319,
289,
318,
335,
298,
292,
297,
257,
299,
262,
259,
268,
283,
266,
277,
261,
250,
248,
246,
197,
246,
257,
203,
219,
228,
232,
255,
228,
229,
194,
229,
206,
212,
205,
191,
195,
207,
200,
189,
198,
187,
181,
183,
194,
167,
153,
179,
158,
174,
166,
166,
160,
141,
155,
122,
153,
138,
140,
139,
124,
140,
142,
117,
116,
114,
121,
109,
116,
126,
105,
117,
95,
84,
91,
83,
86,
82,
83,
105,
68,
95,
67,
77,
98,
85,
64,
74,
53,
52,
56,
75,
48,
64,
57,
50,
51,
55,
36,
41,
45,
44,
58,
41,
38,
27,
30,
35,
23,
23,
16,
18,
13,
22,
11,
23,
10,
13,
19,
13,
13,
5,
12,
4,
0,
2,
0,
4,
2,
4,
2,
7,
6,
2,
8,
2,
2,
2,
5,
3,
3,
4,
4,
1,
3,
3,
5,
4,
2,
4,
2,
3,
5,
5,
3,
6,
5,
2,
2,
2,
5,
4,
3,
8,
4,
3,
2,
2,
4,
0,
4,
5,
2,
3,
2,
3,
3,
2,
1,
2,
2,
1,
5,
5,
2,
2,
1,
4,
2,
2,
2,
4,
1,
1,
2,
3,
3,
0,
1,
1,
2,
1,
2,
2,
1,
1,
4,
2,
2,
2,
3,
1,
0,
1,
0,
0,
2,
2,
2,
3,
3,
0,
1,
1,
2,
4,
1,
2,
3,
0,
4,
3,
2,
1,
3,
3,
0,
0,
1,
1,
0,
1,
2,
1,
2,
3,
1,
2,
1,
0,
2,
0,
1,
0,
1,
1,
2,
2,
3,
1,
3,
0,
0,
4,
0,
2,
1,
2,
3,
0,
1,
1,
3,
2,
0,
0,
0,
4,
0,
2,
2,
1,
2,
2,
2,
3,
1,
0,
0,
2,
3,
1,
3,
1,
1,
3,
0,
1,
2,
0,
2,
1,
1,
1,
3,
0,
0,
2,
0,
1,
0,
1,
1,
0,
2,
4,
0,
1,
3,
0,
1,
0,
3,
0,
2,
0,
0,
0,
1,
1,
1,
0,
0,
1,
2,
1,
0,
0,
1,
0,
2,
0,
0,
0,
1,
2,
1,
0,
0,
0,
1,
1,
0,
0,
1,
3,
1,
1,
1,
1,
2,
0,
1,
1,
0,
0,
0,
1,
1,
0,
1,
1,
0,
0,
2,
0,
2,
0,
0,
1,
0,
0,
0,
0,
0,
0,
0,
1,
0,
0,
1,
0,
1,
0,
0,
0,
2,
1,
0,
1,
1,
0,
0,
0,
1,
0,
0,
0,
0,
0,
0,
0,
2,
0,
1,
0,
1,
1,
0,
0,
0,
0,
0,
0,
0,
0,
1,
0,
0,
0,
0,
0,
0,
0,
0,
1,
0,
0,
0,
0,
0,
0,
0,
0,
1,
0,
1,
0,
0,
0,
0,
0,
0,
1,
0,
0,
0,
0,
1,
0,
1,
0,
0,
0,
1,
0,
1,
0,
0,
0,
1,
0,
0,
0,
0,
0,
1,
0,
0,
0,
0,
0,
0,
0,
0,
0,
0,
0,
0,
0,
1,
0,
0,
0,
0,
0,
0,
0,
0,
0,
0,
0,
0,
0,
0,
0,
0,
1,
0,
0,
0,
0,
0,
0,
0,
0,
0,
0,
0,
1,
0,
0,
0,
0,
0,
0,
0,
0,
0,
0,
0,
0,
0,
1,
0,
0,
0,
0,
0,
0,
0,
0,
0,
0,
0,
0,
0,
0,
0,
0,
0,
0,
1,
0,
1,
0,
0,
1,
0,
0,
0,
0,
0,
0,
0,
0,
0,
0,
0,
0,
0,
0,
0,
0,
0,
0,
0,
0,
0,
0,
0,
0,
0,
0,
0,
0,
0,
0,
0,
0,
0,
0,
0,
0,
0,
0,
0,
0,
0,
0,
0,
0,
0,
0,
0,
0,
0,
0,
0,
0,
0,
0,
0,
0,
0,
0,
0,
0,
0,
0,
0,
0,
0,
0,
0,
0,
0,
0,
0,
0,
0,
0,
0,
0,
0,
0,
0,
0,
0,
0,
0,
1,
0,
0,
0,
0,
0,
0,
0,
0,
0,
0,
0,
0,
0,
0,
0,
0,
0,
0,
0,
0,
0,
0,
0,
0,
0,
0,
0,
1,
0,
0,
0,
0,
0,
0,
0,
0,
0,
0,
0,
0,
0,
0,
0,
0,
0,
0,
0,
0,
0,
0,
0,
0,
0,
0,
0,
0,
0,
0,
0,
0,
0,
0,
0,
0,
0,
0,
0,
0,
0,
0,
0,
0,
0,
0,
0,
0,
0,
0,
0,
0,
0,
0,
0,
0,
0,
0,
0,
0,
0,
0,
0,
0,
0,
0,
0,
0,
0,
0,
0,
0,
0,
0,
0,
0,
0,
0,
0,
0,
0,
0,
0,
0,
0,
0,
0,
0,
0,
0,
0,
0,
0,
0,
0,
0,
0,
0,
0,
0,
0,
0,
0,
0,
0,
0,
0,
0,
0,
0,
0,
0,
0,
0,
0,
0,
0,
0,
0,
0,
0,
0,
0,
0,
0,
0,
0,
0,
0,
0,
0,
0,
0,
0,
0,
0,
0,
0,
0,
0,
0,
0,
0,
0,
0,
0,
0,
0,
0,
0,
0,
#ENDOFDATA   :