File: N132962/Quantification/20 keV/Glass Mount IIIB/GM IIIB K1053[3][4].msa
#FORMAT      : EMSA/MAS Spectral Data File
#VERSION     : 1.0
#TITLE       : GM IIIB K1053[3][all]
#DATE        : 10-SEP-2025
#TIME        : 16:59
#OWNER       : Unknown
#NPOINTS     : 4096
#NCOLUMNS    : 1
#XUNITS      : eV
#YUNITS      : counts
#DATATYPE    : Y
#XPERCHAN    : 9.99778
#OFFSET      : 1.69135
#BEAMKV      : 20
#SIGNALTYPE  : EDS
#ELEVANGLE   : 35
#AZIMANGLE   : 0
#LIVETIME    : 240.281
#REALTIME    : 268.977
#PROBECUR    : 1.22416
#TAUWIND     : 0
#TDEADLYR    : 0
#TACTLYR     : 0.045
#TALWIND     : 0.025
#CHOFFSET    : 0.0
#XLABEL      : Energy (eV)
#YLABEL      : Counts
#XPOSITION   : 3.49728
#YPOSITION   : 13.85677
#ZPOSITION   : 34.06144
#EDSDET      : SD
##SPECIMEN   : GM IIIB K1053[3][all]
##D2STDCMP   : K1053,(O:16.13),(F:0.39),(Si:9.35),(Cl:0.64),(Br:1.09),(I:1.37),(Pb:71.02)
##DET_HASH   : 12273538-fd48-a23f-0a19-f1e6fa85caef
##CALIB_HASH : 6abaa72c-aa41-8738-0be9-f592914732f3
##WORKING    : 15.0 mm
##DET_NAME   : EDAX All
##DET_MODE   : MediumLE
#SPECTRUM    :
16,
23,
15,
61,
292,
1102,
2928,
6397,
12781,
15208,
10045,
6840,
6348,
6533,
7333,
12817,
33421,
57801,
42679,
16682,
10411,
9426,
10043,
10560,
8983,
7259,
6820,
7126,
7666,
7870,
7859,
7946,
8096,
8146,
8629,
8697,
8570,
8979,
9057,
9337,
9653,
9868,
10228,
10295,
10594,
10663,
11009,
11458,
13993,
17339,
17862,
15864,
13438,
12176,
12619,
17178,
40285,
87604,
116145,
88773,
49158,
32188,
22647,
14831,
11250,
10232,
9936,
9699,
9772,
10092,
10459,
11426,
12992,
14484,
17547,
27604,
63203,
135884,
199067,
192001,
153383,
139802,
118645,
70427,
29935,
13264,
11782,
14964,
16955,
15134,
11096,
7749,
6483,
6322,
6369,
6251,
6532,
6654,
6576,
6673,
6803,
7544,
8086,
8236,
7859,
7223,
6630,
6265,
5858,
5788,
5707,
5662,
5639,
5786,
5868,
5906,
5948,
6021,
5968,
5701,
5860,
5719,
5573,
5772,
5722,
5851,
5937,
5759,
5965,
6387,
7164,
7579,
7510,
6728,
6196,
5899,
5937,
5996,
6051,
6187,
6668,
6770,
6478,
6141,
5939,
5820,
5668,
5727,
5930,
6308,
6320,
6384,
6086,
5663,
5674,
5592,
5505,
5621,
5715,
5710,
5767,
5761,
5607,
5717,
5385,
5341,
5341,
5285,
5333,
5148,
5197,
5204,
5190,
5009,
5186,
5038,
5001,
4953,
4965,
4918,
4873,
4926,
4983,
4975,
5049,
4813,
4795,
4901,
4766,
4741,
4778,
4765,
4768,
4854,
4659,
4758,
4761,
4651,
4626,
4605,
4557,
4567,
4502,
4487,
4485,
4480,
4529,
4394,
4458,
4530,
4585,
4653,
4818,
4889,
4768,
4623,
4412,
4374,
4266,
4214,
4159,
4220,
4258,
4169,
4100,
4204,
4047,
3974,
3894,
4119,
4079,
4035,
3965,
4227,
3890,
4027,
4075,
3857,
3908,
3802,
3811,
3859,
3801,
3788,
3753,
3848,
3799,
3894,
3973,
3944,
3891,
3802,
3723,
3682,
3484,
3606,
3571,
3549,
3461,
3450,
3346,
3397,
3406,
3450,
3428,
3385,
3325,
3354,
3290,
3374,
3363,
3272,
3303,
3329,
3374,
3212,
3195,
3126,
3153,
3041,
3160,
3192,
3095,
3115,
3079,
3068,
3030,
2994,
2970,
2928,
3063,
3016,
2862,
2908,
2888,
2949,
2958,
2873,
2946,
2873,
2845,
2908,
2878,
3095,
3316,
3518,
3433,
3475,
3227,
2991,
2940,
2834,
2659,
2656,
2588,
2521,
2597,
2536,
2651,
2578,
2600,
2522,
2436,
2539,
2438,
2452,
2480,
2426,
2415,
2356,
2418,
2362,
2343,
2331,
2345,
2320,
2255,
2295,
2316,
2334,
2316,
2302,
2281,
2464,
2733,
3370,
4285,
5859,
8252,
11192,
13707,
15301,
15054,
12854,
9373,
6502,
4299,
2923,
2494,
2179,
2048,
2012,
1981,
1888,
1962,
2008,
1898,
1926,
1923,
1826,
1913,
1837,
1891,
1866,
1851,
1845,
1841,
1834,
1859,
1891,
1787,
1739,
1788,
1633,
1666,
1643,
1654,
1718,
1669,
1600,
1599,
1651,
1617,
1704,
1702,
1770,
1794,
1926,
1740,
1723,
1639,
1582,
1657,
1673,
1668,
1701,
1556,
1702,
1568,
1594,
1622,
1570,
1545,
1638,
1671,
2062,
2793,
3717,
4844,
5811,
6082,
6095,
5176,
4178,
3132,
2463,
1951,
1717,
1494,
1408,
1458,
1393,
1393,
1436,
1468,
1403,
1225,
1177,
1179,
1070,
1079,
1016,
1050,
1003,
1039,
973,
1038,
1001,
1022,
937,
1017,
909,
942,
926,
906,
911,
868,
885,
936,
872,
876,
885,
827,
890,
840,
807,
843,
817,
808,
833,
821,
783,
834,
841,
769,
757,
741,
810,
823,
741,
816,
708,
728,
729,
695,
674,
705,
806,
845,
950,
1004,
1103,
1073,
1004,
981,
844,
766,
677,
675,
686,
709,
685,
689,
684,
669,
679,
670,
655,
651,
615,
604,
556,
520,
560,
527,
540,
493,
489,
462,
522,
503,
470,
508,
502,
484,
430,
485,
433,
505,
413,
461,
403,
438,
441,
432,
393,
380,
420,
416,
399,
363,
384,
363,
374,
381,
361,
324,
335,
356,
303,
360,
347,
343,
288,
328,
328,
297,
312,
304,
277,
284,
253,
301,
276,
273,
318,
268,
290,
264,
286,
279,
237,
267,
261,
272,
272,
250,
237,
243,
276,
241,
242,
211,
211,
213,
222,
180,
206,
201,
200,
204,
175,
209,
170,
203,
157,
194,
186,
172,
180,
185,
158,
154,
161,
148,
138,
154,
140,
130,
139,
133,
141,
126,
126,
126,
120,
118,
134,
107,
132,
113,
107,
112,
107,
108,
113,
96,
77,
87,
79,
104,
79,
94,
79,
64,
72,
77,
62,
74,
73,
59,
60,
78,
58,
52,
45,
42,
45,
46,
41,
51,
40,
34,
40,
22,
33,
25,
23,
19,
20,
29,
16,
16,
15,
9,
8,
9,
10,
5,
12,
4,
7,
10,
6,
6,
7,
4,
2,
5,
7,
7,
7,
7,
6,
3,
5,
3,
11,
4,
2,
5,
2,
3,
4,
4,
3,
5,
10,
4,
4,
5,
5,
5,
6,
5,
7,
5,
7,
5,
2,
3,
4,
4,
2,
4,
6,
4,
1,
1,
0,
3,
3,
3,
2,
3,
4,
1,
2,
2,
1,
2,
4,
6,
1,
2,
2,
2,
3,
5,
2,
7,
1,
2,
0,
3,
3,
3,
2,
4,
4,
0,
1,
4,
2,
3,
4,
5,
1,
0,
3,
1,
2,
1,
4,
2,
2,
1,
1,
4,
0,
4,
2,
0,
3,
0,
3,
4,
2,
1,
0,
1,
0,
2,
1,
3,
1,
1,
6,
3,
0,
0,
2,
1,
0,
1,
1,
0,
1,
2,
2,
3,
0,
1,
0,
0,
3,
1,
2,
1,
2,
0,
0,
3,
2,
1,
0,
1,
1,
1,
0,
1,
1,
3,
2,
0,
0,
0,
1,
3,
1,
1,
1,
0,
0,
1,
1,
2,
1,
3,
2,
3,
5,
3,
0,
0,
3,
1,
2,
1,
1,
0,
1,
0,
2,
1,
1,
1,
0,
1,
1,
1,
1,
1,
1,
1,
1,
2,
1,
1,
1,
2,
1,
2,
0,
0,
0,
1,
2,
1,
0,
3,
0,
0,
1,
1,
1,
2,
0,
0,
0,
1,
1,
2,
0,
0,
0,
0,
1,
2,
3,
0,
0,
1,
0,
2,
1,
1,
1,
0,
1,
0,
0,
1,
0,
0,
0,
0,
1,
0,
1,
1,
0,
0,
0,
0,
0,
2,
1,
1,
0,
0,
0,
1,
1,
0,
0,
0,
1,
1,
1,
0,
0,
0,
1,
0,
0,
3,
0,
0,
0,
0,
0,
0,
0,
1,
0,
1,
0,
1,
0,
1,
0,
0,
1,
0,
0,
0,
0,
0,
0,
0,
0,
1,
1,
0,
0,
0,
1,
0,
0,
0,
0,
1,
3,
0,
1,
1,
0,
0,
0,
0,
0,
0,
0,
0,
0,
0,
0,
2,
0,
0,
0,
0,
0,
0,
0,
0,
0,
1,
0,
0,
0,
0,
0,
0,
0,
0,
0,
0,
1,
0,
0,
0,
1,
0,
0,
1,
0,
0,
0,
1,
0,
0,
0,
0,
0,
0,
0,
0,
0,
0,
0,
0,
0,
0,
0,
0,
0,
0,
0,
0,
0,
0,
0,
0,
0,
0,
0,
0,
0,
0,
0,
0,
0,
0,
0,
0,
0,
0,
0,
0,
0,
0,
0,
1,
0,
0,
0,
0,
0,
0,
0,
1,
0,
0,
0,
0,
0,
0,
0,
0,
0,
0,
0,
0,
0,
0,
1,
0,
0,
0,
0,
0,
0,
0,
0,
0,
0,
0,
0,
0,
0,
0,
0,
0,
0,
0,
0,
0,
0,
0,
1,
0,
0,
0,
0,
0,
0,
1,
1,
0,
0,
0,
0,
0,
0,
0,
0,
0,
0,
0,
0,
0,
0,
0,
0,
0,
0,
0,
0,
0,
0,
0,
0,
0,
0,
0,
0,
0,
0,
0,
0,
0,
0,
0,
0,
0,
0,
0,
0,
0,
0,
0,
0,
0,
0,
0,
0,
0,
0,
0,
0,
0,
0,
0,
0,
0,
0,
0,
0,
0,
0,
0,
0,
0,
0,
0,
0,
0,
0,
0,
0,
0,
0,
0,
0,
0,
0,
0,
0,
0,
0,
0,
0,
0,
0,
0,
0,
0,
0,
0,
0,
0,
0,
0,
0,
0,
0,
0,
0,
0,
0,
0,
0,
0,
0,
0,
0,
0,
0,
0,
0,
0,
0,
0,
0,
0,
0,
0,
0,
0,
0,
0,
0,
0,
0,
0,
0,
0,
0,
0,
0,
0,
0,
0,
0,
0,
0,
0,
0,
0,
0,
0,
0,
0,
0,
0,
0,
0,
0,
0,
0,
0,
0,
0,
0,
0,
0,
0,
0,
0,
0,
0,
0,
0,
0,
0,
0,
0,
0,
0,
0,
0,
0,
0,
0,
0,
0,
0,
0,
0,
0,
0,
0,
0,
0,
0,
0,
0,
0,
0,
0,
0,
0,
0,
0,
0,
0,
0,
0,
0,
0,
0,
0,
0,
0,
0,
0,
0,
0,
0,
0,
0,
0,
0,
0,
0,
0,
0,
0,
0,
0,
0,
0,
0,
0,
0,
0,
0,
0,
0,
0,
0,
0,
0,
0,
#ENDOFDATA   :