File: N132962/Quantification/20 keV/Glass Mount IIIB/GM IIIB K919[2][4].msa
#FORMAT      : EMSA/MAS Spectral Data File
#VERSION     : 1.0
#TITLE       : GM IIIB K919[2][all]
#DATE        : 10-SEP-2025
#TIME        : 16:05
#OWNER       : Unknown
#NPOINTS     : 4096
#NCOLUMNS    : 1
#XUNITS      : eV
#YUNITS      : counts
#DATATYPE    : Y
#XPERCHAN    : 9.99778
#OFFSET      : 1.69135
#BEAMKV      : 20
#SIGNALTYPE  : EDS
#ELEVANGLE   : 35
#AZIMANGLE   : 0
#LIVETIME    : 239.895
#REALTIME    : 261.28
#PROBECUR    : 1.22368
#TAUWIND     : 0
#TDEADLYR    : 0
#TACTLYR     : 0.045
#TALWIND     : 0.025
#CHOFFSET    : 0.0
#XLABEL      : Energy (eV)
#YLABEL      : Counts
#XPOSITION   : 13.82476
#YPOSITION   : 12.0299
#ZPOSITION   : 34.06144
#EDSDET      : SD
##SPECIMEN   : GM IIIB K919[2][all]
##D2STDCMP   : K919,(O:31.86),(Si:20.1),(Cr:0.68),(Mn:1.9),(Fe:2.1),(Co:2.13),(Ni:2.36),(Cu:2.4),(Ba:34.03),(Ce:2.44)
##DET_HASH   : 12273538-fd48-a23f-0a19-f1e6fa85caef
##CALIB_HASH : 6abaa72c-aa41-8738-0be9-f592914732f3
##WORKING    : 15.0 mm
##DET_NAME   : EDAX All
##DET_MODE   : MediumLE
#SPECTRUM    :
26,
22,
7,
33,
129,
508,
1408,
3245,
6867,
8815,
6489,
5546,
6203,
7358,
11011,
31728,
110684,
205025,
149220,
45709,
15261,
10625,
9575,
10064,
10909,
12461,
13685,
11692,
10711,
10133,
10006,
10734,
9425,
7095,
6029,
5795,
5282,
4722,
4504,
4656,
4706,
4773,
4932,
4966,
5088,
5046,
5258,
5559,
5850,
6148,
6328,
6417,
6573,
6704,
7628,
15488,
52317,
128026,
172631,
122632,
51724,
19735,
10850,
6784,
5165,
4674,
4717,
4760,
4561,
4715,
4806,
4892,
4782,
5103,
5300,
5427,
5518,
5333,
5263,
4955,
5173,
5096,
4934,
5069,
4881,
5057,
5082,
5205,
5164,
5224,
5403,
5517,
5132,
4984,
4794,
4757,
4870,
4914,
4925,
5058,
5070,
4907,
4934,
4844,
4931,
4751,
4945,
4640,
4735,
4647,
4561,
4671,
4538,
4627,
4620,
4736,
4514,
4646,
4562,
4489,
4552,
4424,
4575,
4674,
4427,
4296,
4262,
4362,
4351,
4661,
5133,
5923,
6219,
5846,
5050,
4409,
4180,
4090,
4077,
4052,
4101,
4230,
4475,
4918,
5929,
8732,
17121,
33908,
52287,
59417,
48227,
29205,
13936,
6940,
4598,
4017,
4363,
5775,
9969,
17763,
28251,
33225,
30969,
22809,
15713,
10764,
7564,
5911,
5076,
5868,
8389,
11252,
12628,
11387,
9133,
6739,
5406,
4956,
4675,
5190,
5571,
5853,
5921,
6413,
6847,
6626,
5702,
4540,
3622,
3301,
3226,
3666,
4043,
4889,
5949,
6993,
7932,
7767,
6431,
4916,
3745,
3119,
2787,
2614,
2535,
2505,
2385,
2367,
2536,
2856,
3571,
4881,
6490,
7275,
7093,
6061,
4587,
3514,
2794,
2431,
2417,
2174,
2156,
2079,
2097,
2158,
2389,
2757,
3523,
4680,
5877,
6037,
5408,
4510,
3606,
2978,
2668,
2352,
2177,
2040,
1948,
1985,
1935,
1922,
2125,
2502,
3227,
4264,
5320,
5743,
5270,
4211,
3315,
2813,
2412,
2349,
2228,
2133,
1944,
1843,
1832,
1810,
1813,
1957,
2319,
2902,
3523,
4402,
4507,
4200,
3473,
2778,
2288,
2072,
2150,
2108,
2066,
1899,
1812,
1637,
1642,
1543,
1548,
1522,
1523,
1556,
1484,
1490,
1575,
1487,
1502,
1526,
1487,
1480,
1613,
1755,
1743,
1795,
1768,
1626,
1449,
1446,
1410,
1353,
1325,
1288,
1232,
1311,
1250,
1255,
1272,
1228,
1378,
1244,
1228,
1267,
1227,
1237,
1213,
1248,
1200,
1139,
1165,
1201,
1138,
1236,
1133,
1176,
1281,
1078,
1189,
1130,
1161,
1046,
1080,
1120,
1095,
1026,
1063,
1119,
1045,
975,
1087,
1078,
1085,
1046,
934,
1020,
988,
973,
990,
984,
999,
946,
958,
1001,
972,
930,
942,
957,
965,
924,
867,
919,
928,
872,
890,
861,
910,
868,
854,
835,
884,
850,
852,
809,
810,
890,
833,
832,
801,
771,
766,
791,
743,
773,
763,
805,
759,
741,
768,
757,
675,
723,
734,
692,
685,
746,
616,
661,
686,
671,
695,
622,
670,
616,
605,
624,
646,
650,
611,
630,
615,
594,
617,
630,
618,
606,
553,
571,
576,
540,
567,
591,
577,
552,
581,
513,
516,
526,
507,
531,
509,
492,
493,
489,
497,
510,
491,
474,
482,
467,
492,
473,
417,
451,
455,
477,
452,
437,
445,
413,
382,
404,
395,
430,
415,
409,
384,
427,
394,
407,
376,
368,
363,
362,
340,
351,
342,
358,
326,
343,
367,
356,
323,
367,
346,
339,
319,
306,
340,
321,
300,
347,
307,
272,
292,
327,
313,
261,
301,
274,
275,
276,
262,
253,
291,
284,
285,
236,
236,
227,
226,
259,
257,
224,
248,
258,
226,
242,
234,
222,
243,
228,
235,
176,
220,
219,
197,
207,
162,
194,
181,
205,
218,
205,
190,
202,
196,
181,
192,
195,
160,
155,
155,
155,
161,
171,
155,
139,
151,
159,
140,
137,
139,
150,
156,
130,
138,
113,
142,
130,
125,
132,
146,
135,
149,
105,
109,
120,
120,
96,
119,
102,
105,
100,
108,
103,
111,
90,
104,
94,
98,
105,
91,
111,
95,
82,
92,
82,
88,
102,
80,
81,
83,
81,
79,
74,
87,
65,
82,
72,
79,
68,
70,
68,
58,
62,
64,
50,
56,
58,
48,
63,
52,
49,
49,
48,
63,
50,
50,
43,
38,
44,
43,
38,
31,
47,
44,
44,
49,
42,
40,
23,
25,
40,
31,
40,
22,
35,
37,
39,
28,
22,
26,
17,
12,
21,
21,
15,
18,
15,
21,
20,
17,
20,
8,
10,
16,
16,
9,
16,
6,
14,
9,
9,
13,
13,
4,
3,
6,
4,
3,
3,
5,
4,
1,
2,
0,
1,
3,
1,
0,
3,
2,
2,
1,
2,
5,
4,
1,
0,
0,
2,
2,
1,
0,
1,
1,
1,
1,
4,
1,
2,
1,
4,
2,
1,
2,
1,
2,
2,
2,
0,
2,
1,
0,
1,
2,
1,
1,
0,
1,
2,
2,
0,
1,
0,
0,
0,
1,
1,
1,
1,
0,
0,
0,
0,
1,
0,
1,
2,
0,
1,
1,
0,
2,
0,
1,
1,
0,
0,
0,
1,
0,
0,
1,
0,
0,
0,
0,
0,
0,
0,
0,
1,
0,
0,
0,
0,
0,
1,
0,
1,
1,
2,
1,
0,
0,
0,
0,
3,
0,
0,
0,
1,
0,
0,
1,
1,
0,
0,
0,
1,
1,
0,
1,
0,
0,
0,
1,
0,
0,
1,
0,
1,
0,
0,
1,
0,
0,
0,
0,
0,
0,
0,
1,
0,
0,
0,
0,
0,
1,
0,
1,
0,
0,
0,
0,
0,
0,
0,
0,
0,
1,
0,
0,
0,
0,
1,
0,
0,
0,
0,
0,
0,
0,
1,
0,
1,
0,
0,
1,
0,
0,
0,
0,
0,
0,
0,
0,
0,
0,
0,
0,
0,
0,
0,
1,
0,
1,
0,
0,
0,
0,
0,
0,
0,
0,
0,
0,
0,
0,
0,
1,
0,
0,
0,
0,
0,
0,
0,
0,
0,
0,
1,
0,
1,
1,
0,
0,
0,
0,
0,
0,
0,
0,
0,
0,
0,
0,
1,
1,
0,
0,
0,
0,
0,
1,
0,
1,
0,
0,
0,
0,
0,
0,
0,
0,
0,
0,
0,
0,
0,
0,
0,
0,
0,
0,
0,
0,
0,
0,
0,
0,
0,
0,
0,
0,
0,
0,
0,
0,
0,
0,
0,
0,
0,
0,
0,
0,
0,
0,
0,
0,
0,
0,
0,
0,
0,
0,
0,
0,
0,
0,
0,
0,
0,
0,
0,
0,
0,
0,
0,
1,
0,
0,
0,
0,
0,
0,
0,
0,
0,
0,
0,
0,
0,
0,
0,
0,
0,
0,
0,
0,
0,
0,
0,
0,
0,
0,
0,
0,
0,
0,
0,
0,
0,
0,
0,
0,
0,
0,
0,
0,
0,
0,
0,
0,
0,
0,
0,
0,
0,
0,
0,
0,
0,
0,
0,
0,
0,
0,
0,
0,
0,
0,
0,
0,
0,
0,
0,
0,
0,
0,
0,
0,
0,
0,
0,
0,
0,
0,
0,
0,
0,
0,
0,
0,
0,
0,
0,
0,
0,
0,
0,
0,
0,
0,
0,
0,
0,
0,
0,
0,
0,
0,
0,
0,
0,
0,
0,
0,
0,
0,
0,
0,
0,
0,
0,
0,
0,
0,
0,
0,
0,
0,
0,
0,
0,
0,
0,
0,
0,
0,
0,
0,
0,
0,
0,
0,
0,
0,
0,
0,
0,
0,
0,
0,
0,
0,
0,
0,
0,
0,
0,
0,
0,
0,
0,
0,
0,
0,
0,
0,
0,
0,
0,
0,
0,
0,
0,
0,
0,
0,
0,
0,
0,
0,
0,
0,
0,
0,
0,
0,
0,
0,
0,
0,
0,
0,
0,
0,
0,
0,
0,
0,
0,
0,
0,
0,
0,
0,
0,
0,
0,
0,
0,
0,
0,
0,
0,
0,
0,
0,
0,
0,
0,
0,
0,
0,
0,
0,
0,
0,
0,
0,
0,
0,
0,
0,
0,
0,
0,
0,
0,
0,
0,
0,
0,
0,
0,
0,
0,
0,
0,
0,
0,
0,
0,
0,
0,
0,
0,
0,
0,
0,
0,
0,
0,
0,
0,
0,
0,
0,
0,
0,
0,
0,
0,
0,
0,
0,
0,
0,
0,
0,
0,
0,
0,
0,
0,
0,
0,
0,
0,
0,
0,
0,
0,
0,
0,
0,
0,
0,
0,
0,
0,
0,
0,
0,
0,
0,
0,
0,
0,
0,
0,
0,
0,
0,
0,
0,
0,
0,
0,
0,
0,
0,
0,
0,
0,
0,
0,
0,
0,
0,
0,
0,
0,
0,
0,
0,
0,
0,
0,
0,
0,
0,
0,
0,
0,
0,
0,
0,
0,
0,
0,
0,
0,
0,
0,
0,
0,
0,
0,
0,
0,
0,
0,
0,
0,
0,
0,
0,
0,
0,
0,
0,
0,
0,
0,
0,
0,
0,
0,
0,
0,
0,
0,
0,
0,
0,
0,
0,
0,
0,
0,
0,
0,
0,
0,
0,
0,
0,
0,
#ENDOFDATA   :