File: N132962/Quantification/20 keV/Glass Mount IIIB/GM IIIB K961[4][4].msa
#FORMAT      : EMSA/MAS Spectral Data File
#VERSION     : 1.0
#TITLE       : GM IIIB K961[4][all]
#DATE        : 11-SEP-2025
#TIME        : 09:58
#OWNER       : Unknown
#NPOINTS     : 4096
#NCOLUMNS    : 1
#XUNITS      : eV
#YUNITS      : counts
#DATATYPE    : Y
#XPERCHAN    : 9.99778
#OFFSET      : 1.69135
#BEAMKV      : 20
#SIGNALTYPE  : EDS
#ELEVANGLE   : 35
#AZIMANGLE   : 0
#LIVETIME    : 240.1835
#REALTIME    : 259.234
#PROBECUR    : 1.22337
#TAUWIND     : 0
#TDEADLYR    : 0
#TACTLYR     : 0.045
#TALWIND     : 0.025
#CHOFFSET    : 0.0
#XLABEL      : Energy (eV)
#YLABEL      : Counts
#XPOSITION   : 11.35184
#YPOSITION   : 12.05042
#ZPOSITION   : 34.00161
#EDSDET      : SD
##SPECIMEN   : GM IIIB K961[4][all]
##D2STDCMP   : K961,(O:46.98),(Na:2.97),(Mg:3.02),(Al:5.82),(Si:29.92),(P:0.22),(K:2.49),(Ca:3.57),(Ti:1.2),(Mn:0.32),(Fe:3.5)
##DET_HASH   : 12273538-fd48-a23f-0a19-f1e6fa85caef
##CALIB_HASH : 6abaa72c-aa41-8738-0be9-f592914732f3
##WORKING    : 15.0 mm
##DET_NAME   : EDAX All
##DET_MODE   : MediumLE
#SPECTRUM    :
28,
29,
7,
18,
74,
303,
776,
1898,
4178,
5481,
4107,
3471,
3752,
4787,
8051,
28060,
103768,
197788,
143075,
37882,
5684,
2973,
3827,
5343,
5352,
3798,
2890,
2902,
3061,
3228,
3318,
3614,
4801,
9829,
19063,
20821,
12021,
5914,
4740,
6018,
12373,
25095,
29747,
18646,
8498,
5704,
6193,
11290,
30303,
57881,
58627,
32346,
13557,
7952,
8007,
21776,
87310,
224627,
305060,
214619,
86353,
28871,
12804,
6212,
4067,
3454,
4072,
4237,
3846,
3336,
3021,
2925,
2930,
3214,
3483,
3737,
3627,
3284,
2944,
2915,
2871,
2882,
2966,
2838,
2853,
2769,
2846,
2870,
2811,
2886,
2790,
2856,
2928,
2878,
2897,
2759,
2835,
2750,
2808,
2877,
2797,
2722,
2802,
2650,
2718,
2914,
3059,
3884,
6338,
11206,
15856,
15844,
11043,
6005,
3648,
3077,
3158,
3395,
3837,
4851,
6668,
11427,
17801,
21328,
18073,
11102,
5366,
3153,
2534,
2298,
2387,
2737,
3407,
4205,
4383,
3938,
3062,
2341,
2073,
2007,
2062,
1941,
1947,
1980,
1935,
1943,
2079,
2518,
3656,
5379,
6608,
6303,
4747,
3199,
2187,
1925,
1791,
1757,
1678,
1701,
1769,
1792,
1915,
2047,
2313,
2273,
2141,
1882,
1752,
1655,
1659,
1587,
1510,
1649,
1550,
1523,
1559,
1487,
1613,
1518,
1513,
1492,
1502,
1472,
1435,
1527,
1406,
1346,
1411,
1410,
1369,
1338,
1390,
1466,
1695,
1926,
2098,
1980,
1874,
1607,
1469,
1342,
1263,
1288,
1224,
1238,
1256,
1341,
1390,
1902,
2961,
5049,
7313,
8580,
8241,
6287,
3940,
2395,
1615,
1294,
1177,
1101,
1040,
1051,
1023,
1042,
1083,
1031,
1031,
1053,
1103,
1194,
1347,
1556,
1867,
1928,
1873,
1578,
1302,
1075,
1012,
1018,
931,
922,
887,
921,
950,
896,
977,
960,
879,
869,
905,
825,
803,
857,
887,
850,
818,
867,
815,
807,
803,
810,
859,
817,
759,
779,
787,
765,
781,
791,
797,
750,
775,
808,
754,
729,
724,
726,
659,
765,
686,
669,
684,
756,
688,
659,
642,
676,
718,
681,
656,
606,
635,
655,
620,
631,
615,
617,
598,
611,
598,
612,
604,
574,
580,
586,
544,
568,
551,
562,
558,
606,
564,
532,
527,
543,
577,
537,
499,
539,
568,
529,
532,
514,
483,
517,
533,
508,
507,
479,
477,
477,
456,
443,
444,
471,
470,
442,
461,
464,
422,
453,
438,
463,
462,
385,
412,
437,
387,
425,
390,
412,
395,
395,
412,
404,
384,
387,
364,
364,
382,
376,
369,
367,
367,
361,
402,
374,
333,
357,
331,
331,
317,
347,
336,
348,
369,
325,
333,
331,
311,
307,
333,
283,
313,
288,
291,
327,
305,
287,
288,
286,
248,
286,
311,
270,
286,
295,
248,
304,
233,
270,
242,
263,
256,
265,
251,
242,
270,
265,
225,
224,
210,
255,
247,
221,
237,
218,
243,
212,
230,
187,
225,
199,
206,
194,
201,
224,
204,
199,
204,
183,
192,
198,
197,
178,
186,
176,
191,
184,
158,
198,
159,
154,
203,
179,
172,
179,
158,
161,
160,
181,
165,
156,
149,
143,
133,
144,
157,
158,
154,
136,
142,
129,
126,
131,
144,
151,
153,
146,
139,
129,
126,
130,
124,
108,
128,
106,
123,
115,
115,
117,
104,
111,
119,
90,
107,
116,
98,
105,
92,
108,
104,
110,
108,
94,
88,
93,
77,
90,
82,
93,
105,
96,
100,
86,
76,
75,
75,
75,
70,
82,
69,
82,
65,
67,
61,
74,
72,
79,
72,
73,
61,
71,
72,
73,
74,
61,
58,
62,
69,
66,
62,
71,
58,
63,
56,
55,
58,
61,
62,
49,
61,
55,
49,
52,
61,
45,
41,
55,
39,
47,
34,
42,
31,
37,
41,
53,
39,
34,
40,
41,
41,
44,
38,
29,
36,
34,
37,
31,
30,
34,
35,
33,
35,
25,
35,
32,
20,
27,
27,
26,
29,
18,
29,
16,
15,
17,
32,
19,
22,
28,
23,
33,
24,
21,
20,
22,
14,
28,
22,
24,
15,
15,
11,
15,
16,
11,
20,
13,
20,
15,
18,
15,
14,
14,
13,
9,
10,
7,
12,
16,
13,
10,
9,
5,
7,
8,
8,
9,
10,
8,
15,
7,
6,
7,
7,
3,
3,
3,
2,
5,
8,
3,
4,
5,
6,
3,
5,
2,
5,
7,
6,
3,
3,
3,
0,
2,
2,
0,
0,
0,
4,
2,
0,
1,
0,
1,
1,
0,
0,
1,
0,
0,
0,
0,
0,
0,
0,
0,
1,
0,
0,
1,
0,
0,
0,
0,
0,
0,
0,
1,
0,
0,
0,
0,
0,
0,
0,
0,
0,
2,
0,
0,
0,
0,
0,
0,
0,
0,
0,
0,
0,
0,
0,
0,
0,
0,
0,
0,
0,
0,
0,
0,
0,
0,
0,
1,
0,
0,
0,
0,
0,
0,
0,
0,
0,
0,
0,
0,
0,
0,
0,
0,
0,
0,
0,
0,
0,
1,
0,
0,
0,
0,
0,
0,
0,
0,
0,
0,
0,
0,
0,
0,
0,
1,
0,
0,
0,
0,
0,
0,
0,
0,
0,
0,
0,
0,
0,
0,
0,
0,
0,
0,
0,
0,
0,
0,
0,
0,
0,
0,
0,
0,
0,
0,
0,
0,
0,
0,
0,
0,
0,
0,
0,
0,
0,
0,
0,
0,
0,
0,
0,
0,
0,
0,
0,
0,
0,
0,
0,
0,
0,
0,
0,
0,
0,
0,
0,
0,
0,
0,
0,
0,
0,
0,
0,
0,
0,
0,
0,
0,
0,
0,
0,
0,
0,
0,
0,
0,
0,
0,
0,
0,
0,
0,
0,
0,
0,
0,
0,
0,
0,
0,
0,
0,
0,
0,
0,
0,
0,
0,
0,
0,
0,
0,
0,
0,
0,
0,
0,
0,
0,
0,
0,
0,
0,
0,
0,
0,
0,
0,
0,
0,
0,
0,
0,
0,
0,
0,
0,
0,
0,
0,
0,
0,
0,
0,
0,
0,
0,
0,
0,
0,
0,
0,
0,
0,
1,
0,
0,
0,
0,
0,
0,
0,
0,
0,
0,
0,
0,
0,
0,
0,
0,
0,
0,
0,
0,
0,
0,
0,
0,
0,
0,
0,
0,
0,
0,
0,
0,
0,
0,
0,
0,
0,
0,
0,
0,
0,
0,
0,
0,
0,
0,
0,
0,
0,
0,
0,
0,
0,
0,
0,
0,
0,
0,
0,
0,
0,
0,
0,
0,
0,
0,
0,
0,
0,
0,
0,
0,
0,
0,
0,
0,
0,
0,
0,
0,
0,
0,
0,
0,
0,
0,
0,
0,
0,
0,
0,
0,
0,
0,
0,
0,
0,
0,
0,
0,
0,
0,
0,
0,
0,
0,
0,
0,
0,
0,
0,
0,
0,
0,
0,
0,
0,
0,
0,
0,
0,
0,
0,
0,
0,
0,
0,
0,
0,
0,
0,
0,
0,
0,
0,
0,
0,
0,
0,
0,
0,
0,
0,
0,
0,
0,
0,
0,
0,
0,
0,
0,
0,
0,
0,
0,
0,
0,
0,
0,
0,
0,
0,
0,
0,
0,
0,
0,
0,
0,
0,
0,
0,
0,
0,
0,
0,
0,
0,
0,
0,
0,
0,
0,
0,
0,
0,
0,
0,
0,
0,
0,
0,
0,
0,
0,
0,
0,
0,
0,
0,
0,
0,
0,
0,
0,
0,
0,
0,
0,
0,
0,
0,
0,
0,
0,
0,
0,
0,
0,
0,
0,
0,
0,
0,
0,
0,
0,
0,
0,
0,
0,
0,
0,
0,
0,
0,
0,
0,
0,
0,
0,
0,
0,
0,
0,
0,
0,
0,
0,
0,
0,
0,
0,
0,
0,
0,
0,
0,
0,
0,
0,
0,
0,
0,
0,
0,
0,
0,
0,
0,
0,
0,
0,
0,
0,
0,
0,
0,
0,
0,
0,
0,
0,
0,
0,
0,
0,
0,
0,
0,
0,
0,
0,
0,
0,
0,
0,
0,
0,
0,
0,
0,
0,
0,
0,
0,
0,
0,
0,
0,
0,
0,
0,
0,
0,
0,
0,
0,
0,
0,
0,
0,
0,
0,
0,
0,
0,
0,
0,
0,
0,
0,
0,
0,
0,
0,
0,
0,
0,
0,
0,
0,
0,
0,
0,
0,
0,
0,
0,
0,
0,
0,
0,
0,
0,
0,
0,
0,
0,
0,
0,
0,
0,
0,
0,
0,
0,
0,
0,
0,
0,
0,
0,
0,
0,
0,
0,
0,
0,
0,
0,
0,
0,
0,
0,
0,
0,
0,
0,
0,
0,
0,
0,
0,
0,
0,
0,
0,
0,
0,
0,
0,
0,
0,
0,
0,
0,
0,
0,
0,
0,
0,
0,
0,
0,
0,
0,
0,
0,
0,
0,
0,
0,
0,
0,
0,
0,
0,
0,
0,
0,
0,
0,
0,
0,
0,
0,
0,
0,
0,
0,
0,
0,
0,
#ENDOFDATA   :