File: N132962/Quantification/20 keV/Glass Mount IIIB/NIST K366 std.msa
#FORMAT      : EMSA/MAS Spectral Data File
#VERSION     : 1.0
#TITLE       : 'NIST K366' standard for 'N132962' detector
#NPOINTS     : 4096
#NCOLUMNS    : 1
#XUNITS      : eV
#YUNITS      : counts
#DATATYPE    : Y
#SIGNALTYPE  : EDS
#XLABEL      : Energy (eV)
#YLABEL      : Counts
#XPERCHAN -eV: 9.99778
#OFFSET   -eV: 1.69135
#CHOFFSET    : 0
#OWNER       : Unknown
#ELEVANGLE   : 35
#BEAMKV   -kV: 20
#LIVETIME  -s: 1201.47
#REALTIME  -s: 1338.63
#PROBECUR -nA: 1.22475
##WORKING -mm: 15
##D2STDCMP   : NIST K366,(O:20.4271),(Si:13.4490),(Pb:66.1239)
##SIMILAR    : 1.0
#SPECTRUM    :
134,
132,
42,
215,
1085,
4314,
11865,
26300,
53271,
65304,
44434,
31777,
31040,
31848,
37305,
72639,
207592,
367949,
271222,
94657,
48465,
40006,
38309,
42257,
38935,
33388,
31986,
33705,
35923,
36260,
37069,
37236,
38271,
39145,
39828,
41133,
42042,
42616,
43355,
44396,
45392,
46507,
47833,
48438,
49192,
50435,
50870,
52464,
54694,
57169,
58242,
57164,
56821,
57010,
62109,
98344,
263542,
611899,
820532,
605159,
304215,
171261,
112863,
70803,
51615,
46719,
45153,
44356,
44691,
45506,
48100,
52697,
59118,
66331,
78730,
124734,
284184,
608979,
894447,
862192,
688553,
628494,
534942,
317121,
133468,
57913,
45404,
54205,
64122,
61919,
48199,
35070,
29552,
28158,
28034,
28633,
29614,
30577,
30822,
31164,
32724,
35596,
37428,
38522,
37193,
34010,
31220,
29648,
27730,
27267,
26781,
26541,
26863,
27304,
27443,
27822,
28366,
28272,
27769,
27159,
27165,
26232,
26666,
27002,
27354,
26905,
26891,
26835,
26343,
25962,
25910,
25884,
26062,
26351,
26445,
26841,
27471,
27308,
27259,
27381,
26846,
26153,
26065,
25838,
25780,
25561,
25608,
25741,
26617,
27705,
28428,
28143,
26941,
26079,
25586,
25534,
25403,
25964,
25711,
25940,
25831,
25590,
25215,
25561,
24874,
24907,
24636,
24340,
23790,
23783,
24039,
23927,
23598,
23640,
23330,
23714,
23474,
23422,
23131,
22951,
22955,
22672,
22663,
22651,
22470,
22585,
22319,
22235,
22157,
22129,
21706,
21906,
21752,
21627,
21954,
21722,
21597,
21496,
21413,
21265,
21179,
20833,
20901,
20875,
20716,
20705,
20751,
20337,
20529,
20605,
20914,
21015,
21929,
22191,
22134,
21257,
20611,
19593,
19427,
19458,
19217,
19257,
18913,
18758,
18960,
18969,
18908,
18566,
18726,
18659,
18240,
18413,
18223,
18131,
18248,
18585,
18053,
18124,
17667,
17530,
17334,
17518,
17160,
17013,
17290,
17244,
17597,
17887,
18106,
18033,
17902,
17571,
16663,
16417,
16353,
16181,
16020,
16012,
15866,
16207,
15557,
15707,
15568,
15277,
15478,
15395,
15296,
15432,
15123,
15016,
15023,
14923,
14907,
14702,
14751,
14847,
14851,
14505,
14174,
14170,
14173,
14046,
14098,
14078,
13786,
13736,
13606,
13606,
13545,
13486,
13384,
13427,
13156,
13398,
13382,
13182,
13287,
13191,
12790,
13029,
12813,
13119,
13728,
13956,
14852,
15439,
15860,
15199,
14574,
13876,
12851,
12441,
12077,
12054,
11747,
11804,
11793,
11698,
11660,
11415,
11587,
11359,
11406,
11244,
11201,
11116,
11033,
10880,
10815,
10847,
10856,
10858,
10867,
10803,
10606,
10634,
10610,
10458,
10451,
10384,
10450,
10328,
10555,
11199,
12233,
14797,
18995,
25997,
36488,
49111,
61495,
68504,
66599,
57101,
42546,
29482,
19163,
13617,
10927,
9660,
9198,
9057,
8895,
9034,
8782,
8745,
8718,
8629,
8448,
8655,
8458,
8390,
8206,
8300,
8256,
8181,
8216,
8232,
8258,
8152,
7990,
7795,
7726,
7625,
7497,
7561,
7457,
7352,
7361,
7306,
7289,
7188,
7121,
7107,
7051,
7032,
7066,
6932,
6764,
6964,
7104,
7207,
7010,
7264,
7430,
7388,
7622,
7416,
7510,
7265,
7302,
7229,
7198,
7146,
7754,
9440,
12407,
16548,
21330,
25702,
27726,
26601,
23233,
18473,
13852,
10716,
8449,
7324,
6678,
6378,
6270,
6445,
6477,
6508,
6390,
6022,
5721,
5353,
5111,
4962,
4695,
4669,
4614,
4618,
4584,
4475,
4498,
4525,
4428,
4388,
4316,
4279,
4184,
4074,
4054,
4144,
4058,
3941,
3991,
3896,
3868,
3976,
3848,
3741,
3771,
3698,
3808,
3696,
3663,
3579,
3683,
3491,
3620,
3588,
3541,
3553,
3359,
3473,
3350,
3420,
3396,
3329,
3150,
3261,
3090,
3298,
3404,
3565,
3805,
4234,
4596,
4701,
4801,
4603,
4123,
3893,
3380,
3194,
2976,
2976,
2835,
2871,
2969,
3000,
3066,
3013,
2999,
2879,
2751,
2590,
2546,
2480,
2292,
2380,
2281,
2353,
2256,
2253,
2171,
2153,
2141,
2171,
2068,
2106,
2058,
2137,
2025,
1978,
2024,
1982,
1938,
1883,
2004,
1762,
1834,
1876,
1805,
1762,
1739,
1643,
1696,
1710,
1694,
1640,
1594,
1620,
1615,
1490,
1565,
1548,
1470,
1562,
1431,
1451,
1469,
1371,
1339,
1343,
1427,
1304,
1356,
1281,
1310,
1254,
1244,
1204,
1273,
1304,
1157,
1243,
1131,
1210,
1173,
1133,
1070,
1048,
1085,
1049,
1080,
1050,
1030,
979,
955,
924,
977,
935,
901,
885,
839,
855,
832,
801,
853,
810,
768,
798,
828,
821,
709,
726,
761,
728,
682,
699,
656,
659,
682,
644,
613,
584,
588,
589,
623,
574,
598,
579,
583,
512,
488,
504,
449,
464,
435,
427,
445,
419,
461,
371,
435,
403,
395,
360,
352,
358,
310,
321,
302,
282,
289,
241,
272,
242,
259,
235,
207,
216,
218,
207,
194,
183,
162,
154,
166,
141,
136,
105,
124,
106,
100,
88,
84,
67,
69,
52,
52,
36,
32,
28,
31,
14,
27,
23,
19,
33,
37,
17,
22,
20,
21,
23,
16,
17,
12,
23,
15,
18,
16,
16,
15,
19,
18,
15,
14,
19,
24,
12,
17,
21,
18,
18,
21,
22,
17,
15,
15,
19,
22,
17,
24,
24,
14,
11,
19,
11,
16,
15,
14,
13,
14,
24,
14,
14,
10,
15,
10,
12,
13,
23,
16,
16,
9,
14,
13,
10,
14,
9,
14,
11,
5,
5,
8,
5,
7,
7,
9,
6,
12,
10,
10,
9,
9,
10,
9,
6,
11,
5,
9,
10,
9,
4,
9,
8,
10,
8,
11,
15,
11,
6,
11,
7,
11,
11,
10,
12,
9,
14,
10,
9,
4,
11,
4,
6,
2,
3,
2,
6,
8,
8,
8,
6,
9,
5,
5,
5,
6,
10,
3,
9,
7,
2,
4,
7,
4,
8,
6,
6,
3,
9,
6,
6,
5,
3,
5,
6,
2,
6,
3,
6,
7,
5,
4,
3,
10,
5,
7,
4,
3,
7,
7,
6,
5,
9,
7,
5,
9,
5,
6,
9,
10,
8,
6,
6,
7,
6,
4,
4,
4,
6,
4,
4,
2,
2,
6,
3,
4,
4,
3,
2,
3,
4,
8,
5,
6,
6,
6,
4,
4,
5,
6,
6,
3,
5,
8,
6,
2,
5,
3,
2,
4,
5,
1,
4,
6,
2,
3,
8,
3,
5,
4,
4,
3,
5,
2,
3,
3,
2,
2,
3,
1,
5,
6,
4,
7,
1,
2,
4,
3,
3,
3,
5,
4,
3,
5,
5,
2,
3,
4,
4,
0,
3,
1,
6,
2,
0,
1,
1,
2,
2,
1,
3,
1,
0,
2,
0,
1,
2,
1,
3,
3,
1,
0,
2,
3,
2,
3,
2,
0,
1,
1,
4,
2,
1,
0,
4,
0,
2,
2,
2,
2,
1,
0,
2,
2,
1,
1,
4,
0,
1,
0,
2,
1,
1,
2,
0,
0,
1,
0,
0,
2,
1,
1,
1,
0,
1,
0,
1,
2,
0,
0,
2,
1,
3,
0,
0,
1,
0,
0,
2,
1,
1,
1,
0,
0,
2,
1,
3,
0,
2,
1,
1,
0,
1,
2,
0,
0,
2,
0,
0,
0,
0,
0,
1,
0,
0,
0,
1,
0,
0,
0,
0,
1,
0,
0,
0,
0,
1,
0,
0,
1,
0,
0,
0,
0,
1,
0,
0,
0,
0,
0,
1,
0,
0,
2,
1,
0,
0,
1,
1,
0,
0,
0,
0,
1,
0,
2,
0,
0,
0,
0,
0,
0,
0,
0,
0,
0,
0,
0,
1,
1,
0,
0,
0,
1,
0,
0,
0,
0,
0,
2,
0,
0,
0,
0,
0,
0,
0,
0,
1,
0,
1,
0,
0,
2,
0,
0,
0,
1,
0,
0,
0,
0,
0,
0,
0,
0,
0,
0,
0,
0,
0,
0,
0,
0,
0,
0,
0,
0,
0,
0,
1,
0,
0,
0,
0,
0,
0,
0,
0,
0,
0,
0,
0,
0,
0,
0,
0,
0,
0,
0,
0,
0,
0,
0,
0,
0,
0,
0,
0,
0,
0,
0,
0,
0,
0,
0,
0,
0,
0,
0,
0,
0,
0,
0,
0,
0,
0,
0,
0,
0,
0,
0,
0,
0,
0,
0,
0,
1,
0,
0,
0,
0,
0,
0,
0,
0,
0,
0,
0,
0,
0,
0,
0,
0,
0,
0,
0,
0,
0,
0,
0,
0,
0,
0,
0,
1,
0,
0,
0,
0,
0,
0,
0,
0,
0,
0,
0,
0,
0,
0,
0,
0,
0,
0,
0,
0,
0,
0,
0,
0,
0,
0,
0,
0,
0,
0,
0,
0,
0,
0,
0,
0,
0,
0,
0,
0,
0,
0,
0,
0,
0,
0,
0,
0,
0,
0,
0,
0,
0,
0,
0,
0,
0,
0,
0,
0,
0,
0,
1,
0,
0,
0,
0,
0,
0,
0,
0,
0,
0,
0,
0,
0,
0,
0,
0,
0,
0,
0,
0,
0,
0,
0,
0,
0,
0,
0,
0,
0,
0,
0,
0,
0,
0,
0,
0,
0,
0,
0,
0,
0,
0,
0,
0,
0,
0,
0,
0,
0,
0,
0,
0,
0,
0,
0,
0,
0,
0,
0,
0,
0,
0,
0,
0,
0,
0,
0,
0,
0,
0,
0,
0,
0,
0,
0,
0,
0,
0,
0,
0,
0,
0,
0,
0,
0,
0,
0,
0,
#ENDOFDATA   :