File: N132962/Quantification/20 keV/Glass Mount IIIB/NIST K229 std.msa
#FORMAT      : EMSA/MAS Spectral Data File
#VERSION     : 1.0
#TITLE       : 'NIST K229' standard for 'N132962' detector
#NPOINTS     : 4096
#NCOLUMNS    : 1
#XUNITS      : eV
#YUNITS      : counts
#DATATYPE    : Y
#SIGNALTYPE  : EDS
#XLABEL      : Energy (eV)
#YLABEL      : Counts
#XPERCHAN -eV: 9.99778
#OFFSET   -eV: 1.69135
#CHOFFSET    : 0
#OWNER       : Unknown
#ELEVANGLE   : 35
#BEAMKV   -kV: 20
#LIVETIME  -s: 1201.54
#REALTIME  -s: 1337.1
#PROBECUR -nA: 1.21918
##WORKING -mm: 15
##D2STDCMP   : NIST K229,(O:20.9940),(Si:14.0240),(Pb:64.9821)
##SIMILAR    : 1.0
#SPECTRUM    :
108,
112,
69,
226,
1064,
4143,
11475,
25528,
51890,
64306,
43946,
31409,
30119,
31379,
37271,
73428,
211635,
377821,
279109,
95725,
47271,
39403,
37479,
41334,
38068,
32575,
31776,
33070,
35366,
36074,
36226,
36450,
37714,
38633,
39535,
40436,
41463,
41983,
42987,
43863,
44787,
45815,
46993,
47584,
48836,
49793,
50845,
52033,
54447,
57126,
57729,
57066,
56297,
56841,
61367,
99378,
272895,
632446,
849830,
624359,
310568,
172185,
112001,
69766,
50637,
45504,
44195,
43468,
43516,
44251,
46548,
51232,
58087,
64273,
76247,
122370,
276307,
592745,
871461,
837994,
670213,
612351,
520608,
309523,
130727,
56716,
44490,
53055,
63389,
61434,
47426,
34917,
29067,
27594,
27765,
28442,
29364,
30071,
30351,
30639,
32359,
34810,
37066,
38158,
36640,
33466,
30760,
29093,
27900,
26829,
26391,
26138,
26143,
26781,
26537,
27346,
27721,
27616,
27587,
26856,
26466,
26346,
26507,
26637,
26897,
26856,
26418,
26123,
25827,
25569,
25753,
25509,
25578,
25636,
26152,
26716,
27199,
26802,
26788,
26789,
26298,
25732,
25594,
25305,
25118,
24946,
24895,
25456,
26040,
26792,
27085,
27404,
26149,
25477,
25172,
25328,
25290,
25100,
25435,
25429,
25216,
25161,
24764,
24915,
24507,
24343,
23857,
23805,
23287,
23447,
23461,
23391,
23335,
23155,
23036,
23154,
22944,
22918,
22661,
22409,
22558,
22481,
22420,
22377,
21912,
22253,
22148,
22174,
21984,
21568,
21719,
21261,
21451,
21032,
21144,
21216,
21203,
21083,
20840,
20604,
20443,
20740,
20542,
20357,
20443,
20220,
20232,
19989,
20066,
20224,
20274,
20996,
21356,
21843,
21389,
20983,
20028,
19272,
19280,
19101,
18978,
18900,
18777,
18711,
18589,
18614,
18428,
18221,
18250,
18203,
18101,
18025,
18078,
17672,
17846,
17840,
17687,
17707,
17400,
17227,
17283,
17177,
17210,
17032,
16772,
17009,
17261,
17326,
17774,
17903,
17299,
16996,
16559,
16302,
16133,
15936,
15622,
15657,
15686,
15555,
15612,
15388,
15298,
15274,
15165,
15107,
15188,
14961,
14840,
14682,
14775,
14618,
14616,
14674,
14521,
14553,
14501,
14473,
14069,
14060,
13904,
13827,
13509,
13671,
13545,
13553,
13295,
13429,
13244,
13461,
13312,
13141,
13126,
13000,
12821,
13114,
12937,
12779,
12919,
12508,
12622,
12830,
13129,
13656,
14577,
15012,
15451,
15168,
14389,
13562,
12793,
12201,
11843,
11550,
11720,
11655,
11526,
11598,
11378,
11375,
11236,
11099,
10892,
11100,
11033,
10911,
11076,
10761,
10760,
10607,
10565,
10585,
10508,
10380,
10396,
10352,
10364,
10446,
10309,
9976,
10164,
10127,
10323,
10753,
12056,
14573,
18370,
25453,
35441,
48030,
59573,
66305,
64867,
55504,
41640,
28404,
18929,
13453,
10711,
9553,
9189,
8805,
8782,
8870,
8639,
8566,
8636,
8331,
8222,
8354,
8158,
8328,
8040,
8201,
8094,
8191,
8108,
8169,
8117,
7991,
7922,
7798,
7473,
7531,
7312,
7493,
7401,
7229,
7325,
7238,
7101,
7108,
6936,
7002,
6798,
6838,
6764,
6830,
6571,
6821,
6801,
6800,
7004,
7028,
7199,
7343,
7246,
7203,
7277,
7266,
7129,
6881,
6866,
6934,
7810,
9006,
11934,
16156,
20642,
25069,
26648,
26033,
22417,
17803,
13598,
10366,
8382,
7078,
6521,
6278,
6291,
6114,
6381,
6445,
6263,
6070,
5589,
5270,
4941,
4852,
4641,
4551,
4522,
4433,
4466,
4397,
4400,
4275,
4271,
4227,
4148,
4223,
4105,
4157,
4080,
3922,
3904,
4010,
3903,
3724,
3808,
3767,
3853,
3712,
3648,
3582,
3648,
3704,
3597,
3591,
3512,
3415,
3470,
3382,
3374,
3415,
3420,
3359,
3400,
3240,
3263,
3255,
3119,
3132,
3203,
3114,
3311,
3514,
3708,
4072,
4448,
4550,
4672,
4307,
3992,
3614,
3260,
3034,
2853,
2797,
2820,
2850,
2908,
2923,
3024,
2939,
2886,
2854,
2710,
2513,
2391,
2385,
2353,
2284,
2225,
2162,
2272,
2136,
2099,
2186,
2113,
2130,
2129,
2083,
2054,
2044,
2044,
1960,
1968,
1965,
1852,
1814,
1844,
1789,
1793,
1809,
1707,
1737,
1773,
1739,
1618,
1656,
1655,
1608,
1555,
1575,
1515,
1519,
1443,
1420,
1504,
1511,
1483,
1453,
1380,
1361,
1364,
1376,
1371,
1311,
1323,
1319,
1277,
1288,
1267,
1224,
1196,
1229,
1181,
1166,
1159,
1101,
1061,
1040,
1118,
1065,
1039,
982,
1020,
1004,
938,
950,
932,
877,
957,
914,
897,
811,
860,
868,
881,
780,
811,
832,
772,
760,
733,
686,
733,
661,
744,
711,
676,
635,
685,
596,
598,
590,
606,
588,
609,
598,
538,
561,
529,
589,
504,
455,
456,
496,
473,
450,
456,
426,
403,
409,
397,
387,
360,
314,
350,
327,
321,
326,
320,
307,
287,
325,
275,
271,
240,
217,
224,
213,
244,
216,
218,
182,
170,
153,
183,
159,
156,
149,
130,
121,
111,
103,
99,
102,
87,
71,
71,
44,
51,
58,
30,
23,
32,
26,
15,
23,
20,
20,
20,
19,
12,
33,
21,
13,
20,
14,
19,
23,
13,
25,
19,
21,
14,
19,
14,
15,
21,
19,
7,
22,
18,
16,
15,
20,
13,
21,
17,
28,
18,
23,
12,
15,
18,
16,
12,
14,
13,
11,
13,
5,
12,
17,
15,
12,
11,
17,
10,
15,
11,
13,
12,
10,
11,
9,
16,
11,
12,
12,
17,
7,
4,
9,
16,
13,
8,
5,
6,
12,
19,
7,
14,
10,
12,
5,
10,
10,
12,
9,
4,
6,
6,
9,
9,
8,
11,
2,
6,
7,
8,
10,
12,
9,
7,
8,
16,
13,
6,
6,
11,
7,
11,
7,
9,
11,
6,
5,
6,
7,
9,
6,
5,
9,
8,
9,
10,
8,
6,
9,
8,
6,
7,
2,
2,
5,
6,
5,
8,
5,
5,
7,
6,
2,
3,
2,
8,
3,
4,
5,
2,
4,
5,
2,
5,
3,
6,
6,
7,
6,
3,
6,
6,
5,
8,
8,
6,
7,
8,
8,
8,
2,
6,
6,
5,
6,
4,
3,
8,
7,
13,
9,
9,
5,
4,
9,
9,
5,
8,
7,
6,
3,
3,
6,
3,
1,
4,
4,
3,
2,
5,
3,
2,
3,
1,
3,
5,
5,
2,
3,
1,
3,
1,
6,
2,
1,
4,
5,
4,
5,
1,
3,
0,
2,
2,
4,
3,
3,
5,
4,
4,
5,
1,
4,
2,
5,
0,
2,
2,
2,
4,
1,
2,
3,
2,
2,
2,
3,
1,
1,
3,
3,
3,
1,
3,
1,
4,
0,
1,
1,
1,
2,
4,
5,
0,
1,
4,
6,
0,
4,
0,
2,
2,
1,
2,
1,
2,
1,
0,
1,
0,
1,
1,
2,
0,
0,
3,
0,
1,
0,
3,
1,
1,
4,
1,
0,
3,
1,
2,
2,
2,
0,
1,
2,
1,
3,
0,
1,
2,
0,
0,
1,
2,
0,
1,
1,
0,
1,
0,
0,
1,
1,
2,
4,
0,
1,
1,
4,
1,
1,
0,
0,
1,
1,
0,
0,
3,
1,
2,
0,
0,
1,
0,
2,
0,
0,
0,
1,
1,
0,
0,
0,
0,
1,
0,
1,
1,
0,
1,
0,
0,
1,
0,
0,
0,
0,
1,
1,
0,
1,
0,
1,
0,
0,
0,
0,
0,
0,
1,
0,
0,
0,
0,
0,
1,
0,
0,
0,
1,
0,
0,
0,
0,
1,
0,
0,
1,
0,
0,
1,
0,
0,
0,
0,
0,
0,
0,
2,
0,
0,
0,
0,
0,
1,
0,
0,
0,
1,
2,
0,
0,
0,
0,
1,
0,
0,
1,
0,
0,
0,
0,
1,
0,
0,
0,
0,
0,
0,
0,
0,
1,
0,
1,
0,
0,
0,
0,
0,
0,
0,
1,
0,
0,
0,
0,
0,
0,
0,
0,
0,
1,
0,
1,
0,
0,
1,
0,
0,
0,
0,
0,
0,
0,
0,
0,
0,
0,
0,
0,
0,
0,
0,
0,
0,
0,
0,
0,
0,
0,
0,
1,
0,
0,
0,
0,
0,
0,
0,
0,
0,
0,
0,
0,
0,
0,
0,
0,
0,
0,
0,
0,
0,
0,
0,
0,
0,
0,
0,
0,
0,
0,
0,
0,
0,
0,
0,
0,
0,
0,
0,
0,
0,
0,
0,
0,
0,
0,
0,
0,
0,
0,
0,
0,
0,
0,
0,
0,
0,
0,
0,
0,
0,
0,
0,
0,
0,
0,
0,
0,
0,
0,
0,
0,
0,
0,
0,
0,
0,
0,
0,
0,
0,
0,
0,
0,
0,
0,
0,
0,
0,
0,
0,
0,
0,
0,
0,
0,
0,
0,
0,
0,
0,
0,
0,
0,
0,
0,
0,
0,
0,
0,
0,
0,
0,
0,
0,
0,
0,
0,
0,
0,
0,
0,
0,
0,
0,
0,
0,
0,
0,
0,
0,
0,
0,
0,
0,
0,
0,
0,
0,
0,
0,
0,
0,
0,
0,
0,
0,
0,
0,
0,
0,
0,
0,
0,
0,
0,
0,
0,
0,
0,
0,
0,
0,
0,
0,
0,
0,
0,
0,
0,
0,
0,
0,
0,
0,
0,
0,
0,
0,
0,
0,
0,
0,
0,
0,
0,
0,
0,
0,
0,
0,
0,
0,
0,
0,
0,
0,
0,
0,
0,
0,
0,
0,
0,
0,
0,
0,
0,
0,
0,
0,
#ENDOFDATA   :