File: N132962/Quantification/20 keV/Glass Mount IIIB/NIST K873 std.msa
#FORMAT      : EMSA/MAS Spectral Data File
#VERSION     : 1.0
#TITLE       : 'NIST K873' standard for 'N132962' detector
#NPOINTS     : 4096
#NCOLUMNS    : 1
#XUNITS      : eV
#YUNITS      : counts
#DATATYPE    : Y
#SIGNALTYPE  : EDS
#XLABEL      : Energy (eV)
#YLABEL      : Counts
#XPERCHAN -eV: 9.99778
#OFFSET   -eV: 1.69135
#CHOFFSET    : 0
#OWNER       : Unknown
#ELEVANGLE   : 35
#BEAMKV   -kV: 20
#LIVETIME  -s: 1200.92
#REALTIME  -s: 1312.52
#PROBECUR -nA: 1.22616
##WORKING -mm: 15
##D2STDCMP   : NIST K873,(O:25.4593),(Al:0.2646),(Si:11.4529),(Mn:0.3160),(Ge:17.0041),(Ba:21.9429),(Ce:0.4070),(Ta:0.4095),(Pb:22.7437)
##SIMILAR    : 1.0
#SPECTRUM    :
113,
123,
57,
145,
753,
3106,
8257,
19396,
39935,
50533,
35835,
28527,
30256,
33648,
43831,
104020,
330524,
608400,
447304,
145427,
57248,
40354,
34494,
34483,
35779,
39704,
42759,
38881,
33173,
31686,
31161,
33766,
38456,
44101,
51702,
54412,
49363,
60279,
137878,
291811,
356900,
242605,
108176,
50121,
35895,
32001,
31490,
32786,
37194,
42889,
43827,
39656,
36084,
36017,
39597,
63802,
171293,
391471,
521298,
380094,
179211,
89570,
58268,
40431,
32865,
30883,
30827,
30800,
30652,
30921,
31762,
33883,
35709,
37696,
41769,
55105,
100956,
192939,
274854,
265116,
216466,
198420,
173006,
111602,
58143,
36866,
34059,
38319,
42303,
41933,
36384,
31314,
28727,
27724,
27316,
27366,
28067,
28205,
28461,
28638,
28952,
30020,
31309,
31163,
30580,
29166,
28038,
26964,
26316,
26503,
25755,
25666,
26137,
25933,
25775,
26090,
25781,
25897,
26029,
25610,
25259,
24960,
25353,
25437,
25248,
24918,
24680,
24557,
24615,
25216,
27349,
29493,
30168,
29178,
26709,
25458,
24452,
23782,
23536,
23366,
23910,
23992,
24905,
26015,
29299,
38967,
65992,
118312,
178495,
200112,
165556,
103765,
55378,
32141,
24790,
23591,
23807,
28253,
40562,
64740,
93850,
110004,
101838,
79741,
57950,
43649,
33917,
28341,
26078,
28775,
36930,
45593,
49783,
44970,
35986,
27722,
23105,
20651,
19576,
19715,
19737,
20837,
23138,
26888,
29825,
29521,
26394,
22693,
20003,
18755,
18859,
19788,
21401,
22711,
23240,
23286,
22658,
21619,
20454,
18738,
17886,
16898,
16508,
15920,
15641,
15941,
15850,
15668,
15472,
15833,
15784,
15995,
16423,
16932,
16872,
16663,
16027,
15771,
15216,
14977,
14795,
14492,
14220,
14366,
14150,
14380,
13902,
14118,
14053,
13954,
13830,
13878,
13809,
13697,
13861,
13616,
13294,
13408,
13265,
13337,
13112,
13152,
13155,
12850,
12857,
12928,
13112,
13249,
13520,
13765,
13370,
12944,
12568,
12338,
12330,
12012,
11954,
11842,
11937,
11703,
11618,
11527,
11362,
11462,
11371,
11538,
11594,
11342,
11581,
12036,
12175,
12338,
12156,
11746,
11452,
11335,
10940,
10956,
10885,
10574,
10582,
10315,
10423,
10445,
10240,
10053,
10264,
10207,
10097,
9990,
10006,
9880,
9831,
9844,
9731,
9684,
9690,
9543,
9445,
9505,
9573,
9450,
9494,
9832,
9865,
10017,
10057,
9973,
9875,
9520,
9525,
9409,
9206,
9038,
8912,
8803,
8760,
8722,
8728,
8738,
8868,
8981,
9369,
10821,
14155,
21125,
32378,
45067,
57119,
61762,
57036,
45404,
31652,
20432,
13661,
9843,
8507,
7939,
7714,
7698,
7593,
7534,
7387,
7663,
7977,
8790,
10157,
12062,
15358,
19663,
23338,
25291,
24933,
21849,
17310,
13147,
10069,
8084,
7474,
7194,
7157,
7765,
8877,
10389,
12040,
13335,
13487,
12878,
11113,
9139,
7871,
6829,
6189,
6118,
5873,
5850,
5707,
5596,
5745,
5589,
5481,
5656,
5466,
5339,
5476,
5296,
5237,
5246,
5281,
5262,
5115,
5141,
5154,
5009,
4959,
4893,
4940,
4889,
4870,
4881,
4891,
4866,
4868,
4816,
4975,
5010,
4798,
4891,
4834,
4680,
4606,
4644,
4533,
4567,
4665,
5179,
6001,
7324,
8733,
10132,
10533,
10406,
9091,
7740,
6419,
5321,
4682,
4341,
4054,
3976,
4113,
4032,
4038,
3911,
3881,
3809,
3669,
3550,
3418,
3291,
3319,
3305,
3250,
3227,
3174,
3226,
3164,
3188,
3203,
3146,
3078,
3004,
3011,
2995,
2883,
2900,
2904,
2873,
2847,
2875,
2745,
2813,
2724,
2622,
2726,
2788,
2557,
2620,
2547,
2519,
2562,
2549,
2501,
2472,
2504,
2487,
2452,
2415,
2368,
2317,
2384,
2264,
2285,
2196,
2253,
2236,
2219,
2284,
2421,
2447,
2594,
2609,
2673,
2524,
2404,
2269,
2064,
2056,
1953,
1982,
1943,
1924,
1908,
1880,
1880,
1881,
1821,
1797,
1747,
1811,
1694,
1670,
1712,
1568,
1584,
1548,
1553,
1498,
1513,
1459,
1467,
1478,
1483,
1466,
1439,
1437,
1369,
1356,
1305,
1387,
1345,
1275,
1295,
1308,
1311,
1212,
1205,
1181,
1190,
1179,
1195,
1090,
1190,
1080,
1057,
1092,
1051,
1093,
1026,
1061,
1013,
990,
1048,
963,
958,
886,
941,
915,
875,
897,
877,
900,
893,
889,
892,
835,
885,
788,
790,
782,
746,
768,
768,
715,
706,
675,
735,
721,
695,
665,
664,
649,
641,
627,
634,
644,
605,
602,
586,
536,
553,
570,
530,
507,
501,
531,
484,
506,
481,
490,
450,
454,
459,
488,
429,
438,
427,
411,
386,
389,
355,
351,
339,
372,
360,
365,
331,
338,
321,
321,
275,
286,
260,
264,
266,
267,
278,
255,
246,
236,
227,
227,
230,
195,
203,
191,
180,
159,
188,
157,
144,
183,
155,
163,
166,
121,
111,
127,
106,
87,
85,
106,
87,
97,
81,
71,
63,
74,
73,
54,
48,
40,
42,
29,
31,
19,
20,
16,
20,
11,
13,
14,
9,
10,
24,
15,
21,
11,
13,
11,
9,
12,
11,
13,
12,
15,
15,
10,
13,
12,
9,
14,
11,
9,
9,
5,
20,
6,
7,
11,
15,
7,
9,
7,
13,
9,
8,
5,
10,
9,
9,
8,
7,
3,
13,
8,
12,
4,
7,
8,
5,
8,
11,
15,
10,
4,
6,
5,
8,
7,
3,
8,
4,
8,
9,
4,
6,
10,
5,
7,
6,
4,
7,
2,
6,
4,
5,
6,
6,
5,
9,
9,
7,
9,
9,
9,
8,
6,
5,
5,
3,
7,
5,
7,
2,
4,
8,
6,
4,
10,
6,
6,
4,
1,
0,
3,
2,
3,
3,
2,
5,
6,
4,
7,
3,
9,
4,
5,
0,
8,
3,
4,
4,
3,
3,
5,
6,
3,
2,
3,
5,
5,
6,
2,
2,
1,
0,
6,
1,
1,
5,
6,
4,
2,
3,
1,
0,
7,
3,
5,
2,
3,
0,
3,
4,
5,
3,
3,
5,
3,
4,
4,
5,
2,
3,
1,
3,
0,
3,
4,
5,
3,
4,
4,
1,
3,
3,
4,
2,
4,
2,
3,
2,
2,
3,
2,
7,
1,
3,
3,
6,
2,
5,
2,
4,
1,
4,
1,
3,
1,
3,
2,
3,
0,
4,
0,
2,
3,
1,
4,
1,
5,
2,
1,
1,
0,
0,
0,
3,
4,
0,
1,
3,
2,
2,
3,
2,
3,
2,
2,
1,
2,
2,
0,
2,
1,
1,
0,
2,
3,
1,
0,
0,
1,
0,
0,
3,
4,
0,
3,
2,
1,
2,
1,
1,
0,
0,
0,
1,
1,
0,
1,
0,
0,
1,
0,
0,
0,
0,
4,
0,
1,
0,
0,
0,
1,
2,
1,
0,
2,
0,
2,
1,
1,
0,
0,
1,
0,
1,
0,
0,
1,
0,
0,
1,
0,
2,
0,
0,
0,
0,
1,
2,
0,
1,
0,
0,
0,
0,
0,
0,
1,
0,
0,
0,
0,
0,
0,
0,
0,
0,
1,
0,
0,
1,
0,
0,
1,
0,
0,
0,
1,
0,
0,
0,
0,
0,
0,
0,
0,
0,
0,
0,
0,
0,
0,
0,
0,
1,
1,
0,
0,
1,
0,
0,
0,
0,
0,
0,
0,
0,
1,
0,
0,
0,
0,
0,
0,
0,
0,
0,
0,
1,
0,
0,
0,
0,
0,
0,
0,
0,
0,
0,
0,
0,
0,
0,
0,
0,
0,
0,
0,
0,
1,
0,
0,
0,
0,
0,
0,
0,
0,
0,
0,
0,
0,
0,
0,
0,
0,
0,
0,
0,
0,
0,
0,
0,
0,
0,
1,
0,
0,
0,
0,
0,
0,
0,
0,
0,
0,
0,
0,
0,
0,
0,
0,
0,
0,
0,
0,
1,
0,
0,
0,
0,
1,
0,
0,
0,
0,
0,
0,
0,
0,
0,
0,
0,
0,
0,
0,
0,
0,
0,
0,
0,
0,
0,
0,
0,
0,
0,
0,
0,
0,
0,
0,
0,
0,
0,
0,
0,
0,
0,
0,
0,
0,
0,
0,
0,
0,
0,
0,
0,
0,
0,
0,
0,
0,
0,
0,
0,
0,
0,
0,
0,
0,
0,
0,
0,
0,
0,
0,
0,
0,
0,
0,
0,
0,
0,
0,
0,
0,
0,
0,
0,
0,
0,
0,
0,
0,
0,
0,
0,
0,
0,
0,
0,
0,
0,
0,
0,
0,
0,
0,
0,
0,
0,
0,
0,
0,
0,
0,
0,
0,
0,
0,
0,
0,
0,
0,
0,
0,
0,
0,
0,
0,
0,
0,
0,
0,
0,
0,
0,
0,
0,
0,
0,
0,
0,
0,
0,
0,
0,
0,
0,
0,
0,
0,
0,
0,
0,
0,
0,
0,
0,
0,
0,
0,
0,
0,
0,
0,
0,
0,
0,
0,
0,
0,
0,
0,
0,
0,
0,
0,
0,
0,
0,
0,
0,
0,
0,
0,
0,
0,
0,
0,
0,
0,
0,
0,
0,
0,
0,
0,
0,
0,
0,
0,
0,
0,
0,
0,
0,
0,
0,
0,
0,
0,
0,
0,
0,
0,
0,
0,
0,
0,
0,
0,
0,
0,
0,
0,
0,
0,
0,
0,
0,
0,
0,
0,
0,
0,
0,
0,
0,
0,
0,
0,
0,
0,
0,
0,
0,
0,
0,
0,
0,
0,
0,
0,
0,
0,
0,
0,
0,
0,
#ENDOFDATA   :