File: N132962/Quantification/20 keV/Glass Mount IIIB/NIST K1010 std.msa
#FORMAT      : EMSA/MAS Spectral Data File
#VERSION     : 1.0
#TITLE       : ''NIST K1010'' standard for 'N132962' detector
#NPOINTS     : 4096
#NCOLUMNS    : 1
#XUNITS      : eV
#YUNITS      : counts
#DATATYPE    : Y
#SIGNALTYPE  : EDS
#XLABEL      : Energy (eV)
#YLABEL      : Counts
#XPERCHAN -eV: 9.99778
#OFFSET   -eV: 1.69135
#CHOFFSET    : 0
#DATE        : 18-Sep-2025
#TIME        : 10:11:00
#OWNER       : Unknown
#ELEVANGLE   : 35
#BEAMKV   -kV: 20
#LIVETIME  -s: 1200.78
#REALTIME  -s: 1299.72
#PROBECUR -nA: 1.21237
##WORKING -mm: 15
##D2STDCMP   : 'NIST K1010',(O:38.9610),(Al:8.9228),(Si:21.0172),(K:1.8678),(Ca:6.7467),(Ge:1.5616),(Rb:2.0574),(Sr:10.0541),(Te:0.8954),(Cs:2.1222),(La:1.9185),(Eu:1.9432),(Gd:1.9520)
##SIMILAR    : 1.0
#SPECTRUM    :
126,
140,
55,
125,
555,
1941,
4894,
12355,
28570,
37627,
27674,
20044,
19123,
21495,
32863,
103145,
371449,
699333,
509239,
138019,
24752,
15637,
17095,
18287,
17691,
17500,
18990,
21889,
25363,
26569,
26218,
25554,
25131,
26656,
29965,
31399,
33249,
39583,
54959,
74390,
78665,
60783,
41401,
33377,
33160,
35269,
41440,
80809,
226351,
436385,
441673,
242670,
98923,
55942,
54034,
110204,
349899,
824032,
1124194,
889445,
519227,
302128,
175289,
97576,
54850,
34617,
26187,
21075,
18528,
18071,
17953,
18087,
18347,
19422,
19990,
20552,
20189,
19556,
18918,
18399,
18047,
17860,
17740,
17919,
18173,
18292,
17764,
18302,
17985,
18142,
18222,
18086,
18126,
18096,
17766,
18023,
18122,
18419,
18637,
18325,
18743,
18079,
17590,
17750,
17816,
18314,
19608,
22740,
31801,
50630,
68735,
68643,
49735,
30705,
20950,
18764,
19423,
20724,
23768,
30870,
50629,
96404,
162729,
200425,
171663,
104036,
51135,
26714,
18909,
16837,
17422,
20678,
27741,
36026,
39024,
34095,
25451,
18922,
16163,
15937,
17919,
22983,
28432,
30869,
27131,
21096,
16224,
14111,
13771,
14462,
15163,
16798,
20157,
25873,
31027,
32237,
28157,
21986,
17009,
14401,
13103,
12778,
13064,
13719,
14922,
15770,
16296,
17079,
17747,
17213,
15386,
14177,
13322,
12660,
12476,
12483,
12660,
12943,
13271,
13340,
13304,
12512,
11933,
11388,
11005,
10668,
10537,
10213,
10107,
10305,
10458,
11942,
14337,
17330,
19677,
19982,
17861,
14602,
12912,
13414,
15789,
18006,
18756,
16866,
13933,
11153,
9580,
9101,
8866,
8765,
9056,
9518,
10346,
11989,
13081,
13224,
12870,
11551,
10394,
9889,
9858,
10287,
11114,
11918,
12395,
12053,
11397,
11118,
10426,
9859,
8947,
8200,
7931,
7910,
8196,
8501,
8645,
8494,
8278,
8004,
7413,
7142,
7026,
7009,
6883,
6894,
7148,
7490,
7767,
7717,
7629,
7492,
6816,
6539,
6473,
6528,
6694,
6798,
6988,
6827,
7045,
6760,
6380,
6101,
6172,
5972,
6003,
6145,
6043,
6108,
6011,
5924,
5917,
5659,
5677,
5693,
5819,
5533,
5499,
5631,
5479,
5323,
5251,
5259,
5201,
5153,
5184,
5043,
5153,
5176,
5050,
5049,
4850,
4966,
4814,
4917,
4806,
4774,
4858,
4633,
4752,
4672,
4654,
4617,
4610,
4476,
4395,
4302,
4473,
4380,
4402,
4271,
4334,
4316,
4231,
4179,
4278,
4368,
4170,
4149,
4199,
4151,
4089,
4252,
4455,
5043,
5955,
7049,
8124,
8290,
7920,
6846,
5811,
4770,
4237,
3904,
3678,
3646,
3680,
3673,
3571,
3568,
3605,
3388,
3602,
3401,
3406,
3443,
3426,
3317,
3298,
3273,
3292,
3225,
3223,
3239,
3169,
3191,
3167,
3155,
3141,
3137,
3221,
3398,
3498,
3536,
3561,
3356,
3291,
3080,
2981,
2941,
2805,
2811,
2786,
2728,
2666,
2699,
2687,
2620,
2564,
2630,
2529,
2511,
2503,
2579,
2478,
2453,
2461,
2492,
2408,
2250,
2415,
2330,
2333,
2219,
2272,
2327,
2321,
2298,
2239,
2282,
2185,
2183,
2110,
2071,
2112,
2037,
2036,
2065,
2024,
2037,
1985,
1986,
1931,
1931,
1923,
1813,
2007,
1849,
1902,
1758,
1789,
1802,
1857,
1727,
1739,
1746,
1637,
1675,
1742,
1763,
1680,
1579,
1626,
1576,
1520,
1645,
1588,
1588,
1655,
1853,
1784,
2068,
2117,
2192,
2146,
2102,
1960,
1789,
1629,
1432,
1410,
1365,
1303,
1323,
1279,
1298,
1230,
1270,
1271,
1225,
1205,
1269,
1388,
1463,
1736,
2178,
2572,
3007,
3520,
3399,
3324,
2930,
2410,
1932,
1647,
1350,
1145,
1022,
977,
981,
993,
977,
972,
981,
954,
898,
941,
897,
887,
968,
891,
849,
924,
908,
860,
949,
934,
931,
856,
901,
812,
780,
788,
772,
761,
749,
741,
697,
666,
673,
681,
708,
717,
689,
600,
657,
664,
625,
609,
694,
662,
720,
782,
812,
911,
831,
886,
769,
716,
681,
594,
586,
545,
583,
541,
520,
487,
482,
451,
432,
473,
424,
438,
429,
391,
431,
415,
422,
391,
416,
399,
342,
377,
371,
358,
330,
371,
371,
375,
336,
391,
332,
330,
333,
331,
280,
302,
268,
308,
307,
304,
288,
289,
276,
280,
269,
277,
297,
275,
242,
246,
253,
219,
232,
216,
235,
223,
234,
218,
207,
198,
220,
203,
186,
202,
173,
161,
191,
162,
181,
155,
181,
156,
144,
160,
166,
140,
148,
152,
133,
149,
126,
130,
91,
127,
124,
119,
109,
113,
105,
94,
91,
106,
111,
84,
73,
91,
83,
78,
68,
75,
66,
65,
73,
72,
64,
75,
56,
57,
63,
59,
51,
57,
49,
40,
45,
47,
37,
32,
41,
33,
27,
26,
19,
23,
21,
13,
23,
18,
18,
13,
12,
7,
7,
3,
4,
4,
6,
3,
4,
3,
3,
2,
1,
3,
6,
1,
8,
6,
3,
3,
3,
2,
3,
4,
3,
3,
0,
1,
2,
1,
4,
4,
0,
2,
6,
3,
2,
2,
2,
3,
1,
1,
1,
0,
1,
3,
3,
1,
1,
2,
1,
2,
3,
2,
0,
0,
1,
2,
2,
0,
2,
2,
1,
1,
0,
2,
2,
1,
1,
0,
0,
2,
2,
2,
3,
0,
2,
3,
0,
1,
1,
1,
0,
2,
1,
0,
2,
0,
0,
0,
1,
1,
1,
0,
2,
0,
0,
0,
4,
2,
3,
0,
0,
1,
0,
0,
2,
1,
1,
0,
1,
0,
0,
0,
0,
0,
2,
0,
1,
1,
1,
0,
1,
0,
0,
0,
1,
0,
0,
0,
0,
0,
0,
1,
1,
0,
0,
1,
1,
0,
1,
0,
0,
1,
0,
0,
0,
0,
3,
0,
0,
0,
0,
2,
1,
0,
1,
0,
0,
1,
0,
1,
0,
1,
1,
0,
0,
0,
0,
1,
0,
1,
0,
1,
0,
0,
1,
0,
0,
1,
0,
0,
0,
1,
0,
0,
0,
0,
0,
1,
0,
0,
1,
1,
0,
1,
1,
0,
0,
0,
2,
1,
0,
1,
0,
0,
0,
0,
0,
0,
0,
0,
0,
0,
0,
0,
0,
1,
0,
0,
0,
0,
0,
0,
0,
1,
1,
0,
1,
0,
0,
0,
1,
0,
0,
2,
0,
1,
0,
0,
0,
0,
0,
0,
0,
0,
0,
0,
1,
0,
1,
0,
2,
0,
0,
0,
2,
1,
0,
0,
0,
0,
0,
0,
0,
0,
0,
0,
0,
0,
0,
0,
0,
0,
0,
1,
0,
0,
0,
0,
0,
0,
0,
0,
0,
0,
0,
0,
0,
0,
0,
0,
0,
1,
1,
0,
0,
0,
0,
0,
0,
0,
0,
0,
0,
0,
0,
1,
0,
0,
0,
0,
0,
0,
0,
0,
0,
0,
0,
0,
0,
0,
0,
0,
0,
0,
0,
0,
0,
0,
0,
0,
0,
0,
0,
0,
0,
0,
0,
0,
0,
1,
0,
0,
0,
0,
0,
0,
0,
0,
0,
0,
0,
0,
0,
0,
0,
0,
0,
0,
0,
0,
0,
0,
0,
0,
0,
0,
0,
0,
0,
0,
0,
0,
0,
0,
0,
0,
0,
0,
0,
0,
0,
0,
0,
0,
0,
0,
0,
0,
0,
0,
0,
0,
0,
0,
0,
0,
0,
0,
0,
0,
0,
0,
0,
0,
0,
0,
0,
0,
0,
0,
0,
0,
0,
0,
0,
0,
0,
0,
0,
0,
0,
0,
0,
0,
0,
0,
0,
0,
0,
0,
1,
0,
0,
0,
0,
0,
0,
0,
0,
0,
0,
0,
0,
0,
0,
0,
0,
0,
0,
0,
0,
0,
0,
0,
0,
0,
0,
0,
0,
0,
0,
0,
0,
0,
0,
0,
0,
0,
0,
0,
0,
0,
0,
0,
0,
0,
0,
0,
0,
0,
0,
0,
0,
0,
0,
0,
0,
0,
0,
0,
0,
0,
0,
0,
0,
0,
0,
0,
0,
0,
0,
0,
0,
0,
0,
0,
0,
0,
0,
0,
0,
0,
0,
0,
0,
0,
0,
0,
0,
0,
0,
0,
0,
0,
0,
0,
0,
0,
0,
0,
0,
0,
0,
0,
0,
0,
0,
0,
0,
0,
0,
0,
0,
0,
0,
0,
0,
0,
0,
0,
0,
0,
0,
0,
0,
0,
0,
0,
0,
0,
0,
0,
0,
0,
0,
0,
0,
0,
0,
0,
0,
0,
0,
0,
0,
0,
0,
0,
0,
0,
0,
0,
0,
0,
0,
0,
0,
0,
0,
0,
0,
0,
0,
0,
0,
0,
0,
0,
0,
0,
0,
0,
0,
0,
0,
0,
0,
0,
0,
0,
0,
0,
0,
0,
0,
0,
0,
0,
0,
0,
0,
0,
0,
0,
0,
0,
0,
0,
0,
0,
0,
0,
0,
0,
0,
0,
0,
0,
0,
0,
0,
0,
0,
0,
0,
0,
0,
0,
0,
0,
0,
0,
0,
0,
0,
0,
0,
0,
0,
0,
0,
0,
0,
0,
0,
0,
0,
0,
0,
0,
0,
0,
0,
0,
0,
0,
0,
0,
0,
0,
0,
0,
0,
0,
0,
0,
0,
0,
0,
0,
0,
0,
0,
0,
0,
0,
0,
0,
0,
0,
0,
#ENDOFDATA   :