File: N132962/Quantification/20 keV/Glass Mount IIIB/NIST K1070 std.msa
#FORMAT      : EMSA/MAS Spectral Data File
#VERSION     : 1.0
#TITLE       : 'NIST K1070' standard for 'N132962' detector
#NPOINTS     : 4096
#NCOLUMNS    : 1
#XUNITS      : eV
#YUNITS      : counts
#DATATYPE    : Y
#SIGNALTYPE  : EDS
#XLABEL      : Energy (eV)
#YLABEL      : Counts
#XPERCHAN -eV: 9.99778
#OFFSET   -eV: 1.69135
#CHOFFSET    : 0
#OWNER       : Unknown
#ELEVANGLE   : 35
#BEAMKV   -kV: 20
#LIVETIME  -s: 1200.81
#REALTIME  -s: 1299.91
#PROBECUR -nA: 1.22416
##WORKING -mm: 15
##D2STDCMP   : NIST K1070,(O:34.3086),(Mg:7.5385),(Si:18.6986),(Ca:8.9337),(Zn:10.0421),(Ba:11.1954),(Pb:9.2832)
##SIMILAR    : 1.1
#SPECTRUM    :
108,
132,
56,
103,
515,
2055,
5565,
14580,
34799,
47888,
37213,
26608,
23418,
24803,
35145,
102912,
363602,
683230,
496751,
141647,
34506,
22192,
21280,
22513,
22937,
24994,
28271,
28080,
29166,
33329,
35012,
39954,
80414,
169859,
211964,
137154,
59002,
32546,
29698,
40762,
100357,
222844,
263687,
156472,
59591,
30056,
26545,
26694,
27825,
29654,
30715,
30698,
31019,
31710,
37161,
77114,
260502,
644964,
872872,
620665,
262355,
103408,
55824,
34710,
26591,
24908,
23974,
22769,
22400,
22492,
23073,
23250,
24675,
25772,
27846,
33974,
51937,
87384,
119370,
115241,
95178,
88465,
78337,
54257,
32754,
24561,
23966,
25468,
27341,
27297,
25101,
22981,
22075,
21096,
21088,
20940,
21006,
20966,
21372,
21451,
21824,
21990,
22485,
22192,
22079,
21405,
20633,
19972,
20002,
19866,
19770,
19392,
19436,
19336,
19507,
19874,
20344,
21362,
22972,
29709,
55044,
118720,
208703,
260888,
219958,
129736,
59252,
28206,
20291,
19328,
21994,
27162,
36912,
46028,
48121,
40722,
28971,
20930,
17510,
16426,
16475,
16335,
16419,
17270,
18277,
22898,
35568,
61449,
89756,
100928,
84389,
54349,
30840,
19497,
15989,
15306,
15515,
17595,
23220,
34305,
47699,
54779,
51480,
40846,
31457,
24475,
20018,
17340,
16221,
17485,
21370,
25259,
26881,
24793,
20292,
15986,
13946,
13042,
12866,
12941,
13053,
13919,
14891,
16494,
17909,
17675,
15876,
13978,
12536,
12073,
12043,
12638,
13393,
13735,
13595,
12841,
11989,
11455,
11494,
11150,
11209,
10863,
10768,
10654,
10517,
10710,
10500,
10323,
10211,
10277,
10341,
10613,
10994,
10820,
10895,
10536,
10124,
9824,
9570,
9785,
9399,
9625,
9436,
9254,
9374,
9275,
9260,
9214,
9087,
9053,
9223,
8963,
8834,
8889,
8848,
8776,
8855,
8717,
8630,
8467,
8574,
8532,
8281,
8387,
8280,
8261,
8466,
8507,
8497,
8566,
8563,
8221,
8049,
7913,
7781,
7595,
7829,
7543,
7528,
7417,
7592,
7354,
7250,
7208,
7338,
7066,
7342,
7143,
7037,
7118,
7090,
7031,
6887,
6993,
7055,
6852,
6890,
6964,
6666,
6844,
6840,
7384,
8689,
12653,
20151,
31981,
45430,
54972,
55013,
46681,
33114,
20770,
12636,
8640,
6939,
6275,
6114,
5985,
5949,
5877,
5731,
5839,
5938,
5828,
6236,
6283,
6202,
5962,
6127,
5820,
5647,
5474,
5648,
5710,
6042,
7079,
8597,
10164,
11434,
11697,
10907,
9297,
7573,
6279,
5574,
5189,
4959,
4853,
4934,
4679,
4775,
4794,
4777,
4692,
4503,
4528,
4462,
4529,
4548,
4422,
4478,
4428,
4571,
4467,
4711,
4884,
5469,
6050,
7190,
8499,
9765,
10698,
10380,
9104,
7648,
6187,
5073,
4479,
4065,
3837,
3877,
3793,
3688,
3710,
3773,
3727,
3722,
3662,
3723,
3642,
3467,
3605,
3424,
3513,
3416,
3557,
3428,
3437,
3416,
3338,
3305,
3272,
3342,
3186,
3209,
3156,
3135,
3059,
2995,
3030,
3041,
3007,
3056,
2877,
2978,
2895,
2884,
2855,
2924,
2822,
2797,
2907,
2704,
2806,
2794,
2733,
2730,
2796,
2769,
2794,
2651,
2647,
2596,
2637,
2652,
2800,
3168,
3648,
4103,
4667,
4766,
4646,
4330,
3776,
3233,
2753,
2557,
2363,
2318,
2247,
2237,
2341,
2197,
2214,
2173,
2086,
2125,
2085,
2032,
1991,
1950,
1991,
1987,
1889,
1942,
1924,
1838,
1895,
1713,
1807,
1737,
1765,
1694,
1677,
1748,
1724,
1748,
1596,
1690,
1612,
1559,
1528,
1483,
1522,
1606,
1486,
1509,
1515,
1452,
1460,
1454,
1437,
1406,
1411,
1308,
1383,
1365,
1310,
1357,
1297,
1311,
1308,
1305,
1244,
1220,
1282,
1316,
1265,
1297,
1309,
1285,
1345,
1320,
1364,
1252,
1193,
1126,
1150,
1134,
1052,
1069,
1051,
1063,
1031,
1031,
1048,
1012,
991,
1004,
946,
952,
879,
926,
892,
821,
867,
822,
832,
840,
821,
831,
792,
764,
792,
772,
744,
753,
739,
793,
699,
730,
734,
751,
670,
708,
636,
631,
672,
614,
591,
614,
574,
572,
574,
583,
591,
547,
600,
540,
578,
571,
536,
553,
519,
521,
496,
540,
504,
492,
460,
497,
425,
469,
485,
441,
423,
432,
436,
450,
430,
430,
423,
395,
414,
367,
364,
381,
343,
335,
353,
372,
340,
350,
304,
328,
327,
299,
328,
299,
317,
310,
287,
290,
265,
276,
254,
262,
218,
243,
259,
238,
245,
244,
228,
205,
226,
223,
190,
215,
167,
189,
192,
180,
177,
172,
190,
146,
173,
176,
158,
151,
136,
151,
144,
137,
153,
110,
133,
113,
125,
102,
109,
98,
106,
110,
100,
101,
90,
88,
74,
80,
68,
76,
76,
66,
62,
57,
44,
67,
52,
53,
57,
40,
37,
41,
35,
39,
35,
30,
28,
24,
17,
19,
12,
9,
7,
8,
7,
8,
5,
4,
3,
4,
6,
0,
5,
3,
5,
4,
3,
5,
7,
2,
6,
3,
4,
6,
2,
3,
3,
9,
3,
6,
6,
2,
4,
5,
3,
6,
3,
6,
5,
4,
2,
1,
1,
4,
5,
3,
1,
2,
4,
5,
4,
6,
2,
1,
4,
5,
3,
3,
3,
3,
3,
1,
3,
0,
1,
3,
2,
1,
1,
3,
5,
1,
5,
3,
1,
4,
3,
3,
0,
5,
2,
2,
3,
2,
5,
2,
1,
0,
1,
1,
1,
4,
7,
1,
2,
0,
2,
0,
0,
2,
2,
2,
3,
1,
0,
1,
1,
0,
0,
1,
2,
1,
1,
1,
2,
0,
2,
0,
2,
0,
3,
1,
1,
0,
0,
1,
0,
3,
0,
1,
0,
0,
1,
3,
0,
0,
1,
2,
0,
0,
0,
0,
1,
2,
0,
1,
0,
1,
1,
0,
2,
1,
0,
0,
0,
0,
1,
1,
1,
1,
3,
1,
2,
0,
1,
0,
1,
2,
1,
1,
0,
0,
1,
1,
0,
1,
2,
0,
1,
0,
0,
0,
1,
1,
1,
0,
1,
0,
0,
0,
0,
1,
0,
0,
2,
1,
1,
0,
2,
1,
0,
1,
0,
2,
0,
1,
0,
1,
0,
1,
1,
0,
2,
0,
0,
1,
0,
0,
0,
1,
0,
0,
0,
0,
0,
0,
0,
1,
0,
0,
0,
0,
0,
0,
0,
1,
0,
0,
0,
0,
0,
0,
1,
0,
0,
1,
1,
2,
1,
0,
0,
0,
0,
0,
0,
1,
1,
0,
0,
0,
0,
1,
0,
0,
0,
0,
0,
1,
0,
0,
0,
1,
1,
1,
0,
0,
0,
0,
0,
0,
0,
0,
0,
0,
0,
0,
0,
0,
0,
0,
0,
1,
0,
0,
0,
0,
0,
0,
0,
1,
0,
0,
0,
0,
0,
0,
0,
0,
1,
1,
0,
0,
0,
0,
1,
0,
0,
0,
0,
1,
0,
0,
0,
0,
0,
0,
0,
0,
0,
0,
0,
0,
0,
1,
0,
0,
0,
0,
0,
0,
0,
0,
0,
0,
0,
0,
0,
0,
1,
1,
0,
0,
0,
1,
0,
0,
0,
0,
0,
0,
0,
0,
0,
1,
0,
0,
0,
0,
0,
0,
0,
0,
0,
0,
0,
0,
0,
0,
0,
0,
0,
0,
0,
0,
0,
0,
0,
0,
0,
0,
0,
0,
0,
0,
0,
0,
0,
0,
0,
0,
0,
0,
0,
0,
0,
0,
0,
0,
0,
0,
0,
0,
0,
0,
0,
0,
0,
0,
0,
0,
0,
0,
0,
0,
0,
0,
0,
0,
0,
0,
0,
0,
0,
0,
0,
0,
0,
0,
0,
0,
0,
0,
0,
0,
0,
0,
0,
0,
0,
0,
0,
0,
0,
0,
0,
0,
0,
0,
0,
0,
0,
0,
0,
0,
0,
0,
0,
0,
0,
0,
0,
0,
0,
0,
0,
0,
0,
0,
0,
0,
1,
0,
0,
0,
0,
0,
0,
0,
0,
0,
0,
0,
0,
0,
0,
0,
0,
0,
0,
0,
0,
0,
0,
0,
0,
0,
0,
0,
0,
0,
0,
0,
0,
0,
0,
0,
0,
0,
0,
0,
0,
0,
0,
0,
0,
0,
0,
0,
0,
0,
0,
0,
0,
0,
0,
0,
0,
0,
0,
0,
0,
0,
0,
0,
0,
0,
0,
0,
0,
0,
0,
0,
0,
0,
0,
0,
0,
0,
0,
0,
0,
0,
0,
0,
0,
0,
0,
0,
0,
0,
0,
0,
0,
0,
0,
0,
0,
0,
0,
0,
0,
0,
0,
0,
0,
0,
0,
0,
0,
0,
0,
0,
0,
0,
0,
0,
0,
0,
0,
0,
0,
0,
0,
0,
0,
0,
0,
0,
0,
0,
0,
0,
0,
0,
0,
0,
0,
0,
0,
0,
0,
0,
0,
0,
0,
0,
0,
0,
0,
0,
0,
0,
0,
0,
0,
0,
0,
0,
0,
0,
0,
0,
0,
0,
0,
0,
0,
0,
0,
0,
0,
0,
0,
0,
0,
0,
0,
0,
0,
0,
0,
0,
0,
0,
0,
0,
0,
0,
0,
0,
0,
0,
0,
0,
0,
0,
0,
0,
0,
0,
0,
0,
0,
0,
0,
0,
0,
0,
0,
0,
0,
0,
0,
0,
0,
0,
0,
0,
0,
0,
0,
0,
0,
#ENDOFDATA   :