File: N132962/Quantification/20 keV/Glass Mount IIIB/NIST K919 std.msa
#FORMAT      : EMSA/MAS Spectral Data File
#VERSION     : 1.0
#TITLE       : 'NIST K919' standard for 'N132962' detector
#NPOINTS     : 4096
#NCOLUMNS    : 1
#XUNITS      : eV
#YUNITS      : counts
#DATATYPE    : Y
#SIGNALTYPE  : EDS
#XLABEL      : Energy (eV)
#YLABEL      : Counts
#XPERCHAN -eV: 9.99778
#OFFSET   -eV: 1.69135
#CHOFFSET    : 0
#OWNER       : Unknown
#ELEVANGLE   : 35
#BEAMKV   -kV: 20
#LIVETIME  -s: 1199.63
#REALTIME  -s: 1306.64
#PROBECUR -nA: 1.22377
##WORKING -mm: 15
##D2STDCMP   : NIST K919,(O:31.8587),(Si:20.1010),(Cr:0.6842),(Mn:1.8958),(Fe:2.0983),(Co:2.1318),(Ni:2.3575),(Cu:2.3965),(Ba:34.0339),(Ce:2.4422)
##SIMILAR    : 1.0
#SPECTRUM    :
125,
133,
56,
163,
655,
2544,
7004,
16264,
34318,
43119,
32496,
27871,
31316,
37196,
55529,
160091,
553709,
1025403,
749209,
230463,
75919,
53223,
47384,
50750,
55051,
62861,
68704,
58325,
52750,
49918,
50089,
54143,
47031,
35098,
29952,
28804,
25728,
23941,
22904,
22857,
23167,
23604,
24403,
24730,
25202,
25672,
26544,
27467,
29176,
30666,
31643,
32075,
32232,
33182,
38617,
78249,
260981,
642421,
864213,
616470,
259312,
99724,
53416,
33670,
25730,
23530,
23327,
23907,
23706,
23779,
24213,
24239,
24369,
25437,
26510,
27481,
27883,
27037,
26571,
25229,
25282,
25122,
24789,
25225,
25061,
25286,
25077,
25319,
25877,
26307,
26840,
27097,
26130,
25095,
24647,
24394,
24351,
24483,
24798,
25073,
25161,
24910,
24584,
24503,
24663,
24045,
24318,
23293,
23671,
23145,
23207,
23385,
22838,
22965,
23271,
23340,
22958,
22794,
22592,
22225,
22009,
22464,
22516,
22911,
22329,
21958,
21168,
21329,
21751,
22835,
25808,
29425,
31066,
28746,
25324,
22319,
20869,
20144,
20187,
20118,
20280,
21237,
22303,
24896,
29638,
43946,
87043,
169424,
261236,
296374,
242258,
145034,
69828,
33704,
22438,
20239,
21698,
28814,
49732,
89986,
140377,
167684,
154826,
115380,
78315,
53279,
37822,
28915,
25742,
29615,
41661,
55617,
62716,
57141,
44980,
34136,
27544,
24345,
24066,
26282,
28002,
28807,
29419,
31973,
33805,
32771,
28324,
22984,
18741,
16566,
16101,
17784,
20735,
24643,
29831,
35642,
39748,
38562,
32049,
24766,
18697,
15469,
13925,
12899,
12715,
12206,
12139,
12057,
12736,
14310,
17789,
24201,
31706,
36306,
35308,
29966,
23061,
17824,
14269,
12436,
11732,
11112,
10881,
10678,
10654,
10923,
11859,
13509,
17912,
23538,
28563,
29808,
27153,
22250,
17740,
15054,
13355,
11935,
10995,
10205,
9813,
9904,
9662,
9739,
10561,
12445,
16130,
21386,
26487,
28643,
26050,
21382,
16584,
13627,
12235,
11557,
11067,
10375,
9483,
9089,
8915,
8784,
8977,
9631,
11296,
14201,
17986,
21577,
22783,
20869,
17098,
13536,
11263,
10318,
10360,
10654,
10142,
9566,
8984,
8259,
7956,
7579,
7538,
7414,
7493,
7513,
7542,
7390,
7459,
7393,
7459,
7472,
7451,
7531,
7964,
8451,
8751,
8907,
8486,
7938,
7410,
7081,
6886,
6787,
6575,
6576,
6459,
6366,
6477,
6521,
6473,
6467,
6517,
6311,
6218,
6198,
6140,
6233,
6098,
6183,
6070,
6028,
5918,
6016,
6035,
5968,
5799,
5717,
5933,
5719,
5733,
5662,
5735,
5542,
5644,
5535,
5549,
5326,
5458,
5306,
5348,
5136,
5288,
5249,
5234,
5217,
4953,
5077,
5025,
4932,
4965,
4841,
4834,
4884,
4895,
4847,
4763,
4693,
4797,
4751,
4684,
4668,
4589,
4635,
4547,
4298,
4385,
4305,
4410,
4369,
4264,
4265,
4275,
4225,
4129,
4226,
4101,
4122,
4053,
4064,
4034,
3951,
3801,
3889,
3970,
3812,
3863,
3825,
3823,
3769,
3757,
3535,
3572,
3617,
3534,
3526,
3496,
3503,
3414,
3441,
3350,
3267,
3364,
3205,
3306,
3241,
3162,
3221,
3116,
3140,
3118,
3157,
3014,
2987,
3046,
3067,
3046,
2994,
2819,
2900,
2914,
2808,
2744,
2835,
2794,
2744,
2771,
2729,
2694,
2700,
2628,
2720,
2590,
2524,
2521,
2517,
2554,
2497,
2528,
2366,
2387,
2416,
2388,
2328,
2257,
2255,
2217,
2330,
2218,
2192,
2115,
2086,
2117,
2145,
2087,
2016,
2036,
2053,
2033,
2004,
1999,
2019,
1955,
1943,
1927,
1827,
1861,
1844,
1839,
1793,
1771,
1782,
1794,
1758,
1728,
1738,
1701,
1687,
1542,
1614,
1572,
1585,
1550,
1595,
1563,
1479,
1573,
1473,
1432,
1491,
1442,
1391,
1417,
1424,
1315,
1364,
1294,
1355,
1342,
1303,
1234,
1239,
1232,
1255,
1245,
1156,
1200,
1195,
1201,
1180,
1144,
1143,
1102,
1125,
1143,
1021,
1054,
1045,
1040,
1054,
978,
961,
994,
969,
977,
967,
936,
960,
931,
960,
866,
919,
921,
866,
816,
828,
831,
789,
865,
755,
760,
739,
812,
737,
743,
753,
743,
685,
709,
652,
717,
681,
657,
667,
703,
646,
661,
606,
637,
619,
610,
524,
616,
547,
595,
553,
534,
554,
572,
535,
514,
523,
518,
492,
483,
478,
458,
465,
431,
427,
391,
451,
400,
401,
396,
423,
369,
391,
392,
338,
374,
348,
371,
363,
342,
349,
334,
306,
287,
296,
305,
301,
289,
276,
267,
255,
289,
251,
286,
225,
222,
224,
211,
236,
216,
210,
203,
233,
188,
209,
209,
191,
162,
165,
182,
178,
143,
158,
135,
161,
163,
133,
119,
115,
144,
113,
99,
118,
117,
99,
101,
93,
103,
88,
83,
80,
70,
72,
75,
64,
55,
59,
37,
61,
43,
56,
43,
45,
23,
29,
31,
30,
15,
20,
14,
12,
11,
8,
9,
11,
12,
6,
9,
6,
9,
9,
7,
8,
9,
8,
5,
6,
8,
10,
4,
6,
6,
6,
6,
4,
5,
12,
3,
6,
3,
7,
3,
6,
6,
5,
7,
9,
5,
4,
11,
5,
3,
2,
5,
4,
4,
5,
3,
6,
4,
3,
2,
5,
2,
1,
7,
5,
3,
5,
3,
5,
4,
2,
5,
3,
4,
4,
0,
4,
2,
1,
6,
3,
1,
4,
3,
3,
4,
2,
3,
1,
5,
2,
2,
0,
4,
3,
3,
1,
1,
2,
5,
5,
2,
2,
2,
1,
1,
3,
1,
3,
4,
1,
2,
0,
3,
4,
2,
0,
2,
2,
0,
1,
2,
2,
4,
3,
1,
3,
4,
0,
1,
1,
1,
1,
3,
0,
0,
2,
1,
1,
1,
1,
1,
0,
0,
1,
0,
1,
2,
1,
1,
2,
0,
0,
1,
3,
1,
0,
1,
2,
0,
0,
0,
1,
1,
0,
1,
1,
2,
0,
2,
1,
2,
2,
1,
0,
0,
0,
1,
0,
2,
1,
2,
2,
0,
0,
1,
0,
2,
1,
1,
0,
0,
1,
1,
1,
0,
1,
2,
0,
1,
2,
1,
1,
1,
1,
1,
1,
0,
1,
0,
0,
3,
0,
0,
0,
2,
2,
2,
0,
0,
0,
0,
0,
3,
1,
0,
0,
1,
1,
0,
2,
1,
0,
2,
1,
2,
0,
0,
1,
3,
0,
1,
1,
0,
1,
1,
1,
0,
0,
0,
2,
1,
0,
2,
0,
1,
0,
1,
0,
0,
0,
0,
0,
0,
0,
0,
0,
0,
0,
0,
3,
0,
0,
1,
1,
0,
0,
0,
1,
0,
0,
2,
0,
0,
0,
0,
0,
0,
0,
0,
1,
0,
0,
0,
0,
0,
0,
0,
0,
0,
0,
0,
0,
0,
0,
0,
0,
1,
1,
0,
0,
0,
0,
0,
0,
0,
0,
1,
0,
0,
0,
0,
1,
1,
0,
0,
2,
0,
0,
0,
0,
0,
0,
0,
0,
0,
0,
0,
0,
0,
0,
0,
0,
0,
0,
0,
0,
0,
0,
0,
0,
0,
0,
0,
0,
0,
0,
0,
1,
0,
1,
0,
0,
0,
0,
0,
1,
0,
0,
0,
0,
0,
0,
0,
0,
0,
0,
0,
0,
0,
0,
0,
0,
0,
0,
0,
0,
0,
0,
0,
0,
0,
0,
0,
0,
0,
0,
0,
0,
0,
0,
0,
0,
0,
0,
0,
0,
0,
0,
1,
0,
0,
1,
0,
0,
0,
0,
0,
0,
0,
0,
0,
0,
0,
0,
0,
0,
0,
0,
0,
0,
0,
0,
0,
0,
0,
0,
0,
0,
0,
0,
0,
0,
0,
0,
0,
0,
1,
0,
0,
0,
0,
0,
0,
0,
0,
0,
0,
0,
0,
0,
0,
0,
0,
0,
0,
0,
0,
0,
0,
0,
1,
0,
0,
0,
0,
0,
0,
0,
0,
0,
1,
0,
0,
0,
0,
0,
0,
0,
0,
0,
0,
0,
0,
0,
0,
0,
0,
0,
0,
0,
0,
0,
0,
0,
0,
0,
0,
0,
0,
0,
0,
0,
0,
0,
0,
0,
0,
0,
0,
0,
0,
0,
0,
0,
0,
0,
0,
0,
0,
0,
0,
0,
0,
0,
0,
0,
0,
0,
0,
0,
0,
0,
0,
0,
0,
0,
0,
0,
0,
0,
0,
0,
0,
0,
0,
0,
0,
0,
0,
0,
0,
0,
0,
0,
0,
0,
0,
0,
0,
0,
0,
0,
0,
0,
0,
0,
0,
0,
0,
0,
0,
0,
0,
0,
0,
0,
0,
0,
0,
0,
0,
0,
0,
0,
0,
0,
0,
0,
0,
0,
0,
0,
0,
0,
0,
0,
0,
0,
0,
0,
0,
0,
0,
0,
0,
0,
0,
0,
0,
0,
0,
0,
0,
0,
0,
0,
0,
0,
0,
0,
0,
0,
0,
0,
0,
0,
0,
0,
0,
0,
0,
0,
0,
0,
0,
0,
0,
0,
0,
0,
0,
0,
0,
0,
0,
0,
0,
0,
0,
0,
0,
0,
0,
0,
0,
0,
0,
0,
0,
0,
0,
0,
0,
0,
0,
0,
0,
0,
0,
0,
0,
0,
0,
0,
0,
0,
0,
0,
0,
0,
0,
0,
0,
0,
0,
0,
0,
0,
0,
0,
0,
0,
0,
0,
0,
0,
0,
0,
#ENDOFDATA   :