File: N132962/Quantification/20 keV/Glass Mount IIIB/NIST K378 std.msa
#FORMAT      : EMSA/MAS Spectral Data File
#VERSION     : 1.0
#TITLE       : 'NIST K378' standard for 'N132962' detector
#NPOINTS     : 4096
#NCOLUMNS    : 1
#XUNITS      : eV
#YUNITS      : counts
#DATATYPE    : Y
#SIGNALTYPE  : EDS
#XLABEL      : Energy (eV)
#YLABEL      : Counts
#XPERCHAN -eV: 9.99778
#OFFSET   -eV: 1.69135
#CHOFFSET    : 0
#OWNER       : Unknown
#ELEVANGLE   : 35
#BEAMKV   -kV: 20
#LIVETIME  -s: 1200.82
#REALTIME  -s: 1299.4
#PROBECUR -nA: 1.22592
##WORKING -mm: 15
##D2STDCMP   : NIST K378,(O:41.6622),(Na:10.1930),(Si:31.0491),(Zn:4.8363),(Ba:10.1564),(U:2.1030)
##SIMILAR    : 2.0
#SPECTRUM    :
98,
114,
54,
92,
504,
1957,
5128,
13255,
32743,
41680,
26968,
21418,
28409,
35411,
51155,
168629,
631867,
1199740,
870047,
230372,
36243,
17295,
17628,
18365,
17938,
20372,
22989,
22552,
22406,
24570,
25836,
31958,
64073,
166130,
299218,
283800,
135200,
43176,
22155,
19895,
19834,
20298,
21185,
21544,
21844,
23078,
23806,
25222,
27325,
30341,
32038,
31768,
31670,
32809,
41268,
110168,
431960,
1111297,
1510466,
1063258,
426201,
143287,
64272,
32523,
19488,
16210,
16131,
15949,
16592,
16295,
16566,
16646,
16934,
18238,
20155,
22193,
21929,
20089,
18288,
17553,
17178,
17091,
17678,
17715,
17616,
17260,
17135,
16748,
17178,
17276,
17358,
18102,
18095,
17751,
17384,
16886,
16983,
16746,
16456,
16398,
16590,
16753,
17099,
19326,
23868,
30342,
32204,
28151,
22279,
20440,
22928,
25183,
24543,
20858,
18348,
17792,
17811,
17635,
17367,
16426,
15773,
15237,
14713,
14777,
14498,
14367,
14008,
13805,
13873,
13994,
14743,
15776,
16022,
15721,
14542,
13586,
13129,
12939,
12942,
12759,
13049,
13250,
13213,
13834,
14931,
19249,
30705,
54094,
79988,
89367,
74399,
47204,
26204,
15921,
12629,
11808,
12198,
14047,
19284,
28994,
41063,
47915,
44271,
35329,
26457,
20363,
16484,
13817,
13099,
14005,
17347,
21163,
22980,
20772,
16767,
12916,
11018,
10098,
9690,
9823,
9781,
10375,
11423,
12986,
14261,
13973,
12539,
10833,
9706,
9297,
9300,
9737,
10186,
10576,
10517,
9791,
9239,
8727,
8474,
8590,
8467,
8156,
8236,
7946,
7883,
7915,
7918,
7834,
7715,
7945,
7797,
7816,
7833,
7984,
7926,
7727,
7541,
7340,
7292,
7229,
7101,
7173,
6989,
6947,
6961,
6826,
6711,
6770,
6707,
6709,
6668,
6587,
6652,
6436,
6498,
6543,
6462,
6302,
6187,
6194,
6118,
6122,
6084,
6084,
6043,
5976,
6022,
6194,
6329,
6262,
6223,
6159,
5826,
5820,
5569,
5698,
5615,
5631,
5505,
5457,
5343,
5309,
5336,
5366,
5217,
5222,
5274,
5252,
5111,
5163,
5171,
5119,
4909,
4924,
4981,
4985,
4992,
4953,
4943,
4736,
5083,
5046,
5692,
7462,
10998,
16332,
22259,
26580,
26977,
22677,
16830,
11172,
7302,
5498,
4584,
4445,
4375,
4285,
4308,
4303,
4205,
4160,
4072,
4199,
4065,
4127,
4072,
4087,
3941,
3933,
3953,
3953,
3915,
3786,
4119,
4542,
5271,
6179,
6541,
6654,
6167,
5551,
4834,
4171,
3756,
3505,
3506,
3361,
3455,
3474,
3326,
3284,
3330,
3272,
3184,
3253,
3287,
3168,
3321,
3173,
3037,
3073,
3129,
2947,
3057,
3075,
3115,
3010,
3050,
2886,
2892,
2947,
2876,
2720,
2778,
2819,
2710,
2726,
2722,
2702,
2686,
2647,
2633,
2660,
2565,
2632,
2542,
2631,
2580,
2466,
2511,
2493,
2474,
2493,
2314,
2434,
2404,
2327,
2319,
2359,
2285,
2285,
2237,
2254,
2215,
2232,
2214,
2198,
2159,
2158,
2142,
2094,
2048,
2085,
1950,
1904,
2028,
1970,
1921,
1961,
2036,
1857,
1922,
1906,
1864,
1877,
1803,
1766,
1721,
1792,
1766,
1773,
1759,
1722,
1652,
1688,
1678,
1639,
1683,
1658,
1547,
1585,
1601,
1537,
1551,
1445,
1464,
1508,
1433,
1497,
1401,
1462,
1456,
1456,
1405,
1393,
1326,
1326,
1411,
1365,
1327,
1282,
1337,
1289,
1307,
1310,
1236,
1262,
1323,
1188,
1258,
1278,
1294,
1264,
1218,
1209,
1164,
1189,
1173,
1085,
1100,
1140,
1039,
1037,
1044,
1029,
958,
1006,
990,
941,
995,
929,
894,
957,
899,
944,
847,
922,
839,
849,
846,
787,
822,
806,
857,
832,
863,
810,
839,
793,
771,
746,
716,
762,
749,
751,
663,
682,
718,
667,
700,
678,
640,
630,
704,
663,
637,
643,
663,
604,
628,
640,
584,
586,
592,
601,
586,
597,
512,
565,
562,
545,
547,
515,
475,
496,
472,
506,
466,
466,
497,
451,
443,
443,
428,
421,
471,
409,
391,
395,
409,
442,
450,
435,
399,
386,
385,
376,
393,
371,
340,
337,
365,
337,
321,
306,
341,
293,
309,
288,
294,
309,
316,
302,
275,
285,
275,
286,
243,
277,
252,
258,
244,
232,
217,
225,
224,
228,
233,
224,
213,
219,
200,
174,
212,
225,
204,
204,
205,
194,
174,
167,
170,
166,
161,
164,
164,
140,
149,
175,
160,
142,
143,
140,
148,
139,
135,
142,
119,
108,
107,
117,
110,
126,
102,
103,
92,
112,
88,
77,
88,
79,
81,
73,
88,
77,
68,
82,
67,
73,
74,
63,
52,
67,
43,
60,
62,
59,
57,
41,
51,
51,
39,
43,
40,
41,
29,
37,
26,
28,
24,
23,
31,
18,
19,
16,
14,
9,
20,
9,
9,
6,
9,
12,
8,
2,
4,
0,
7,
2,
3,
1,
3,
4,
1,
1,
1,
1,
1,
2,
1,
3,
0,
0,
2,
4,
2,
2,
2,
2,
2,
1,
2,
1,
2,
1,
4,
0,
2,
1,
2,
2,
4,
1,
0,
1,
2,
1,
1,
0,
0,
1,
3,
1,
0,
0,
4,
1,
0,
2,
2,
0,
2,
3,
3,
0,
1,
0,
3,
1,
0,
0,
2,
1,
0,
1,
0,
2,
0,
2,
1,
0,
0,
0,
2,
1,
0,
0,
1,
0,
0,
3,
0,
1,
1,
1,
0,
0,
0,
2,
0,
0,
0,
1,
0,
0,
2,
0,
1,
1,
0,
0,
0,
0,
0,
1,
0,
1,
2,
0,
1,
0,
1,
0,
0,
0,
0,
0,
0,
0,
1,
1,
1,
0,
0,
1,
0,
1,
0,
0,
0,
0,
0,
0,
2,
0,
0,
0,
0,
0,
1,
0,
0,
0,
2,
0,
0,
0,
0,
0,
0,
0,
1,
0,
1,
0,
0,
1,
0,
1,
0,
0,
1,
1,
0,
2,
0,
1,
0,
0,
0,
0,
0,
1,
0,
1,
0,
0,
0,
0,
1,
1,
0,
0,
0,
1,
0,
0,
0,
0,
0,
0,
0,
0,
1,
0,
0,
1,
0,
0,
1,
0,
0,
0,
3,
0,
0,
0,
0,
0,
0,
0,
0,
0,
0,
1,
0,
0,
0,
0,
1,
0,
0,
0,
0,
1,
0,
0,
0,
0,
0,
0,
0,
0,
0,
1,
0,
0,
0,
1,
2,
0,
1,
0,
0,
0,
0,
1,
0,
0,
0,
1,
0,
0,
0,
0,
0,
0,
0,
0,
0,
0,
0,
1,
0,
0,
0,
0,
0,
0,
0,
0,
0,
0,
0,
0,
0,
0,
0,
0,
0,
0,
0,
0,
0,
0,
0,
0,
0,
0,
1,
0,
0,
0,
0,
0,
0,
0,
0,
0,
0,
0,
0,
0,
0,
1,
0,
0,
0,
1,
0,
0,
0,
0,
0,
0,
0,
0,
0,
0,
0,
0,
0,
0,
0,
0,
0,
0,
0,
0,
0,
0,
0,
0,
0,
0,
1,
1,
0,
0,
0,
0,
1,
0,
0,
0,
0,
0,
0,
0,
0,
0,
0,
0,
0,
0,
0,
0,
0,
0,
0,
0,
0,
0,
0,
0,
0,
0,
0,
0,
0,
0,
0,
0,
0,
0,
0,
0,
0,
0,
0,
0,
0,
0,
0,
0,
0,
0,
0,
0,
0,
0,
0,
0,
0,
0,
0,
0,
0,
0,
0,
0,
0,
0,
0,
0,
0,
0,
0,
0,
0,
0,
0,
0,
0,
0,
0,
0,
0,
0,
0,
0,
0,
0,
0,
0,
0,
0,
0,
0,
0,
0,
0,
0,
0,
0,
0,
0,
0,
0,
0,
0,
0,
0,
0,
0,
0,
0,
0,
0,
0,
0,
0,
0,
0,
0,
0,
0,
0,
0,
0,
0,
0,
0,
0,
0,
0,
0,
0,
0,
0,
0,
0,
0,
0,
0,
0,
0,
0,
0,
0,
0,
0,
0,
0,
0,
0,
0,
0,
0,
0,
0,
0,
0,
0,
0,
0,
0,
0,
0,
0,
0,
0,
0,
0,
0,
0,
0,
0,
0,
0,
0,
0,
0,
0,
0,
0,
0,
0,
0,
0,
0,
0,
0,
0,
0,
0,
0,
0,
0,
0,
0,
0,
0,
0,
0,
0,
0,
0,
0,
0,
0,
0,
0,
0,
0,
0,
0,
0,
0,
0,
0,
0,
0,
0,
0,
0,
0,
0,
0,
0,
0,
0,
0,
0,
0,
0,
0,
0,
0,
0,
0,
0,
0,
0,
0,
0,
0,
0,
0,
0,
0,
0,
0,
0,
0,
0,
0,
0,
0,
0,
0,
0,
0,
0,
0,
0,
0,
0,
0,
0,
0,
0,
0,
0,
0,
0,
0,
0,
0,
0,
0,
0,
0,
0,
0,
0,
0,
0,
0,
0,
0,
0,
0,
0,
0,
0,
0,
0,
0,
0,
0,
0,
0,
0,
0,
0,
0,
0,
0,
0,
0,
0,
0,
0,
0,
0,
0,
0,
0,
0,
0,
0,
0,
0,
0,
0,
0,
0,
0,
0,
0,
0,
0,
0,
0,
0,
0,
0,
0,
0,
0,
0,
0,
0,
0,
0,
0,
0,
0,
0,
0,
0,
0,
0,
0,
0,
0,
0,
0,
0,
0,
0,
0,
0,
0,
#ENDOFDATA   :