File: N132962/Quantification/20 keV/Glass Mount IIIB/NIST K493 std.msa
#FORMAT      : EMSA/MAS Spectral Data File
#VERSION     : 1.0
#TITLE       : 'NIST K493' standard for 'N132962' detector
#NPOINTS     : 4096
#NCOLUMNS    : 1
#XUNITS      : eV
#YUNITS      : counts
#DATATYPE    : Y
#SIGNALTYPE  : EDS
#XLABEL      : Energy (eV)
#YLABEL      : Counts
#XPERCHAN -eV: 9.99778
#OFFSET   -eV: 1.69135
#CHOFFSET    : 0
#OWNER       : Unknown
#ELEVANGLE   : 35
#BEAMKV   -kV: 20
#LIVETIME  -s: 1201.9
#REALTIME  -s: 1337.42
#PROBECUR -nA: 1.22616
##WORKING -mm: 15
##D2STDCMP   : NIST K493,(Li:0.0005),(B:0.0435),(O:20.6329),(Al:0.1058),(Si:13.0376),(Ti:0.1918),(Fe:0.2238),(Zr:0.3627),(Ce:0.5536),(Ta:0.7207),(Pb:64.1280)
##SIMILAR    : 1.0
#SPECTRUM    :
116,
120,
54,
184,
1103,
4394,
11679,
25965,
52580,
64146,
44967,
32325,
31557,
32783,
37716,
73550,
210357,
374383,
275470,
95102,
46909,
39631,
38751,
42900,
39373,
32996,
31781,
33802,
36177,
37616,
37368,
37206,
37934,
39053,
39669,
40767,
41459,
42268,
43152,
44255,
45185,
46293,
47307,
48998,
49599,
50625,
51369,
52970,
57145,
62546,
63036,
59667,
57360,
57369,
62624,
99958,
266527,
607008,
804727,
597493,
299394,
167387,
109869,
68647,
51277,
46749,
46693,
48512,
50209,
50463,
51265,
55116,
60381,
65328,
76943,
121341,
272974,
581100,
852699,
822298,
657643,
601741,
510596,
305042,
128415,
56432,
44759,
53087,
63222,
61487,
47237,
34923,
29573,
27666,
27996,
28230,
29491,
30537,
30888,
31368,
32928,
35459,
37695,
38187,
36713,
33970,
31191,
29040,
28055,
27170,
26526,
26985,
26990,
26692,
26985,
27704,
27826,
28024,
27794,
27320,
26626,
26616,
27000,
27308,
27472,
27199,
26895,
26556,
26347,
26054,
25856,
25921,
26095,
26204,
26319,
26537,
26955,
27152,
27205,
26825,
26503,
26166,
26213,
25711,
25702,
25428,
25634,
26147,
27998,
30430,
32310,
31542,
29436,
26704,
25784,
25441,
25524,
25676,
26201,
27220,
28251,
29174,
28695,
27471,
26239,
25705,
24819,
24398,
23946,
23864,
23705,
23468,
23475,
24065,
24542,
25163,
24874,
24435,
23857,
23379,
23383,
22946,
22350,
22811,
22742,
22759,
23004,
22725,
22532,
22255,
22220,
21821,
21491,
21560,
21361,
21447,
21469,
21195,
21141,
21257,
21051,
21140,
21066,
20892,
20562,
20416,
20537,
20426,
20403,
20781,
20928,
22328,
24107,
24983,
24449,
23087,
21200,
20059,
19631,
19004,
18991,
18963,
18734,
18743,
18721,
18580,
18620,
18401,
18282,
18171,
18365,
18040,
18290,
18188,
18741,
18167,
18321,
17852,
17691,
17178,
17522,
17451,
17150,
17119,
17023,
17277,
17007,
17495,
17901,
17926,
17492,
17203,
16891,
16413,
16322,
15923,
15920,
15745,
15604,
15771,
15362,
15634,
15471,
15550,
15305,
15408,
15061,
15333,
15767,
15982,
16508,
16890,
16501,
16004,
15381,
15044,
14577,
14614,
14429,
14056,
14056,
13848,
13927,
13521,
13585,
13613,
13655,
13587,
13463,
13414,
13246,
13147,
13190,
13212,
13146,
13088,
12804,
12821,
12849,
12741,
12846,
12654,
13396,
13834,
14709,
15115,
15732,
15341,
14545,
14030,
13373,
13024,
12502,
12196,
12020,
11917,
11880,
11726,
11571,
11573,
11493,
11564,
11729,
11442,
11366,
11041,
10999,
10739,
10860,
10643,
10795,
10741,
10557,
10487,
10475,
10442,
10199,
10386,
10033,
10260,
10317,
10237,
10282,
10785,
12210,
14285,
18581,
25296,
35191,
47397,
59131,
65658,
64172,
54660,
41133,
27923,
18991,
13260,
10698,
9550,
9247,
9308,
9088,
8708,
8747,
8743,
8611,
8515,
8500,
8343,
8218,
8248,
8307,
8137,
8376,
8145,
8182,
8249,
8127,
8064,
7933,
7846,
7694,
7468,
7557,
7441,
7137,
7367,
7360,
7187,
7175,
7136,
6919,
6979,
6920,
6865,
6851,
6802,
6833,
6762,
6834,
6824,
7060,
7314,
7239,
7225,
7476,
7481,
7371,
7107,
7105,
6983,
6982,
7052,
7615,
9059,
12007,
15942,
20561,
24662,
26555,
25567,
22323,
17920,
13342,
10420,
8264,
7157,
6679,
6285,
6319,
6341,
6344,
6275,
6047,
5991,
5688,
5262,
5022,
4875,
4665,
4635,
4600,
4443,
4422,
4421,
4411,
4361,
4320,
4171,
4107,
4180,
4264,
4234,
4128,
3950,
3939,
3890,
4018,
3887,
3921,
3910,
3829,
3819,
3767,
3741,
3722,
3693,
3529,
3573,
3465,
3600,
3598,
3539,
3424,
3476,
3434,
3401,
3319,
3357,
3231,
3210,
3096,
3132,
3154,
3158,
3330,
3493,
3832,
4160,
4377,
4452,
4602,
4432,
4011,
3628,
3276,
2997,
2974,
3019,
2891,
2831,
2995,
2816,
2943,
2953,
2966,
2821,
2740,
2678,
2436,
2453,
2365,
2275,
2403,
2242,
2265,
2163,
2155,
2126,
2207,
2103,
2082,
2086,
2164,
2037,
1991,
2032,
2008,
1982,
1809,
1854,
1823,
1775,
1794,
1823,
1760,
1716,
1703,
1686,
1646,
1661,
1605,
1688,
1613,
1540,
1500,
1510,
1535,
1509,
1502,
1492,
1518,
1478,
1338,
1347,
1343,
1363,
1388,
1348,
1275,
1298,
1359,
1263,
1265,
1245,
1236,
1189,
1119,
1188,
1123,
1165,
1110,
1057,
1087,
1054,
1028,
1017,
1029,
1024,
1004,
941,
928,
945,
942,
868,
931,
882,
880,
846,
859,
869,
823,
793,
786,
764,
800,
730,
723,
681,
677,
684,
662,
632,
674,
648,
627,
625,
589,
594,
625,
548,
543,
505,
545,
598,
498,
521,
475,
474,
464,
475,
468,
419,
438,
423,
379,
415,
420,
375,
377,
330,
347,
347,
354,
339,
274,
259,
272,
272,
248,
232,
265,
253,
244,
204,
190,
178,
184,
171,
189,
120,
150,
156,
118,
132,
124,
113,
99,
94,
82,
77,
67,
68,
47,
33,
31,
33,
29,
34,
27,
17,
19,
26,
25,
16,
25,
22,
21,
16,
20,
20,
17,
24,
25,
20,
10,
15,
17,
13,
13,
18,
13,
16,
13,
22,
15,
16,
14,
21,
27,
19,
12,
21,
9,
18,
18,
23,
15,
10,
13,
13,
9,
8,
19,
13,
13,
12,
17,
16,
12,
8,
7,
13,
13,
12,
9,
9,
11,
12,
14,
14,
10,
15,
14,
11,
13,
13,
11,
10,
9,
7,
11,
8,
9,
3,
3,
11,
5,
11,
6,
4,
13,
11,
7,
10,
5,
13,
11,
7,
10,
11,
7,
15,
11,
9,
9,
7,
6,
8,
10,
12,
10,
12,
13,
8,
13,
5,
6,
12,
7,
1,
4,
3,
10,
7,
3,
7,
7,
5,
10,
4,
10,
8,
3,
10,
7,
6,
7,
6,
3,
2,
6,
4,
6,
6,
7,
12,
2,
3,
4,
3,
7,
7,
4,
2,
4,
9,
4,
4,
5,
7,
4,
7,
6,
7,
5,
5,
6,
5,
1,
10,
5,
3,
4,
8,
5,
5,
7,
6,
2,
5,
11,
4,
3,
5,
4,
7,
2,
7,
5,
5,
5,
5,
7,
4,
5,
4,
4,
4,
6,
5,
1,
3,
4,
3,
2,
4,
3,
3,
7,
4,
1,
2,
1,
3,
3,
4,
1,
1,
7,
5,
4,
5,
3,
6,
6,
1,
2,
0,
2,
2,
3,
2,
1,
0,
3,
3,
3,
2,
1,
2,
1,
5,
1,
4,
1,
3,
3,
1,
4,
2,
5,
4,
3,
1,
3,
4,
4,
4,
1,
1,
4,
1,
2,
5,
2,
1,
1,
3,
2,
3,
0,
3,
1,
1,
1,
2,
2,
0,
0,
1,
1,
2,
2,
1,
1,
2,
1,
1,
0,
2,
2,
4,
0,
1,
1,
1,
0,
1,
0,
3,
3,
1,
0,
1,
1,
2,
1,
0,
0,
1,
0,
2,
0,
1,
0,
2,
2,
2,
2,
1,
1,
0,
0,
1,
1,
0,
0,
1,
0,
3,
1,
1,
0,
0,
1,
0,
1,
0,
0,
0,
0,
1,
1,
1,
1,
2,
2,
1,
2,
2,
0,
0,
1,
0,
0,
1,
1,
0,
0,
0,
1,
0,
1,
2,
0,
1,
0,
0,
0,
0,
0,
0,
0,
1,
0,
1,
0,
2,
0,
0,
0,
0,
0,
0,
0,
0,
0,
0,
1,
0,
0,
0,
0,
1,
0,
0,
0,
1,
0,
1,
0,
0,
0,
0,
0,
0,
1,
0,
1,
1,
0,
0,
0,
0,
0,
1,
0,
0,
0,
0,
1,
0,
1,
0,
0,
1,
0,
0,
0,
0,
1,
0,
0,
0,
0,
0,
0,
0,
1,
0,
0,
0,
0,
0,
0,
0,
0,
0,
0,
0,
0,
0,
0,
0,
0,
1,
0,
1,
0,
0,
0,
1,
0,
0,
0,
0,
0,
0,
0,
0,
0,
0,
0,
0,
0,
0,
0,
0,
0,
0,
0,
0,
0,
0,
0,
0,
0,
0,
0,
0,
1,
0,
0,
0,
0,
0,
0,
0,
0,
0,
0,
0,
0,
0,
0,
0,
0,
0,
0,
0,
0,
0,
0,
0,
0,
0,
0,
0,
0,
0,
0,
0,
0,
0,
0,
0,
0,
0,
0,
0,
0,
0,
0,
0,
0,
0,
0,
0,
0,
0,
0,
0,
0,
0,
0,
0,
0,
0,
0,
0,
0,
0,
0,
0,
0,
0,
0,
0,
0,
0,
0,
0,
0,
0,
0,
0,
0,
0,
0,
0,
0,
0,
0,
0,
0,
0,
0,
0,
0,
0,
0,
0,
0,
0,
0,
0,
0,
0,
0,
0,
0,
0,
0,
0,
0,
0,
0,
0,
0,
0,
0,
0,
0,
0,
0,
0,
0,
0,
0,
0,
0,
0,
0,
0,
0,
0,
0,
0,
0,
0,
0,
0,
0,
0,
0,
0,
0,
0,
0,
0,
0,
0,
0,
0,
0,
0,
0,
0,
0,
0,
0,
0,
0,
0,
0,
0,
0,
0,
0,
0,
0,
0,
0,
0,
0,
0,
0,
0,
0,
0,
0,
0,
0,
0,
0,
0,
0,
0,
0,
0,
0,
0,
0,
0,
0,
0,
0,
0,
0,
0,
0,
0,
0,
0,
0,
0,
0,
0,
0,
0,
0,
0,
0,
0,
0,
0,
0,
0,
0,
0,
0,
0,
0,
0,
#ENDOFDATA   :