File: N132962/Quantification/20 keV/Glass Mount IIIB/NIST K456 std.msa
#FORMAT      : EMSA/MAS Spectral Data File
#VERSION     : 1.0
#TITLE       : 'NIST K456' standard for 'N132962' detector
#NPOINTS     : 4096
#NCOLUMNS    : 1
#XUNITS      : eV
#YUNITS      : counts
#DATATYPE    : Y
#SIGNALTYPE  : EDS
#XLABEL      : Energy (eV)
#YLABEL      : Counts
#XPERCHAN -eV: 9.99778
#OFFSET   -eV: 1.69135
#CHOFFSET    : 0
#OWNER       : Unknown
#ELEVANGLE   : 35
#BEAMKV   -kV: 20
#LIVETIME  -s: 1201.24
#REALTIME  -s: 1337.05
#PROBECUR -nA: 1.22592
##WORKING -mm: 15
##D2STDCMP   : NIST K456,(O:20.4271),(Si:13.4490),(Pb:66.1239)
##SIMILAR    : 1.0
#SPECTRUM    :
101,
122,
48,
222,
1004,
4239,
11466,
26038,
52326,
63798,
43863,
31804,
30579,
31798,
37005,
72490,
205976,
366456,
269027,
93396,
47749,
39571,
37772,
41451,
37888,
32641,
31933,
32922,
35586,
36347,
36639,
37119,
37856,
39083,
39882,
40546,
41265,
42050,
43431,
44240,
45281,
46105,
47398,
47873,
48894,
49865,
50982,
51934,
54397,
57043,
58073,
57090,
56197,
57101,
61331,
97371,
263038,
609400,
814554,
601626,
302672,
170215,
112010,
69988,
51022,
46372,
44912,
43966,
43835,
45200,
47301,
52450,
58950,
65752,
77760,
123467,
280557,
602359,
885100,
854614,
683158,
622963,
529783,
313979,
131282,
57409,
44866,
53732,
63552,
61531,
47781,
35002,
28786,
27354,
27736,
28387,
29628,
29961,
30533,
30820,
32158,
35182,
37302,
38191,
36512,
33700,
30968,
28476,
27545,
26939,
26602,
26394,
26453,
26970,
27115,
27330,
27562,
28100,
27729,
27068,
26535,
25829,
26128,
26621,
26697,
27080,
26821,
26465,
26203,
25899,
25389,
25481,
25625,
25874,
26299,
26991,
27130,
27118,
26989,
26682,
26640,
26466,
25745,
25668,
25327,
25265,
25338,
25791,
26367,
27144,
27846,
27833,
26458,
25829,
25093,
25128,
25446,
25603,
25443,
25713,
25471,
25347,
24959,
24684,
24667,
24313,
24210,
24111,
23549,
23541,
23573,
23453,
23254,
23408,
23001,
23067,
22887,
22947,
22848,
22927,
22795,
22533,
22493,
22767,
22460,
22237,
22270,
22081,
21872,
21969,
22052,
21969,
22002,
21585,
21411,
21555,
21370,
21370,
21236,
20823,
20935,
20924,
20638,
20471,
20660,
20323,
20266,
20324,
20249,
20371,
20498,
21082,
21572,
21933,
21957,
21247,
20410,
19733,
19336,
19130,
19058,
19022,
18822,
18574,
18654,
18519,
18475,
18463,
18201,
18435,
18240,
17944,
17823,
17841,
18087,
17769,
17637,
17811,
17698,
17524,
17215,
17191,
16939,
17219,
16773,
16933,
17259,
17593,
17850,
17958,
17569,
17271,
16700,
16328,
16189,
15950,
15972,
16032,
15691,
15580,
15723,
15523,
15563,
15421,
15587,
15020,
15127,
15051,
14939,
14826,
14906,
14805,
14756,
14748,
14748,
14477,
14532,
14260,
14093,
14091,
14148,
14180,
13854,
13791,
13683,
13678,
13400,
13780,
13694,
13605,
13352,
13315,
13239,
13053,
13234,
12940,
12919,
12884,
12947,
12738,
12581,
13106,
13274,
13793,
14910,
15436,
15736,
15286,
14383,
13368,
12753,
12243,
12002,
11960,
11789,
11702,
11721,
11836,
11705,
11253,
11247,
11143,
11389,
11138,
11080,
10897,
10754,
10860,
10878,
10808,
10780,
10615,
10670,
10540,
10616,
10452,
10535,
10220,
10370,
10194,
10177,
10187,
10350,
11214,
12114,
14545,
18622,
25920,
35837,
48669,
60345,
67904,
65894,
56533,
41915,
28902,
19105,
13742,
10586,
9657,
9295,
9207,
8986,
8939,
8738,
8597,
8478,
8404,
8536,
8518,
8355,
8189,
8111,
8269,
8214,
8098,
8190,
8286,
8217,
8055,
7926,
7851,
7703,
7632,
7458,
7502,
7322,
7436,
7307,
7160,
7203,
7184,
7150,
7093,
6928,
7016,
6936,
6890,
6810,
6825,
6925,
6918,
7079,
7329,
7194,
7501,
7315,
7238,
7338,
7213,
7202,
7084,
7181,
7071,
7756,
9123,
12201,
16426,
21202,
25394,
27341,
26580,
22940,
18377,
13930,
10661,
8364,
7160,
6725,
6339,
6354,
6305,
6343,
6481,
6409,
6097,
5681,
5455,
5146,
4835,
4701,
4612,
4525,
4431,
4440,
4424,
4431,
4210,
4302,
4335,
4382,
4284,
4203,
4170,
4122,
3993,
4044,
4016,
4013,
4076,
3893,
3897,
3795,
3705,
3753,
3768,
3723,
3580,
3693,
3588,
3539,
3528,
3557,
3525,
3425,
3434,
3494,
3445,
3416,
3390,
3332,
3186,
3235,
3088,
3089,
3179,
3290,
3546,
3700,
4059,
4491,
4729,
4603,
4593,
4182,
3725,
3306,
3079,
3060,
2849,
2820,
2940,
2917,
2937,
2961,
3023,
2872,
2844,
2870,
2610,
2495,
2408,
2473,
2311,
2232,
2238,
2270,
2323,
2213,
2143,
2065,
2056,
2114,
2080,
2005,
2073,
2059,
2027,
1981,
1851,
1895,
1847,
1914,
1826,
1860,
1763,
1762,
1692,
1696,
1705,
1691,
1612,
1597,
1612,
1530,
1647,
1578,
1590,
1556,
1563,
1525,
1464,
1437,
1438,
1473,
1385,
1346,
1326,
1298,
1300,
1339,
1222,
1242,
1319,
1288,
1260,
1236,
1185,
1167,
1205,
1190,
1182,
1114,
1099,
1096,
1101,
1059,
1049,
1035,
1032,
1048,
984,
1006,
955,
926,
884,
959,
880,
797,
875,
875,
861,
813,
794,
801,
810,
773,
791,
724,
687,
781,
707,
707,
681,
666,
644,
632,
627,
591,
608,
572,
558,
595,
528,
515,
519,
541,
505,
447,
454,
524,
472,
429,
432,
394,
431,
413,
401,
371,
334,
379,
338,
337,
315,
343,
308,
314,
287,
314,
233,
287,
217,
254,
226,
239,
216,
234,
214,
188,
193,
154,
188,
162,
149,
128,
139,
127,
109,
116,
79,
67,
74,
60,
62,
47,
32,
45,
32,
35,
33,
33,
20,
26,
12,
22,
22,
21,
20,
22,
27,
26,
23,
25,
20,
33,
18,
20,
22,
23,
26,
17,
14,
17,
26,
12,
23,
17,
7,
14,
10,
28,
19,
16,
18,
21,
15,
15,
17,
20,
15,
14,
18,
20,
9,
18,
18,
9,
14,
8,
8,
12,
12,
10,
11,
9,
13,
5,
13,
15,
11,
12,
13,
5,
14,
6,
15,
6,
12,
13,
13,
13,
6,
10,
9,
8,
11,
8,
19,
5,
11,
7,
11,
15,
11,
4,
4,
8,
9,
1,
4,
11,
7,
10,
8,
10,
7,
11,
10,
2,
11,
9,
11,
14,
7,
11,
12,
5,
4,
10,
6,
7,
8,
5,
3,
2,
9,
8,
11,
10,
8,
5,
11,
4,
9,
3,
5,
4,
6,
5,
5,
5,
5,
4,
10,
6,
8,
6,
5,
4,
4,
5,
9,
9,
4,
2,
1,
4,
6,
6,
10,
8,
10,
5,
11,
3,
3,
2,
5,
10,
6,
8,
5,
6,
6,
8,
4,
6,
8,
5,
9,
3,
10,
4,
7,
7,
8,
3,
8,
6,
5,
8,
7,
3,
4,
2,
7,
5,
3,
7,
7,
5,
6,
2,
2,
6,
3,
3,
5,
4,
5,
6,
6,
3,
2,
5,
6,
1,
2,
6,
2,
6,
5,
4,
4,
4,
5,
1,
4,
2,
0,
6,
5,
4,
3,
6,
2,
4,
2,
3,
4,
3,
4,
2,
1,
3,
3,
3,
3,
4,
2,
5,
3,
1,
2,
3,
3,
2,
2,
2,
2,
3,
1,
3,
6,
0,
2,
4,
3,
4,
1,
0,
1,
3,
1,
2,
1,
2,
4,
2,
2,
1,
1,
1,
2,
2,
1,
0,
0,
3,
0,
2,
1,
1,
3,
0,
0,
2,
2,
1,
3,
1,
1,
2,
0,
1,
0,
1,
2,
0,
3,
1,
1,
2,
2,
0,
2,
2,
1,
0,
1,
0,
1,
2,
0,
0,
0,
2,
0,
1,
1,
0,
0,
0,
0,
2,
0,
1,
2,
1,
0,
0,
0,
1,
0,
1,
0,
0,
1,
1,
0,
1,
0,
0,
0,
0,
1,
0,
0,
0,
1,
2,
1,
0,
0,
0,
1,
1,
0,
0,
0,
1,
0,
0,
0,
1,
0,
0,
0,
1,
0,
0,
0,
2,
0,
0,
1,
0,
0,
0,
2,
0,
0,
0,
0,
0,
0,
0,
0,
0,
0,
0,
0,
1,
0,
0,
0,
0,
0,
0,
0,
0,
0,
0,
0,
0,
0,
0,
0,
0,
0,
0,
0,
0,
0,
1,
0,
0,
0,
0,
0,
1,
0,
0,
0,
1,
0,
0,
0,
1,
0,
0,
0,
0,
0,
0,
0,
0,
0,
1,
0,
1,
0,
0,
0,
0,
0,
0,
0,
0,
0,
0,
0,
0,
0,
0,
0,
0,
0,
0,
1,
0,
0,
0,
0,
0,
0,
0,
0,
0,
0,
0,
0,
0,
0,
0,
0,
0,
0,
1,
0,
0,
0,
0,
0,
1,
0,
0,
0,
0,
0,
0,
0,
0,
0,
0,
0,
0,
0,
0,
0,
0,
0,
0,
0,
0,
0,
0,
0,
0,
0,
0,
0,
0,
0,
0,
0,
0,
0,
0,
0,
0,
0,
0,
0,
0,
0,
0,
0,
0,
0,
0,
0,
0,
0,
0,
0,
0,
0,
0,
0,
0,
0,
0,
0,
0,
0,
0,
0,
0,
0,
0,
0,
0,
0,
0,
0,
0,
0,
0,
0,
0,
0,
0,
0,
0,
0,
0,
0,
1,
0,
0,
0,
0,
0,
0,
0,
0,
0,
0,
0,
0,
0,
0,
0,
0,
0,
0,
0,
0,
0,
0,
0,
0,
0,
0,
0,
0,
0,
0,
0,
0,
0,
0,
0,
0,
0,
0,
0,
0,
0,
0,
0,
0,
0,
0,
0,
0,
1,
0,
0,
0,
0,
0,
0,
0,
0,
0,
0,
0,
0,
0,
0,
0,
0,
0,
0,
0,
0,
0,
0,
0,
0,
0,
0,
0,
0,
0,
0,
0,
0,
0,
0,
0,
0,
0,
0,
0,
0,
0,
0,
0,
0,
0,
0,
0,
0,
0,
0,
0,
0,
0,
0,
0,
0,
0,
0,
0,
0,
0,
0,
0,
0,
0,
0,
0,
0,
0,
0,
0,
0,
0,
0,
0,
0,
0,
0,
#ENDOFDATA   :