File: N132962/Quantification/20 keV/Glass Mount IIIB/NIST K491 std.msa
#FORMAT      : EMSA/MAS Spectral Data File
#VERSION     : 1.0
#TITLE       : 'NIST K491' standard for 'N132962' detector
#NPOINTS     : 4096
#NCOLUMNS    : 1
#XUNITS      : eV
#YUNITS      : counts
#DATATYPE    : Y
#SIGNALTYPE  : EDS
#XLABEL      : Energy (eV)
#YLABEL      : Counts
#XPERCHAN -eV: 9.99778
#OFFSET   -eV: 1.69135
#CHOFFSET    : 0
#OWNER       : Unknown
#ELEVANGLE   : 35
#BEAMKV   -kV: 20
#LIVETIME  -s: 1201.28
#REALTIME  -s: 1333.89
#PROBECUR -nA: 1.22616
##WORKING -mm: 15
##D2STDCMP   : NIST K491,(Li:0.0005),(B:0.0342),(O:16.6482),(Al:0.0847),(Si:0.0888),(Ti:0.1559),(Fe:0.1819),(Ge:26.3598),(Zr:0.2961),(Ce:0.4559),(Ta:0.5897),(Pb:55.0955)
##SIMILAR    : 1.1
#SPECTRUM    :
135,
126,
59,
166,
1141,
4488,
11806,
25666,
51236,
63842,
43456,
31939,
31571,
33242,
37688,
67294,
179842,
315994,
235214,
86504,
46844,
41515,
42556,
46685,
42578,
37167,
36498,
38561,
41268,
42407,
43084,
43455,
46443,
55368,
71339,
78335,
73130,
97954,
251184,
549827,
668112,
446529,
185586,
74766,
47939,
41263,
39343,
39806,
41208,
43776,
44387,
42803,
42198,
41770,
42738,
45773,
52337,
60822,
66551,
72775,
82927,
86894,
72747,
55726,
47187,
45616,
46179,
47053,
48464,
48831,
49328,
52685,
57236,
61500,
70972,
108570,
235228,
494711,
724931,
697351,
560321,
513667,
437092,
263272,
115243,
55285,
45414,
54243,
62458,
60295,
47664,
36604,
31194,
30028,
29957,
30886,
31409,
32189,
32644,
33248,
34472,
36711,
38456,
39392,
38141,
35379,
33160,
31349,
30056,
29623,
29099,
28695,
28486,
29079,
29040,
29163,
29648,
30374,
30813,
30257,
29707,
29543,
29173,
28936,
29446,
29224,
28938,
28579,
28296,
27905,
27547,
27672,
27627,
27507,
27547,
27664,
27459,
27410,
27346,
27737,
27579,
27597,
27454,
27171,
27293,
27441,
27482,
27938,
29659,
31702,
33237,
33046,
30731,
28481,
27078,
26763,
27100,
27348,
27614,
28302,
29395,
30003,
29685,
28708,
27930,
26990,
26220,
25925,
25256,
24992,
25079,
25313,
25365,
25471,
25676,
25990,
26052,
25884,
25163,
24907,
24743,
24535,
24291,
23900,
24018,
23976,
24286,
23949,
23972,
23499,
23213,
22960,
22724,
22650,
22712,
22519,
22280,
22374,
22350,
22344,
22213,
22288,
22196,
21905,
21996,
21544,
21784,
21599,
21643,
21689,
22490,
23644,
25175,
25630,
25246,
23765,
22415,
21116,
20543,
20540,
20263,
20137,
19935,
19487,
20008,
19765,
19392,
19389,
19359,
19235,
19034,
19164,
19164,
19587,
19247,
19243,
19211,
18905,
18778,
18285,
18328,
18016,
17836,
18011,
17654,
17926,
18077,
18571,
18824,
18811,
18762,
18083,
17515,
17321,
17121,
16896,
16646,
16696,
16391,
16630,
16355,
16371,
16375,
16156,
15920,
15985,
15906,
16304,
16442,
16880,
17224,
17343,
17126,
16858,
15986,
15716,
15470,
15273,
14869,
14689,
14736,
14722,
14522,
14468,
14481,
14146,
14242,
14197,
14233,
13950,
13934,
13941,
13943,
13982,
13530,
13449,
13346,
13520,
13363,
13390,
13536,
13660,
13739,
14326,
14996,
15622,
16072,
15564,
14907,
14540,
13924,
13353,
13152,
12908,
12672,
12598,
12441,
12321,
12356,
12207,
12500,
12767,
13492,
16306,
22185,
34834,
53965,
77889,
97289,
105496,
97459,
76364,
52957,
33465,
20989,
14801,
11844,
11142,
10880,
11054,
10666,
10895,
10916,
11344,
12346,
14398,
18090,
24418,
32993,
43910,
54731,
60652,
59522,
50873,
38693,
27082,
18500,
13756,
11430,
10513,
10787,
11784,
13491,
16323,
18903,
21533,
21883,
20256,
17620,
14450,
11940,
10157,
9348,
8711,
8411,
8242,
8427,
8511,
8395,
8158,
8183,
8031,
7732,
7750,
7577,
7482,
7537,
7602,
7448,
7443,
7443,
7347,
7238,
7403,
7149,
7019,
6986,
6973,
7006,
6803,
6975,
7129,
7288,
7199,
7310,
7451,
7391,
7553,
7404,
7225,
7357,
7184,
7070,
7129,
7732,
8867,
11111,
14871,
18882,
22517,
24004,
23244,
20337,
16561,
12608,
9885,
8065,
7226,
6676,
6468,
6495,
6299,
6316,
6419,
6158,
5941,
5652,
5314,
5091,
4974,
4788,
4854,
4744,
4724,
4587,
4622,
4649,
4524,
4429,
4418,
4372,
4324,
4268,
4304,
4325,
4310,
4233,
4217,
4210,
4070,
4146,
4091,
4075,
3981,
3889,
3840,
3812,
3844,
3776,
3741,
3698,
3561,
3582,
3655,
3622,
3622,
3444,
3532,
3522,
3478,
3422,
3340,
3284,
3260,
3289,
3248,
3473,
3490,
3830,
4069,
4354,
4601,
4476,
4260,
4069,
3638,
3381,
3101,
2983,
3038,
3021,
2975,
2980,
3013,
3072,
2963,
2905,
2834,
2835,
2784,
2604,
2488,
2460,
2392,
2363,
2290,
2321,
2324,
2322,
2272,
2287,
2155,
2272,
2236,
2213,
2213,
2188,
2176,
1980,
2050,
2090,
1982,
1849,
1932,
1886,
1837,
1920,
1778,
1764,
1741,
1725,
1746,
1776,
1686,
1682,
1615,
1675,
1577,
1517,
1573,
1525,
1529,
1523,
1493,
1503,
1488,
1460,
1441,
1431,
1428,
1376,
1375,
1421,
1374,
1299,
1263,
1360,
1248,
1240,
1288,
1227,
1212,
1244,
1180,
1154,
1182,
1163,
1103,
1027,
1067,
1013,
1012,
975,
1009,
983,
966,
932,
960,
918,
902,
893,
875,
845,
821,
878,
851,
774,
805,
841,
782,
755,
757,
776,
684,
693,
664,
716,
677,
664,
637,
582,
618,
585,
584,
585,
595,
540,
522,
529,
496,
522,
452,
489,
472,
492,
438,
476,
382,
386,
403,
401,
344,
337,
387,
364,
347,
339,
311,
323,
311,
276,
273,
308,
225,
253,
233,
232,
223,
208,
150,
180,
153,
178,
168,
149,
164,
120,
136,
129,
95,
100,
96,
82,
87,
60,
59,
46,
33,
34,
34,
25,
22,
23,
26,
31,
29,
31,
30,
40,
29,
29,
48,
35,
30,
32,
31,
20,
26,
22,
32,
17,
19,
34,
32,
28,
27,
27,
23,
27,
23,
21,
30,
22,
20,
25,
28,
25,
22,
16,
21,
20,
14,
18,
17,
14,
25,
8,
15,
19,
18,
21,
15,
17,
12,
15,
15,
12,
15,
14,
19,
17,
18,
19,
14,
21,
11,
19,
15,
9,
15,
13,
6,
16,
11,
11,
15,
12,
14,
20,
14,
25,
15,
8,
11,
11,
18,
14,
14,
11,
11,
9,
12,
10,
9,
7,
12,
5,
11,
10,
12,
8,
9,
8,
15,
12,
11,
12,
11,
11,
3,
5,
4,
6,
7,
12,
7,
7,
8,
8,
8,
5,
13,
7,
8,
1,
6,
6,
5,
9,
10,
8,
8,
6,
6,
6,
8,
9,
4,
10,
10,
3,
6,
6,
4,
3,
3,
8,
8,
6,
8,
9,
5,
8,
12,
17,
6,
9,
7,
10,
8,
10,
10,
9,
9,
6,
9,
9,
13,
9,
2,
16,
6,
6,
7,
4,
4,
14,
4,
6,
5,
1,
5,
6,
7,
6,
8,
6,
6,
7,
2,
2,
7,
3,
4,
2,
2,
5,
8,
7,
4,
5,
6,
4,
8,
8,
1,
4,
7,
3,
4,
1,
3,
4,
2,
2,
3,
4,
6,
4,
6,
3,
7,
4,
4,
2,
3,
2,
5,
7,
5,
1,
3,
4,
7,
3,
4,
5,
2,
3,
0,
6,
1,
5,
5,
4,
3,
4,
1,
5,
1,
2,
4,
3,
2,
7,
1,
2,
0,
2,
1,
2,
2,
1,
4,
3,
0,
5,
2,
2,
3,
2,
0,
1,
3,
1,
2,
3,
2,
2,
3,
1,
0,
4,
2,
1,
0,
0,
0,
1,
2,
2,
1,
1,
1,
1,
0,
1,
3,
3,
1,
1,
1,
1,
2,
0,
3,
2,
2,
0,
1,
0,
1,
1,
1,
1,
1,
1,
1,
0,
0,
0,
2,
2,
2,
0,
1,
0,
1,
0,
2,
0,
0,
1,
1,
0,
1,
0,
0,
0,
1,
0,
0,
0,
1,
2,
0,
1,
1,
0,
0,
2,
0,
0,
0,
0,
0,
0,
1,
0,
1,
0,
0,
1,
1,
1,
3,
2,
0,
2,
0,
0,
0,
0,
0,
1,
0,
0,
0,
0,
0,
0,
1,
0,
0,
1,
0,
1,
0,
0,
0,
0,
0,
1,
0,
2,
0,
0,
0,
0,
0,
0,
0,
0,
0,
0,
0,
0,
0,
0,
0,
0,
0,
1,
0,
0,
0,
1,
0,
0,
0,
0,
0,
0,
0,
0,
0,
0,
0,
0,
0,
0,
0,
1,
0,
0,
0,
0,
0,
0,
0,
0,
2,
0,
1,
0,
0,
0,
0,
0,
0,
0,
0,
0,
0,
0,
0,
0,
0,
0,
0,
0,
0,
0,
0,
0,
0,
0,
0,
0,
1,
0,
0,
0,
0,
0,
0,
0,
0,
0,
0,
1,
0,
0,
0,
0,
0,
0,
0,
0,
0,
0,
0,
0,
1,
0,
0,
0,
0,
0,
0,
0,
0,
0,
1,
0,
0,
0,
0,
0,
0,
0,
0,
0,
0,
0,
0,
0,
0,
0,
0,
0,
0,
0,
0,
0,
0,
0,
0,
0,
0,
0,
0,
0,
0,
1,
0,
0,
0,
0,
1,
0,
0,
0,
0,
0,
0,
0,
0,
0,
0,
0,
0,
0,
0,
0,
0,
0,
0,
0,
0,
0,
0,
0,
0,
0,
0,
0,
0,
0,
0,
0,
0,
0,
0,
0,
0,
0,
0,
0,
0,
0,
0,
0,
0,
0,
0,
0,
0,
0,
0,
0,
0,
0,
0,
0,
0,
0,
0,
0,
0,
0,
0,
0,
0,
0,
0,
0,
0,
0,
0,
0,
0,
0,
0,
0,
0,
0,
0,
0,
0,
0,
0,
0,
0,
0,
0,
0,
0,
0,
0,
0,
0,
0,
0,
0,
0,
0,
0,
0,
0,
0,
0,
0,
0,
0,
0,
0,
0,
0,
0,
0,
0,
0,
0,
0,
0,
0,
0,
0,
0,
0,
0,
0,
0,
0,
0,
0,
0,
0,
0,
0,
0,
0,
0,
0,
0,
0,
0,
0,
0,
0,
0,
0,
0,
0,
0,
0,
0,
0,
0,
0,
0,
0,
0,
0,
0,
#ENDOFDATA   :