File: N132962/Quantification/20 keV/Glass Mount IIIB/NIST K412 std.msa
#FORMAT      : EMSA/MAS Spectral Data File
#VERSION     : 1.0
#TITLE       : 'NIST K412' standard for 'N132962' detector
#NPOINTS     : 4096
#NCOLUMNS    : 1
#XUNITS      : eV
#YUNITS      : counts
#DATATYPE    : Y
#SIGNALTYPE  : EDS
#XLABEL      : Energy (eV)
#YLABEL      : Counts
#XPERCHAN -eV: 9.99778
#OFFSET   -eV: 1.69135
#CHOFFSET    : 0
#OWNER       : Unknown
#ELEVANGLE   : 35
#BEAMKV   -kV: 20
#LIVETIME  -s: 960.651
#REALTIME  -s: 1033.78
#PROBECUR -nA: 1.22574
##WORKING -mm: 15
##D2STDCMP   : NIST K412,(O:42.7559),(Mg:11.6575),(Al:4.9059),(Si:21.1996),(Ca:10.8991),(Fe:7.7420)
##SIMILAR    : 2.0
#SPECTRUM    :
84,
88,
37,
59,
305,
1253,
3420,
8468,
20867,
30160,
24412,
17412,
15777,
17103,
27093,
93836,
352427,
673559,
488025,
130708,
23238,
15618,
23313,
36964,
34769,
19997,
12573,
11774,
12566,
12790,
13048,
13552,
14493,
16069,
17978,
19264,
19035,
19693,
23146,
43958,
142032,
339859,
407284,
232550,
74537,
26661,
22072,
35516,
90887,
170836,
172607,
96696,
41936,
25434,
26489,
61983,
231655,
588404,
799106,
563375,
229526,
80378,
38986,
22308,
16392,
15048,
14373,
13276,
12606,
12679,
12261,
12459,
12589,
13078,
14059,
14974,
15519,
14593,
13657,
13060,
12820,
12874,
12974,
12835,
12685,
12567,
12672,
12556,
12591,
12481,
12435,
12577,
12370,
12382,
12094,
11975,
11905,
11995,
12246,
13132,
12769,
12461,
12006,
11635,
11642,
11666,
11622,
11653,
11710,
11649,
11354,
11171,
10966,
11151,
11276,
11655,
12286,
12994,
14545,
20958,
45262,
106248,
194384,
243877,
205209,
117592,
49505,
19920,
11849,
11015,
12257,
16420,
25203,
34825,
37691,
31195,
20581,
13092,
9714,
8947,
8646,
8651,
8354,
8239,
8047,
7863,
7710,
8029,
8141,
8119,
8327,
8523,
8075,
7819,
7767,
7776,
7613,
7522,
7429,
7109,
7385,
7090,
7424,
7218,
7252,
7302,
7219,
7006,
6946,
6903,
6885,
6867,
6817,
6687,
6823,
6554,
6600,
6570,
6387,
6583,
6707,
6817,
6680,
6475,
6158,
6199,
6059,
6001,
5911,
5962,
5817,
5803,
5870,
5781,
6026,
6313,
6252,
6317,
6073,
5838,
5432,
5451,
5456,
5308,
5475,
5389,
5582,
5753,
7156,
11152,
21267,
38298,
58082,
70759,
65737,
48680,
28768,
15109,
8145,
5746,
5029,
4880,
4858,
4744,
4617,
4696,
4646,
4533,
4783,
4828,
5218,
5823,
7310,
9462,
11418,
12748,
11971,
9477,
7114,
5427,
4537,
4256,
3940,
3859,
3839,
3965,
3938,
4077,
4135,
4081,
4025,
3847,
3895,
3697,
3755,
3711,
3584,
3608,
3544,
3565,
3598,
3463,
3526,
3414,
3404,
3420,
3407,
3340,
3349,
3294,
3368,
3239,
3296,
3305,
3287,
3218,
3314,
3173,
3086,
3066,
3109,
3077,
2988,
2950,
2914,
2978,
2957,
2947,
2777,
2857,
2815,
2822,
2706,
2757,
2742,
2844,
2654,
2705,
2660,
2681,
2599,
2558,
2658,
2493,
2570,
2432,
2522,
2534,
2478,
2448,
2526,
2487,
2557,
2369,
2408,
2378,
2361,
2357,
2308,
2277,
2260,
2257,
2395,
2253,
2169,
2267,
2184,
2158,
2081,
2189,
2075,
2091,
2132,
2131,
2141,
2006,
2141,
2020,
2013,
2029,
1957,
2003,
1986,
1945,
1917,
1968,
1889,
1876,
1905,
1840,
1834,
1833,
1786,
1715,
1766,
1742,
1779,
1835,
1813,
1755,
1648,
1610,
1663,
1608,
1542,
1592,
1539,
1625,
1509,
1588,
1554,
1513,
1514,
1454,
1536,
1449,
1431,
1495,
1377,
1357,
1378,
1406,
1389,
1400,
1351,
1265,
1347,
1317,
1407,
1328,
1378,
1292,
1305,
1203,
1245,
1171,
1241,
1184,
1176,
1217,
1211,
1135,
1221,
1146,
1094,
1114,
1160,
1070,
1083,
1066,
1078,
1096,
1085,
1024,
977,
1018,
1057,
993,
986,
1019,
1002,
988,
1065,
916,
976,
942,
942,
940,
918,
896,
855,
872,
847,
887,
861,
860,
807,
801,
843,
811,
831,
801,
812,
744,
813,
792,
783,
758,
740,
741,
758,
724,
713,
687,
711,
702,
671,
647,
686,
729,
654,
634,
621,
602,
616,
645,
626,
628,
610,
573,
575,
539,
565,
590,
581,
565,
555,
501,
515,
544,
552,
520,
532,
497,
527,
476,
464,
475,
463,
488,
477,
450,
463,
456,
413,
432,
447,
412,
429,
415,
405,
399,
364,
390,
349,
409,
407,
407,
363,
344,
379,
366,
357,
372,
300,
309,
345,
335,
301,
301,
310,
293,
291,
303,
308,
293,
318,
287,
267,
277,
245,
268,
219,
261,
261,
282,
227,
274,
229,
236,
245,
270,
222,
219,
205,
184,
203,
238,
208,
197,
217,
197,
202,
204,
212,
213,
190,
197,
181,
170,
161,
177,
150,
182,
162,
160,
160,
150,
159,
141,
179,
159,
158,
154,
152,
136,
132,
154,
137,
150,
139,
127,
123,
103,
126,
108,
110,
106,
100,
96,
111,
104,
107,
102,
95,
87,
88,
81,
92,
77,
80,
84,
75,
65,
96,
69,
79,
76,
84,
69,
64,
49,
58,
62,
72,
49,
73,
41,
57,
51,
54,
53,
35,
51,
48,
56,
45,
48,
43,
36,
39,
40,
35,
35,
33,
37,
20,
30,
27,
30,
27,
22,
25,
26,
24,
16,
20,
20,
16,
15,
12,
14,
15,
14,
14,
10,
19,
11,
6,
6,
6,
5,
10,
4,
5,
4,
2,
4,
2,
1,
1,
1,
1,
1,
2,
1,
2,
2,
1,
1,
1,
1,
1,
0,
1,
2,
1,
1,
0,
0,
3,
2,
0,
0,
0,
1,
1,
0,
1,
0,
0,
1,
0,
1,
1,
0,
1,
0,
0,
0,
2,
0,
2,
0,
2,
0,
0,
0,
1,
0,
0,
0,
2,
0,
1,
0,
0,
3,
0,
0,
0,
0,
1,
0,
0,
0,
1,
0,
0,
0,
0,
0,
1,
0,
0,
0,
2,
0,
0,
0,
0,
0,
0,
0,
0,
0,
0,
2,
1,
0,
1,
0,
2,
0,
0,
1,
0,
0,
1,
0,
1,
0,
1,
0,
0,
0,
1,
1,
0,
0,
0,
0,
0,
0,
0,
0,
1,
1,
0,
1,
1,
0,
1,
0,
0,
0,
0,
0,
0,
0,
0,
1,
1,
0,
0,
0,
0,
0,
0,
0,
0,
0,
0,
0,
0,
1,
0,
0,
0,
0,
0,
0,
0,
0,
1,
0,
0,
0,
0,
0,
0,
0,
0,
0,
0,
0,
0,
0,
1,
0,
0,
1,
1,
0,
0,
0,
0,
0,
1,
1,
0,
1,
0,
0,
0,
0,
0,
0,
0,
0,
0,
0,
0,
1,
0,
0,
0,
0,
0,
0,
0,
0,
0,
0,
1,
0,
0,
0,
0,
0,
1,
0,
0,
0,
0,
0,
0,
0,
1,
0,
0,
0,
0,
0,
0,
1,
0,
0,
0,
0,
0,
0,
0,
0,
0,
1,
0,
0,
0,
0,
0,
0,
0,
0,
0,
0,
0,
0,
0,
0,
0,
0,
0,
0,
0,
0,
0,
0,
0,
0,
0,
0,
0,
0,
0,
0,
0,
0,
0,
0,
0,
0,
1,
0,
0,
0,
0,
0,
0,
0,
0,
1,
0,
0,
0,
0,
0,
0,
0,
0,
0,
0,
0,
0,
0,
0,
0,
0,
0,
0,
0,
0,
0,
0,
0,
0,
0,
0,
0,
0,
0,
0,
0,
0,
0,
1,
0,
0,
0,
0,
0,
0,
1,
0,
0,
0,
0,
0,
0,
0,
0,
0,
0,
0,
0,
0,
0,
0,
0,
0,
0,
0,
0,
0,
0,
0,
0,
0,
0,
0,
0,
0,
0,
0,
0,
0,
0,
0,
0,
0,
0,
0,
0,
0,
0,
0,
0,
0,
0,
0,
0,
0,
0,
0,
0,
0,
0,
0,
0,
0,
0,
0,
0,
0,
0,
0,
0,
0,
0,
0,
0,
0,
0,
0,
0,
0,
0,
0,
0,
0,
0,
0,
0,
0,
0,
0,
0,
0,
0,
0,
0,
0,
0,
0,
0,
0,
0,
0,
0,
0,
0,
0,
0,
0,
0,
0,
0,
0,
0,
0,
0,
0,
0,
0,
0,
0,
0,
0,
0,
0,
0,
0,
0,
0,
0,
0,
0,
0,
0,
0,
0,
0,
0,
0,
0,
0,
0,
0,
0,
0,
0,
0,
0,
0,
0,
0,
0,
0,
0,
0,
0,
0,
0,
0,
0,
0,
0,
0,
0,
0,
0,
0,
0,
0,
0,
0,
0,
0,
0,
0,
0,
0,
0,
0,
0,
0,
0,
0,
0,
0,
0,
0,
0,
0,
0,
0,
0,
0,
0,
0,
0,
0,
0,
0,
0,
0,
0,
0,
0,
0,
0,
0,
0,
0,
0,
0,
0,
0,
0,
0,
0,
0,
0,
0,
0,
0,
0,
0,
0,
0,
0,
0,
0,
0,
0,
0,
0,
0,
0,
0,
0,
0,
0,
0,
0,
0,
0,
0,
0,
0,
0,
0,
0,
0,
0,
0,
0,
0,
0,
0,
0,
0,
0,
0,
0,
0,
0,
0,
0,
0,
0,
0,
0,
0,
0,
0,
0,
0,
0,
0,
0,
0,
0,
0,
0,
0,
0,
0,
0,
0,
0,
0,
0,
0,
0,
0,
0,
0,
0,
0,
0,
0,
0,
0,
0,
0,
0,
0,
0,
0,
0,
0,
0,
0,
0,
0,
0,
0,
0,
0,
0,
0,
0,
0,
0,
0,
0,
0,
0,
0,
0,
0,
0,
0,
0,
0,
0,
0,
0,
0,
0,
0,
0,
0,
0,
0,
0,
0,
0,
0,
0,
0,
0,
0,
0,
0,
0,
0,
0,
0,
0,
0,
0,
0,
0,
0,
0,
0,
0,
0,
0,
0,
0,
0,
0,
0,
0,
0,
0,
0,
0,
0,
0,
0,
0,
0,
#ENDOFDATA   :