File: N132962/Quantification/20 keV/Glass Mount IIIB/NIST K253 std.msa
#FORMAT      : EMSA/MAS Spectral Data File
#VERSION     : 1.0
#TITLE       : 'NIST K253' standard for 'N132962' detector
#NPOINTS     : 4096
#NCOLUMNS    : 1
#XUNITS      : eV
#YUNITS      : counts
#DATATYPE    : Y
#SIGNALTYPE  : EDS
#XLABEL      : Energy (eV)
#YLABEL      : Counts
#XPERCHAN -eV: 9.99778
#OFFSET   -eV: 1.69135
#CHOFFSET    : 0
#OWNER       : Unknown
#ELEVANGLE   : 35
#BEAMKV   -kV: 20
#LIVETIME  -s: 1201.08
#REALTIME  -s: 1307.96
#PROBECUR -nA: 1.2221
##WORKING -mm: 15
##D2STDCMP   : NIST K253,(O:31.6381),(Si:18.6986),(Mn:6.3193),(Co:1.9662),(Cu:1.9971),(Zn:8.0337),(Ba:31.3470)
##SIMILAR    : 1.0
#SPECTRUM    :
99,
119,
50,
131,
643,
2589,
6782,
15544,
33195,
42100,
30851,
26295,
30228,
35707,
53574,
153614,
533404,
992978,
726681,
224550,
80954,
65195,
49597,
34773,
35633,
50936,
59961,
47146,
33759,
35502,
47864,
61899,
81578,
125718,
147398,
98299,
46401,
26840,
22923,
21963,
22033,
22914,
23671,
24090,
24493,
25230,
25795,
27020,
28704,
31119,
32151,
31619,
31808,
32646,
37065,
74441,
243130,
597407,
806890,
574759,
242491,
93284,
50364,
32244,
25444,
23597,
23498,
23510,
24011,
23945,
24192,
24413,
24859,
25386,
26343,
27446,
27365,
26561,
25826,
25442,
25270,
25301,
25066,
25380,
25358,
24864,
25005,
25600,
25550,
25952,
26866,
27418,
26525,
25445,
25014,
24542,
24697,
24472,
24202,
24747,
24417,
24712,
24588,
24593,
24338,
24186,
23973,
23624,
23441,
23217,
22944,
23202,
22749,
23065,
23286,
23112,
23290,
22874,
22391,
22096,
21809,
21681,
21944,
21887,
21584,
21634,
21427,
21253,
21421,
22944,
25755,
29160,
30144,
28827,
25315,
22427,
21303,
20673,
20266,
20373,
20609,
20756,
21463,
23779,
28387,
43339,
83649,
162739,
251336,
284414,
231752,
138590,
67578,
32894,
22036,
19927,
21141,
27030,
45393,
79678,
121492,
145216,
133434,
101168,
70092,
49654,
36288,
28144,
25130,
29442,
40791,
54092,
59706,
52934,
38421,
26160,
18924,
16313,
15776,
15487,
16023,
17475,
21471,
26903,
30969,
30001,
25632,
20262,
16304,
15048,
15998,
18418,
24023,
34607,
53038,
76926,
93996,
91244,
70911,
45364,
26544,
17148,
13451,
12555,
12093,
11992,
12211,
12013,
12134,
12095,
12029,
12746,
13945,
15708,
18070,
20517,
21846,
20662,
18002,
14959,
12623,
11306,
10945,
10633,
10548,
10935,
11562,
13260,
17133,
22211,
26598,
27924,
24384,
19397,
14951,
12043,
10595,
10277,
9991,
9693,
9824,
9473,
9562,
9660,
9354,
9709,
9670,
10050,
10017,
10081,
10226,
10097,
10335,
10800,
11301,
11367,
10616,
10290,
9323,
9162,
8805,
8747,
8795,
9341,
10973,
13783,
17576,
20732,
21977,
20147,
16704,
13026,
10357,
8932,
8299,
8232,
8139,
7987,
7942,
8067,
8109,
8226,
9445,
12585,
18774,
28526,
39320,
47371,
47493,
40669,
29949,
19637,
12947,
9628,
8762,
8622,
8854,
8625,
8531,
8138,
7418,
7154,
6790,
6818,
6698,
6720,
6848,
6670,
6613,
6711,
6538,
6591,
6666,
6643,
6992,
7706,
8809,
10197,
11250,
11547,
10808,
9531,
8048,
7143,
6490,
6051,
6006,
5821,
5692,
5699,
5534,
5579,
5621,
5599,
5473,
5435,
5435,
5389,
5470,
5262,
5237,
5191,
5316,
5239,
5228,
5119,
5202,
5211,
5214,
5109,
4945,
4959,
4772,
4844,
4845,
4846,
4662,
4751,
4820,
4622,
4597,
4676,
4608,
4579,
4495,
4489,
4461,
4376,
4445,
4445,
4415,
4312,
4195,
4301,
4176,
4244,
4254,
4135,
4045,
3978,
4050,
3921,
3989,
3922,
3912,
3785,
3871,
3779,
3777,
3749,
3729,
3709,
3603,
3525,
3645,
3624,
3341,
3448,
3417,
3436,
3262,
3414,
3284,
3299,
3364,
3297,
3258,
3155,
3191,
3211,
3096,
3177,
3040,
3087,
3078,
3002,
2932,
2975,
2951,
2889,
2806,
2849,
2807,
2765,
2692,
2748,
2694,
2693,
2695,
2704,
2583,
2570,
2529,
2587,
2587,
2500,
2531,
2502,
2409,
2418,
2338,
2344,
2347,
2325,
2335,
2331,
2287,
2286,
2221,
2170,
2118,
2151,
2148,
2155,
2045,
2137,
2000,
2117,
2047,
1987,
1977,
1921,
1866,
1877,
1901,
1832,
1845,
1816,
1886,
1859,
1756,
1776,
1771,
1761,
1703,
1647,
1740,
1652,
1636,
1634,
1657,
1513,
1592,
1594,
1632,
1541,
1427,
1462,
1497,
1400,
1393,
1428,
1435,
1307,
1325,
1264,
1370,
1316,
1252,
1370,
1312,
1320,
1295,
1238,
1205,
1196,
1208,
1189,
1115,
1188,
1138,
1158,
1086,
1182,
1106,
1040,
1020,
960,
1099,
1043,
999,
1021,
966,
1020,
993,
1004,
947,
956,
970,
920,
852,
936,
860,
889,
855,
857,
827,
804,
808,
819,
791,
763,
762,
733,
728,
742,
699,
690,
699,
724,
648,
682,
725,
650,
673,
679,
640,
622,
635,
633,
584,
595,
608,
599,
586,
549,
524,
537,
583,
533,
491,
465,
517,
500,
456,
469,
490,
474,
467,
438,
411,
407,
440,
403,
407,
410,
366,
388,
378,
373,
398,
378,
394,
337,
350,
353,
346,
301,
321,
299,
305,
290,
275,
251,
291,
274,
268,
250,
240,
244,
257,
217,
224,
234,
236,
234,
213,
208,
203,
224,
192,
186,
204,
170,
196,
177,
160,
155,
168,
149,
119,
154,
130,
143,
111,
127,
131,
106,
114,
122,
101,
96,
116,
98,
82,
86,
88,
70,
75,
66,
70,
65,
59,
46,
55,
45,
46,
38,
34,
39,
21,
27,
15,
18,
15,
14,
14,
6,
7,
7,
10,
10,
9,
5,
5,
8,
8,
8,
9,
7,
6,
8,
2,
9,
6,
3,
6,
6,
4,
5,
7,
3,
9,
3,
3,
9,
7,
8,
6,
6,
6,
8,
6,
6,
4,
4,
5,
3,
5,
0,
4,
3,
3,
2,
4,
9,
2,
6,
5,
2,
6,
5,
3,
2,
4,
4,
3,
2,
2,
4,
4,
6,
5,
4,
1,
2,
2,
2,
0,
2,
1,
6,
0,
1,
2,
5,
6,
4,
4,
3,
1,
3,
1,
2,
5,
3,
2,
2,
1,
4,
4,
5,
1,
1,
1,
4,
0,
1,
3,
2,
2,
0,
2,
5,
1,
4,
2,
0,
3,
1,
2,
0,
0,
1,
2,
3,
4,
4,
1,
0,
2,
4,
3,
1,
4,
1,
1,
1,
4,
0,
1,
1,
2,
1,
0,
2,
1,
0,
2,
0,
0,
3,
0,
2,
0,
1,
3,
0,
2,
1,
1,
1,
2,
2,
1,
0,
1,
0,
1,
1,
3,
1,
2,
1,
0,
0,
3,
3,
0,
0,
0,
0,
0,
4,
1,
2,
0,
0,
1,
0,
2,
0,
1,
0,
2,
2,
2,
1,
0,
2,
1,
0,
2,
0,
2,
1,
0,
1,
1,
2,
2,
0,
0,
1,
1,
1,
1,
1,
0,
0,
0,
1,
1,
0,
0,
1,
0,
0,
2,
0,
1,
2,
1,
0,
2,
1,
0,
0,
1,
1,
0,
0,
0,
1,
0,
1,
1,
0,
5,
0,
0,
0,
0,
0,
0,
0,
1,
1,
0,
0,
1,
0,
0,
0,
0,
0,
0,
1,
0,
0,
1,
0,
2,
0,
0,
0,
0,
1,
0,
2,
0,
0,
0,
0,
0,
0,
0,
0,
0,
0,
0,
0,
1,
0,
1,
0,
0,
0,
2,
0,
0,
0,
0,
0,
0,
0,
1,
0,
1,
1,
0,
1,
1,
0,
1,
0,
0,
0,
1,
0,
0,
0,
0,
0,
0,
0,
0,
0,
1,
0,
0,
0,
0,
0,
0,
0,
0,
1,
0,
0,
0,
0,
0,
0,
0,
0,
0,
0,
0,
0,
0,
0,
0,
0,
0,
0,
0,
0,
0,
0,
0,
0,
0,
0,
0,
1,
0,
0,
0,
1,
0,
0,
1,
0,
0,
0,
0,
0,
0,
0,
0,
0,
0,
0,
0,
0,
0,
0,
0,
1,
0,
0,
0,
0,
0,
1,
0,
0,
0,
0,
0,
0,
1,
0,
0,
0,
0,
0,
0,
1,
0,
0,
0,
0,
0,
0,
0,
0,
0,
0,
0,
0,
0,
0,
0,
0,
0,
0,
0,
0,
0,
0,
0,
0,
0,
0,
0,
0,
0,
0,
0,
0,
0,
0,
0,
0,
0,
0,
0,
0,
0,
0,
0,
0,
0,
0,
0,
0,
0,
0,
0,
0,
0,
0,
0,
0,
0,
0,
0,
0,
0,
0,
0,
0,
0,
0,
0,
0,
0,
0,
0,
0,
0,
0,
0,
0,
0,
0,
0,
0,
0,
0,
0,
0,
0,
0,
0,
0,
0,
0,
0,
0,
0,
0,
0,
0,
0,
0,
0,
0,
0,
0,
0,
0,
0,
0,
0,
0,
0,
0,
0,
0,
0,
0,
0,
0,
0,
0,
0,
0,
0,
0,
0,
0,
0,
0,
0,
0,
0,
0,
0,
0,
0,
0,
0,
0,
0,
0,
0,
0,
0,
0,
0,
0,
0,
0,
0,
0,
0,
0,
0,
0,
0,
0,
0,
0,
0,
0,
0,
0,
0,
0,
0,
0,
0,
0,
0,
0,
0,
0,
0,
0,
0,
0,
0,
0,
0,
0,
0,
0,
0,
0,
0,
0,
0,
0,
0,
0,
0,
0,
0,
0,
0,
0,
0,
0,
0,
0,
0,
0,
0,
0,
0,
0,
0,
0,
0,
0,
0,
0,
0,
0,
0,
0,
0,
0,
0,
0,
0,
0,
0,
0,
0,
0,
0,
0,
0,
0,
0,
0,
0,
0,
0,
0,
0,
0,
0,
0,
0,
0,
0,
0,
0,
0,
0,
0,
0,
0,
0,
0,
0,
0,
0,
0,
0,
0,
0,
0,
0,
0,
0,
0,
0,
0,
0,
0,
0,
0,
0,
0,
0,
0,
0,
0,
0,
0,
0,
0,
0,
0,
0,
0,
0,
0,
0,
0,
0,
0,
0,
0,
0,
0,
0,
0,
0,
0,
#ENDOFDATA   :