File: N132962/Quantification/20 keV/Glass Mount IIIB/NIST K240 std.msa
#FORMAT      : EMSA/MAS Spectral Data File
#VERSION     : 1.0
#TITLE       : 'NIST K240' standard for 'N132962' detector
#NPOINTS     : 4096
#NCOLUMNS    : 1
#XUNITS      : eV
#YUNITS      : counts
#DATATYPE    : Y
#SIGNALTYPE  : EDS
#XLABEL      : Energy (eV)
#YLABEL      : Counts
#XPERCHAN -eV: 9.99778
#OFFSET   -eV: 1.69135
#CHOFFSET    : 0
#OWNER       : Unknown
#ELEVANGLE   : 35
#BEAMKV   -kV: 20
#LIVETIME  -s: 1200.81
#REALTIME  -s: 1299.71
#PROBECUR -nA: 1.2221
##WORKING -mm: 15
##D2STDCMP   : NIST K240,(O:34.0023),(Mg:3.0154),(Si:18.6986),(Ti:5.9950),(Zn:4.0168),(Zr:7.4030),(Ba:26.8689)
##SIMILAR    : 1.1
#SPECTRUM    :
105,
120,
54,
140,
733,
2606,
6544,
15109,
32824,
42285,
31844,
27280,
35043,
44043,
57319,
128942,
411007,
759526,
554728,
163656,
45805,
26887,
21415,
22182,
24699,
31902,
36607,
32093,
26710,
25636,
25696,
29728,
46483,
77448,
91488,
66655,
38190,
27447,
25496,
29514,
52422,
97053,
113295,
74149,
39102,
28243,
27237,
28062,
29636,
31235,
32334,
32258,
32847,
34346,
40134,
79545,
259281,
632701,
853538,
607884,
259217,
100477,
54058,
35348,
29657,
34466,
55696,
96624,
124715,
114287,
90500,
74864,
57698,
42671,
34295,
30152,
27874,
25887,
24184,
23351,
22944,
22991,
23199,
23636,
23975,
23464,
23246,
23108,
22934,
23347,
24377,
24661,
24595,
23666,
22584,
22258,
22153,
22066,
21892,
21927,
22106,
22310,
22233,
22341,
22250,
21481,
21715,
21478,
21529,
21450,
21135,
21709,
21027,
20916,
20593,
21081,
21303,
20832,
20532,
20160,
20081,
20125,
20191,
20285,
20405,
19488,
19516,
19542,
19838,
20742,
23184,
25589,
26961,
25242,
22299,
20260,
18984,
18489,
18396,
18329,
18228,
18690,
19999,
21377,
25375,
38382,
75260,
150889,
250920,
320744,
308058,
226413,
128552,
62053,
30547,
20472,
19566,
23943,
38355,
66326,
101452,
121698,
115622,
94276,
73722,
56091,
41394,
29436,
23642,
25241,
33662,
44294,
48777,
43365,
31963,
22043,
16522,
14398,
13976,
13849,
14319,
15331,
18780,
23057,
26157,
25583,
22211,
17524,
14412,
13158,
13619,
14890,
16831,
17639,
17148,
15509,
13875,
12867,
12414,
12287,
12225,
11712,
11216,
10949,
10993,
11096,
11060,
11126,
10872,
11173,
10949,
11102,
11460,
11346,
11303,
11012,
10674,
10343,
10188,
10272,
10064,
10034,
10043,
9970,
9874,
9845,
9579,
9587,
9563,
9463,
9626,
9461,
9415,
9463,
9308,
9303,
9392,
9214,
8933,
8952,
9063,
8888,
8871,
8849,
8783,
8741,
8941,
9030,
8995,
9011,
9013,
8841,
8367,
8373,
8454,
8241,
8076,
7982,
7938,
8042,
8086,
8209,
8232,
8093,
8113,
7978,
7750,
7808,
7542,
7454,
7562,
7501,
7438,
7268,
7400,
7218,
7410,
7196,
7153,
7314,
7150,
7295,
8080,
9394,
12242,
16757,
21747,
25478,
25634,
22083,
17275,
12238,
9046,
7445,
6762,
6541,
6446,
6485,
6484,
6451,
6376,
6415,
6306,
6211,
6112,
6119,
6025,
5997,
5927,
5892,
6021,
5994,
5975,
6070,
6100,
6457,
6845,
7484,
8186,
8005,
7592,
7135,
6499,
5958,
5559,
5357,
5325,
5265,
5215,
5121,
5237,
5141,
5089,
5100,
4888,
4847,
4905,
4806,
5003,
4891,
4778,
4727,
4797,
4783,
4639,
4687,
4715,
4595,
4499,
4585,
4433,
4490,
4466,
4538,
4372,
4406,
4237,
4244,
4275,
4225,
4276,
4001,
4106,
3994,
4057,
3832,
3904,
3905,
3881,
3764,
3862,
3781,
3709,
3743,
3703,
3743,
3618,
3737,
3612,
3646,
3557,
3507,
3425,
3471,
3518,
3360,
3513,
3298,
3391,
3261,
3276,
3323,
3147,
3224,
3175,
3064,
3136,
3049,
3047,
3031,
3077,
3030,
2921,
3002,
2949,
2920,
2937,
2806,
2801,
2734,
2744,
2790,
2661,
2718,
2597,
2713,
2641,
2598,
2576,
2628,
2535,
2524,
2475,
2452,
2449,
2389,
2384,
2373,
2436,
2369,
2348,
2230,
2360,
2266,
2186,
2245,
2184,
2191,
2143,
2112,
2121,
2190,
2084,
2090,
2112,
1959,
2011,
1972,
1918,
1945,
2011,
1899,
1887,
1839,
1800,
1805,
1873,
1745,
1780,
1766,
1752,
1667,
1735,
1673,
1696,
1662,
1593,
1623,
1622,
1575,
1575,
1575,
1526,
1463,
1538,
1484,
1483,
1460,
1416,
1417,
1353,
1410,
1387,
1396,
1361,
1344,
1304,
1329,
1252,
1330,
1254,
1262,
1351,
1208,
1218,
1223,
1149,
1224,
1141,
1118,
1152,
1083,
1104,
1049,
1115,
1056,
1050,
1030,
1065,
998,
1013,
963,
968,
968,
956,
959,
928,
955,
950,
1036,
1059,
1101,
1104,
1185,
1178,
1208,
1127,
1033,
991,
887,
803,
807,
838,
739,
722,
734,
713,
710,
715,
613,
692,
638,
656,
650,
646,
603,
649,
654,
646,
623,
582,
534,
600,
564,
565,
557,
571,
516,
528,
493,
525,
494,
487,
491,
489,
482,
456,
498,
432,
410,
431,
443,
421,
410,
408,
388,
387,
377,
416,
382,
388,
347,
359,
366,
379,
349,
380,
405,
391,
359,
377,
341,
276,
307,
304,
286,
296,
304,
263,
277,
245,
239,
240,
204,
225,
229,
229,
197,
226,
204,
200,
218,
180,
182,
200,
183,
189,
171,
160,
149,
128,
164,
157,
172,
149,
131,
143,
142,
130,
134,
116,
116,
102,
108,
99,
85,
110,
92,
103,
91,
80,
78,
85,
61,
78,
55,
62,
69,
35,
59,
40,
54,
34,
50,
40,
35,
38,
42,
35,
29,
11,
27,
20,
17,
13,
14,
6,
6,
6,
8,
5,
5,
1,
5,
5,
9,
7,
7,
3,
4,
6,
4,
6,
5,
5,
10,
4,
4,
3,
7,
5,
5,
4,
5,
3,
6,
9,
4,
4,
4,
4,
3,
2,
4,
3,
7,
5,
3,
0,
2,
4,
1,
1,
2,
3,
5,
4,
5,
4,
2,
5,
4,
3,
3,
5,
0,
5,
1,
0,
2,
1,
2,
1,
4,
0,
2,
1,
2,
1,
5,
3,
0,
3,
2,
2,
2,
3,
3,
3,
2,
2,
2,
4,
2,
0,
5,
0,
1,
0,
0,
1,
4,
1,
2,
3,
4,
1,
0,
1,
2,
2,
2,
0,
3,
3,
1,
3,
1,
0,
3,
0,
2,
2,
0,
1,
1,
0,
2,
2,
2,
0,
0,
1,
0,
0,
1,
0,
2,
1,
1,
0,
0,
3,
0,
1,
0,
1,
3,
1,
0,
2,
0,
0,
0,
2,
0,
2,
0,
1,
3,
0,
1,
2,
0,
1,
1,
0,
0,
0,
0,
0,
0,
0,
1,
0,
2,
1,
0,
1,
1,
0,
0,
0,
0,
2,
1,
1,
0,
0,
2,
1,
1,
0,
0,
0,
0,
1,
2,
1,
2,
1,
0,
0,
0,
0,
0,
0,
3,
0,
0,
0,
0,
0,
0,
1,
0,
0,
1,
0,
0,
0,
0,
0,
1,
0,
0,
0,
0,
0,
0,
1,
0,
1,
1,
0,
0,
0,
0,
1,
0,
0,
0,
0,
0,
1,
0,
0,
0,
0,
0,
2,
0,
1,
1,
0,
0,
1,
1,
0,
0,
0,
1,
0,
2,
1,
2,
1,
0,
1,
0,
0,
1,
0,
0,
0,
0,
0,
0,
0,
0,
0,
0,
0,
1,
0,
0,
1,
0,
0,
0,
0,
0,
0,
0,
0,
1,
0,
0,
0,
0,
1,
0,
1,
0,
0,
0,
1,
0,
1,
0,
0,
0,
0,
0,
0,
0,
0,
0,
0,
0,
0,
0,
0,
0,
0,
0,
0,
0,
1,
0,
0,
0,
0,
0,
0,
0,
0,
0,
0,
0,
0,
0,
0,
0,
0,
0,
0,
0,
0,
0,
0,
0,
0,
0,
0,
0,
0,
0,
0,
0,
0,
0,
1,
0,
0,
0,
0,
0,
0,
0,
0,
0,
0,
0,
0,
0,
0,
0,
0,
0,
0,
0,
0,
0,
0,
0,
0,
0,
0,
0,
0,
0,
0,
0,
0,
0,
0,
0,
0,
0,
0,
0,
0,
0,
0,
0,
0,
0,
1,
0,
0,
0,
0,
0,
0,
0,
0,
0,
0,
0,
0,
0,
0,
0,
0,
0,
0,
0,
0,
0,
0,
0,
0,
0,
0,
0,
0,
0,
1,
0,
2,
0,
0,
0,
0,
0,
0,
0,
0,
0,
0,
0,
0,
0,
0,
0,
0,
0,
0,
0,
0,
0,
0,
0,
0,
0,
0,
0,
0,
0,
0,
0,
0,
0,
0,
0,
0,
0,
0,
1,
0,
0,
0,
0,
0,
0,
0,
0,
0,
0,
0,
0,
0,
0,
0,
0,
0,
0,
0,
1,
0,
0,
0,
0,
0,
0,
0,
0,
0,
0,
0,
0,
0,
0,
0,
0,
0,
0,
0,
0,
0,
0,
0,
0,
0,
0,
0,
0,
0,
0,
0,
0,
0,
0,
0,
0,
0,
0,
0,
0,
0,
0,
0,
0,
0,
0,
0,
0,
0,
0,
0,
0,
0,
0,
0,
0,
0,
0,
0,
0,
0,
0,
0,
0,
0,
0,
0,
0,
0,
0,
0,
0,
0,
0,
0,
0,
0,
0,
0,
0,
0,
0,
0,
0,
0,
0,
0,
0,
0,
0,
0,
0,
0,
0,
0,
0,
0,
0,
0,
0,
0,
0,
0,
0,
0,
0,
0,
0,
0,
0,
0,
0,
0,
0,
0,
0,
0,
0,
0,
0,
0,
0,
0,
0,
0,
0,
0,
0,
0,
0,
0,
0,
0,
0,
0,
0,
0,
0,
0,
0,
0,
0,
0,
0,
0,
0,
0,
0,
0,
0,
0,
0,
0,
0,
0,
0,
0,
0,
0,
0,
0,
0,
0,
0,
0,
0,
0,
0,
0,
0,
0,
0,
0,
0,
0,
0,
0,
0,
0,
0,
0,
0,
0,
0,
0,
0,
0,
0,
0,
0,
0,
0,
0,
0,
0,
0,
0,
0,
0,
0,
0,
0,
0,
0,
0,
0,
#ENDOFDATA   :