File: N132962/Quantification/20 keV/Glass Mount IIIB/NIST K979 std.msa
#FORMAT      : EMSA/MAS Spectral Data File
#VERSION     : 1.0
#TITLE       : 'NIST K979' standard for 'N132962' detector
#NPOINTS     : 4096
#NCOLUMNS    : 1
#XUNITS      : eV
#YUNITS      : counts
#DATATYPE    : Y
#SIGNALTYPE  : EDS
#XLABEL      : Energy (eV)
#YLABEL      : Counts
#XPERCHAN -eV: 9.99778
#OFFSET   -eV: 1.69135
#CHOFFSET    : 0
#OWNER       : Unknown
#ELEVANGLE   : 35
#BEAMKV   -kV: 20
#LIVETIME  -s: 1200.6
#REALTIME  -s: 1297.16
#PROBECUR -nA: 1.22416
##WORKING -mm: 15
##D2STDCMP   : NIST K979,(Li:1.0452),(O:40.5783),(Al:8.9228),(Si:21.0172),(K:1.8678),(Ca:6.7467),(Ti:1.3489),(Sr:10.0541),(Nb:1.5729),(Sb:0.8431),(Cs:2.1222),(Sm:1.9404),(Dy:1.9605)
##SIMILAR    : 1.0
#SPECTRUM    :
124,
127,
36,
123,
622,
2024,
4882,
11632,
25990,
34660,
26598,
20165,
20111,
23333,
34817,
103128,
369223,
693953,
504907,
136343,
22765,
13480,
15201,
16509,
16667,
16600,
17907,
19761,
21152,
21448,
21402,
22270,
24231,
26694,
29201,
31801,
34447,
33578,
29760,
27964,
28718,
32204,
40028,
48374,
49556,
44069,
43619,
81281,
229756,
443075,
449764,
245521,
98838,
54752,
48853,
92703,
315962,
791659,
1101521,
879089,
520857,
305467,
178178,
100298,
55806,
35727,
26588,
21499,
19618,
19768,
23675,
32340,
39864,
39124,
33656,
31471,
28721,
24649,
21525,
19803,
18499,
18200,
17566,
17507,
17771,
17528,
17564,
17639,
17620,
17451,
17443,
17555,
17446,
17597,
17220,
17545,
17214,
17601,
17389,
17916,
17437,
17481,
17034,
17161,
17308,
17779,
18900,
22356,
31202,
49194,
66702,
66354,
48462,
29582,
20285,
18244,
18809,
20860,
26100,
36100,
57533,
101464,
162602,
196905,
165930,
98947,
47284,
25761,
20442,
19789,
19501,
21505,
27186,
34285,
36371,
31406,
23805,
17859,
15141,
14950,
17344,
21827,
27279,
29338,
26345,
20373,
16829,
17471,
23219,
32697,
39212,
38873,
32075,
25847,
22528,
19607,
17244,
15117,
13762,
12671,
12358,
12719,
13598,
15659,
17024,
17399,
15583,
13443,
11922,
11261,
10911,
10696,
10742,
10919,
10888,
11188,
11227,
11241,
10644,
10473,
10354,
10336,
10487,
10929,
11536,
13532,
16248,
18708,
19072,
17284,
14221,
11714,
10437,
9548,
9259,
8909,
8916,
8956,
8684,
8796,
8757,
8776,
8715,
9139,
10225,
11101,
12448,
12775,
11931,
11101,
10438,
9901,
10172,
11319,
12935,
14943,
16180,
16173,
14629,
12438,
10687,
9375,
8562,
7748,
7478,
7459,
7230,
7277,
6924,
7085,
7053,
7087,
7133,
6941,
7040,
7063,
7305,
7562,
8376,
9032,
9913,
10496,
10177,
9329,
8539,
7922,
7535,
7309,
7355,
7091,
7008,
6925,
7212,
7316,
7428,
7349,
6895,
6511,
6327,
5953,
5803,
5683,
5711,
5758,
5594,
5598,
5753,
5656,
5572,
5514,
5420,
5398,
5390,
5418,
5256,
5360,
5400,
5470,
5426,
5593,
5496,
5544,
5170,
5123,
5150,
4963,
4884,
4941,
4871,
4909,
4939,
4901,
4792,
4878,
4564,
4576,
4475,
4474,
4490,
4398,
4440,
4339,
4329,
4351,
4286,
4359,
4161,
4249,
4217,
4180,
4163,
4054,
4122,
4046,
3967,
4117,
4038,
3933,
3930,
3842,
3853,
3847,
3877,
3687,
3722,
3778,
3747,
3726,
3684,
3601,
3569,
3583,
3551,
3422,
3463,
3392,
3588,
3448,
3280,
3288,
3412,
3220,
3342,
3130,
3246,
3105,
3220,
3143,
3184,
3150,
3204,
3056,
3058,
3066,
3069,
2945,
2929,
2988,
2881,
2932,
2928,
2930,
2831,
2726,
2762,
2780,
2852,
2600,
2713,
2595,
2764,
2627,
2706,
2634,
2508,
2556,
2606,
2574,
2392,
2506,
2407,
2394,
2415,
2335,
2405,
2337,
2366,
2311,
2303,
2325,
2255,
2144,
2228,
2259,
2238,
2173,
2163,
2117,
2133,
2082,
2105,
2092,
2098,
1967,
2037,
1928,
1938,
1945,
2043,
1810,
1915,
1886,
1837,
1795,
1845,
1739,
1785,
1751,
1813,
1768,
1677,
1727,
1726,
1699,
1607,
1633,
1644,
1597,
1593,
1564,
1619,
1527,
1549,
1517,
1492,
1548,
1461,
1445,
1500,
1455,
1374,
1387,
1388,
1310,
1341,
1397,
1395,
1320,
1297,
1302,
1301,
1264,
1257,
1207,
1229,
1236,
1181,
1224,
1156,
1155,
1152,
1204,
1133,
1184,
1298,
1446,
1718,
2040,
2474,
2953,
3320,
3232,
3200,
2932,
2392,
1845,
1527,
1203,
1066,
943,
989,
909,
919,
914,
886,
864,
923,
883,
791,
823,
861,
848,
817,
787,
798,
785,
766,
727,
738,
787,
734,
681,
704,
719,
760,
688,
667,
646,
696,
660,
708,
641,
641,
622,
643,
591,
557,
584,
642,
616,
620,
625,
617,
616,
690,
816,
827,
820,
772,
825,
687,
628,
577,
531,
508,
488,
528,
478,
470,
442,
456,
424,
429,
408,
395,
416,
423,
395,
375,
372,
398,
402,
383,
355,
351,
356,
381,
367,
315,
345,
327,
320,
323,
280,
330,
307,
314,
294,
273,
296,
277,
274,
261,
276,
253,
281,
257,
246,
265,
216,
233,
219,
235,
219,
211,
200,
216,
205,
209,
228,
208,
172,
198,
203,
156,
193,
180,
168,
151,
168,
161,
129,
161,
146,
155,
126,
134,
125,
134,
134,
113,
124,
133,
116,
116,
105,
106,
93,
112,
116,
100,
114,
92,
95,
90,
93,
85,
88,
52,
57,
69,
65,
70,
61,
70,
69,
51,
58,
74,
49,
57,
46,
44,
49,
41,
52,
29,
33,
31,
35,
26,
34,
31,
33,
32,
26,
19,
26,
15,
13,
7,
10,
17,
5,
7,
2,
9,
8,
6,
2,
5,
2,
1,
3,
3,
2,
3,
3,
4,
1,
6,
2,
5,
2,
5,
4,
2,
1,
2,
1,
1,
4,
4,
4,
8,
0,
2,
1,
1,
0,
0,
2,
1,
6,
1,
0,
1,
3,
3,
1,
0,
5,
1,
3,
4,
0,
0,
3,
4,
4,
2,
2,
0,
4,
0,
6,
1,
1,
4,
0,
1,
2,
2,
2,
3,
0,
0,
3,
1,
0,
0,
0,
0,
1,
2,
2,
0,
1,
1,
0,
1,
0,
2,
1,
0,
3,
0,
2,
1,
1,
1,
0,
1,
1,
2,
0,
1,
1,
0,
1,
0,
2,
1,
1,
2,
0,
1,
1,
0,
0,
0,
0,
0,
0,
0,
0,
0,
0,
0,
1,
0,
0,
0,
0,
1,
1,
1,
0,
0,
0,
0,
0,
0,
1,
1,
0,
0,
0,
0,
0,
0,
0,
1,
1,
0,
0,
0,
2,
1,
0,
0,
1,
1,
0,
1,
0,
0,
1,
2,
2,
0,
0,
1,
0,
1,
0,
1,
1,
1,
0,
1,
1,
1,
1,
0,
0,
0,
0,
0,
1,
0,
1,
2,
0,
0,
1,
0,
0,
0,
0,
0,
0,
0,
0,
0,
0,
0,
1,
0,
0,
0,
2,
1,
0,
0,
0,
1,
0,
0,
0,
0,
0,
1,
0,
0,
0,
0,
0,
0,
0,
0,
0,
0,
0,
0,
2,
0,
0,
1,
0,
0,
1,
0,
0,
0,
0,
0,
0,
0,
0,
0,
0,
0,
0,
0,
1,
0,
0,
0,
0,
0,
0,
0,
0,
0,
0,
0,
0,
0,
0,
0,
1,
0,
0,
0,
0,
0,
0,
0,
0,
0,
0,
0,
0,
0,
0,
0,
0,
1,
0,
0,
1,
0,
1,
0,
0,
0,
0,
0,
0,
0,
0,
0,
0,
0,
0,
0,
0,
0,
0,
0,
0,
0,
0,
0,
0,
0,
0,
0,
0,
0,
0,
0,
0,
0,
0,
0,
0,
0,
0,
0,
0,
0,
0,
0,
1,
0,
0,
0,
0,
0,
0,
1,
0,
0,
0,
0,
0,
0,
0,
0,
0,
0,
0,
0,
0,
0,
0,
0,
0,
0,
0,
1,
0,
1,
0,
0,
0,
0,
0,
0,
0,
0,
0,
0,
0,
0,
0,
0,
0,
0,
0,
0,
0,
0,
0,
0,
1,
0,
0,
0,
0,
0,
0,
0,
0,
0,
0,
0,
0,
0,
0,
0,
0,
0,
0,
0,
0,
0,
0,
0,
0,
0,
0,
0,
0,
0,
0,
0,
0,
0,
0,
0,
0,
0,
0,
0,
1,
0,
0,
0,
0,
0,
0,
0,
0,
0,
0,
0,
0,
0,
0,
0,
0,
0,
0,
0,
0,
0,
0,
0,
0,
0,
0,
0,
0,
0,
0,
0,
0,
0,
0,
0,
0,
0,
0,
0,
0,
0,
0,
0,
0,
0,
0,
0,
0,
0,
0,
0,
0,
0,
0,
0,
0,
0,
0,
0,
0,
0,
0,
0,
0,
0,
0,
0,
0,
0,
0,
0,
0,
0,
0,
0,
0,
0,
0,
0,
0,
0,
0,
0,
0,
1,
0,
0,
0,
0,
0,
0,
0,
0,
0,
0,
0,
0,
0,
0,
0,
0,
0,
0,
0,
0,
0,
0,
0,
0,
0,
0,
0,
0,
0,
0,
0,
0,
0,
0,
0,
0,
0,
0,
0,
0,
0,
0,
0,
0,
0,
0,
0,
0,
0,
0,
0,
0,
0,
0,
0,
0,
0,
0,
0,
0,
0,
0,
0,
0,
0,
0,
0,
0,
0,
0,
0,
0,
0,
0,
0,
0,
0,
0,
0,
0,
0,
0,
0,
0,
0,
0,
0,
0,
0,
0,
0,
0,
0,
0,
0,
0,
0,
0,
0,
0,
0,
0,
0,
0,
0,
0,
0,
0,
0,
0,
0,
0,
0,
0,
0,
0,
0,
0,
0,
0,
0,
0,
0,
0,
0,
0,
0,
0,
0,
0,
0,
0,
0,
0,
0,
0,
0,
0,
0,
0,
0,
0,
0,
0,
0,
0,
0,
0,
0,
0,
0,
0,
0,
0,
0,
0,
0,
0,
0,
0,
0,
0,
0,
0,
0,
0,
0,
0,
0,
0,
0,
0,
0,
0,
0,
0,
0,
0,
0,
0,
0,
0,
0,
0,
0,
0,
0,
0,
0,
0,
0,
0,
0,
#ENDOFDATA   :