File: N132962/Quantification/20 keV/Glass Mount IIIB/NIST K453 std.msa
#FORMAT      : EMSA/MAS Spectral Data File
#VERSION     : 1.0
#TITLE       : 'NIST K453' standard for 'N132962' detector
#NPOINTS     : 4096
#NCOLUMNS    : 1
#XUNITS      : eV
#YUNITS      : counts
#DATATYPE    : Y
#SIGNALTYPE  : EDS
#XLABEL      : Energy (eV)
#YLABEL      : Counts
#XPERCHAN -eV: 9.99778
#OFFSET   -eV: 1.69135
#CHOFFSET    : 0
#OWNER       : Unknown
#ELEVANGLE   : 35
#BEAMKV   -kV: 20
#LIVETIME  -s: 960.829
#REALTIME  -s: 1066.61
#PROBECUR -nA: 1.22574
##WORKING -mm: 15
##D2STDCMP   : NIST K453,(O:16.8392),(Ge:28.6501),(Pb:54.5107)
##SIMILAR    : 1.0
#SPECTRUM    :
99,
98,
47,
144,
873,
3350,
9078,
20105,
41274,
50378,
34837,
24996,
24918,
25657,
29632,
53833,
145825,
255385,
191292,
69580,
37554,
32843,
31959,
35228,
33024,
29246,
28910,
30797,
32828,
33838,
34210,
35421,
38109,
45769,
59840,
65281,
61423,
83651,
218797,
481579,
589778,
390772,
159315,
61601,
37545,
32176,
30629,
30685,
31389,
32810,
33209,
32590,
32292,
32705,
33503,
33965,
35603,
38480,
42555,
50130,
61500,
67342,
57189,
43195,
37232,
35303,
34610,
34248,
34288,
35386,
36510,
39736,
43923,
48159,
55770,
85267,
186355,
390156,
571851,
551948,
442947,
405587,
346128,
207491,
91189,
43435,
36488,
42811,
50098,
47960,
37966,
29078,
25220,
23970,
23946,
24774,
25183,
25630,
26424,
26320,
27035,
28999,
30894,
31470,
30216,
28142,
26218,
25004,
23852,
23373,
23177,
23109,
23159,
23372,
23328,
23357,
23547,
24324,
24755,
24344,
23941,
23778,
23292,
22867,
23129,
23362,
22898,
22613,
22472,
22472,
22330,
22332,
22214,
21893,
22104,
21970,
21712,
22181,
21989,
21842,
21903,
21723,
21902,
21432,
21719,
21600,
21488,
21769,
22524,
23199,
23855,
23701,
22754,
21796,
21609,
21165,
21583,
21233,
21393,
21551,
21228,
21103,
21087,
20788,
20856,
20830,
20528,
20340,
20257,
20297,
20009,
19445,
19905,
19724,
19658,
19501,
19558,
19478,
19215,
19351,
19523,
19048,
19058,
18886,
19108,
18990,
18717,
18481,
18731,
18397,
18226,
18295,
18090,
18149,
17993,
17859,
18044,
17582,
17613,
17633,
17424,
17540,
17455,
17349,
17316,
17155,
16904,
17050,
16690,
17072,
17130,
17701,
18258,
18503,
17925,
17571,
17177,
16499,
16365,
15997,
16167,
15811,
15816,
15863,
15709,
15510,
15509,
15256,
15385,
15177,
15200,
14934,
15178,
15181,
14911,
15068,
14831,
14654,
14707,
14665,
14523,
14143,
14125,
14271,
14163,
14119,
14513,
14572,
15013,
14874,
14809,
14296,
13712,
13602,
13559,
13335,
13163,
13361,
12949,
13148,
13082,
12906,
12574,
12979,
12658,
12664,
12589,
12622,
12588,
12505,
12461,
12388,
12265,
12206,
12113,
12043,
11930,
11980,
11951,
11730,
11714,
11475,
11391,
11558,
11458,
11318,
11121,
11259,
11135,
11274,
11037,
11060,
11048,
10728,
10721,
10841,
10706,
10632,
10551,
10343,
10644,
10796,
10981,
11325,
11942,
12225,
12388,
12213,
11844,
10871,
10310,
10077,
9814,
9917,
9703,
9787,
9726,
9540,
9615,
9588,
9864,
9905,
10511,
12917,
18341,
28922,
45727,
65891,
83339,
90040,
82620,
65122,
44420,
27839,
17337,
11585,
9632,
9049,
8573,
8564,
8544,
8629,
8545,
8908,
9692,
11301,
14333,
19120,
26420,
34827,
42896,
47457,
46422,
39203,
30093,
20955,
14354,
10583,
8933,
8428,
8505,
9312,
10959,
13085,
15742,
17783,
18282,
16875,
14352,
11634,
9566,
7962,
7079,
6795,
6708,
6523,
6571,
6653,
6432,
6445,
6396,
6287,
6209,
6074,
6005,
5968,
5951,
5877,
5872,
5828,
5784,
5923,
5701,
5589,
5686,
5511,
5466,
5388,
5539,
5560,
5492,
5579,
5535,
5666,
5856,
5777,
5940,
5687,
5889,
5776,
5738,
5604,
5535,
5611,
6000,
7048,
8791,
11402,
14758,
17610,
18665,
18076,
15807,
12776,
9965,
7672,
6430,
5574,
5111,
4932,
4854,
4858,
4986,
5020,
4960,
4731,
4466,
4228,
3907,
3983,
3919,
3756,
3750,
3725,
3731,
3673,
3633,
3522,
3597,
3409,
3424,
3536,
3403,
3375,
3321,
3361,
3222,
3240,
3227,
3242,
3218,
3130,
3097,
3137,
2959,
3019,
3040,
3051,
2872,
2931,
2982,
2873,
2750,
2858,
2836,
2781,
2759,
2787,
2695,
2647,
2622,
2590,
2608,
2610,
2552,
2625,
2671,
2782,
2993,
3190,
3317,
3584,
3489,
3442,
3310,
2986,
2635,
2473,
2431,
2377,
2302,
2339,
2354,
2415,
2390,
2337,
2342,
2268,
2160,
2157,
2083,
1993,
1902,
1826,
1906,
1902,
1846,
1817,
1777,
1732,
1727,
1724,
1681,
1648,
1649,
1623,
1613,
1600,
1581,
1632,
1500,
1539,
1495,
1527,
1529,
1439,
1425,
1461,
1393,
1408,
1389,
1304,
1243,
1358,
1310,
1283,
1278,
1231,
1243,
1229,
1234,
1187,
1145,
1157,
1156,
1145,
1123,
1085,
1065,
1127,
1041,
1160,
1047,
1004,
1041,
995,
1016,
1018,
920,
946,
903,
938,
892,
877,
889,
890,
836,
885,
876,
822,
779,
821,
816,
786,
786,
762,
742,
741,
699,
723,
654,
692,
677,
638,
643,
593,
646,
631,
598,
609,
583,
590,
588,
532,
548,
471,
498,
476,
491,
481,
475,
451,
461,
428,
449,
432,
415,
405,
381,
375,
365,
359,
358,
335,
340,
328,
315,
351,
298,
318,
269,
286,
286,
255,
249,
211,
256,
245,
206,
240,
210,
197,
182,
176,
172,
166,
169,
153,
132,
126,
134,
121,
110,
108,
114,
97,
90,
92,
92,
77,
52,
54,
55,
38,
25,
24,
35,
24,
26,
26,
19,
15,
17,
13,
24,
24,
25,
33,
24,
31,
27,
25,
22,
20,
22,
21,
23,
16,
21,
17,
25,
13,
16,
11,
23,
18,
19,
18,
17,
17,
17,
19,
16,
23,
19,
17,
22,
19,
11,
17,
16,
18,
16,
9,
15,
16,
10,
15,
18,
10,
16,
14,
13,
10,
10,
10,
4,
13,
12,
12,
13,
11,
9,
9,
8,
9,
8,
8,
6,
10,
11,
9,
9,
10,
21,
12,
12,
7,
10,
19,
7,
13,
10,
11,
7,
9,
5,
9,
11,
8,
9,
11,
7,
11,
8,
5,
9,
4,
12,
10,
7,
11,
9,
12,
9,
12,
5,
4,
8,
12,
4,
7,
8,
6,
9,
5,
7,
11,
6,
6,
8,
7,
11,
5,
6,
7,
10,
7,
12,
5,
6,
6,
5,
1,
3,
7,
8,
5,
7,
3,
6,
4,
6,
5,
1,
6,
7,
5,
2,
7,
5,
6,
7,
5,
9,
9,
9,
7,
8,
6,
7,
8,
5,
3,
6,
3,
4,
7,
4,
4,
6,
6,
2,
5,
6,
2,
4,
3,
6,
3,
7,
5,
1,
2,
6,
4,
2,
2,
5,
5,
3,
4,
4,
3,
4,
4,
2,
7,
3,
7,
2,
3,
5,
5,
3,
5,
3,
6,
4,
4,
3,
1,
2,
2,
1,
4,
2,
2,
2,
3,
4,
3,
4,
6,
1,
2,
3,
2,
5,
3,
6,
2,
0,
6,
2,
2,
2,
3,
2,
2,
4,
4,
3,
1,
2,
2,
0,
1,
2,
2,
2,
3,
0,
1,
1,
3,
3,
1,
1,
4,
1,
0,
2,
0,
3,
1,
2,
0,
3,
2,
1,
1,
0,
1,
0,
1,
1,
1,
2,
1,
0,
1,
0,
2,
3,
1,
0,
1,
0,
1,
0,
1,
0,
2,
2,
2,
3,
0,
2,
0,
2,
2,
0,
0,
1,
3,
2,
1,
1,
1,
1,
0,
0,
1,
0,
1,
0,
2,
0,
0,
1,
0,
0,
1,
0,
1,
0,
2,
1,
0,
1,
1,
0,
2,
0,
0,
1,
0,
0,
2,
1,
0,
1,
1,
0,
0,
0,
0,
2,
0,
2,
1,
0,
1,
0,
0,
1,
0,
0,
0,
0,
0,
0,
0,
0,
0,
0,
0,
0,
1,
0,
0,
0,
0,
0,
0,
0,
0,
0,
0,
0,
1,
0,
0,
0,
0,
0,
0,
0,
1,
0,
0,
0,
0,
0,
0,
2,
0,
0,
0,
2,
0,
0,
1,
0,
0,
0,
0,
0,
0,
0,
0,
1,
0,
0,
0,
0,
1,
0,
0,
0,
0,
0,
0,
0,
0,
0,
0,
0,
0,
0,
0,
0,
0,
0,
0,
0,
0,
0,
1,
0,
0,
0,
0,
0,
0,
0,
0,
0,
0,
0,
0,
0,
0,
0,
0,
0,
0,
0,
0,
0,
1,
0,
1,
0,
0,
0,
0,
0,
0,
0,
0,
0,
0,
0,
0,
0,
0,
0,
0,
0,
0,
0,
0,
0,
0,
0,
0,
0,
1,
0,
0,
0,
0,
0,
1,
0,
0,
0,
0,
0,
0,
0,
0,
0,
0,
0,
0,
0,
0,
0,
0,
0,
0,
0,
0,
0,
0,
0,
0,
0,
0,
0,
0,
0,
0,
0,
0,
0,
1,
0,
0,
0,
0,
0,
0,
0,
0,
0,
0,
0,
0,
0,
0,
0,
0,
0,
0,
0,
0,
0,
0,
0,
0,
0,
0,
0,
1,
0,
0,
0,
0,
0,
0,
0,
0,
0,
0,
0,
0,
0,
0,
0,
0,
0,
0,
0,
0,
0,
0,
0,
0,
0,
0,
0,
0,
0,
0,
0,
0,
0,
0,
0,
0,
0,
0,
0,
0,
0,
0,
0,
0,
0,
0,
0,
0,
0,
0,
0,
0,
0,
0,
0,
0,
0,
0,
0,
0,
0,
0,
0,
0,
0,
0,
0,
0,
0,
0,
0,
0,
0,
0,
0,
0,
0,
0,
0,
0,
0,
0,
0,
0,
0,
0,
0,
0,
0,
0,
0,
0,
0,
0,
0,
0,
0,
0,
0,
0,
0,
0,
0,
0,
0,
0,
1,
0,
0,
0,
0,
0,
0,
0,
0,
0,
0,
0,
0,
0,
0,
0,
0,
0,
0,
0,
0,
0,
0,
0,
0,
0,
0,
0,
0,
0,
0,
0,
#ENDOFDATA   :