File: N132962/Quantification/20 keV/Glass Mount IIIB/NIST K408 std.msa
#FORMAT      : EMSA/MAS Spectral Data File
#VERSION     : 1.0
#TITLE       : 'NIST K408' standard for 'N132962' detector
#NPOINTS     : 4096
#NCOLUMNS    : 1
#XUNITS      : eV
#YUNITS      : counts
#DATATYPE    : Y
#SIGNALTYPE  : EDS
#XLABEL      : Energy (eV)
#YLABEL      : Counts
#XPERCHAN -eV: 9.99778
#OFFSET   -eV: 1.69135
#CHOFFSET    : 0
#OWNER       : Unknown
#ELEVANGLE   : 35
#BEAMKV   -kV: 20
#LIVETIME  -s: 1201.09
#REALTIME  -s: 1333.37
#PROBECUR -nA: 1.22588
##WORKING -mm: 15
##D2STDCMP   : NIST K408,(O:21.3174),(Si:14.0240),(Eu:4.3182),(Pb:60.3405)
##SIMILAR    : 1.1
#SPECTRUM    :
111,
114,
57,
185,
1012,
4022,
11188,
25425,
53374,
66064,
44439,
31485,
30731,
32219,
37657,
75844,
219818,
391996,
288087,
97096,
45941,
37581,
36275,
39728,
37143,
32467,
31899,
34714,
38504,
40527,
38619,
37948,
38116,
38872,
40224,
42237,
46716,
55119,
61506,
56611,
49198,
45653,
45832,
46741,
48732,
49372,
50120,
50567,
52434,
55255,
55997,
54849,
54510,
54122,
59032,
95328,
262763,
611346,
820616,
604425,
297620,
162960,
105016,
65798,
48197,
43452,
42197,
41620,
41988,
42919,
45079,
49547,
55086,
61165,
72340,
113394,
254379,
542654,
796799,
767854,
613896,
561925,
476974,
284367,
121309,
54743,
42717,
51479,
61205,
58805,
46270,
34168,
28789,
27479,
27778,
28253,
29424,
30445,
30178,
30488,
32297,
34734,
36488,
37366,
35935,
33348,
30523,
28658,
27749,
26771,
26460,
26437,
26332,
26685,
26695,
27202,
27511,
27551,
27620,
26993,
26424,
26084,
26338,
26457,
26570,
26717,
26258,
26352,
25633,
25666,
25270,
25679,
25489,
25627,
26047,
26207,
26780,
26838,
26584,
26365,
25985,
25240,
25106,
25142,
25042,
25029,
24831,
25393,
25956,
27258,
27800,
27810,
26644,
25185,
24834,
24973,
24907,
25034,
25073,
24831,
24896,
24682,
24252,
24312,
24271,
24044,
23838,
23548,
23305,
23398,
23421,
23965,
23790,
23478,
23425,
22994,
22555,
22599,
22603,
22288,
22488,
22136,
22116,
22426,
21655,
21990,
21657,
21822,
21599,
21790,
22226,
24100,
28639,
34343,
39933,
40958,
36823,
30401,
25114,
22066,
20778,
20577,
20435,
20136,
20320,
20121,
19743,
19711,
19908,
20140,
20198,
21847,
24038,
26784,
29399,
29818,
28621,
25766,
23421,
21735,
20386,
19763,
19147,
18685,
19091,
19342,
20390,
21186,
21411,
20891,
19788,
18693,
18223,
17688,
17645,
17445,
17257,
17065,
16930,
16639,
16846,
16621,
16705,
16542,
16915,
16693,
17297,
17997,
18662,
18961,
18618,
17651,
16708,
16377,
15756,
15525,
15658,
15467,
15879,
15741,
15557,
15250,
15394,
15008,
14670,
14812,
14588,
14593,
14415,
14463,
14330,
14442,
14268,
14317,
14248,
14352,
14024,
13806,
13892,
13783,
13495,
13531,
13462,
13519,
13060,
13200,
13110,
12839,
12840,
12812,
12962,
12817,
12901,
12693,
12601,
12616,
12534,
12253,
12243,
12331,
12345,
12478,
12789,
13399,
14087,
14698,
14963,
14813,
13819,
13103,
12391,
11892,
11585,
11257,
11370,
11288,
11271,
11045,
11118,
11033,
11010,
10977,
10795,
10687,
10720,
10687,
10692,
10450,
10402,
10426,
10329,
10195,
10180,
10116,
10356,
10312,
10062,
9843,
9756,
9966,
9925,
9753,
10125,
10706,
11605,
13767,
17488,
23953,
33478,
45094,
55913,
61771,
60878,
51525,
39048,
26547,
17558,
13036,
10261,
9319,
8956,
8662,
8660,
8342,
8453,
8434,
8211,
8232,
8192,
8174,
7890,
8022,
7918,
8178,
7904,
7821,
7854,
7962,
7719,
7813,
7558,
7520,
7285,
7404,
7237,
7174,
7230,
7146,
6949,
6825,
6874,
6896,
6841,
6716,
6915,
6643,
6579,
6545,
6576,
6644,
6576,
6618,
6725,
6937,
6978,
7055,
7005,
7001,
6984,
6868,
6880,
6641,
6768,
6705,
7555,
8713,
11334,
15135,
19415,
23234,
25085,
24315,
21245,
17162,
12951,
9784,
7816,
6931,
6405,
6037,
5929,
6189,
6151,
6127,
6134,
5699,
5472,
5050,
4850,
4662,
4591,
4343,
4470,
4431,
4314,
4209,
4313,
4267,
4132,
4129,
4160,
4057,
3984,
4059,
4030,
4004,
3930,
3886,
3741,
3829,
3825,
3714,
3610,
3668,
3677,
3610,
3567,
3577,
3553,
3481,
3475,
3432,
3493,
3455,
3426,
3375,
3250,
3283,
3310,
3246,
3106,
3178,
3187,
3055,
2996,
3025,
3264,
3334,
3630,
3921,
4235,
4498,
4431,
4166,
3854,
3562,
3077,
2943,
2861,
2714,
2767,
2853,
2854,
2868,
2896,
2875,
2813,
2759,
2562,
2561,
2409,
2344,
2253,
2068,
2197,
2189,
2136,
2036,
2132,
2070,
2007,
2060,
2018,
1968,
1975,
2030,
1960,
1836,
1851,
1868,
1752,
1703,
1740,
1723,
1714,
1721,
1663,
1709,
1625,
1683,
1634,
1540,
1612,
1554,
1571,
1511,
1460,
1488,
1499,
1443,
1463,
1401,
1381,
1347,
1344,
1313,
1292,
1283,
1360,
1319,
1228,
1234,
1294,
1187,
1223,
1125,
1225,
1154,
1123,
1172,
1113,
1055,
1111,
1074,
1029,
1020,
1045,
1029,
1039,
994,
930,
1003,
906,
974,
912,
885,
868,
782,
845,
825,
793,
875,
760,
741,
768,
740,
751,
654,
724,
679,
715,
645,
649,
697,
613,
635,
582,
627,
567,
563,
579,
546,
544,
531,
529,
517,
468,
507,
481,
468,
439,
417,
416,
446,
394,
394,
392,
385,
380,
374,
344,
321,
339,
342,
302,
273,
292,
301,
258,
252,
262,
250,
245,
207,
231,
206,
182,
193,
190,
173,
168,
153,
144,
102,
114,
97,
101,
95,
92,
79,
82,
76,
72,
57,
44,
26,
30,
30,
27,
25,
22,
21,
18,
19,
27,
24,
25,
17,
20,
23,
18,
22,
22,
21,
20,
18,
11,
19,
14,
14,
11,
16,
13,
23,
22,
17,
18,
14,
11,
19,
17,
14,
19,
11,
17,
16,
18,
17,
14,
13,
11,
13,
11,
17,
8,
10,
11,
7,
6,
14,
17,
17,
7,
13,
12,
15,
10,
12,
8,
7,
12,
7,
3,
6,
14,
7,
9,
6,
10,
10,
10,
7,
13,
8,
5,
14,
6,
6,
5,
12,
15,
5,
9,
8,
6,
7,
8,
8,
7,
9,
4,
15,
11,
6,
6,
12,
10,
7,
10,
14,
6,
8,
11,
7,
6,
13,
7,
3,
16,
2,
10,
11,
6,
5,
7,
3,
0,
7,
3,
5,
4,
6,
6,
6,
9,
5,
7,
3,
4,
2,
3,
3,
6,
7,
9,
5,
0,
3,
1,
1,
7,
5,
4,
3,
4,
5,
2,
5,
4,
5,
8,
6,
5,
5,
6,
5,
5,
7,
13,
7,
4,
7,
7,
5,
4,
2,
3,
2,
3,
9,
2,
9,
2,
5,
5,
7,
6,
3,
0,
5,
1,
4,
4,
6,
2,
5,
3,
3,
8,
8,
3,
6,
1,
3,
4,
4,
5,
2,
4,
1,
7,
5,
3,
2,
4,
1,
4,
2,
5,
5,
6,
7,
1,
6,
7,
3,
3,
6,
3,
2,
3,
7,
4,
3,
2,
2,
2,
2,
1,
3,
1,
2,
5,
2,
0,
0,
3,
3,
1,
1,
2,
1,
1,
2,
2,
0,
3,
4,
0,
0,
0,
2,
3,
1,
0,
4,
3,
3,
2,
2,
2,
1,
2,
2,
1,
1,
0,
3,
2,
3,
2,
2,
3,
3,
2,
1,
0,
0,
0,
2,
2,
0,
1,
0,
1,
1,
4,
0,
2,
0,
2,
0,
1,
0,
0,
2,
0,
2,
0,
2,
1,
1,
1,
0,
0,
2,
1,
0,
0,
1,
1,
0,
2,
2,
0,
2,
2,
0,
0,
0,
2,
1,
2,
1,
0,
0,
0,
3,
0,
1,
1,
0,
1,
1,
1,
0,
1,
1,
0,
0,
0,
0,
0,
0,
0,
0,
1,
0,
0,
0,
1,
0,
2,
1,
0,
0,
0,
0,
1,
0,
0,
0,
0,
0,
1,
1,
0,
0,
1,
0,
1,
0,
0,
1,
0,
2,
0,
1,
1,
1,
3,
0,
1,
0,
0,
0,
1,
0,
0,
0,
0,
0,
0,
1,
3,
0,
0,
0,
0,
0,
0,
0,
0,
0,
0,
0,
0,
0,
0,
0,
0,
0,
0,
0,
0,
1,
1,
0,
0,
0,
1,
0,
0,
1,
0,
0,
0,
0,
0,
1,
0,
0,
0,
0,
0,
0,
0,
0,
0,
0,
0,
0,
0,
0,
0,
0,
0,
0,
0,
0,
1,
0,
0,
0,
0,
0,
0,
0,
0,
0,
1,
0,
0,
0,
0,
1,
0,
0,
0,
0,
0,
0,
0,
0,
0,
0,
1,
1,
0,
0,
0,
0,
1,
0,
0,
0,
0,
0,
0,
0,
0,
0,
0,
0,
0,
0,
0,
0,
0,
0,
0,
1,
0,
0,
0,
0,
0,
0,
0,
0,
0,
0,
0,
0,
0,
0,
0,
0,
0,
0,
0,
0,
0,
0,
0,
0,
0,
0,
0,
0,
0,
0,
0,
0,
0,
0,
0,
0,
0,
0,
0,
0,
0,
0,
0,
0,
0,
0,
0,
0,
0,
0,
0,
0,
0,
0,
0,
0,
0,
0,
0,
0,
0,
0,
0,
0,
0,
0,
0,
0,
0,
0,
0,
0,
0,
0,
0,
0,
0,
0,
0,
0,
0,
0,
0,
0,
0,
0,
0,
0,
0,
0,
0,
0,
0,
0,
0,
0,
0,
0,
0,
0,
0,
0,
0,
0,
0,
0,
0,
0,
0,
0,
0,
0,
0,
0,
0,
0,
0,
0,
0,
0,
0,
0,
0,
0,
0,
0,
0,
0,
0,
0,
0,
0,
0,
0,
0,
0,
0,
0,
0,
0,
0,
0,
0,
0,
0,
0,
0,
0,
0,
0,
0,
0,
0,
0,
0,
0,
0,
0,
0,
0,
0,
0,
0,
0,
0,
0,
0,
0,
0,
0,
0,
0,
0,
0,
0,
0,
0,
0,
0,
0,
0,
0,
0,
0,
0,
0,
0,
0,
0,
0,
0,
0,
0,
0,
#ENDOFDATA   :