File: N132962/Quantification/20 keV/Glass Mount IIIB/NIST K1132 std.msa
#FORMAT      : EMSA/MAS Spectral Data File
#VERSION     : 1.0
#TITLE       : 'NIST K1132' standard for 'N132962' detector
#NPOINTS     : 4096
#NCOLUMNS    : 1
#XUNITS      : eV
#YUNITS      : counts
#DATATYPE    : Y
#SIGNALTYPE  : EDS
#XLABEL      : Energy (eV)
#YLABEL      : Counts
#XPERCHAN -eV: 9.99778
#OFFSET   -eV: 1.69135
#CHOFFSET    : 0
#OWNER       : Unknown
#ELEVANGLE   : 35
#BEAMKV   -kV: 20
#LIVETIME  -s: 1200.63
#REALTIME  -s: 1293.91
#PROBECUR -nA: 1.22427
##WORKING -mm: 15
##D2STDCMP   : NIST K1132,(Li:2.3226),(O:41.3394),(Al:7.9384),(Si:21.3865),(Ca:10.7204),(Cr:0.5132),(Ni:1.1788),(Mo:1.6663),(Ba:13.4344)
##SIMILAR    : 1.1
#SPECTRUM    :
110,
129,
50,
100,
471,
1812,
4960,
11807,
27152,
40015,
33792,
25124,
21903,
22696,
35686,
116460,
430108,
819505,
595660,
164600,
32138,
17409,
16168,
17401,
18285,
21842,
25368,
27329,
31031,
28853,
22420,
20464,
22728,
24023,
25383,
26069,
23664,
22680,
22338,
22652,
23637,
24721,
25232,
26360,
27080,
28372,
34167,
65742,
182844,
352763,
357397,
193380,
75980,
40161,
37597,
81077,
291447,
737051,
998203,
706149,
288436,
103774,
51449,
30404,
23399,
22524,
21789,
20803,
19803,
19402,
19032,
18985,
19948,
20926,
25601,
35329,
43684,
43849,
36111,
31004,
29621,
26556,
23491,
21606,
20556,
19621,
18917,
18964,
18865,
18797,
18643,
18887,
18502,
18391,
17950,
18250,
18033,
17503,
17899,
17685,
17667,
17652,
17695,
17532,
17315,
17571,
17442,
17813,
17513,
17560,
16993,
16564,
16325,
16577,
16595,
17378,
18178,
19114,
20821,
28730,
59376,
135601,
245443,
307565,
258971,
149923,
64158,
27322,
17843,
17028,
19697,
26798,
37953,
48971,
51190,
42460,
28413,
18833,
14562,
13777,
13568,
13375,
13872,
14295,
16138,
21243,
36804,
65882,
99008,
112133,
91872,
57640,
30476,
17493,
13120,
12317,
12635,
14824,
21540,
34540,
50186,
58898,
54738,
42560,
31211,
23422,
18276,
14967,
13986,
15337,
19761,
24661,
26760,
24312,
19071,
14320,
11947,
11675,
13189,
15981,
17621,
18101,
17471,
17284,
17158,
15937,
13900,
11609,
10135,
9633,
9587,
10344,
11231,
11670,
11402,
10791,
10079,
10027,
10027,
9731,
9206,
8896,
8431,
8224,
8192,
8136,
7955,
8044,
8016,
7960,
8014,
8132,
8255,
8401,
8347,
8080,
7866,
7572,
7580,
7467,
7468,
7173,
7288,
7246,
7270,
6971,
7072,
6952,
6907,
6794,
6804,
6783,
6745,
6761,
6855,
6739,
6679,
6601,
6638,
6659,
6364,
6329,
6425,
6565,
6652,
7573,
9399,
11941,
14151,
15129,
14082,
11713,
8940,
7267,
6379,
6092,
5899,
5721,
5725,
5794,
5667,
5531,
5567,
5472,
5505,
5389,
5555,
5346,
5454,
5459,
5416,
5412,
5655,
5953,
6284,
6385,
6087,
6017,
5532,
5289,
5025,
5133,
4952,
4883,
4942,
4735,
4740,
4707,
4715,
4753,
4549,
4624,
4663,
4541,
4551,
4431,
4458,
4518,
4424,
4337,
4318,
4408,
4397,
4224,
4218,
4278,
4214,
4164,
4006,
4035,
4046,
3914,
3933,
4089,
3935,
3897,
3937,
3969,
3838,
3908,
3873,
3812,
3784,
3670,
3688,
3629,
3649,
3634,
3567,
3548,
3575,
3468,
3372,
3531,
3502,
3486,
3470,
3344,
3322,
3363,
3270,
3315,
3178,
3245,
3236,
3140,
3304,
3083,
3164,
3201,
2996,
2967,
2916,
2894,
3019,
3020,
2901,
2874,
3015,
2814,
2899,
2789,
2865,
2840,
2826,
2646,
2709,
2691,
2710,
2651,
2687,
2567,
2541,
2656,
2669,
2612,
2457,
2512,
2462,
2499,
2470,
2403,
2328,
2325,
2483,
2352,
2296,
2328,
2246,
2208,
2236,
2167,
2071,
2165,
2093,
2136,
2123,
2139,
2057,
2023,
2035,
2001,
1922,
1992,
1937,
1893,
1950,
1926,
1892,
1824,
1897,
1832,
1836,
1807,
1793,
1779,
1747,
1699,
1740,
1761,
1672,
1676,
1642,
1628,
1626,
1673,
1641,
1623,
1631,
1529,
1529,
1577,
1533,
1487,
1491,
1459,
1515,
1479,
1324,
1464,
1439,
1389,
1392,
1359,
1244,
1262,
1331,
1329,
1284,
1253,
1225,
1272,
1236,
1199,
1258,
1146,
1248,
1117,
1123,
1104,
1171,
1134,
1141,
1110,
1103,
1095,
1055,
1057,
986,
1053,
1031,
983,
1049,
1035,
1007,
957,
966,
943,
941,
958,
922,
880,
940,
871,
839,
872,
876,
876,
849,
843,
790,
860,
802,
795,
809,
720,
759,
750,
716,
722,
671,
682,
714,
704,
713,
684,
652,
697,
649,
655,
649,
683,
648,
611,
658,
630,
592,
549,
546,
544,
550,
557,
576,
568,
547,
523,
559,
511,
525,
503,
513,
496,
435,
474,
450,
469,
436,
445,
435,
413,
429,
438,
503,
403,
434,
401,
383,
379,
410,
363,
417,
342,
365,
348,
350,
335,
347,
310,
312,
315,
304,
333,
277,
330,
269,
288,
294,
303,
303,
279,
271,
263,
266,
241,
273,
225,
237,
238,
230,
238,
222,
226,
223,
211,
189,
250,
222,
202,
215,
196,
207,
176,
188,
193,
193,
188,
169,
163,
186,
159,
154,
159,
149,
169,
134,
131,
145,
141,
145,
126,
144,
102,
117,
125,
111,
116,
102,
122,
88,
97,
93,
106,
100,
91,
84,
81,
91,
89,
83,
84,
75,
61,
62,
64,
60,
63,
72,
47,
72,
52,
51,
36,
44,
41,
38,
38,
36,
39,
37,
36,
29,
33,
22,
28,
33,
21,
15,
19,
21,
19,
21,
21,
15,
9,
5,
12,
8,
8,
3,
4,
5,
2,
6,
5,
1,
1,
1,
2,
3,
2,
6,
1,
1,
3,
3,
3,
1,
3,
2,
3,
2,
3,
2,
0,
0,
2,
0,
0,
2,
1,
1,
2,
3,
1,
0,
3,
1,
0,
1,
3,
3,
1,
0,
0,
0,
2,
3,
1,
1,
1,
0,
1,
3,
3,
2,
3,
6,
1,
2,
2,
1,
0,
1,
3,
1,
2,
2,
3,
1,
0,
1,
2,
0,
0,
0,
2,
1,
1,
1,
0,
1,
0,
0,
1,
0,
0,
0,
1,
2,
0,
0,
0,
1,
2,
2,
2,
1,
2,
2,
0,
0,
0,
1,
1,
1,
0,
1,
0,
0,
0,
0,
1,
0,
0,
0,
0,
0,
0,
2,
0,
1,
0,
1,
0,
0,
0,
0,
1,
0,
1,
0,
1,
0,
0,
1,
0,
2,
1,
0,
1,
1,
1,
2,
0,
1,
0,
0,
2,
0,
0,
1,
0,
1,
0,
0,
0,
0,
0,
1,
0,
1,
0,
0,
0,
0,
0,
0,
1,
0,
0,
0,
0,
1,
1,
2,
0,
2,
0,
1,
0,
0,
0,
1,
0,
1,
0,
0,
0,
0,
1,
0,
1,
0,
0,
1,
0,
0,
1,
1,
1,
0,
2,
0,
0,
0,
0,
0,
1,
1,
0,
1,
0,
0,
0,
0,
2,
0,
0,
0,
0,
1,
0,
1,
0,
0,
0,
0,
1,
0,
0,
0,
0,
1,
0,
0,
0,
1,
0,
0,
0,
0,
0,
1,
0,
1,
0,
0,
0,
0,
0,
0,
0,
0,
0,
0,
0,
0,
0,
0,
0,
0,
0,
0,
0,
0,
0,
1,
0,
0,
0,
0,
0,
1,
0,
0,
0,
0,
1,
0,
0,
0,
0,
0,
0,
0,
0,
0,
0,
0,
0,
0,
0,
0,
0,
0,
0,
0,
0,
0,
0,
0,
0,
0,
1,
0,
0,
0,
0,
0,
0,
0,
0,
0,
0,
0,
0,
0,
0,
0,
0,
0,
0,
0,
0,
0,
0,
0,
0,
0,
0,
0,
0,
0,
0,
0,
0,
0,
0,
0,
0,
0,
0,
0,
0,
0,
0,
0,
0,
0,
0,
0,
0,
1,
0,
0,
0,
0,
0,
0,
0,
0,
0,
0,
0,
0,
0,
0,
0,
0,
0,
0,
0,
0,
0,
0,
0,
0,
0,
0,
0,
0,
0,
0,
0,
0,
0,
0,
0,
0,
0,
0,
0,
0,
0,
0,
0,
0,
0,
0,
0,
0,
0,
0,
0,
0,
0,
0,
0,
0,
0,
0,
0,
0,
0,
0,
0,
0,
0,
0,
0,
0,
0,
0,
0,
0,
0,
0,
0,
0,
0,
0,
0,
0,
0,
0,
0,
0,
0,
0,
0,
0,
0,
0,
0,
0,
0,
0,
0,
0,
0,
0,
0,
0,
0,
0,
0,
0,
0,
0,
0,
0,
0,
0,
0,
0,
0,
0,
0,
0,
0,
0,
0,
0,
0,
0,
0,
0,
0,
0,
0,
0,
0,
0,
0,
0,
0,
0,
0,
0,
0,
0,
0,
0,
0,
0,
0,
0,
0,
0,
0,
0,
0,
0,
0,
0,
0,
0,
0,
0,
0,
0,
0,
0,
0,
0,
0,
0,
0,
0,
0,
0,
0,
0,
0,
0,
0,
0,
0,
0,
0,
0,
0,
0,
0,
0,
0,
0,
0,
0,
0,
0,
0,
0,
0,
0,
0,
0,
0,
0,
0,
0,
0,
0,
0,
0,
0,
0,
0,
0,
0,
0,
0,
0,
0,
0,
0,
0,
0,
0,
0,
0,
0,
0,
0,
0,
0,
0,
0,
0,
0,
0,
0,
0,
0,
0,
0,
0,
0,
0,
0,
0,
0,
0,
0,
0,
0,
0,
0,
0,
0,
0,
0,
0,
0,
0,
0,
0,
0,
0,
0,
0,
0,
0,
0,
0,
0,
0,
0,
0,
0,
0,
0,
0,
0,
0,
0,
0,
0,
0,
0,
0,
0,
0,
0,
0,
0,
0,
0,
0,
0,
0,
0,
0,
0,
0,
0,
0,
0,
0,
0,
0,
0,
0,
0,
0,
0,
0,
0,
0,
0,
0,
0,
0,
0,
0,
0,
0,
0,
0,
0,
0,
0,
0,
0,
0,
0,
0,
0,
0,
0,
0,
0,
0,
0,
0,
0,
0,
0,
0,
0,
0,
0,
0,
0,
0,
0,
#ENDOFDATA   :