File: N132962/Quantification/20 keV/Glass Mount IIIB/NIST K252 std.msa
#FORMAT      : EMSA/MAS Spectral Data File
#VERSION     : 1.0
#TITLE       : 'NIST K252' standard for 'N132962' detector
#NPOINTS     : 4096
#NCOLUMNS    : 1
#XUNITS      : eV
#YUNITS      : counts
#DATATYPE    : Y
#SIGNALTYPE  : EDS
#XLABEL      : Energy (eV)
#YLABEL      : Counts
#XPERCHAN -eV: 9.99778
#OFFSET   -eV: 1.69135
#CHOFFSET    : 0
#OWNER       : Unknown
#ELEVANGLE   : 35
#BEAMKV   -kV: 20
#LIVETIME  -s: 1201.07
#REALTIME  -s: 1307.33
#PROBECUR -nA: 1.2221
##WORKING -mm: 15
##D2STDCMP   : NIST K252,(O:30.8345),(Si:18.6986),(Mn:3.1597),(Co:3.9323),(Cu:3.9942),(Zn:8.0337),(Ba:31.3470)
##SIMILAR    : 1.2
#SPECTRUM    :
142,
126,
55,
131,
624,
2429,
6826,
15763,
34578,
43349,
31213,
26536,
30007,
35499,
53043,
150649,
520244,
968807,
710170,
216135,
73927,
54726,
43866,
36619,
41048,
63774,
78009,
58503,
38591,
41426,
62727,
84361,
95337,
130113,
147325,
98240,
45808,
26771,
22638,
21682,
21946,
22316,
23073,
23723,
24206,
24972,
25781,
26616,
28526,
30627,
32092,
31647,
31369,
31925,
36833,
73437,
241284,
591779,
796702,
566793,
239086,
91925,
49990,
32367,
25033,
23249,
23446,
23508,
23836,
23867,
24064,
24296,
24576,
24988,
26210,
27264,
27293,
26692,
25751,
25609,
25051,
25321,
24908,
25239,
25163,
25204,
25431,
25361,
25566,
26188,
27108,
27147,
26344,
25539,
25024,
24447,
24581,
24364,
24571,
24609,
24690,
24641,
24728,
24729,
24513,
23919,
23632,
23494,
23312,
23281,
23190,
23004,
23134,
23167,
23172,
23218,
22830,
22823,
22452,
22273,
21922,
21963,
21832,
21957,
21803,
21442,
21467,
21000,
21667,
23033,
25890,
29307,
30595,
28306,
24994,
22493,
20582,
20329,
20170,
20159,
20245,
20582,
21758,
23718,
28444,
42983,
82828,
161091,
248228,
281388,
229507,
138497,
67136,
32796,
22017,
19899,
20881,
27416,
45305,
79627,
120804,
143650,
131829,
99845,
69313,
49156,
36088,
28276,
25305,
29184,
40186,
53958,
59606,
52440,
38639,
25738,
18881,
16310,
15619,
15356,
16004,
17723,
21525,
27098,
30723,
30400,
25437,
20151,
16217,
14931,
15431,
17435,
21667,
27504,
36674,
48158,
55958,
54389,
43554,
29918,
20466,
15073,
12892,
12472,
12125,
12201,
12091,
11997,
11920,
12010,
12159,
12522,
13226,
14242,
15300,
16687,
16867,
16342,
14761,
13143,
11774,
11265,
10896,
11005,
10919,
11086,
12587,
15920,
22885,
32942,
41096,
42651,
37382,
27717,
18839,
13450,
11325,
10320,
9921,
9900,
9785,
9712,
9705,
9658,
9489,
9614,
9904,
9841,
10075,
10359,
10617,
10634,
11252,
12111,
13094,
13414,
12499,
11440,
10270,
9613,
8985,
9024,
9096,
10434,
12938,
17993,
24384,
30605,
32281,
29595,
23149,
16443,
12005,
9599,
8702,
8207,
8048,
8188,
7910,
8130,
8059,
8421,
9638,
12704,
18964,
28753,
39699,
47411,
47806,
40382,
29870,
19836,
13076,
10047,
9506,
9572,
10182,
10201,
9645,
8829,
7947,
7326,
7042,
6879,
6859,
6909,
6716,
6815,
6594,
6575,
6489,
6563,
6605,
6694,
6978,
7827,
8837,
10223,
11136,
11512,
10857,
9574,
8186,
7027,
6453,
6024,
5792,
5981,
5834,
5773,
5595,
5599,
5597,
5614,
5456,
5322,
5510,
5300,
5356,
5407,
5338,
5225,
5357,
5234,
5293,
5214,
5151,
5008,
5041,
5046,
5046,
4939,
5008,
4789,
4941,
4861,
4803,
4747,
4679,
4532,
4683,
4599,
4616,
4495,
4433,
4537,
4405,
4261,
4311,
4398,
4334,
4261,
4339,
4153,
4151,
4154,
4094,
4124,
3953,
3974,
3974,
3965,
3865,
3817,
3827,
3897,
3948,
3719,
3768,
3732,
3676,
3715,
3564,
3599,
3660,
3562,
3452,
3490,
3429,
3442,
3354,
3440,
3335,
3253,
3150,
3168,
3355,
3197,
3191,
3133,
3241,
3113,
2960,
3027,
3028,
3037,
2888,
2985,
2916,
2864,
2781,
2830,
2845,
2804,
2826,
2744,
2718,
2730,
2685,
2658,
2611,
2590,
2624,
2590,
2558,
2580,
2472,
2474,
2498,
2458,
2353,
2298,
2342,
2386,
2265,
2248,
2273,
2248,
2137,
2190,
2179,
2167,
2086,
2134,
2119,
2167,
2051,
2051,
1916,
1939,
1964,
1945,
1907,
1916,
1936,
1922,
1867,
1848,
1934,
1795,
1720,
1869,
1778,
1760,
1731,
1677,
1542,
1605,
1615,
1680,
1607,
1579,
1630,
1589,
1561,
1494,
1464,
1451,
1460,
1413,
1449,
1339,
1385,
1414,
1309,
1353,
1302,
1293,
1323,
1260,
1325,
1339,
1321,
1294,
1204,
1166,
1180,
1187,
1152,
1083,
1140,
1173,
1118,
1119,
1095,
1092,
1025,
1017,
1058,
1084,
961,
1059,
1044,
1026,
963,
946,
892,
910,
852,
922,
834,
831,
876,
854,
831,
853,
885,
828,
778,
777,
768,
778,
777,
766,
753,
745,
698,
694,
700,
698,
718,
658,
691,
658,
644,
655,
641,
620,
611,
625,
591,
616,
562,
598,
568,
543,
594,
517,
501,
525,
496,
489,
532,
489,
487,
464,
498,
484,
478,
478,
427,
459,
396,
423,
413,
408,
415,
390,
384,
403,
355,
380,
348,
358,
358,
316,
323,
373,
332,
300,
289,
333,
301,
303,
299,
236,
257,
274,
276,
243,
281,
227,
233,
236,
224,
243,
213,
213,
207,
202,
201,
178,
181,
185,
173,
175,
172,
179,
148,
129,
136,
138,
137,
141,
134,
120,
108,
116,
124,
112,
108,
96,
105,
98,
92,
87,
76,
75,
72,
72,
68,
55,
52,
77,
42,
43,
42,
41,
36,
32,
20,
23,
24,
29,
23,
11,
13,
14,
10,
7,
11,
11,
10,
3,
3,
11,
8,
8,
3,
7,
2,
8,
6,
4,
9,
4,
9,
10,
4,
9,
7,
8,
1,
11,
9,
5,
4,
6,
2,
6,
4,
7,
5,
6,
6,
2,
4,
4,
6,
4,
4,
8,
6,
2,
2,
6,
5,
4,
2,
3,
3,
3,
4,
4,
4,
8,
5,
6,
4,
2,
1,
7,
7,
1,
4,
3,
4,
3,
5,
4,
1,
0,
3,
1,
3,
4,
4,
3,
1,
5,
2,
4,
3,
2,
0,
2,
2,
2,
2,
7,
2,
5,
4,
4,
2,
1,
3,
1,
2,
2,
4,
0,
2,
2,
3,
2,
0,
3,
3,
2,
2,
2,
1,
1,
2,
6,
0,
3,
1,
2,
0,
0,
1,
1,
3,
1,
1,
2,
2,
0,
0,
3,
3,
1,
1,
2,
1,
2,
2,
1,
0,
2,
0,
4,
0,
1,
2,
0,
1,
4,
1,
1,
0,
0,
1,
3,
1,
1,
2,
2,
0,
3,
2,
0,
0,
1,
0,
0,
0,
1,
1,
0,
0,
0,
2,
0,
2,
0,
0,
0,
0,
2,
2,
4,
0,
1,
2,
0,
0,
1,
0,
1,
0,
0,
2,
0,
1,
1,
2,
3,
1,
0,
2,
3,
0,
1,
0,
1,
1,
1,
0,
1,
0,
0,
2,
1,
1,
0,
0,
0,
0,
1,
0,
0,
1,
1,
0,
0,
0,
0,
0,
0,
0,
1,
1,
0,
2,
0,
1,
1,
1,
1,
0,
1,
0,
0,
0,
0,
0,
0,
1,
0,
2,
0,
1,
0,
0,
0,
0,
0,
0,
0,
1,
0,
1,
0,
1,
0,
0,
0,
0,
0,
0,
1,
1,
0,
1,
1,
0,
1,
2,
0,
0,
0,
0,
0,
0,
0,
0,
0,
1,
0,
0,
0,
0,
0,
1,
0,
0,
0,
1,
0,
0,
0,
0,
0,
0,
0,
0,
0,
0,
0,
1,
0,
0,
0,
0,
0,
0,
0,
1,
1,
0,
0,
0,
0,
1,
1,
0,
0,
0,
0,
0,
0,
0,
0,
0,
0,
0,
0,
0,
0,
0,
0,
0,
0,
0,
0,
0,
0,
0,
1,
0,
0,
1,
0,
0,
0,
0,
0,
0,
0,
1,
0,
0,
1,
0,
0,
0,
0,
0,
0,
0,
0,
0,
0,
1,
0,
0,
0,
0,
0,
0,
0,
0,
0,
0,
0,
0,
0,
0,
0,
0,
0,
0,
0,
0,
0,
0,
0,
0,
0,
0,
0,
0,
0,
0,
0,
0,
0,
0,
0,
0,
0,
0,
0,
0,
0,
0,
0,
0,
0,
0,
0,
0,
0,
0,
0,
0,
1,
0,
0,
0,
0,
0,
0,
0,
0,
0,
0,
0,
0,
0,
0,
0,
0,
0,
0,
0,
1,
0,
0,
0,
1,
0,
0,
0,
0,
0,
0,
0,
0,
0,
0,
0,
0,
0,
0,
0,
0,
0,
0,
0,
0,
0,
0,
0,
0,
0,
0,
0,
0,
0,
0,
0,
0,
0,
0,
0,
0,
0,
0,
0,
0,
0,
0,
0,
0,
0,
0,
0,
0,
0,
0,
0,
0,
0,
0,
0,
0,
0,
0,
0,
0,
0,
0,
0,
0,
0,
0,
0,
0,
0,
0,
0,
0,
1,
0,
0,
0,
0,
0,
0,
0,
0,
0,
0,
0,
0,
0,
0,
0,
0,
0,
0,
0,
0,
0,
0,
0,
0,
0,
0,
0,
0,
0,
0,
0,
0,
0,
0,
0,
0,
0,
0,
0,
0,
0,
0,
0,
0,
0,
0,
0,
0,
0,
0,
0,
0,
0,
0,
0,
0,
0,
0,
0,
0,
0,
0,
0,
0,
0,
0,
0,
0,
0,
0,
0,
0,
0,
0,
0,
0,
0,
0,
0,
0,
0,
0,
0,
0,
0,
0,
0,
0,
0,
0,
0,
0,
0,
0,
0,
0,
0,
0,
0,
0,
0,
0,
0,
0,
0,
0,
0,
0,
0,
0,
0,
0,
0,
0,
0,
0,
0,
0,
0,
0,
0,
0,
0,
0,
0,
0,
0,
0,
0,
0,
0,
0,
0,
0,
0,
0,
0,
0,
0,
0,
0,
0,
0,
0,
0,
0,
0,
0,
0,
0,
0,
0,
0,
0,
0,
0,
0,
0,
0,
0,
0,
0,
0,
0,
0,
0,
0,
0,
0,
#ENDOFDATA   :