File: N132962/Quantification/20 keV/Glass Mount IIIB/NIST K1234 std.msa
#FORMAT      : EMSA/MAS Spectral Data File
#VERSION     : 1.0
#TITLE       : 'NIST K1234' standard for 'N132962' detector
#NPOINTS     : 4096
#NCOLUMNS    : 1
#XUNITS      : eV
#YUNITS      : counts
#DATATYPE    : Y
#SIGNALTYPE  : EDS
#XLABEL      : Energy (eV)
#YLABEL      : Counts
#XPERCHAN -eV: 9.99778
#OFFSET   -eV: 1.69135
#CHOFFSET    : 0
#OWNER       : Unknown
#ELEVANGLE   : 35
#BEAMKV   -kV: 20
#LIVETIME  -s: 1200.9
#REALTIME  -s: 1298.59
#PROBECUR -nA: 1.22375
##WORKING -mm: 15
##D2STDCMP   : NIST K1234,(O:39.8528),(Al:9.1503),(Si:21.5595),(Ca:12.3570),(Ba:15.4944),(W:1.5859)
##SIMILAR    : 1.5
#SPECTRUM    :
113,
107,
47,
95,
507,
1836,
5103,
12829,
31248,
46105,
38097,
26877,
22570,
23336,
34326,
109544,
401931,
761694,
553549,
154150,
32515,
18658,
17792,
18124,
18876,
22306,
25465,
23824,
20373,
19287,
19424,
21480,
24315,
26071,
27401,
27582,
25316,
23875,
23642,
23901,
24766,
25512,
26763,
27784,
29211,
31292,
38044,
73850,
208204,
405111,
409671,
219614,
84408,
42836,
39024,
82840,
297220,
749328,
1022152,
736463,
317297,
124366,
63432,
35463,
25240,
23331,
22474,
21647,
20733,
19725,
19331,
19499,
19363,
20241,
21327,
22312,
22879,
21934,
21120,
20018,
19829,
19344,
19511,
19305,
19176,
19460,
19421,
19448,
19684,
19613,
19851,
19782,
19625,
19119,
18983,
18829,
18631,
18737,
18821,
19297,
19162,
18752,
18725,
18640,
18565,
18714,
18600,
19138,
18820,
18475,
18160,
17732,
17440,
17761,
17993,
18614,
19598,
20685,
22611,
32476,
67799,
157025,
285552,
358411,
302556,
173902,
73655,
30507,
19237,
18782,
21782,
29373,
42651,
56523,
59018,
47650,
31780,
20551,
15557,
14324,
14141,
14428,
14688,
15721,
17291,
23628,
41252,
75098,
114669,
128646,
105933,
65785,
34265,
18952,
14503,
13329,
13751,
16478,
24208,
38825,
57758,
67574,
62580,
48502,
35099,
26029,
20452,
16614,
15435,
16889,
22139,
28054,
30821,
27207,
21363,
15849,
12511,
11314,
11137,
11222,
11550,
12277,
13999,
16420,
17759,
17756,
15210,
12808,
10944,
10281,
10291,
11171,
12210,
12685,
12429,
11679,
10425,
9912,
9809,
9513,
9477,
9049,
8963,
8840,
8685,
8740,
8687,
8618,
8545,
8580,
8547,
8860,
9175,
8987,
8890,
8769,
8372,
8193,
8087,
8069,
7998,
7973,
7766,
7742,
7639,
7715,
7522,
7526,
7542,
7555,
7447,
7375,
7405,
7351,
7238,
7228,
7245,
7131,
7036,
7086,
6972,
6951,
6976,
6866,
7057,
7199,
7186,
7193,
7227,
7130,
6814,
6885,
6725,
6396,
6472,
6238,
6320,
6233,
6236,
6190,
5969,
6118,
6044,
6036,
6038,
6018,
5698,
5927,
5733,
5952,
5803,
5769,
5658,
5923,
5892,
6210,
6591,
7203,
7987,
8733,
8636,
7930,
7127,
6316,
5688,
5528,
5344,
5377,
5147,
5152,
5090,
5161,
5065,
5037,
4956,
4874,
4837,
4844,
4784,
4762,
4656,
4710,
4585,
4525,
4590,
4548,
4525,
4515,
4465,
4511,
4413,
4531,
4395,
4429,
4367,
4281,
4413,
4593,
4554,
4682,
4935,
5078,
5291,
5218,
4967,
4719,
4439,
4350,
4209,
4405,
4347,
4364,
4424,
4321,
4305,
3946,
3935,
3763,
3788,
3655,
3601,
3629,
3476,
3447,
3449,
3430,
3525,
3401,
3418,
3481,
3296,
3383,
3258,
3321,
3257,
3278,
3230,
3252,
3065,
3082,
3062,
3167,
3099,
2990,
3009,
3025,
3049,
2908,
2872,
2994,
2859,
2904,
2976,
2906,
2966,
2859,
2957,
2957,
2791,
2630,
2748,
2716,
2564,
2612,
2577,
2616,
2575,
2509,
2516,
2498,
2422,
2493,
2423,
2473,
2462,
2350,
2324,
2292,
2255,
2273,
2288,
2216,
2189,
2189,
2124,
2154,
2176,
2140,
1986,
2087,
2049,
1988,
1987,
1995,
2011,
1975,
1870,
1945,
1884,
1851,
1924,
1833,
1846,
1863,
1742,
1829,
1812,
1762,
1695,
1710,
1718,
1664,
1718,
1704,
1631,
1629,
1664,
1607,
1547,
1576,
1561,
1546,
1465,
1496,
1460,
1442,
1454,
1415,
1425,
1415,
1416,
1355,
1406,
1356,
1321,
1304,
1350,
1313,
1292,
1212,
1275,
1300,
1243,
1190,
1229,
1214,
1164,
1230,
1212,
1158,
1136,
1150,
1142,
1099,
1137,
1099,
1105,
1075,
1076,
1018,
988,
1020,
969,
940,
981,
1020,
941,
953,
877,
957,
896,
887,
915,
836,
901,
843,
870,
846,
828,
811,
878,
784,
772,
785,
768,
814,
745,
780,
705,
757,
696,
772,
710,
739,
665,
672,
680,
638,
648,
628,
597,
615,
632,
631,
577,
641,
606,
576,
527,
545,
577,
545,
478,
497,
529,
544,
519,
503,
503,
505,
470,
508,
448,
434,
431,
458,
444,
455,
456,
416,
425,
456,
410,
378,
370,
392,
380,
392,
403,
373,
359,
324,
398,
350,
320,
340,
337,
327,
324,
325,
332,
268,
274,
293,
288,
285,
295,
249,
272,
255,
230,
254,
242,
221,
237,
220,
263,
242,
246,
236,
193,
187,
198,
213,
214,
207,
196,
196,
210,
215,
178,
168,
179,
174,
148,
167,
183,
153,
183,
153,
127,
145,
146,
155,
139,
130,
126,
139,
124,
120,
109,
109,
119,
94,
101,
100,
103,
91,
102,
110,
91,
81,
79,
94,
78,
77,
56,
72,
73,
71,
57,
66,
64,
58,
49,
45,
51,
46,
43,
37,
36,
40,
30,
36,
34,
43,
34,
16,
20,
19,
13,
19,
13,
14,
9,
11,
5,
6,
3,
3,
1,
2,
4,
3,
2,
2,
6,
1,
6,
3,
1,
3,
8,
3,
3,
6,
3,
3,
0,
2,
2,
4,
0,
2,
2,
3,
3,
3,
1,
1,
2,
2,
0,
4,
2,
2,
3,
3,
2,
7,
1,
3,
0,
1,
1,
2,
2,
2,
0,
1,
1,
2,
3,
2,
1,
0,
1,
1,
3,
1,
2,
1,
3,
3,
1,
2,
1,
0,
3,
1,
0,
0,
1,
2,
2,
2,
0,
1,
1,
0,
1,
1,
1,
0,
0,
0,
2,
0,
1,
3,
2,
2,
1,
4,
1,
0,
0,
0,
0,
1,
2,
0,
2,
0,
0,
0,
0,
1,
0,
0,
1,
0,
0,
2,
0,
0,
0,
0,
0,
1,
1,
0,
1,
0,
1,
0,
1,
0,
1,
1,
0,
1,
1,
0,
3,
1,
0,
0,
0,
2,
1,
0,
0,
2,
0,
1,
0,
1,
0,
0,
1,
1,
0,
0,
0,
0,
2,
0,
0,
1,
0,
0,
0,
0,
0,
1,
0,
0,
3,
0,
0,
0,
0,
0,
0,
1,
0,
0,
1,
0,
1,
1,
1,
1,
0,
0,
0,
0,
0,
0,
0,
0,
0,
0,
0,
0,
0,
0,
1,
0,
0,
0,
0,
0,
0,
0,
0,
0,
1,
0,
0,
0,
1,
0,
0,
0,
0,
0,
0,
0,
0,
0,
0,
0,
1,
0,
0,
0,
0,
0,
0,
0,
0,
0,
0,
0,
1,
0,
2,
0,
0,
0,
0,
0,
0,
0,
0,
0,
0,
0,
0,
0,
0,
0,
0,
0,
0,
0,
1,
0,
0,
0,
0,
0,
0,
0,
0,
1,
0,
0,
0,
0,
0,
0,
0,
0,
0,
0,
0,
0,
0,
0,
0,
0,
0,
0,
0,
0,
0,
0,
0,
0,
0,
0,
0,
0,
0,
0,
0,
0,
0,
0,
1,
0,
0,
0,
0,
0,
0,
0,
0,
0,
0,
0,
0,
0,
0,
0,
0,
0,
0,
0,
0,
0,
0,
0,
0,
0,
0,
1,
0,
0,
0,
0,
0,
0,
0,
0,
0,
0,
0,
0,
0,
0,
0,
0,
0,
0,
0,
0,
0,
0,
0,
0,
0,
0,
0,
0,
0,
0,
0,
0,
0,
0,
0,
0,
0,
0,
0,
0,
0,
0,
0,
0,
0,
0,
0,
0,
0,
0,
0,
0,
0,
0,
0,
0,
0,
0,
0,
0,
0,
0,
1,
0,
0,
0,
0,
0,
0,
0,
0,
0,
0,
0,
0,
0,
0,
0,
0,
0,
0,
0,
0,
0,
0,
0,
0,
0,
0,
0,
0,
0,
0,
0,
0,
0,
0,
0,
0,
0,
0,
0,
0,
0,
0,
0,
0,
0,
0,
0,
0,
0,
0,
0,
0,
0,
0,
0,
0,
0,
0,
0,
0,
0,
0,
0,
0,
0,
0,
0,
0,
0,
0,
0,
0,
0,
0,
0,
0,
0,
0,
0,
0,
0,
0,
0,
0,
0,
0,
0,
0,
0,
0,
0,
0,
0,
0,
0,
0,
0,
0,
0,
0,
0,
0,
0,
0,
0,
0,
0,
0,
0,
0,
0,
0,
0,
0,
0,
0,
0,
0,
0,
0,
0,
0,
0,
0,
0,
0,
0,
0,
0,
0,
0,
0,
0,
0,
0,
0,
0,
0,
0,
0,
0,
0,
0,
0,
0,
0,
0,
0,
0,
0,
0,
0,
0,
0,
0,
0,
0,
0,
0,
0,
0,
0,
0,
0,
0,
0,
0,
0,
0,
0,
0,
0,
0,
0,
0,
0,
0,
0,
0,
0,
0,
0,
0,
0,
0,
0,
0,
0,
0,
0,
0,
0,
0,
0,
0,
0,
0,
0,
0,
0,
0,
0,
0,
0,
0,
0,
0,
0,
0,
0,
0,
0,
0,
0,
0,
0,
0,
0,
0,
0,
0,
0,
0,
0,
0,
0,
0,
0,
0,
0,
0,
0,
0,
0,
0,
0,
0,
0,
0,
0,
0,
0,
0,
0,
0,
0,
0,
0,
0,
0,
0,
0,
0,
0,
0,
0,
0,
0,
0,
0,
0,
0,
0,
0,
0,
0,
0,
0,
0,
0,
0,
0,
0,
0,
0,
0,
0,
0,
0,
0,
0,
0,
0,
0,
0,
0,
0,
0,
0,
0,
0,
0,
0,
0,
0,
0,
0,
0,
0,
0,
0,
0,
0,
#ENDOFDATA   :