File: N132962/Quantification/20 keV/Glass Mount IIIB/NIST K1229 std.msa
#FORMAT      : EMSA/MAS Spectral Data File
#VERSION     : 1.0
#TITLE       : 'NIST K1229' standard for 'N132962' detector
#NPOINTS     : 4096
#NCOLUMNS    : 1
#XUNITS      : eV
#YUNITS      : counts
#DATATYPE    : Y
#SIGNALTYPE  : EDS
#XLABEL      : Energy (eV)
#YLABEL      : Counts
#XPERCHAN -eV: 9.99778
#OFFSET   -eV: 1.69135
#CHOFFSET    : 0
#OWNER       : Unknown
#ELEVANGLE   : 35
#BEAMKV   -kV: 20
#LIVETIME  -s: 1201.02
#REALTIME  -s: 1297.93
#PROBECUR -nA: 1.22375
##WORKING -mm: 15
##D2STDCMP   : NIST K1229,(O:41.0165),(Mg:1.7730),(Al:9.3409),(Si:21.9989),(Ca:10.5131),(Sr:7.4581),(Ba:7.8995)
##SIMILAR    : 1.1
#SPECTRUM    :
126,
111,
59,
115,
518,
1790,
4516,
11235,
25797,
37275,
30583,
22281,
19873,
20971,
31509,
103577,
383019,
727703,
529387,
144168,
26884,
15518,
16345,
17079,
16907,
18512,
21129,
20711,
19416,
19134,
19338,
20789,
22970,
24684,
27066,
27099,
26079,
24796,
25808,
30057,
47878,
84969,
98310,
67120,
39909,
32726,
37862,
77729,
227189,
442072,
449844,
242291,
95113,
50497,
45072,
91180,
320587,
805669,
1114639,
861051,
466861,
252694,
143021,
80061,
46360,
31899,
24702,
20176,
18004,
17200,
17384,
17281,
17977,
18750,
19478,
20297,
20256,
19483,
18729,
18181,
17519,
17498,
17501,
17294,
17331,
17247,
17537,
17567,
17620,
17596,
17672,
17600,
17573,
17338,
17056,
16934,
16948,
17136,
17259,
17591,
17401,
17260,
17087,
16876,
17077,
17013,
17486,
17649,
17755,
17124,
16878,
16436,
16130,
16113,
16336,
16793,
18146,
18850,
20688,
28520,
58457,
133059,
239302,
300388,
253581,
146110,
63730,
26620,
17213,
16525,
18732,
24546,
35201,
46998,
49960,
40609,
27373,
18203,
14094,
13070,
12866,
13176,
13088,
13248,
14200,
17240,
26336,
43714,
63757,
71279,
59849,
38845,
22535,
14860,
12445,
11690,
11841,
13310,
17144,
24660,
34109,
39263,
36611,
29762,
22657,
18096,
15037,
13194,
12519,
13122,
15690,
19118,
20228,
18595,
15369,
12553,
10816,
10095,
9924,
10055,
10355,
10886,
11811,
12674,
13418,
13227,
12049,
10528,
9691,
9158,
9298,
9806,
10140,
10372,
10396,
9787,
9145,
8909,
8972,
8595,
8457,
8459,
8096,
8076,
7944,
8010,
8007,
7935,
8036,
7880,
7956,
7918,
8301,
8171,
8474,
8005,
7880,
7523,
7306,
7319,
7439,
7159,
7139,
7160,
6944,
7022,
6989,
6974,
6758,
6899,
6933,
6652,
6711,
6707,
6592,
6609,
6690,
6610,
6449,
6331,
6471,
6285,
6326,
6280,
6360,
6164,
6422,
6328,
6453,
6308,
6415,
6239,
6004,
5897,
5868,
5755,
5717,
5653,
5708,
5486,
5489,
5513,
5538,
5486,
5492,
5407,
5410,
5402,
5395,
5230,
5053,
5255,
5260,
5125,
5015,
5132,
5047,
5023,
4891,
5009,
4831,
4859,
4755,
4842,
4837,
4855,
4639,
4716,
4605,
4651,
4725,
4559,
4562,
4513,
4551,
4472,
4349,
4383,
4317,
4338,
4249,
4262,
4229,
4112,
4257,
4149,
4138,
4041,
3968,
3989,
4074,
3970,
3854,
3870,
3881,
3767,
3816,
3822,
3819,
3744,
3710,
3723,
3647,
3737,
3517,
3614,
3576,
3431,
3527,
3498,
3486,
3423,
3430,
3517,
3436,
3357,
3228,
3256,
3317,
3210,
3195,
3214,
3237,
3249,
3258,
3062,
3025,
3037,
3154,
3098,
2931,
2956,
2977,
2941,
2897,
2946,
2762,
2739,
2794,
2821,
2821,
2724,
2747,
2691,
2776,
2744,
2587,
2662,
2655,
2571,
2463,
2527,
2566,
2440,
2411,
2415,
2474,
2450,
2425,
2433,
2354,
2380,
2337,
2273,
2339,
2264,
2282,
2262,
2164,
2246,
2231,
2193,
2223,
2146,
2140,
1974,
2045,
2060,
2008,
2038,
2066,
1976,
1955,
1943,
1886,
1991,
1922,
1868,
1840,
1967,
1748,
1866,
1753,
1762,
1886,
1646,
1722,
1676,
1735,
1674,
1658,
1686,
1596,
1602,
1584,
1602,
1580,
1531,
1517,
1566,
1553,
1457,
1476,
1488,
1447,
1432,
1393,
1413,
1373,
1426,
1413,
1386,
1393,
1358,
1336,
1300,
1271,
1288,
1278,
1321,
1236,
1220,
1200,
1203,
1202,
1178,
1104,
1163,
1150,
1121,
1127,
1114,
1088,
1145,
1161,
1286,
1452,
1752,
1950,
2285,
2601,
2651,
2521,
2207,
1904,
1574,
1357,
1089,
970,
953,
925,
889,
851,
875,
837,
832,
844,
794,
804,
778,
824,
786,
797,
697,
716,
746,
679,
765,
719,
725,
685,
702,
716,
678,
659,
652,
656,
673,
664,
637,
608,
624,
586,
609,
557,
615,
535,
564,
538,
596,
612,
566,
632,
578,
614,
718,
720,
724,
750,
635,
601,
557,
527,
511,
523,
523,
472,
477,
448,
435,
418,
412,
379,
375,
383,
362,
364,
397,
332,
391,
346,
349,
372,
351,
322,
358,
350,
329,
324,
334,
323,
308,
297,
298,
293,
314,
291,
269,
285,
263,
281,
263,
280,
259,
265,
234,
253,
248,
244,
237,
217,
220,
218,
205,
199,
208,
195,
194,
202,
179,
176,
203,
187,
186,
173,
175,
162,
158,
166,
138,
144,
149,
156,
143,
134,
150,
117,
132,
144,
121,
117,
101,
116,
124,
122,
120,
88,
117,
90,
101,
115,
109,
84,
88,
75,
68,
80,
60,
61,
65,
68,
63,
64,
76,
60,
55,
60,
58,
54,
54,
48,
49,
47,
52,
40,
39,
27,
32,
26,
31,
28,
22,
28,
17,
19,
27,
22,
22,
14,
21,
17,
8,
10,
6,
10,
4,
7,
4,
6,
4,
2,
6,
2,
3,
2,
2,
3,
4,
5,
4,
1,
2,
3,
1,
3,
2,
2,
1,
1,
5,
1,
5,
4,
1,
2,
1,
5,
2,
3,
2,
1,
3,
1,
3,
2,
1,
0,
0,
3,
2,
2,
1,
3,
1,
1,
2,
1,
0,
3,
1,
1,
0,
0,
0,
2,
0,
1,
0,
0,
1,
1,
1,
0,
0,
1,
0,
1,
3,
2,
2,
2,
0,
1,
0,
1,
0,
0,
0,
1,
1,
1,
0,
0,
1,
1,
1,
1,
0,
0,
1,
0,
0,
2,
1,
1,
0,
0,
0,
3,
1,
1,
0,
1,
1,
0,
1,
1,
0,
2,
0,
0,
2,
1,
0,
0,
0,
0,
0,
1,
0,
1,
0,
0,
1,
0,
1,
1,
1,
0,
0,
0,
1,
0,
1,
1,
0,
1,
0,
0,
0,
0,
0,
0,
3,
0,
2,
1,
0,
0,
0,
0,
0,
1,
0,
0,
1,
0,
0,
0,
0,
0,
2,
0,
0,
0,
0,
0,
0,
0,
1,
0,
0,
0,
1,
1,
0,
0,
1,
2,
0,
0,
0,
0,
0,
2,
2,
0,
0,
0,
0,
0,
0,
0,
1,
0,
0,
0,
0,
0,
0,
1,
0,
1,
1,
0,
0,
2,
0,
0,
0,
0,
0,
0,
0,
1,
1,
0,
0,
0,
0,
0,
1,
0,
1,
0,
0,
0,
0,
1,
0,
0,
0,
0,
0,
0,
0,
0,
0,
0,
0,
0,
0,
0,
0,
0,
0,
0,
0,
0,
0,
0,
0,
0,
0,
0,
0,
0,
0,
0,
0,
0,
0,
1,
0,
0,
0,
0,
0,
0,
0,
0,
0,
0,
0,
0,
0,
0,
0,
0,
0,
0,
0,
0,
0,
0,
0,
0,
0,
0,
0,
0,
0,
0,
0,
0,
0,
0,
0,
0,
0,
0,
0,
0,
0,
0,
0,
0,
0,
0,
0,
0,
0,
0,
0,
0,
1,
0,
0,
0,
0,
0,
0,
0,
0,
0,
0,
0,
0,
0,
0,
0,
0,
0,
0,
0,
0,
0,
0,
0,
0,
0,
0,
0,
0,
0,
0,
0,
0,
0,
0,
0,
0,
0,
1,
0,
0,
0,
0,
0,
0,
0,
0,
0,
0,
0,
0,
0,
0,
0,
0,
0,
0,
0,
0,
0,
0,
0,
0,
0,
0,
0,
0,
0,
0,
0,
0,
0,
0,
0,
0,
0,
0,
0,
0,
0,
0,
0,
0,
0,
0,
0,
0,
0,
0,
0,
0,
0,
0,
0,
0,
0,
0,
0,
0,
0,
0,
0,
0,
0,
0,
0,
0,
0,
0,
0,
0,
0,
0,
0,
0,
0,
0,
0,
0,
0,
0,
0,
0,
0,
0,
0,
0,
0,
0,
0,
0,
0,
0,
0,
0,
0,
0,
0,
0,
0,
0,
0,
0,
0,
0,
0,
0,
0,
0,
0,
0,
0,
0,
0,
0,
0,
0,
0,
0,
0,
0,
0,
0,
0,
0,
0,
0,
0,
0,
0,
0,
0,
0,
0,
0,
0,
0,
0,
0,
0,
0,
0,
0,
0,
0,
0,
0,
0,
0,
0,
0,
0,
0,
0,
0,
0,
0,
0,
0,
0,
0,
0,
0,
0,
0,
0,
0,
0,
0,
0,
0,
0,
1,
0,
0,
0,
0,
0,
0,
0,
0,
0,
0,
0,
0,
0,
0,
0,
0,
0,
0,
0,
0,
0,
0,
0,
0,
0,
0,
0,
0,
0,
0,
0,
0,
0,
0,
0,
0,
0,
0,
0,
0,
0,
0,
0,
0,
0,
0,
0,
0,
0,
0,
0,
0,
0,
0,
0,
0,
0,
0,
0,
0,
0,
0,
0,
0,
0,
0,
0,
0,
0,
0,
0,
0,
0,
0,
0,
0,
0,
0,
0,
0,
0,
0,
0,
0,
0,
0,
0,
0,
0,
0,
0,
0,
0,
0,
0,
0,
0,
0,
0,
0,
0,
0,
0,
0,
0,
0,
0,
0,
0,
0,
0,
0,
0,
0,
0,
0,
0,
0,
0,
0,
0,
0,
0,
0,
0,
0,
0,
0,
0,
0,
0,
0,
0,
0,
0,
0,
0,
0,
0,
0,
0,
0,
0,
0,
0,
0,
0,
0,
0,
0,
0,
0,
0,
0,
0,
0,
0,
0,
0,
0,
0,
0,
0,
0,
0,
0,
0,
0,
#ENDOFDATA   :