File: N132962/Quantification/20 keV/Glass Mount IIIB/NIST K251 std.msa
#FORMAT      : EMSA/MAS Spectral Data File
#VERSION     : 1.0
#TITLE       : 'NIST K251' standard for 'N132962' detector
#NPOINTS     : 4096
#NCOLUMNS    : 1
#XUNITS      : eV
#YUNITS      : counts
#DATATYPE    : Y
#SIGNALTYPE  : EDS
#XLABEL      : Energy (eV)
#YLABEL      : Counts
#XPERCHAN -eV: 9.99778
#OFFSET   -eV: 1.69135
#CHOFFSET    : 0
#OWNER       : Unknown
#ELEVANGLE   : 35
#BEAMKV   -kV: 20
#LIVETIME  -s: 1201.29
#REALTIME  -s: 1327.26
#PROBECUR -nA: 1.2221
##WORKING -mm: 15
##D2STDCMP   : NIST K251,(O:23.0219),(Al:1.3231),(Si:14.0240),(Ba:8.9563),(Ta:4.0948),(Pb:44.0950),(Bi:4.4850)
##SIMILAR    : 1.0
#SPECTRUM    :
112,
112,
66,
172,
940,
3776,
10768,
23670,
47614,
58699,
41111,
30544,
30703,
32098,
39550,
83241,
251122,
453706,
333802,
109736,
47715,
37322,
34591,
37157,
36164,
35175,
36010,
35464,
33807,
33461,
33086,
34371,
36632,
37827,
38701,
39158,
38608,
38424,
38465,
39081,
40432,
41703,
43207,
45500,
48319,
48863,
48449,
54571,
77186,
110333,
112059,
81059,
59170,
53521,
59950,
109040,
300282,
661586,
856999,
620263,
295015,
147022,
90754,
59728,
45948,
42262,
40676,
39172,
38130,
38576,
40055,
43080,
47723,
52327,
61031,
89152,
184775,
382717,
559419,
555645,
472950,
444214,
378020,
235794,
121769,
69601,
51005,
49246,
53782,
52355,
43633,
35428,
30662,
28442,
27470,
27546,
28565,
29171,
29477,
29672,
30581,
32608,
33926,
34701,
34248,
32175,
29887,
28552,
28094,
26730,
26176,
26176,
26372,
26420,
26337,
26735,
26864,
27197,
27153,
26373,
25725,
25772,
25641,
25959,
26125,
25882,
26047,
25487,
25381,
25394,
26217,
27085,
27205,
26900,
26232,
26167,
25892,
25881,
25701,
25246,
25479,
25207,
25056,
25577,
26533,
30284,
40795,
61007,
83599,
93007,
80174,
56189,
37374,
28045,
24903,
24563,
24504,
25924,
30893,
39542,
50584,
56574,
53240,
44930,
36832,
31513,
27731,
25642,
24476,
25902,
28442,
32028,
33307,
31349,
27658,
24321,
22482,
21832,
21417,
21388,
21336,
21755,
22741,
24452,
25139,
25012,
23786,
21768,
21058,
20325,
20390,
20871,
21146,
21623,
21169,
21031,
20183,
19644,
19810,
19604,
19232,
19114,
19016,
18572,
18299,
18609,
18306,
18694,
18516,
18467,
18641,
19095,
19716,
19834,
19864,
18993,
18425,
18048,
17536,
17336,
17295,
17249,
17079,
17171,
17029,
16925,
16751,
16845,
16581,
16701,
16777,
16598,
16675,
16679,
16289,
16275,
16186,
16401,
16358,
16299,
16112,
15811,
15500,
15741,
15402,
15472,
15720,
15598,
16132,
15936,
15809,
15784,
15230,
14829,
14468,
14418,
14379,
14201,
14262,
14137,
13820,
13790,
13880,
13837,
13969,
14118,
14403,
15446,
17095,
20012,
22357,
23694,
23550,
21019,
18099,
15652,
14138,
13377,
13051,
12703,
12755,
12740,
12637,
12575,
12375,
12421,
12281,
12071,
12231,
11912,
11914,
12103,
11824,
11798,
11958,
11798,
11718,
11535,
11578,
11694,
11640,
11681,
11921,
12352,
12841,
13259,
13670,
14029,
14239,
14456,
14982,
15115,
14959,
13878,
12871,
12290,
11795,
11340,
11448,
11521,
11836,
12120,
11990,
11584,
11100,
10474,
10164,
10053,
9785,
9717,
9637,
9662,
9764,
9478,
9356,
9374,
9208,
9061,
9182,
9054,
9233,
9088,
9185,
9406,
10285,
11551,
14362,
18822,
25557,
33381,
41571,
45967,
44830,
38317,
29430,
21494,
15330,
12146,
11115,
11252,
11546,
11766,
11533,
10893,
9833,
9141,
8257,
7916,
7675,
7461,
7567,
7415,
7462,
7350,
7307,
7398,
7379,
7587,
7235,
7200,
7056,
6859,
6748,
6652,
6793,
6662,
6660,
6489,
6500,
6482,
6459,
6291,
6385,
6248,
6128,
6112,
6130,
6105,
6064,
5947,
6026,
6145,
6067,
6355,
6257,
6303,
6240,
6184,
6107,
6304,
6016,
6023,
5836,
6080,
6411,
7371,
9184,
11733,
14849,
17573,
18943,
18115,
16006,
12898,
10198,
8094,
6797,
5963,
5917,
5856,
6022,
6132,
6252,
6388,
6256,
5938,
5336,
5084,
4811,
4526,
4267,
4139,
4059,
4156,
4137,
4028,
3995,
3947,
3850,
3773,
3761,
3644,
3739,
3718,
3783,
3606,
3607,
3599,
3487,
3505,
3485,
3378,
3468,
3323,
3361,
3239,
3241,
3259,
3173,
3221,
3198,
3176,
3117,
3070,
3021,
3068,
3073,
3110,
2926,
2994,
2875,
2895,
2881,
2855,
2772,
2856,
2864,
2931,
3152,
3400,
3517,
3685,
3713,
3667,
3238,
3019,
2793,
2734,
2524,
2484,
2578,
2548,
2524,
2596,
2482,
2542,
2543,
2496,
2425,
2427,
2351,
2099,
2189,
2075,
1966,
1933,
1957,
1974,
2002,
1939,
1915,
1935,
1846,
1901,
1819,
1875,
1838,
1796,
1668,
1695,
1649,
1705,
1655,
1601,
1547,
1557,
1486,
1483,
1538,
1491,
1426,
1525,
1402,
1477,
1374,
1403,
1350,
1346,
1381,
1268,
1277,
1249,
1304,
1301,
1203,
1269,
1164,
1182,
1178,
1175,
1162,
1113,
1156,
1083,
1017,
1031,
1050,
1018,
1048,
1027,
987,
1015,
1005,
916,
970,
932,
912,
906,
951,
885,
858,
842,
816,
803,
817,
779,
804,
761,
751,
771,
697,
752,
673,
687,
723,
638,
685,
649,
641,
619,
638,
590,
634,
568,
599,
563,
585,
550,
553,
528,
505,
487,
491,
513,
450,
433,
469,
449,
421,
408,
434,
411,
394,
335,
343,
340,
403,
364,
325,
327,
275,
301,
294,
279,
255,
263,
279,
229,
235,
218,
200,
216,
209,
216,
195,
165,
162,
161,
154,
159,
145,
147,
122,
107,
113,
108,
100,
83,
79,
88,
76,
64,
50,
38,
55,
41,
31,
19,
19,
19,
24,
22,
20,
19,
16,
14,
16,
18,
18,
17,
29,
21,
15,
19,
18,
20,
20,
15,
12,
16,
11,
16,
18,
13,
12,
18,
15,
15,
17,
10,
16,
13,
11,
15,
15,
15,
11,
12,
14,
7,
10,
16,
16,
12,
12,
10,
6,
11,
9,
6,
13,
13,
7,
10,
13,
12,
8,
8,
7,
10,
8,
13,
18,
6,
8,
5,
10,
10,
7,
8,
9,
10,
6,
3,
9,
4,
4,
10,
5,
6,
6,
7,
9,
4,
4,
4,
6,
5,
6,
4,
8,
5,
6,
7,
11,
8,
9,
5,
7,
5,
6,
7,
5,
8,
3,
4,
7,
6,
9,
6,
13,
3,
11,
7,
10,
5,
6,
2,
14,
7,
4,
2,
2,
5,
5,
3,
7,
5,
9,
3,
2,
2,
4,
1,
7,
3,
6,
3,
2,
3,
2,
2,
4,
2,
5,
1,
0,
5,
3,
2,
5,
9,
4,
4,
2,
4,
5,
3,
1,
4,
3,
4,
5,
5,
3,
3,
4,
3,
4,
11,
3,
4,
6,
5,
2,
4,
8,
5,
4,
6,
4,
2,
3,
7,
5,
1,
4,
1,
3,
5,
7,
5,
4,
4,
4,
3,
3,
1,
6,
2,
1,
5,
3,
5,
2,
5,
3,
1,
3,
1,
1,
1,
2,
0,
2,
1,
4,
5,
2,
1,
4,
7,
3,
2,
1,
2,
0,
0,
3,
3,
2,
1,
1,
1,
2,
2,
4,
5,
2,
2,
2,
2,
2,
2,
4,
2,
2,
1,
1,
3,
1,
1,
4,
0,
1,
1,
1,
1,
2,
1,
2,
2,
1,
2,
0,
1,
0,
1,
3,
4,
1,
1,
1,
1,
0,
0,
2,
1,
1,
1,
2,
0,
0,
2,
1,
1,
1,
0,
0,
0,
0,
1,
0,
1,
2,
1,
0,
0,
1,
1,
0,
0,
0,
0,
3,
1,
1,
1,
0,
0,
2,
0,
1,
1,
0,
1,
1,
1,
1,
1,
2,
0,
0,
0,
1,
0,
0,
0,
1,
0,
1,
0,
0,
1,
0,
0,
0,
1,
0,
0,
2,
1,
1,
1,
0,
0,
0,
0,
0,
0,
0,
0,
0,
0,
0,
0,
0,
2,
1,
0,
1,
0,
2,
1,
0,
0,
2,
2,
0,
0,
1,
0,
0,
0,
0,
0,
0,
0,
1,
1,
2,
1,
1,
0,
0,
0,
0,
1,
0,
0,
1,
0,
0,
0,
0,
0,
0,
0,
0,
0,
0,
0,
0,
0,
0,
0,
0,
0,
0,
0,
0,
0,
0,
0,
0,
0,
0,
0,
0,
0,
0,
0,
0,
0,
0,
0,
0,
0,
0,
0,
0,
0,
0,
0,
0,
0,
1,
0,
0,
0,
0,
0,
0,
0,
0,
0,
0,
0,
0,
0,
0,
0,
0,
0,
0,
0,
0,
1,
0,
0,
0,
0,
0,
0,
1,
0,
0,
0,
0,
0,
0,
0,
0,
0,
0,
0,
0,
0,
0,
0,
0,
0,
0,
0,
0,
0,
0,
0,
0,
0,
0,
0,
0,
0,
0,
0,
0,
0,
0,
0,
0,
0,
0,
0,
0,
0,
0,
0,
0,
0,
0,
0,
0,
0,
0,
0,
0,
0,
0,
0,
0,
0,
0,
0,
0,
0,
0,
0,
0,
0,
0,
0,
0,
0,
0,
0,
0,
0,
0,
0,
0,
0,
0,
0,
0,
0,
0,
0,
0,
0,
0,
0,
0,
0,
0,
0,
0,
0,
0,
0,
0,
0,
0,
0,
0,
0,
0,
0,
0,
0,
0,
0,
0,
0,
0,
0,
0,
0,
0,
0,
0,
0,
0,
0,
0,
0,
0,
0,
0,
0,
0,
0,
0,
0,
0,
0,
0,
0,
0,
0,
0,
0,
0,
0,
0,
0,
0,
0,
0,
0,
0,
0,
0,
0,
0,
0,
0,
0,
0,
0,
0,
0,
0,
0,
0,
0,
0,
0,
0,
0,
0,
0,
0,
0,
0,
0,
0,
0,
0,
0,
0,
0,
0,
0,
0,
0,
0,
0,
0,
0,
0,
0,
0,
0,
0,
0,
0,
0,
0,
0,
0,
0,
0,
0,
0,
0,
0,
0,
0,
0,
0,
0,
0,
0,
0,
0,
0,
0,
0,
0,
0,
0,
0,
0,
0,
0,
0,
0,
0,
0,
0,
0,
0,
0,
0,
0,
#ENDOFDATA   :