File: N132962/Quantification/20 keV/Glass Mount IIIB/NIST K371 std.msa
#FORMAT      : EMSA/MAS Spectral Data File
#VERSION     : 1.0
#TITLE       : 'NIST K371' standard for 'N132962' detector
#NPOINTS     : 4096
#NCOLUMNS    : 1
#XUNITS      : eV
#YUNITS      : counts
#DATATYPE    : Y
#SIGNALTYPE  : EDS
#XLABEL      : Energy (eV)
#YLABEL      : Counts
#XPERCHAN -eV: 9.99778
#OFFSET   -eV: 1.69135
#CHOFFSET    : 0
#OWNER       : Unknown
#ELEVANGLE   : 35
#BEAMKV   -kV: 20
#LIVETIME  -s: 961.0091
#REALTIME  -s: 1047.98
#PROBECUR -nA: 1.22592
##WORKING -mm: 15
##D2STDCMP   : NIST K371,(O:31.9322),(Si:23.0834),(Zn:3.0689),(Ba:41.9155)
##SIMILAR    : 1.2
#SPECTRUM    :
103,
94,
44,
101,
521,
2090,
5786,
13803,
30517,
38609,
26954,
22481,
24805,
29654,
43492,
125849,
439262,
821364,
598378,
183225,
57200,
32853,
23800,
23403,
26343,
35229,
39566,
31777,
23312,
20091,
20230,
23690,
35397,
53769,
61192,
46063,
28385,
21148,
19017,
18749,
18866,
19415,
20044,
20563,
20916,
21217,
22032,
22814,
24359,
26167,
26932,
27059,
26739,
27362,
32100,
68869,
235935,
587029,
792359,
561839,
233976,
86994,
44731,
27527,
20472,
19057,
18866,
19090,
19080,
19297,
19356,
19614,
19671,
20545,
21338,
22498,
22770,
22097,
21243,
20526,
20100,
20256,
20169,
20357,
20005,
20468,
20482,
20487,
20733,
21234,
21716,
22284,
21718,
20613,
19849,
19808,
19614,
19690,
19818,
19854,
19886,
19920,
19999,
20132,
19973,
19759,
19483,
19164,
19028,
18841,
18526,
18664,
18618,
18544,
18835,
19193,
18890,
18912,
18093,
17964,
17834,
17746,
17882,
17771,
17722,
17369,
17614,
17502,
17849,
19120,
21669,
25637,
27212,
25033,
21522,
18870,
17221,
16449,
16546,
16310,
16530,
16888,
18181,
20259,
25271,
40197,
81885,
162930,
255049,
289747,
234139,
140148,
65421,
30093,
18728,
16577,
17845,
24485,
42922,
79001,
121032,
144812,
132627,
99703,
68618,
47665,
33926,
25611,
22455,
27028,
38385,
51967,
57758,
50941,
36127,
23684,
16086,
13675,
12783,
12838,
13281,
14801,
18799,
23900,
28172,
28241,
23109,
17372,
13448,
12305,
12607,
14191,
16321,
17661,
16909,
15238,
13163,
11587,
11339,
11198,
10823,
10308,
9920,
9814,
9589,
9633,
9768,
9859,
9815,
9420,
9543,
9824,
9961,
10222,
9803,
9854,
9375,
9118,
8985,
8941,
9037,
8918,
8805,
8651,
8508,
8614,
8452,
8463,
8430,
8669,
8241,
8315,
8400,
8403,
8265,
8356,
8099,
8118,
7930,
7976,
8074,
7825,
7809,
7870,
7912,
7826,
8083,
8062,
8061,
8158,
8175,
7873,
7664,
7528,
7320,
7243,
7350,
7190,
7229,
7187,
7076,
7045,
7202,
7093,
6890,
6884,
6844,
6874,
6753,
6907,
6791,
6821,
6733,
6632,
6673,
6621,
6650,
6503,
6461,
6449,
6512,
6445,
6969,
7860,
9530,
12334,
15528,
17877,
17924,
15879,
12673,
9402,
7675,
6517,
6121,
5877,
5830,
5858,
5792,
5841,
5708,
5815,
5471,
5604,
5394,
5514,
5522,
5485,
5498,
5508,
5438,
5356,
5412,
5468,
5336,
5474,
5825,
6416,
6627,
6731,
6507,
6068,
5670,
5203,
4895,
4961,
4798,
4735,
4661,
4769,
4856,
4598,
4734,
4691,
4616,
4576,
4598,
4558,
4574,
4524,
4272,
4425,
4404,
4388,
4186,
4281,
4297,
4202,
4208,
4217,
4050,
4113,
4012,
4129,
4099,
3935,
3927,
3863,
3874,
3759,
3770,
3907,
3792,
3692,
3689,
3666,
3785,
3601,
3645,
3655,
3526,
3457,
3467,
3479,
3364,
3318,
3406,
3401,
3398,
3425,
3350,
3306,
3377,
3237,
3180,
3134,
3117,
3181,
3091,
3058,
3021,
3042,
3008,
2981,
2938,
2980,
2891,
2826,
2913,
2837,
2868,
2769,
2699,
2702,
2738,
2715,
2682,
2655,
2720,
2493,
2645,
2573,
2545,
2451,
2504,
2489,
2424,
2436,
2339,
2429,
2437,
2333,
2278,
2331,
2290,
2318,
2247,
2377,
2173,
2216,
2227,
2167,
2173,
2030,
2201,
2082,
2071,
2013,
2043,
1949,
2015,
1930,
1946,
2009,
1967,
1921,
1828,
1830,
1833,
1764,
1751,
1756,
1832,
1715,
1707,
1762,
1773,
1785,
1657,
1703,
1612,
1572,
1655,
1600,
1519,
1573,
1528,
1573,
1448,
1487,
1586,
1449,
1448,
1392,
1431,
1367,
1431,
1335,
1336,
1409,
1362,
1383,
1307,
1282,
1298,
1328,
1319,
1234,
1197,
1189,
1221,
1182,
1183,
1194,
1171,
1150,
1091,
1162,
1139,
1087,
1024,
1045,
1059,
1039,
1061,
984,
973,
938,
969,
1004,
954,
990,
898,
878,
981,
919,
895,
871,
881,
868,
815,
863,
887,
825,
770,
851,
782,
822,
789,
748,
735,
714,
702,
687,
711,
734,
697,
681,
644,
639,
606,
612,
667,
654,
648,
613,
604,
637,
602,
567,
551,
565,
558,
553,
566,
498,
517,
536,
505,
531,
504,
528,
523,
473,
474,
485,
480,
464,
436,
459,
438,
416,
413,
395,
429,
406,
400,
396,
394,
403,
367,
372,
371,
343,
315,
366,
315,
320,
319,
334,
319,
292,
294,
288,
273,
280,
261,
262,
248,
265,
234,
264,
259,
245,
236,
228,
254,
227,
221,
198,
211,
206,
203,
205,
196,
189,
178,
172,
174,
176,
152,
159,
150,
133,
184,
152,
152,
123,
121,
127,
115,
147,
114,
107,
107,
99,
111,
95,
96,
92,
93,
81,
84,
87,
66,
69,
71,
75,
52,
50,
51,
48,
49,
50,
46,
35,
39,
43,
31,
30,
20,
15,
19,
7,
11,
13,
8,
5,
10,
12,
8,
5,
12,
5,
6,
7,
3,
3,
8,
6,
8,
3,
4,
6,
3,
8,
5,
7,
5,
7,
2,
5,
8,
3,
3,
5,
5,
3,
4,
1,
3,
5,
4,
7,
5,
4,
7,
5,
4,
7,
4,
3,
6,
0,
4,
3,
1,
4,
6,
1,
6,
1,
2,
2,
3,
0,
4,
4,
4,
4,
2,
1,
1,
2,
1,
1,
1,
2,
3,
3,
3,
1,
6,
1,
1,
3,
2,
2,
1,
1,
1,
1,
6,
1,
3,
1,
2,
2,
4,
1,
1,
0,
6,
1,
1,
0,
3,
0,
2,
4,
1,
1,
3,
1,
1,
3,
2,
1,
0,
1,
0,
1,
3,
4,
1,
2,
2,
0,
3,
4,
1,
2,
0,
2,
2,
1,
1,
0,
2,
1,
1,
0,
0,
1,
0,
1,
1,
1,
1,
1,
2,
1,
1,
1,
1,
0,
3,
1,
2,
3,
2,
0,
1,
0,
0,
1,
1,
0,
0,
4,
1,
1,
0,
0,
1,
1,
2,
0,
2,
2,
0,
0,
0,
0,
1,
0,
1,
1,
0,
0,
0,
0,
0,
1,
0,
0,
1,
0,
0,
3,
1,
1,
1,
0,
0,
0,
0,
0,
1,
0,
2,
1,
0,
1,
0,
1,
0,
0,
1,
1,
2,
0,
0,
1,
1,
0,
0,
0,
0,
0,
0,
1,
0,
1,
1,
0,
0,
1,
0,
0,
0,
0,
0,
1,
0,
0,
0,
1,
0,
0,
2,
0,
0,
0,
0,
0,
0,
1,
0,
0,
0,
0,
1,
0,
0,
0,
0,
0,
1,
0,
0,
0,
1,
0,
0,
1,
0,
0,
0,
0,
0,
0,
0,
0,
0,
1,
0,
1,
0,
0,
0,
1,
2,
0,
0,
0,
0,
0,
0,
0,
0,
1,
0,
0,
1,
0,
0,
0,
1,
0,
0,
0,
1,
1,
0,
0,
0,
0,
0,
0,
0,
1,
0,
1,
0,
0,
0,
2,
0,
0,
0,
0,
0,
0,
0,
0,
0,
1,
0,
0,
0,
0,
0,
0,
0,
0,
0,
0,
0,
0,
0,
0,
0,
0,
0,
0,
0,
0,
0,
0,
0,
0,
0,
0,
0,
0,
0,
0,
0,
0,
0,
0,
0,
0,
0,
0,
0,
0,
0,
0,
0,
0,
1,
1,
0,
0,
0,
0,
1,
0,
0,
0,
0,
0,
0,
0,
0,
0,
0,
0,
0,
0,
0,
0,
0,
0,
0,
0,
0,
0,
0,
0,
0,
0,
0,
0,
0,
0,
0,
0,
0,
0,
0,
0,
0,
0,
1,
0,
0,
0,
0,
0,
0,
0,
0,
0,
0,
0,
0,
0,
0,
0,
0,
0,
0,
0,
0,
0,
0,
0,
0,
0,
0,
0,
0,
0,
0,
0,
0,
0,
0,
0,
0,
0,
0,
0,
0,
0,
0,
0,
0,
0,
0,
0,
0,
0,
0,
0,
0,
0,
0,
0,
0,
0,
0,
0,
0,
0,
0,
0,
0,
0,
0,
0,
0,
0,
0,
0,
0,
0,
0,
0,
0,
0,
0,
0,
0,
0,
0,
0,
0,
0,
0,
0,
0,
0,
0,
0,
0,
0,
0,
0,
0,
0,
0,
0,
0,
0,
0,
0,
0,
0,
0,
0,
0,
0,
0,
0,
0,
0,
0,
0,
0,
0,
0,
0,
0,
0,
0,
0,
0,
0,
0,
0,
0,
0,
0,
0,
0,
0,
0,
0,
0,
0,
0,
0,
0,
0,
0,
0,
0,
0,
0,
0,
0,
0,
0,
0,
0,
0,
0,
0,
0,
0,
0,
0,
0,
0,
0,
0,
0,
0,
0,
0,
0,
0,
0,
0,
0,
0,
0,
0,
0,
0,
0,
0,
0,
0,
0,
0,
0,
0,
0,
0,
0,
0,
0,
0,
0,
0,
0,
0,
0,
0,
0,
0,
0,
0,
0,
0,
0,
0,
0,
0,
0,
0,
0,
0,
1,
0,
0,
0,
0,
0,
0,
0,
0,
0,
0,
0,
0,
0,
0,
0,
0,
0,
0,
0,
0,
0,
0,
0,
0,
0,
0,
0,
0,
0,
0,
0,
0,
0,
0,
0,
0,
0,
0,
0,
0,
0,
0,
0,
0,
0,
0,
0,
0,
0,
0,
0,
0,
0,
0,
0,
0,
0,
0,
0,
0,
0,
0,
0,
0,
0,
0,
0,
#ENDOFDATA   :