File: N132962/Quantification/20 keV/Glass Mount IIIB/NIST K411 std.msa
#FORMAT      : EMSA/MAS Spectral Data File
#VERSION     : 1.0
#TITLE       : 'NIST K411' standard for 'N132962' detector
#NPOINTS     : 4096
#NCOLUMNS    : 1
#XUNITS      : eV
#YUNITS      : counts
#DATATYPE    : Y
#SIGNALTYPE  : EDS
#XLABEL      : Energy (eV)
#YLABEL      : Counts
#XPERCHAN -eV: 9.99778
#OFFSET   -eV: 1.69135
#CHOFFSET    : 0
#OWNER       : Unknown
#ELEVANGLE   : 35
#BEAMKV   -kV: 20
#LIVETIME  -s: 1201.01
#REALTIME  -s: 1294.28
#PROBECUR -nA: 1.22574
##WORKING -mm: 15
##D2STDCMP   : NIST K411,(O:42.3643),(Mg:8.8471),(Si:25.3834),(Ca:11.0563),(Fe:11.2089)
##SIMILAR    : 1.1
#SPECTRUM    :
146,
117,
52,
100,
413,
1562,
4198,
10112,
23852,
35721,
29707,
22437,
19916,
21491,
34235,
118019,
443919,
849164,
614876,
164380,
31613,
22070,
33447,
56655,
54314,
29442,
16533,
14674,
15044,
15363,
15729,
16156,
17080,
18640,
20368,
21483,
21612,
22954,
26133,
44928,
133138,
312440,
374220,
216002,
72980,
29643,
23657,
23719,
24861,
26676,
27940,
28273,
28565,
29634,
37049,
96025,
368182,
941911,
1275992,
898707,
362796,
124104,
57861,
31240,
21387,
19309,
17956,
16837,
16251,
16053,
16194,
16241,
16547,
17326,
18516,
19754,
19711,
18213,
17262,
16625,
16279,
16420,
16489,
16358,
16316,
16174,
16067,
16211,
16022,
16144,
15763,
15925,
15739,
15688,
15493,
15531,
15647,
15673,
16028,
16091,
16240,
15999,
15467,
15352,
15020,
14818,
14817,
14690,
14594,
14531,
14409,
14211,
14321,
14249,
14856,
15526,
16760,
17149,
18948,
26737,
57862,
135837,
247454,
309909,
261769,
149871,
63017,
25276,
15381,
14173,
15921,
21332,
32092,
44349,
48290,
39775,
26057,
16558,
12446,
11570,
11319,
11294,
10722,
10620,
10454,
10302,
10531,
10497,
10429,
10788,
10960,
11108,
10738,
10275,
10275,
10182,
10022,
9699,
9395,
9512,
9239,
9382,
9285,
9517,
9497,
9476,
9239,
9030,
9204,
8824,
8770,
8907,
8669,
8547,
8381,
8574,
8651,
8439,
8495,
8758,
8763,
8968,
8615,
8838,
8038,
8017,
7834,
7841,
7768,
7505,
7636,
7562,
7592,
7639,
7819,
8131,
8454,
8393,
8085,
7701,
7247,
7174,
7108,
6995,
7010,
7299,
7317,
7947,
10110,
17455,
35394,
66324,
103190,
124608,
117098,
85727,
49574,
24802,
12114,
7809,
6731,
6350,
6201,
6013,
6137,
6104,
6227,
6016,
6128,
6460,
7050,
8260,
10871,
14960,
19066,
20759,
19180,
15046,
10693,
7532,
6068,
5463,
5117,
5196,
5019,
5216,
5112,
5153,
5314,
5356,
5218,
5053,
5035,
4967,
4821,
4933,
4623,
4662,
4621,
4570,
4556,
4506,
4661,
4548,
4512,
4297,
4414,
4389,
4297,
4437,
4437,
4435,
4448,
4290,
4333,
4242,
4097,
4155,
3947,
3982,
4003,
3809,
3960,
3897,
3926,
3936,
3783,
3831,
3782,
3775,
3810,
3771,
3634,
3675,
3566,
3533,
3612,
3496,
3442,
3420,
3479,
3432,
3263,
3293,
3402,
3359,
3272,
3328,
3140,
3300,
3239,
3143,
3068,
3071,
3098,
3098,
3099,
3043,
3049,
3101,
3115,
2962,
2966,
3017,
2909,
2928,
2851,
2839,
2848,
2892,
2797,
2707,
2791,
2708,
2708,
2763,
2689,
2684,
2678,
2653,
2637,
2667,
2525,
2495,
2476,
2510,
2532,
2517,
2403,
2475,
2401,
2425,
2404,
2355,
2218,
2286,
2252,
2309,
2256,
2218,
2153,
2091,
2173,
2195,
2185,
2117,
2087,
2032,
2024,
2046,
2036,
2076,
1996,
2014,
1945,
1952,
2016,
2007,
1886,
1890,
1855,
1894,
1769,
1806,
1738,
1747,
1757,
1718,
1677,
1666,
1676,
1668,
1681,
1609,
1615,
1591,
1640,
1640,
1630,
1580,
1559,
1509,
1565,
1449,
1517,
1510,
1497,
1499,
1451,
1416,
1453,
1359,
1380,
1375,
1386,
1295,
1316,
1362,
1249,
1331,
1263,
1228,
1249,
1266,
1226,
1273,
1269,
1153,
1181,
1207,
1174,
1136,
1114,
1145,
1131,
1157,
1079,
1105,
1119,
1078,
1069,
1024,
1057,
1018,
1039,
1056,
975,
986,
1005,
966,
905,
982,
990,
920,
910,
897,
876,
909,
894,
848,
811,
896,
828,
808,
877,
808,
782,
732,
755,
802,
765,
774,
791,
751,
764,
682,
678,
741,
742,
714,
680,
702,
660,
652,
651,
723,
611,
637,
650,
641,
524,
584,
532,
580,
600,
576,
586,
617,
595,
560,
510,
554,
537,
537,
489,
481,
490,
534,
469,
464,
472,
461,
442,
436,
446,
456,
411,
405,
404,
409,
417,
401,
356,
359,
376,
377,
387,
392,
362,
395,
352,
353,
329,
330,
315,
342,
308,
321,
335,
317,
308,
299,
311,
310,
280,
321,
290,
304,
253,
290,
277,
271,
250,
233,
259,
233,
202,
255,
229,
252,
228,
215,
243,
200,
234,
210,
208,
204,
207,
220,
174,
201,
190,
196,
184,
196,
191,
195,
190,
175,
183,
167,
164,
178,
170,
165,
166,
135,
159,
130,
144,
126,
108,
112,
118,
120,
119,
102,
119,
134,
104,
109,
116,
104,
103,
113,
108,
88,
109,
111,
92,
79,
79,
87,
92,
81,
92,
76,
62,
71,
72,
62,
80,
60,
61,
53,
69,
41,
44,
52,
49,
65,
41,
45,
38,
52,
49,
47,
34,
50,
39,
28,
28,
35,
28,
24,
28,
21,
21,
21,
20,
17,
16,
23,
14,
15,
20,
10,
11,
6,
6,
10,
10,
3,
6,
4,
4,
5,
3,
4,
1,
1,
2,
0,
0,
0,
1,
4,
1,
1,
3,
2,
1,
0,
0,
1,
1,
0,
1,
2,
3,
1,
5,
1,
1,
2,
1,
1,
1,
0,
1,
1,
1,
1,
0,
2,
1,
1,
0,
1,
1,
3,
2,
2,
1,
1,
1,
0,
1,
1,
0,
0,
1,
0,
2,
0,
0,
0,
0,
0,
1,
0,
0,
0,
2,
1,
2,
0,
0,
0,
2,
2,
0,
0,
0,
0,
0,
0,
1,
0,
0,
0,
0,
0,
0,
0,
0,
0,
1,
0,
0,
1,
0,
0,
0,
0,
0,
1,
1,
1,
0,
1,
1,
0,
0,
0,
0,
1,
0,
0,
1,
1,
0,
1,
0,
0,
0,
0,
0,
0,
1,
0,
0,
0,
0,
0,
0,
0,
0,
0,
0,
1,
2,
1,
0,
0,
0,
0,
0,
0,
0,
0,
1,
0,
1,
0,
0,
0,
0,
0,
1,
0,
0,
0,
0,
0,
1,
1,
0,
0,
0,
0,
0,
0,
1,
1,
0,
0,
0,
0,
0,
0,
1,
0,
0,
0,
0,
0,
0,
0,
0,
1,
0,
0,
0,
0,
0,
0,
1,
0,
0,
0,
2,
1,
0,
0,
0,
1,
0,
0,
0,
0,
0,
0,
0,
0,
0,
0,
0,
0,
0,
0,
0,
0,
0,
0,
0,
0,
0,
0,
0,
0,
0,
0,
0,
0,
0,
0,
0,
0,
0,
0,
0,
0,
0,
0,
0,
0,
1,
0,
1,
0,
0,
0,
0,
0,
0,
0,
0,
0,
0,
0,
0,
0,
0,
0,
0,
0,
0,
0,
0,
2,
0,
0,
0,
0,
0,
0,
0,
0,
0,
0,
0,
0,
0,
0,
0,
0,
0,
0,
0,
0,
0,
0,
0,
0,
0,
0,
0,
0,
0,
0,
0,
0,
0,
0,
0,
0,
0,
0,
0,
0,
0,
0,
0,
0,
0,
0,
0,
0,
1,
0,
0,
0,
0,
0,
0,
0,
0,
0,
0,
0,
0,
0,
0,
0,
0,
0,
0,
0,
0,
0,
0,
0,
0,
0,
0,
0,
0,
0,
0,
0,
0,
0,
0,
0,
0,
0,
0,
0,
0,
0,
0,
0,
0,
0,
0,
0,
0,
0,
0,
0,
0,
0,
0,
0,
0,
0,
0,
0,
0,
0,
0,
0,
0,
0,
0,
0,
0,
0,
0,
0,
0,
0,
0,
0,
0,
0,
0,
0,
0,
0,
0,
0,
0,
0,
0,
0,
0,
0,
0,
0,
0,
0,
0,
0,
0,
0,
0,
0,
0,
0,
0,
0,
0,
0,
0,
0,
0,
0,
0,
0,
0,
0,
0,
0,
0,
0,
0,
0,
0,
0,
0,
0,
0,
0,
0,
0,
0,
0,
0,
0,
0,
0,
0,
0,
0,
0,
0,
0,
0,
0,
0,
0,
0,
0,
0,
0,
0,
0,
0,
0,
0,
0,
0,
0,
0,
0,
0,
0,
0,
0,
0,
0,
0,
0,
0,
0,
0,
0,
0,
0,
0,
0,
0,
0,
0,
0,
0,
0,
0,
0,
0,
0,
0,
0,
0,
0,
0,
0,
0,
0,
0,
0,
0,
0,
0,
0,
0,
0,
0,
0,
0,
0,
0,
0,
0,
0,
0,
0,
0,
0,
0,
0,
0,
0,
0,
1,
0,
0,
0,
0,
0,
0,
0,
0,
0,
0,
0,
0,
0,
0,
0,
0,
0,
0,
0,
0,
0,
0,
0,
0,
0,
0,
0,
0,
0,
0,
0,
0,
0,
0,
0,
0,
0,
0,
0,
0,
0,
0,
0,
0,
0,
0,
0,
0,
0,
0,
0,
0,
0,
0,
0,
0,
0,
0,
0,
0,
0,
0,
0,
0,
0,
0,
0,
0,
0,
0,
0,
0,
0,
0,
0,
0,
0,
0,
0,
0,
0,
0,
0,
0,
0,
0,
0,
0,
0,
0,
0,
0,
0,
0,
0,
0,
0,
0,
0,
0,
0,
0,
0,
0,
0,
0,
0,
0,
0,
0,
0,
0,
0,
0,
0,
0,
0,
0,
0,
0,
0,
0,
0,
0,
0,
0,
0,
0,
0,
0,
0,
0,
0,
0,
0,
0,
0,
0,
0,
0,
0,
0,
0,
0,
0,
0,
0,
0,
0,
0,
0,
0,
0,
0,
0,
0,
0,
0,
0,
0,
0,
0,
0,
0,
0,
0,
0,
0,
#ENDOFDATA   :