File: N132962/Quantification/20 keV/Glass Mount IIIB/NIST K373 std.msa
#FORMAT      : EMSA/MAS Spectral Data File
#VERSION     : 1.0
#TITLE       : 'NIST K373' standard for 'N132962' detector
#NPOINTS     : 4096
#NCOLUMNS    : 1
#XUNITS      : eV
#YUNITS      : counts
#DATATYPE    : Y
#SIGNALTYPE  : EDS
#XLABEL      : Energy (eV)
#YLABEL      : Counts
#XPERCHAN -eV: 9.99778
#OFFSET   -eV: 1.69135
#CHOFFSET    : 0
#OWNER       : Unknown
#ELEVANGLE   : 35
#BEAMKV   -kV: 20
#LIVETIME  -s: 960.399
#REALTIME  -s: 1040.193
#PROBECUR -nA: 1.22475
##WORKING -mm: 15
##D2STDCMP   : NIST K373,(O:42.3397),(Na:10.4304),(Si:31.8484),(Zn:4.9407),(Ba:10.3803),(U:0.0534)
##SIMILAR    : 1.4
#SPECTRUM    :
70,
107,
44,
74,
369,
1463,
3775,
8883,
19795,
25150,
17495,
15274,
19311,
24975,
40506,
139765,
527645,
1001207,
723459,
190711,
29771,
13622,
14089,
14506,
14297,
16216,
18360,
18010,
17755,
19128,
20802,
25387,
52333,
136062,
245546,
233063,
109558,
34691,
17577,
15558,
15664,
15975,
16683,
16957,
17302,
17960,
18629,
19937,
21938,
24324,
25398,
25491,
25423,
26306,
32926,
91103,
362622,
933756,
1270496,
891260,
357371,
118804,
52931,
25702,
15250,
12630,
12267,
12486,
12449,
12578,
12730,
13070,
13478,
14306,
16086,
17398,
17209,
15304,
14074,
13498,
13224,
13154,
13087,
13291,
13104,
13008,
13041,
13378,
13248,
13350,
13599,
14227,
14147,
14003,
13456,
13294,
12892,
12706,
12638,
12759,
12733,
12559,
12632,
12644,
12933,
12812,
12392,
12501,
12368,
12191,
12436,
12298,
12311,
12158,
12853,
13401,
13699,
13528,
12604,
11779,
11369,
11183,
11062,
10929,
11191,
10715,
10948,
10814,
10840,
10960,
11456,
12715,
12767,
12278,
11355,
10679,
10267,
9929,
10040,
9860,
9927,
10032,
10369,
10883,
11605,
15161,
24832,
43812,
64584,
73348,
60881,
38561,
21114,
12912,
9829,
9457,
9576,
10949,
14967,
23632,
33488,
39071,
36054,
28664,
20764,
16094,
12817,
11104,
10129,
10970,
13474,
16974,
18002,
16693,
13206,
10179,
8464,
7840,
7665,
7560,
7636,
8110,
9097,
10354,
11219,
11247,
9851,
8599,
7393,
7142,
7194,
7670,
8023,
8213,
8109,
7648,
7229,
6795,
6671,
6621,
6490,
6387,
6223,
6229,
6103,
6026,
6084,
6211,
6112,
6083,
6010,
6101,
6075,
6153,
6294,
6005,
5578,
5694,
5547,
5570,
5510,
5512,
5459,
5524,
5425,
5176,
5099,
5195,
5097,
5186,
5092,
5194,
5091,
5022,
4973,
4970,
4936,
4796,
4745,
4859,
4781,
4720,
4729,
4660,
4770,
4690,
4685,
4842,
4800,
4922,
4634,
4582,
4426,
4347,
4348,
4318,
4446,
4107,
4318,
4232,
4213,
4081,
4198,
3961,
4092,
3984,
3983,
3955,
3919,
3966,
3955,
3791,
3902,
3867,
3895,
3916,
3845,
3804,
3682,
3721,
3764,
3801,
4345,
5817,
8730,
13389,
18086,
21535,
21724,
18537,
13384,
8871,
5944,
4268,
3549,
3384,
3290,
3170,
3235,
3209,
3171,
3224,
3253,
3195,
3017,
3174,
3145,
2986,
2987,
2987,
2954,
2982,
3035,
3146,
3255,
3523,
4107,
4684,
5165,
5351,
5017,
4390,
3858,
3192,
2893,
2747,
2645,
2655,
2615,
2615,
2609,
2455,
2516,
2521,
2521,
2521,
2537,
2498,
2459,
2451,
2376,
2382,
2325,
2301,
2391,
2368,
2368,
2393,
2270,
2268,
2185,
2213,
2038,
2178,
2121,
2141,
2159,
2008,
2030,
2042,
2048,
2034,
2067,
2098,
1978,
1954,
2003,
1988,
1913,
1914,
1810,
1871,
1907,
1904,
1871,
1839,
1832,
1814,
1813,
1739,
1682,
1750,
1725,
1617,
1686,
1642,
1628,
1627,
1596,
1643,
1537,
1599,
1553,
1612,
1627,
1552,
1564,
1473,
1593,
1522,
1504,
1431,
1369,
1419,
1442,
1423,
1397,
1380,
1376,
1347,
1309,
1345,
1328,
1284,
1246,
1251,
1285,
1249,
1289,
1267,
1227,
1220,
1215,
1126,
1199,
1121,
1157,
1104,
1184,
1175,
1121,
1115,
1056,
1101,
1023,
1045,
1063,
1048,
998,
978,
998,
1032,
950,
974,
977,
939,
947,
892,
929,
878,
932,
884,
924,
856,
866,
926,
782,
887,
899,
833,
856,
737,
738,
777,
771,
771,
774,
757,
781,
762,
762,
691,
691,
701,
729,
672,
665,
649,
684,
716,
670,
633,
615,
622,
629,
627,
648,
640,
600,
598,
564,
589,
529,
594,
536,
533,
536,
539,
574,
525,
520,
494,
503,
483,
510,
481,
485,
476,
496,
490,
466,
462,
482,
435,
455,
409,
413,
387,
424,
417,
402,
398,
391,
369,
390,
384,
389,
331,
339,
371,
355,
314,
356,
339,
335,
331,
332,
314,
335,
324,
335,
324,
302,
290,
316,
321,
285,
245,
263,
269,
261,
272,
255,
232,
248,
238,
254,
228,
243,
240,
228,
195,
216,
226,
213,
207,
196,
190,
196,
195,
198,
206,
192,
177,
167,
190,
199,
175,
199,
178,
136,
156,
163,
168,
145,
160,
146,
148,
146,
132,
154,
130,
118,
123,
124,
125,
137,
112,
127,
110,
117,
112,
99,
118,
111,
98,
96,
104,
81,
86,
74,
79,
93,
76,
74,
88,
63,
59,
63,
77,
74,
90,
70,
53,
59,
55,
63,
52,
56,
52,
42,
45,
44,
48,
45,
43,
38,
41,
41,
28,
37,
34,
23,
32,
29,
20,
26,
27,
26,
17,
19,
26,
13,
16,
18,
13,
8,
23,
9,
10,
10,
8,
6,
5,
2,
1,
5,
2,
2,
3,
2,
1,
5,
0,
2,
3,
1,
2,
0,
2,
0,
1,
1,
1,
1,
2,
0,
2,
1,
2,
5,
0,
1,
1,
5,
0,
0,
0,
1,
0,
1,
2,
0,
1,
1,
1,
2,
1,
1,
0,
0,
1,
2,
0,
0,
1,
1,
3,
1,
1,
1,
0,
1,
0,
0,
2,
1,
0,
3,
0,
0,
2,
1,
1,
0,
0,
0,
0,
0,
1,
0,
0,
0,
1,
1,
2,
0,
0,
0,
0,
0,
1,
0,
0,
0,
2,
1,
0,
2,
0,
0,
1,
1,
0,
0,
0,
1,
0,
0,
1,
0,
0,
1,
1,
0,
1,
0,
2,
1,
0,
2,
0,
0,
2,
0,
0,
0,
0,
0,
0,
0,
0,
0,
0,
0,
0,
0,
0,
0,
0,
2,
0,
0,
0,
0,
0,
1,
0,
0,
0,
0,
0,
0,
3,
1,
0,
1,
0,
0,
0,
1,
0,
0,
0,
0,
0,
0,
0,
0,
0,
0,
0,
0,
0,
1,
0,
0,
1,
0,
0,
0,
0,
0,
0,
0,
0,
1,
0,
0,
0,
0,
0,
1,
1,
0,
0,
0,
0,
0,
0,
1,
0,
0,
0,
0,
1,
0,
0,
0,
0,
0,
0,
0,
0,
0,
0,
0,
0,
0,
0,
1,
0,
0,
0,
1,
0,
0,
0,
0,
0,
0,
0,
0,
0,
0,
0,
1,
0,
0,
0,
0,
0,
0,
0,
0,
0,
0,
0,
0,
0,
0,
0,
0,
0,
1,
1,
0,
0,
0,
0,
0,
0,
0,
0,
0,
0,
1,
0,
0,
0,
0,
0,
0,
0,
0,
0,
0,
0,
0,
0,
0,
0,
0,
0,
0,
0,
0,
1,
0,
0,
0,
0,
0,
0,
0,
1,
0,
0,
0,
0,
0,
0,
0,
0,
0,
0,
0,
0,
0,
0,
0,
0,
0,
0,
0,
0,
0,
0,
0,
0,
0,
0,
0,
0,
0,
0,
0,
1,
0,
1,
0,
0,
0,
0,
0,
0,
0,
0,
0,
0,
0,
0,
0,
0,
1,
0,
0,
0,
0,
0,
0,
0,
0,
0,
0,
0,
0,
0,
0,
0,
0,
0,
0,
0,
0,
0,
0,
0,
0,
0,
0,
0,
0,
0,
0,
0,
0,
0,
0,
0,
0,
0,
0,
0,
0,
0,
0,
0,
0,
0,
0,
0,
0,
0,
0,
0,
0,
0,
0,
0,
0,
0,
0,
0,
0,
0,
0,
0,
0,
0,
0,
0,
0,
0,
0,
0,
0,
0,
0,
0,
0,
0,
0,
0,
0,
0,
0,
0,
0,
0,
0,
0,
0,
0,
0,
0,
0,
0,
0,
0,
0,
0,
0,
0,
0,
0,
0,
0,
0,
0,
0,
0,
0,
0,
0,
0,
0,
0,
0,
0,
0,
0,
0,
0,
0,
0,
0,
0,
0,
0,
0,
0,
0,
0,
0,
0,
0,
0,
0,
0,
0,
0,
0,
0,
0,
0,
0,
0,
0,
0,
0,
0,
0,
0,
0,
0,
0,
0,
0,
0,
0,
0,
0,
0,
0,
0,
0,
0,
0,
0,
0,
0,
0,
0,
0,
0,
0,
0,
0,
0,
0,
0,
0,
0,
0,
0,
0,
0,
0,
0,
0,
0,
0,
0,
0,
0,
0,
0,
0,
0,
0,
0,
0,
0,
0,
0,
0,
0,
0,
0,
0,
0,
0,
0,
0,
0,
0,
0,
0,
0,
0,
0,
0,
0,
0,
0,
0,
0,
0,
0,
0,
0,
0,
0,
0,
0,
0,
0,
0,
0,
0,
0,
0,
0,
0,
0,
0,
0,
0,
0,
0,
0,
0,
0,
0,
0,
0,
0,
0,
0,
0,
0,
0,
0,
0,
0,
0,
0,
0,
0,
0,
0,
0,
0,
0,
0,
0,
0,
0,
0,
0,
0,
0,
0,
0,
0,
0,
0,
0,
0,
0,
0,
0,
0,
0,
0,
0,
0,
0,
0,
0,
0,
0,
0,
0,
0,
0,
0,
0,
0,
0,
0,
0,
0,
0,
0,
0,
0,
0,
0,
0,
0,
0,
0,
0,
0,
0,
0,
0,
0,
0,
0,
0,
0,
0,
0,
0,
0,
0,
0,
0,
0,
0,
0,
0,
0,
0,
0,
0,
0,
0,
0,
0,
0,
0,
0,
0,
0,
0,
0,
0,
0,
0,
0,
0,
0,
#ENDOFDATA   :