File: N132962/Quantification/20 keV/Chucks Circular/CC Chuck's Circular Apatite[3][4].msa
#FORMAT      : EMSA/MAS Spectral Data File
#VERSION     : 1.0
#TITLE       : CC Chuck's Circular Apatite[3][all]
#DATE        : 09-SEP-2025
#TIME        : 11:52
#OWNER       : Unknown
#NPOINTS     : 4096
#NCOLUMNS    : 1
#XUNITS      : eV
#YUNITS      : counts
#DATATYPE    : Y
#XPERCHAN    : 9.99778
#OFFSET      : 1.69135
#BEAMKV      : 20
#SIGNALTYPE  : EDS
#ELEVANGLE   : 35
#AZIMANGLE   : 0
#LIVETIME    : 240.135
#REALTIME    : 259.368
#PROBECUR    : 1.24242
#TAUWIND     : 0
#TDEADLYR    : 0
#TACTLYR     : 0.045
#TALWIND     : 0.025
#CHOFFSET    : 0.0
#XLABEL      : Energy (eV)
#YLABEL      : Counts
#XPOSITION   : 11.33385
#YPOSITION   : -0.13346
#ZPOSITION   : 37.19848
#EDSDET      : SD
##SPECIMEN   : CC Chuck's Circular Apatite[3][all]
##DET_HASH   : 12273538-fd48-a23f-0a19-f1e6fa85caef
##CALIB_HASH : 6abaa72c-aa41-8738-0be9-f592914732f3
##WORKING    : 15.02 mm
##DET_NAME   : EDAX All
##DET_MODE   : MediumLE
#SPECTRUM    :
25,
24,
12,
25,
127,
407,
1237,
3309,
10552,
18637,
15969,
8567,
4717,
3409,
4198,
10869,
39114,
73817,
54052,
15495,
4015,
5404,
9522,
9010,
4681,
2900,
2822,
3167,
3699,
3857,
3725,
3733,
3948,
4446,
5176,
5454,
4883,
4592,
4445,
4865,
4996,
5281,
5754,
6049,
5922,
5626,
5548,
5844,
5708,
5892,
6000,
5842,
6067,
5947,
5993,
6099,
6964,
8287,
9407,
8712,
7640,
7525,
8424,
12383,
23950,
58001,
121924,
166004,
130211,
59899,
22536,
13887,
10755,
7154,
5223,
5026,
5389,
5619,
5065,
4544,
4049,
3938,
3973,
4117,
4251,
4841,
6165,
7455,
7230,
5669,
4570,
3938,
3951,
3923,
3964,
3893,
3772,
3601,
3742,
3544,
3722,
3577,
3587,
3499,
3611,
3568,
3570,
3627,
3460,
3513,
3397,
3358,
3396,
3314,
3358,
3547,
4027,
4767,
6470,
12953,
35871,
92612,
173134,
219276,
183351,
102754,
40069,
12342,
5150,
4314,
5486,
9409,
17317,
26294,
29090,
22842,
13335,
6304,
3231,
2553,
2311,
2271,
2289,
2172,
2162,
2143,
2165,
2138,
2097,
2170,
2181,
2184,
2328,
2245,
2450,
2575,
2420,
2289,
2255,
2188,
2398,
2618,
2550,
2246,
2180,
2067,
2059,
2103,
2216,
2094,
2099,
1951,
1977,
2136,
2172,
2206,
2203,
2111,
2016,
1944,
1865,
1844,
1730,
1822,
1742,
1738,
1863,
1884,
1984,
1970,
2155,
1974,
1985,
1830,
1731,
1709,
1563,
1662,
1638,
1590,
1699,
1610,
1608,
1607,
1552,
1500,
1495,
1479,
1488,
1509,
1554,
1554,
1580,
1635,
1593,
1460,
1423,
1474,
1376,
1307,
1326,
1389,
1331,
1344,
1369,
1331,
1283,
1271,
1220,
1255,
1289,
1306,
1266,
1236,
1224,
1264,
1278,
1157,
1221,
1214,
1149,
1213,
1192,
1248,
1252,
1329,
1463,
1379,
1414,
1374,
1284,
1230,
1164,
1093,
1046,
1074,
1093,
1129,
1089,
1053,
1033,
1025,
998,
1061,
965,
1039,
1019,
983,
997,
926,
968,
947,
943,
951,
874,
905,
971,
969,
927,
920,
872,
907,
942,
849,
909,
866,
861,
838,
851,
837,
899,
846,
828,
775,
805,
795,
804,
794,
831,
797,
799,
788,
773,
745,
768,
762,
753,
753,
703,
736,
725,
702,
735,
699,
703,
698,
748,
707,
669,
723,
681,
695,
694,
631,
669,
643,
636,
660,
678,
599,
639,
639,
633,
615,
634,
651,
635,
572,
565,
593,
629,
580,
585,
574,
569,
587,
605,
617,
589,
610,
614,
608,
568,
571,
590,
544,
520,
504,
513,
512,
526,
541,
511,
494,
444,
492,
466,
513,
463,
500,
488,
436,
457,
458,
442,
469,
445,
464,
427,
441,
448,
428,
414,
436,
454,
419,
433,
406,
399,
417,
408,
442,
447,
399,
394,
366,
363,
367,
364,
370,
378,
352,
353,
368,
326,
360,
331,
320,
314,
353,
321,
328,
307,
288,
306,
322,
304,
301,
318,
270,
277,
328,
276,
278,
309,
275,
273,
268,
284,
292,
290,
247,
282,
238,
241,
255,
222,
278,
288,
262,
245,
248,
252,
248,
237,
256,
245,
237,
228,
239,
249,
210,
208,
204,
191,
237,
213,
201,
192,
204,
218,
199,
192,
209,
185,
218,
206,
177,
197,
161,
179,
215,
197,
166,
172,
170,
165,
187,
167,
182,
160,
144,
185,
135,
160,
154,
141,
136,
145,
126,
151,
133,
149,
136,
136,
154,
129,
141,
138,
135,
131,
122,
124,
117,
137,
123,
118,
114,
121,
93,
94,
93,
117,
105,
115,
110,
113,
104,
107,
95,
101,
99,
89,
89,
104,
90,
87,
77,
103,
102,
81,
75,
78,
94,
97,
78,
83,
79,
69,
78,
75,
61,
64,
77,
79,
73,
63,
58,
63,
73,
72,
47,
63,
76,
68,
64,
55,
70,
59,
44,
61,
64,
52,
48,
56,
55,
62,
41,
53,
51,
42,
62,
48,
45,
46,
54,
36,
40,
30,
41,
45,
44,
28,
38,
47,
30,
44,
29,
34,
27,
37,
32,
35,
33,
21,
33,
33,
28,
39,
27,
25,
22,
38,
32,
25,
21,
36,
28,
24,
20,
24,
17,
22,
17,
13,
22,
18,
13,
13,
23,
16,
14,
19,
12,
16,
14,
12,
19,
8,
14,
17,
12,
12,
9,
18,
13,
15,
8,
8,
12,
6,
7,
16,
13,
9,
9,
7,
8,
6,
6,
4,
8,
7,
4,
3,
7,
1,
2,
3,
2,
3,
5,
1,
1,
3,
2,
1,
0,
0,
0,
1,
0,
0,
0,
0,
2,
1,
0,
1,
1,
1,
0,
0,
0,
0,
0,
1,
1,
0,
2,
1,
0,
1,
1,
0,
1,
0,
0,
2,
0,
0,
2,
0,
0,
1,
0,
0,
0,
2,
0,
1,
0,
1,
0,
1,
0,
0,
0,
0,
1,
0,
0,
0,
0,
0,
0,
0,
1,
0,
0,
0,
0,
0,
0,
0,
1,
0,
0,
0,
1,
0,
0,
0,
0,
0,
0,
0,
0,
0,
0,
0,
0,
0,
0,
0,
0,
1,
0,
0,
0,
0,
0,
1,
0,
0,
0,
0,
0,
0,
0,
0,
0,
1,
0,
0,
1,
0,
0,
0,
0,
0,
0,
0,
0,
0,
0,
0,
0,
0,
0,
1,
0,
0,
0,
0,
0,
0,
0,
0,
0,
0,
0,
0,
0,
0,
0,
0,
0,
0,
0,
0,
0,
0,
0,
0,
0,
0,
0,
1,
0,
0,
0,
0,
0,
0,
0,
0,
0,
0,
0,
0,
1,
0,
0,
0,
0,
0,
0,
0,
0,
0,
0,
0,
0,
1,
0,
0,
0,
0,
0,
0,
0,
0,
0,
0,
1,
0,
0,
0,
0,
0,
0,
2,
0,
0,
0,
0,
0,
0,
0,
0,
0,
0,
0,
0,
0,
0,
0,
0,
0,
0,
0,
0,
0,
0,
0,
0,
0,
0,
0,
0,
0,
0,
0,
0,
0,
0,
0,
0,
0,
0,
0,
0,
0,
0,
0,
0,
0,
0,
0,
0,
0,
0,
0,
0,
0,
0,
0,
0,
0,
0,
0,
0,
0,
0,
0,
0,
0,
0,
0,
0,
0,
0,
0,
0,
0,
0,
0,
0,
0,
0,
0,
0,
0,
0,
0,
0,
0,
0,
0,
0,
0,
0,
0,
0,
0,
0,
0,
0,
0,
0,
0,
0,
0,
0,
0,
0,
0,
0,
0,
0,
0,
0,
0,
0,
0,
0,
0,
0,
0,
0,
0,
0,
0,
0,
0,
0,
0,
0,
0,
0,
0,
0,
0,
0,
0,
0,
1,
0,
0,
0,
0,
0,
0,
0,
0,
0,
0,
0,
0,
0,
0,
0,
0,
0,
0,
0,
0,
0,
0,
0,
0,
0,
0,
0,
0,
0,
0,
0,
0,
0,
0,
0,
0,
0,
0,
0,
0,
0,
0,
0,
0,
0,
0,
0,
0,
0,
0,
0,
0,
0,
0,
0,
0,
0,
0,
0,
0,
0,
0,
0,
0,
0,
0,
0,
0,
0,
0,
0,
0,
0,
0,
0,
0,
0,
0,
0,
0,
0,
0,
0,
0,
0,
0,
0,
0,
0,
0,
0,
0,
0,
0,
0,
0,
0,
0,
0,
0,
0,
0,
0,
0,
0,
0,
0,
0,
0,
0,
0,
0,
0,
0,
0,
0,
0,
0,
0,
0,
0,
0,
0,
0,
0,
0,
0,
0,
0,
0,
0,
0,
0,
0,
0,
0,
0,
0,
0,
0,
0,
0,
0,
0,
0,
0,
0,
0,
0,
0,
0,
0,
0,
0,
0,
0,
0,
0,
0,
0,
0,
0,
0,
0,
0,
0,
0,
0,
0,
0,
0,
0,
0,
0,
0,
0,
0,
0,
0,
0,
0,
0,
0,
0,
0,
0,
0,
0,
0,
0,
0,
0,
0,
0,
0,
0,
0,
0,
0,
0,
0,
0,
0,
0,
0,
0,
0,
0,
0,
0,
0,
0,
0,
0,
0,
0,
0,
0,
0,
0,
0,
0,
0,
0,
0,
0,
0,
0,
0,
0,
0,
0,
0,
0,
0,
0,
0,
0,
0,
0,
0,
0,
0,
0,
0,
0,
0,
0,
0,
0,
0,
0,
0,
0,
0,
0,
0,
0,
0,
0,
0,
0,
0,
0,
0,
0,
0,
0,
0,
0,
0,
0,
0,
0,
0,
0,
0,
0,
0,
0,
0,
0,
0,
0,
0,
0,
0,
0,
0,
0,
0,
0,
0,
0,
0,
0,
0,
0,
0,
0,
0,
0,
0,
0,
0,
0,
0,
0,
0,
0,
0,
0,
0,
0,
0,
0,
0,
0,
0,
0,
0,
0,
0,
0,
0,
0,
0,
0,
0,
0,
0,
0,
0,
0,
0,
0,
0,
0,
0,
0,
0,
0,
0,
0,
0,
0,
0,
0,
0,
0,
0,
0,
0,
0,
0,
0,
0,
0,
0,
0,
0,
0,
0,
0,
0,
0,
0,
0,
#ENDOFDATA   :