File: N132962/Quantification/20 keV/Chucks Circular/CC Chuck's Circular Apatite[0][4].msa
#FORMAT      : EMSA/MAS Spectral Data File
#VERSION     : 1.0
#TITLE       : CC Chuck's Circular Apatite[0][all]
#DATE        : 09-SEP-2025
#TIME        : 11:48
#OWNER       : Unknown
#NPOINTS     : 4096
#NCOLUMNS    : 1
#XUNITS      : eV
#YUNITS      : counts
#DATATYPE    : Y
#XPERCHAN    : 9.99778
#OFFSET      : 1.69135
#BEAMKV      : 20
#SIGNALTYPE  : EDS
#ELEVANGLE   : 35
#AZIMANGLE   : 0
#LIVETIME    : 240.128
#REALTIME    : 259.37
#PROBECUR    : 1.24242
#TAUWIND     : 0
#TDEADLYR    : 0
#TACTLYR     : 0.045
#TALWIND     : 0.025
#CHOFFSET    : 0.0
#XLABEL      : Energy (eV)
#YLABEL      : Counts
#XPOSITION   : 11.37076
#YPOSITION   : -0.1421
#ZPOSITION   : 37.19848
#EDSDET      : SD
##SPECIMEN   : CC Chuck's Circular Apatite[0][all]
##DET_HASH   : 12273538-fd48-a23f-0a19-f1e6fa85caef
##CALIB_HASH : 6abaa72c-aa41-8738-0be9-f592914732f3
##WORKING    : 15.02 mm
##DET_NAME   : EDAX All
##DET_MODE   : MediumLE
#SPECTRUM    :
27,
31,
11,
23,
133,
454,
1137,
3281,
10130,
18570,
15551,
8611,
4670,
3443,
4088,
11117,
38882,
73198,
54361,
15350,
4089,
5612,
10119,
9338,
4746,
2933,
2928,
3257,
3575,
3823,
3826,
3740,
3853,
4275,
5253,
5395,
5020,
4618,
4844,
4703,
4896,
5212,
5891,
6068,
5713,
5716,
5519,
5650,
5746,
5949,
5860,
5872,
5901,
6046,
6080,
6169,
6933,
8330,
9258,
8869,
7942,
7405,
8390,
12424,
24108,
57677,
122151,
166032,
129998,
59784,
22681,
14018,
10710,
7239,
5112,
4913,
5355,
5719,
5286,
4443,
3981,
4007,
3971,
4170,
4293,
4809,
6007,
7188,
7378,
5751,
4342,
3906,
3803,
3865,
4027,
3899,
3751,
3637,
3530,
3583,
3649,
3736,
3555,
3558,
3643,
3511,
3588,
3566,
3427,
3409,
3458,
3431,
3374,
3313,
3326,
3528,
4000,
4839,
6611,
12674,
36055,
92629,
173486,
218836,
183862,
102584,
39393,
12388,
4986,
4084,
5732,
9503,
17378,
26402,
29259,
22959,
13092,
6274,
3300,
2564,
2281,
2229,
2133,
2106,
2042,
2054,
2014,
2062,
2050,
2142,
2205,
2214,
2158,
2239,
2521,
2461,
2446,
2272,
2193,
2143,
2477,
2568,
2472,
2354,
1996,
2036,
2090,
2136,
2067,
2105,
2032,
2002,
1975,
2046,
2202,
2134,
2164,
2091,
1976,
1898,
1855,
1856,
1771,
1783,
1651,
1765,
1862,
1904,
1981,
2110,
2139,
1966,
1961,
1792,
1687,
1640,
1654,
1564,
1523,
1566,
1585,
1590,
1627,
1612,
1586,
1559,
1583,
1478,
1525,
1548,
1546,
1582,
1524,
1550,
1628,
1428,
1425,
1436,
1391,
1312,
1367,
1380,
1342,
1304,
1364,
1285,
1249,
1315,
1244,
1278,
1251,
1316,
1214,
1240,
1260,
1244,
1194,
1240,
1191,
1178,
1237,
1194,
1165,
1226,
1281,
1358,
1360,
1358,
1396,
1367,
1261,
1272,
1174,
1144,
1119,
1053,
1086,
1088,
1090,
1051,
1027,
1041,
1020,
1008,
934,
1052,
1025,
942,
969,
999,
983,
936,
913,
955,
902,
919,
939,
868,
885,
923,
979,
897,
900,
845,
916,
838,
828,
861,
871,
857,
824,
846,
825,
810,
780,
814,
767,
794,
829,
796,
746,
731,
808,
727,
782,
733,
754,
656,
743,
740,
726,
780,
710,
710,
714,
722,
686,
673,
747,
698,
710,
694,
679,
677,
659,
656,
661,
677,
641,
673,
684,
627,
658,
576,
653,
621,
606,
586,
590,
607,
599,
618,
569,
585,
579,
588,
594,
564,
569,
598,
649,
601,
578,
633,
559,
534,
493,
545,
508,
523,
450,
451,
481,
519,
476,
482,
477,
475,
501,
468,
447,
468,
499,
441,
433,
469,
468,
439,
464,
457,
426,
414,
402,
425,
443,
403,
422,
403,
421,
429,
428,
391,
403,
374,
369,
390,
386,
369,
343,
389,
399,
372,
348,
339,
318,
344,
369,
382,
331,
335,
335,
325,
309,
327,
322,
301,
318,
317,
291,
305,
264,
303,
324,
301,
304,
311,
288,
283,
279,
273,
249,
272,
244,
296,
251,
248,
259,
271,
255,
256,
262,
261,
245,
242,
225,
263,
227,
213,
225,
227,
216,
249,
208,
208,
201,
209,
214,
187,
219,
233,
200,
173,
198,
193,
201,
187,
199,
192,
206,
182,
181,
178,
202,
199,
172,
161,
148,
172,
173,
160,
160,
155,
157,
145,
139,
165,
160,
133,
150,
134,
130,
151,
128,
122,
126,
126,
135,
134,
143,
127,
128,
120,
151,
142,
111,
123,
116,
116,
122,
104,
120,
129,
117,
93,
113,
112,
99,
109,
99,
107,
101,
88,
97,
94,
97,
75,
86,
83,
86,
89,
88,
87,
78,
82,
69,
88,
78,
79,
81,
65,
77,
74,
68,
82,
69,
60,
68,
71,
72,
70,
83,
64,
64,
56,
58,
62,
60,
75,
53,
51,
55,
60,
60,
59,
54,
50,
42,
41,
53,
53,
49,
45,
55,
53,
42,
41,
45,
47,
43,
50,
46,
50,
33,
39,
47,
31,
42,
29,
39,
33,
37,
37,
34,
23,
35,
32,
19,
29,
24,
23,
24,
36,
20,
25,
24,
16,
22,
34,
25,
16,
19,
17,
26,
19,
16,
22,
22,
17,
15,
12,
12,
21,
20,
15,
19,
16,
14,
10,
14,
17,
22,
14,
11,
14,
4,
15,
14,
7,
9,
7,
11,
12,
9,
8,
11,
9,
3,
6,
6,
7,
1,
5,
1,
2,
3,
5,
5,
2,
5,
3,
2,
2,
4,
2,
0,
2,
1,
0,
0,
0,
1,
0,
1,
0,
1,
0,
0,
1,
1,
0,
0,
0,
0,
0,
0,
0,
1,
1,
0,
0,
0,
2,
0,
1,
0,
1,
0,
0,
0,
0,
1,
0,
0,
0,
1,
0,
0,
0,
0,
0,
0,
0,
0,
0,
0,
0,
1,
0,
0,
1,
0,
0,
0,
0,
0,
0,
0,
0,
0,
1,
0,
0,
0,
0,
0,
0,
0,
0,
0,
0,
1,
0,
0,
0,
0,
0,
0,
1,
0,
0,
0,
0,
0,
0,
0,
0,
0,
0,
0,
1,
1,
0,
0,
0,
0,
0,
0,
0,
0,
0,
0,
0,
0,
0,
0,
0,
0,
0,
0,
0,
1,
1,
0,
0,
0,
0,
0,
0,
0,
0,
0,
0,
0,
0,
0,
0,
0,
0,
0,
0,
0,
0,
0,
0,
0,
1,
0,
0,
0,
0,
0,
0,
0,
0,
0,
0,
0,
0,
0,
0,
0,
0,
0,
1,
0,
0,
0,
0,
0,
0,
0,
0,
0,
0,
0,
0,
0,
0,
0,
1,
0,
0,
0,
0,
0,
0,
0,
0,
0,
0,
0,
0,
0,
0,
0,
0,
0,
0,
0,
0,
0,
0,
0,
0,
0,
0,
0,
1,
0,
0,
0,
0,
0,
0,
0,
0,
0,
0,
0,
0,
0,
0,
0,
0,
0,
0,
0,
0,
0,
0,
0,
0,
0,
0,
0,
0,
0,
0,
0,
0,
0,
0,
0,
0,
0,
0,
0,
0,
0,
0,
0,
0,
0,
0,
0,
0,
0,
0,
0,
0,
0,
0,
0,
0,
0,
0,
0,
0,
0,
0,
0,
0,
0,
0,
0,
0,
0,
0,
0,
0,
0,
0,
0,
0,
0,
0,
0,
0,
0,
0,
0,
0,
0,
0,
0,
0,
0,
0,
0,
0,
0,
0,
0,
0,
0,
0,
0,
0,
0,
0,
0,
0,
0,
0,
0,
0,
0,
0,
0,
0,
0,
0,
0,
0,
0,
0,
0,
0,
0,
0,
0,
0,
0,
0,
0,
0,
0,
0,
0,
0,
0,
0,
0,
0,
0,
0,
0,
0,
0,
0,
0,
0,
0,
0,
0,
0,
0,
0,
0,
0,
0,
0,
0,
0,
0,
0,
0,
0,
0,
0,
0,
0,
0,
0,
0,
0,
0,
0,
0,
0,
0,
0,
0,
0,
0,
0,
0,
0,
0,
0,
0,
0,
0,
0,
0,
0,
0,
0,
0,
0,
0,
0,
0,
0,
0,
0,
0,
0,
0,
0,
0,
0,
0,
0,
0,
0,
0,
0,
0,
0,
0,
0,
0,
0,
0,
0,
0,
0,
0,
0,
0,
0,
0,
0,
0,
0,
0,
0,
0,
0,
0,
0,
0,
0,
0,
0,
0,
0,
0,
0,
0,
0,
0,
0,
0,
0,
0,
0,
0,
0,
0,
0,
0,
0,
0,
0,
0,
0,
0,
0,
0,
0,
0,
0,
0,
0,
0,
0,
0,
0,
0,
0,
0,
0,
0,
0,
0,
0,
0,
0,
0,
0,
0,
0,
0,
0,
0,
0,
0,
0,
0,
0,
0,
0,
0,
0,
0,
0,
0,
0,
0,
0,
0,
0,
0,
0,
0,
0,
0,
0,
0,
0,
0,
0,
0,
0,
0,
0,
0,
0,
0,
0,
0,
0,
0,
0,
0,
0,
0,
0,
0,
0,
0,
0,
0,
0,
0,
0,
0,
0,
0,
0,
0,
0,
0,
0,
0,
0,
0,
0,
0,
0,
0,
0,
0,
0,
0,
0,
0,
0,
0,
0,
0,
0,
0,
0,
0,
0,
0,
0,
0,
0,
0,
0,
0,
0,
0,
0,
0,
0,
0,
0,
0,
0,
0,
0,
0,
0,
0,
0,
0,
0,
0,
0,
0,
0,
0,
0,
0,
0,
0,
0,
0,
0,
0,
0,
0,
0,
0,
0,
0,
0,
0,
0,
0,
0,
0,
0,
0,
0,
0,
0,
0,
0,
0,
0,
0,
0,
0,
0,
0,
0,
0,
0,
0,
0,
0,
0,
0,
0,
0,
0,
0,
0,
0,
0,
0,
0,
0,
0,
0,
0,
0,
0,
0,
0,
0,
0,
0,
0,
0,
0,
0,
0,
0,
0,
0,
0,
0,
0,
0,
0,
0,
0,
0,
0,
0,
0,
0,
0,
0,
0,
0,
0,
0,
0,
0,
0,
0,
0,
0,
0,
0,
0,
0,
0,
#ENDOFDATA   :