File: N132962/Quantification/20 keV/Chucks Circular/CC Chuck's Circular Apatite[5][4].msa
#FORMAT      : EMSA/MAS Spectral Data File
#VERSION     : 1.0
#TITLE       : CC Chuck's Circular Apatite[5][all]
#DATE        : 09-SEP-2025
#TIME        : 11:54
#OWNER       : Unknown
#NPOINTS     : 4096
#NCOLUMNS    : 1
#XUNITS      : eV
#YUNITS      : counts
#DATATYPE    : Y
#XPERCHAN    : 9.99778
#OFFSET      : 1.69135
#BEAMKV      : 20
#SIGNALTYPE  : EDS
#ELEVANGLE   : 35
#AZIMANGLE   : 0
#LIVETIME    : 240.148
#REALTIME    : 259.368
#PROBECUR    : 1.24242
#TAUWIND     : 0
#TDEADLYR    : 0
#TACTLYR     : 0.045
#TALWIND     : 0.025
#CHOFFSET    : 0.0
#XLABEL      : Energy (eV)
#YLABEL      : Counts
#XPOSITION   : 11.38862
#YPOSITION   : -0.20034
#ZPOSITION   : 37.19848
#EDSDET      : SD
##SPECIMEN   : CC Chuck's Circular Apatite[5][all]
##DET_HASH   : 12273538-fd48-a23f-0a19-f1e6fa85caef
##CALIB_HASH : 6abaa72c-aa41-8738-0be9-f592914732f3
##WORKING    : 15.02 mm
##DET_NAME   : EDAX All
##DET_MODE   : MediumLE
#SPECTRUM    :
18,
32,
10,
32,
133,
455,
1178,
3210,
10280,
18384,
15879,
8639,
4634,
3273,
4095,
11009,
39359,
73145,
53952,
15156,
4017,
5601,
9996,
9203,
4666,
2949,
2891,
3331,
3680,
3827,
3730,
3704,
3746,
4187,
5098,
5394,
4857,
4526,
4644,
4923,
4936,
5319,
5848,
6001,
5862,
5712,
5523,
5618,
5775,
5927,
6055,
5967,
5915,
5955,
5985,
6129,
6979,
8147,
9079,
8615,
7889,
7474,
8337,
12422,
24279,
57885,
121928,
166837,
130164,
59891,
22726,
14082,
10818,
7308,
5170,
4903,
5528,
5722,
5107,
4307,
4079,
3960,
4179,
4168,
4277,
4825,
6083,
7473,
7108,
5671,
4409,
3973,
3978,
3964,
4114,
3915,
3768,
3642,
3492,
3577,
3656,
3672,
3544,
3543,
3472,
3518,
3514,
3617,
3587,
3403,
3495,
3413,
3346,
3208,
3303,
3447,
4086,
4839,
6490,
12966,
35712,
92387,
174463,
219078,
184007,
102812,
39817,
12370,
5048,
4217,
5488,
9515,
17653,
26244,
28996,
22979,
13138,
6202,
3232,
2427,
2343,
2265,
2230,
2104,
2085,
2124,
2154,
2032,
2088,
2057,
2197,
2219,
2147,
2292,
2464,
2542,
2513,
2322,
2185,
2234,
2378,
2537,
2468,
2349,
2169,
2024,
2096,
2114,
2142,
2167,
2072,
1946,
2025,
2068,
2225,
2168,
2153,
2074,
1961,
1927,
1852,
1765,
1822,
1767,
1753,
1790,
1842,
1872,
2065,
2121,
2176,
2082,
1950,
1839,
1736,
1665,
1640,
1617,
1595,
1620,
1636,
1668,
1620,
1592,
1611,
1478,
1498,
1469,
1510,
1466,
1539,
1543,
1551,
1553,
1571,
1503,
1472,
1445,
1353,
1383,
1316,
1337,
1387,
1318,
1350,
1269,
1353,
1275,
1316,
1263,
1267,
1236,
1231,
1258,
1215,
1192,
1184,
1191,
1261,
1196,
1177,
1183,
1146,
1237,
1322,
1375,
1430,
1415,
1360,
1317,
1230,
1181,
1168,
1150,
1051,
1029,
1098,
1089,
1125,
1083,
1078,
996,
1018,
1025,
1035,
957,
951,
962,
1027,
964,
961,
949,
954,
999,
976,
953,
936,
913,
871,
869,
924,
897,
850,
865,
912,
916,
827,
834,
832,
828,
857,
770,
882,
844,
809,
823,
818,
796,
817,
786,
798,
775,
779,
754,
834,
738,
732,
744,
762,
730,
729,
728,
730,
713,
659,
683,
687,
710,
710,
654,
708,
668,
653,
677,
625,
640,
655,
655,
679,
617,
630,
644,
605,
614,
579,
631,
615,
592,
566,
616,
613,
591,
595,
602,
590,
537,
566,
551,
605,
654,
624,
597,
584,
552,
552,
502,
510,
508,
517,
540,
531,
500,
517,
460,
499,
508,
468,
424,
470,
500,
467,
429,
422,
505,
497,
437,
453,
435,
447,
451,
417,
437,
416,
435,
435,
445,
397,
384,
424,
405,
390,
411,
377,
425,
380,
370,
364,
387,
395,
346,
373,
334,
379,
349,
348,
348,
353,
340,
351,
334,
300,
345,
333,
276,
298,
288,
327,
326,
315,
302,
327,
299,
260,
344,
276,
256,
262,
297,
266,
240,
273,
279,
270,
246,
283,
260,
229,
262,
223,
246,
251,
249,
244,
258,
244,
225,
216,
233,
204,
226,
197,
212,
235,
205,
225,
232,
185,
217,
204,
186,
198,
236,
200,
159,
184,
175,
200,
188,
181,
197,
187,
179,
182,
180,
181,
167,
165,
170,
169,
170,
152,
171,
137,
174,
174,
147,
147,
171,
149,
147,
157,
135,
136,
129,
159,
159,
136,
130,
137,
122,
128,
140,
131,
136,
132,
105,
103,
110,
121,
103,
95,
106,
104,
101,
97,
107,
104,
114,
109,
109,
104,
99,
103,
96,
99,
100,
95,
98,
88,
75,
93,
100,
76,
84,
62,
84,
70,
74,
89,
72,
69,
66,
73,
73,
64,
71,
68,
64,
54,
64,
58,
66,
52,
57,
53,
56,
63,
80,
62,
64,
56,
56,
66,
43,
53,
59,
57,
63,
42,
53,
52,
44,
48,
35,
38,
37,
42,
60,
49,
49,
36,
32,
41,
38,
36,
32,
33,
34,
35,
30,
40,
40,
40,
27,
28,
24,
27,
23,
25,
30,
24,
29,
22,
24,
18,
25,
25,
21,
32,
28,
21,
18,
20,
22,
20,
18,
21,
19,
23,
13,
21,
15,
15,
16,
15,
18,
14,
12,
16,
6,
8,
12,
8,
13,
10,
8,
7,
14,
10,
9,
8,
11,
12,
10,
3,
6,
4,
4,
6,
4,
7,
3,
4,
2,
4,
3,
1,
5,
2,
2,
3,
2,
2,
3,
1,
1,
0,
1,
1,
0,
0,
0,
1,
0,
1,
0,
0,
1,
0,
0,
2,
0,
0,
0,
0,
0,
0,
0,
0,
0,
0,
0,
0,
2,
1,
0,
0,
0,
1,
0,
0,
0,
0,
1,
0,
0,
0,
1,
1,
0,
1,
0,
0,
0,
1,
1,
1,
3,
0,
0,
0,
0,
0,
0,
0,
0,
0,
0,
0,
0,
0,
0,
0,
0,
0,
0,
0,
0,
0,
1,
0,
1,
0,
0,
0,
0,
0,
1,
1,
0,
0,
0,
0,
0,
0,
1,
1,
0,
0,
0,
1,
0,
1,
0,
0,
0,
0,
0,
0,
0,
1,
0,
0,
0,
0,
0,
0,
0,
0,
0,
0,
0,
0,
0,
0,
0,
0,
0,
0,
0,
0,
0,
0,
0,
0,
0,
0,
0,
0,
0,
0,
0,
1,
0,
0,
0,
0,
0,
0,
1,
0,
0,
0,
0,
0,
0,
0,
0,
0,
0,
0,
0,
0,
0,
0,
0,
0,
0,
0,
0,
0,
0,
0,
0,
0,
0,
0,
0,
0,
1,
0,
0,
0,
0,
0,
1,
0,
0,
0,
0,
0,
0,
0,
0,
0,
0,
0,
0,
0,
1,
0,
0,
0,
0,
0,
0,
0,
0,
0,
0,
0,
0,
0,
1,
0,
0,
0,
0,
0,
0,
0,
0,
0,
0,
0,
0,
0,
0,
0,
0,
0,
0,
0,
0,
0,
0,
0,
0,
0,
0,
0,
0,
0,
0,
0,
0,
0,
0,
0,
0,
0,
0,
0,
0,
0,
0,
0,
0,
1,
0,
0,
0,
0,
0,
0,
0,
0,
0,
0,
0,
0,
0,
0,
0,
0,
0,
0,
0,
0,
0,
0,
0,
0,
0,
0,
0,
0,
0,
0,
0,
0,
0,
0,
0,
0,
0,
0,
0,
0,
0,
0,
0,
0,
0,
0,
0,
0,
0,
0,
0,
0,
0,
0,
0,
0,
0,
0,
0,
0,
0,
0,
0,
0,
0,
0,
0,
0,
0,
0,
0,
0,
0,
0,
0,
0,
0,
0,
0,
0,
0,
0,
0,
0,
0,
0,
0,
0,
0,
0,
0,
0,
0,
0,
0,
0,
0,
0,
0,
0,
0,
0,
0,
0,
0,
0,
0,
0,
0,
0,
0,
0,
0,
0,
0,
0,
0,
0,
0,
0,
0,
0,
0,
0,
0,
0,
0,
0,
0,
0,
0,
0,
0,
0,
0,
0,
0,
0,
0,
0,
0,
0,
0,
0,
0,
0,
0,
0,
0,
0,
0,
0,
0,
0,
0,
0,
0,
0,
0,
0,
0,
0,
0,
0,
0,
0,
0,
0,
0,
0,
0,
0,
0,
0,
0,
0,
0,
0,
0,
0,
0,
0,
0,
0,
0,
0,
0,
0,
0,
0,
0,
0,
0,
0,
0,
0,
0,
0,
0,
0,
0,
0,
0,
0,
0,
0,
0,
0,
0,
0,
0,
0,
0,
0,
0,
0,
0,
0,
0,
0,
0,
0,
0,
0,
0,
0,
0,
0,
0,
0,
0,
0,
0,
0,
0,
0,
0,
0,
0,
0,
0,
0,
0,
0,
0,
0,
0,
0,
0,
0,
0,
0,
0,
0,
0,
0,
0,
0,
0,
0,
0,
0,
0,
0,
0,
0,
0,
0,
0,
0,
0,
0,
0,
0,
0,
0,
0,
0,
0,
0,
0,
0,
0,
0,
0,
0,
0,
0,
0,
0,
0,
0,
0,
0,
0,
0,
0,
0,
0,
0,
0,
0,
0,
0,
0,
0,
0,
0,
0,
0,
0,
0,
0,
0,
0,
0,
0,
0,
0,
0,
0,
0,
0,
0,
0,
0,
0,
0,
0,
0,
0,
0,
0,
0,
0,
0,
0,
0,
0,
0,
0,
0,
0,
0,
0,
0,
0,
0,
0,
0,
0,
0,
0,
0,
0,
0,
0,
0,
0,
0,
0,
0,
0,
0,
0,
0,
0,
0,
0,
0,
0,
0,
0,
0,
0,
0,
0,
0,
0,
0,
0,
0,
0,
0,
0,
0,
0,
0,
0,
0,
0,
0,
0,
0,
0,
0,
0,
0,
0,
0,
0,
0,
0,
0,
0,
0,
0,
0,
0,
0,
0,
0,
0,
0,
0,
0,
0,
0,
0,
0,
0,
0,
0,
0,
0,
0,
0,
0,
0,
0,
0,
0,
0,
0,
0,
0,
0,
0,
0,
0,
0,
0,
0,
0,
0,
0,
0,
#ENDOFDATA   :