File: N132962/Quantification/20 keV/Chucks Circular/CC Chuck's Circular Apatite[4][4].msa
#FORMAT      : EMSA/MAS Spectral Data File
#VERSION     : 1.0
#TITLE       : CC Chuck's Circular Apatite[4][all]
#DATE        : 09-SEP-2025
#TIME        : 11:53
#OWNER       : Unknown
#NPOINTS     : 4096
#NCOLUMNS    : 1
#XUNITS      : eV
#YUNITS      : counts
#DATATYPE    : Y
#XPERCHAN    : 9.99778
#OFFSET      : 1.69135
#BEAMKV      : 20
#SIGNALTYPE  : EDS
#ELEVANGLE   : 35
#AZIMANGLE   : 0
#LIVETIME    : 240.147
#REALTIME    : 259.363
#PROBECUR    : 1.24242
#TAUWIND     : 0
#TDEADLYR    : 0
#TACTLYR     : 0.045
#TALWIND     : 0.025
#CHOFFSET    : 0.0
#XLABEL      : Energy (eV)
#YLABEL      : Counts
#XPOSITION   : 11.29931
#YPOSITION   : -0.14478
#ZPOSITION   : 37.19848
#EDSDET      : SD
##SPECIMEN   : CC Chuck's Circular Apatite[4][all]
##DET_HASH   : 12273538-fd48-a23f-0a19-f1e6fa85caef
##CALIB_HASH : 6abaa72c-aa41-8738-0be9-f592914732f3
##WORKING    : 15.02 mm
##DET_NAME   : EDAX All
##DET_MODE   : MediumLE
#SPECTRUM    :
26,
32,
14,
21,
117,
457,
1126,
3165,
10078,
18339,
15735,
8568,
4633,
3311,
4054,
11139,
39244,
73594,
54361,
15386,
3866,
5645,
9736,
9093,
4827,
3054,
2818,
3208,
3617,
3713,
3684,
3674,
3881,
4400,
5040,
5346,
4956,
4590,
4509,
4895,
4937,
5352,
5657,
5813,
5876,
5720,
5604,
5618,
5743,
5837,
5901,
6006,
6030,
5908,
5990,
6190,
6873,
8070,
9169,
8801,
7676,
7426,
8480,
12353,
24335,
57717,
122295,
166500,
129940,
59744,
22487,
13802,
10591,
7290,
5293,
4917,
5398,
5613,
5104,
4518,
4086,
4009,
4003,
4127,
4240,
4725,
6013,
7280,
7176,
5768,
4371,
3936,
3893,
3946,
3955,
3911,
3807,
3535,
3773,
3667,
3665,
3641,
3433,
3537,
3610,
3560,
3563,
3619,
3472,
3584,
3344,
3327,
3273,
3353,
3352,
3581,
4073,
4757,
6757,
12824,
35427,
92505,
173312,
219029,
184115,
102908,
39792,
12387,
5047,
4153,
5457,
9624,
17425,
26196,
29032,
23074,
13235,
6206,
3289,
2477,
2325,
2292,
2212,
2113,
2069,
2117,
2077,
2060,
1973,
2230,
2178,
2210,
2186,
2361,
2414,
2549,
2459,
2220,
2153,
2204,
2454,
2551,
2469,
2291,
2075,
2048,
2068,
2158,
2186,
2210,
2071,
1940,
2044,
2054,
2183,
2247,
2050,
2086,
2025,
2066,
1807,
1924,
1920,
1811,
1747,
1788,
1848,
1835,
1952,
2040,
2270,
2035,
1906,
1853,
1783,
1655,
1673,
1561,
1606,
1604,
1680,
1595,
1625,
1611,
1598,
1592,
1459,
1431,
1497,
1532,
1469,
1556,
1573,
1593,
1553,
1549,
1443,
1478,
1437,
1348,
1386,
1371,
1304,
1317,
1357,
1364,
1273,
1272,
1230,
1317,
1309,
1308,
1273,
1177,
1324,
1271,
1255,
1131,
1160,
1209,
1141,
1183,
1210,
1131,
1279,
1315,
1491,
1399,
1389,
1273,
1313,
1172,
1188,
1109,
1036,
1069,
1073,
1087,
1132,
1008,
1082,
1014,
961,
964,
1042,
1038,
990,
997,
963,
989,
939,
923,
960,
955,
893,
984,
926,
961,
889,
897,
948,
933,
905,
848,
863,
870,
853,
808,
819,
840,
822,
848,
846,
800,
829,
840,
793,
790,
742,
807,
788,
751,
773,
808,
756,
704,
776,
759,
808,
695,
778,
722,
757,
723,
709,
686,
678,
702,
723,
700,
683,
646,
671,
693,
647,
648,
614,
677,
674,
598,
614,
669,
621,
623,
614,
613,
623,
578,
598,
631,
606,
555,
575,
573,
611,
579,
556,
546,
565,
575,
616,
598,
596,
590,
568,
556,
537,
551,
566,
496,
480,
486,
497,
469,
523,
448,
519,
433,
488,
464,
474,
495,
481,
469,
438,
490,
460,
477,
423,
462,
418,
396,
391,
395,
397,
410,
440,
422,
409,
412,
440,
422,
348,
432,
391,
366,
366,
380,
372,
350,
322,
385,
365,
369,
323,
340,
331,
333,
329,
341,
361,
337,
339,
296,
352,
317,
314,
307,
308,
302,
306,
316,
320,
320,
269,
309,
310,
265,
271,
267,
236,
246,
252,
279,
280,
251,
254,
261,
265,
233,
240,
241,
223,
219,
216,
255,
233,
237,
200,
221,
218,
238,
215,
214,
210,
233,
216,
205,
205,
193,
197,
202,
214,
198,
187,
190,
204,
202,
195,
195,
185,
190,
204,
186,
197,
159,
183,
169,
177,
159,
173,
167,
140,
151,
151,
139,
140,
143,
140,
154,
142,
159,
142,
126,
155,
119,
129,
134,
139,
137,
131,
119,
129,
118,
122,
123,
104,
107,
120,
105,
115,
98,
97,
111,
94,
92,
99,
96,
108,
103,
87,
110,
90,
102,
91,
101,
89,
79,
100,
92,
85,
82,
100,
75,
67,
77,
76,
62,
67,
59,
85,
66,
66,
67,
79,
73,
61,
56,
69,
66,
67,
74,
61,
60,
69,
62,
54,
45,
53,
50,
53,
61,
51,
49,
46,
45,
49,
51,
40,
56,
45,
42,
48,
51,
52,
37,
38,
36,
45,
41,
41,
30,
39,
42,
39,
35,
39,
43,
36,
48,
35,
37,
18,
31,
22,
29,
22,
31,
22,
20,
19,
20,
24,
22,
30,
21,
36,
30,
30,
14,
20,
30,
26,
19,
20,
22,
16,
17,
17,
16,
11,
13,
16,
22,
18,
15,
14,
11,
10,
18,
12,
13,
13,
10,
8,
12,
6,
11,
8,
5,
13,
7,
7,
9,
7,
12,
10,
8,
7,
8,
4,
6,
4,
1,
4,
2,
2,
3,
2,
2,
3,
1,
1,
1,
0,
0,
1,
3,
1,
2,
2,
2,
0,
0,
0,
0,
0,
1,
0,
0,
0,
1,
0,
0,
0,
0,
0,
0,
2,
0,
0,
1,
0,
0,
0,
0,
1,
1,
1,
0,
0,
0,
0,
0,
1,
0,
0,
1,
0,
0,
0,
0,
1,
1,
0,
0,
1,
0,
0,
1,
0,
0,
0,
0,
1,
0,
1,
1,
0,
0,
0,
0,
0,
0,
0,
0,
1,
0,
0,
0,
0,
1,
0,
0,
0,
0,
0,
0,
1,
0,
2,
0,
0,
0,
0,
0,
1,
0,
0,
0,
0,
0,
0,
0,
0,
1,
0,
0,
0,
0,
1,
0,
0,
0,
0,
0,
0,
0,
0,
0,
0,
0,
0,
0,
1,
0,
0,
0,
0,
0,
0,
0,
0,
0,
3,
0,
0,
0,
0,
0,
0,
0,
0,
0,
0,
0,
0,
0,
0,
0,
0,
0,
0,
0,
0,
0,
0,
0,
0,
0,
0,
0,
0,
0,
0,
0,
0,
0,
0,
0,
0,
0,
0,
0,
0,
0,
0,
0,
0,
0,
0,
0,
0,
0,
0,
0,
0,
0,
0,
0,
0,
0,
0,
0,
0,
0,
0,
0,
0,
0,
0,
0,
0,
0,
0,
0,
0,
0,
0,
0,
0,
0,
0,
0,
0,
1,
0,
0,
0,
0,
0,
0,
0,
0,
0,
0,
0,
0,
0,
0,
0,
0,
0,
0,
0,
0,
0,
0,
0,
0,
0,
0,
0,
0,
0,
0,
0,
0,
0,
0,
0,
0,
0,
0,
0,
0,
0,
0,
0,
0,
0,
0,
0,
0,
0,
0,
0,
0,
0,
0,
0,
0,
0,
0,
0,
0,
0,
0,
0,
0,
0,
0,
0,
0,
0,
0,
0,
0,
0,
0,
0,
0,
1,
0,
0,
0,
0,
0,
0,
0,
0,
0,
0,
0,
0,
0,
0,
0,
0,
0,
0,
0,
1,
0,
0,
0,
0,
0,
0,
0,
0,
0,
0,
0,
0,
0,
0,
0,
0,
0,
0,
0,
0,
0,
0,
0,
0,
0,
0,
0,
0,
0,
0,
0,
0,
0,
0,
0,
0,
0,
0,
0,
0,
0,
0,
0,
0,
0,
0,
0,
0,
0,
0,
0,
0,
0,
0,
0,
0,
0,
0,
0,
0,
0,
0,
0,
0,
0,
0,
0,
0,
0,
0,
0,
0,
0,
0,
0,
0,
0,
0,
0,
0,
0,
0,
0,
0,
0,
0,
0,
0,
0,
0,
0,
0,
0,
0,
0,
0,
0,
0,
0,
0,
0,
0,
0,
0,
0,
0,
0,
0,
0,
0,
0,
0,
0,
0,
0,
0,
0,
0,
0,
0,
0,
0,
0,
0,
0,
0,
0,
0,
0,
0,
0,
0,
0,
0,
0,
0,
0,
0,
0,
0,
0,
0,
0,
0,
0,
0,
0,
0,
0,
0,
0,
0,
0,
0,
0,
0,
0,
0,
0,
0,
0,
0,
0,
0,
0,
0,
0,
0,
0,
0,
0,
0,
0,
0,
0,
0,
0,
0,
0,
0,
0,
0,
0,
0,
0,
0,
0,
0,
0,
0,
0,
0,
0,
0,
0,
0,
0,
0,
0,
0,
0,
0,
0,
0,
0,
0,
0,
0,
0,
0,
0,
0,
0,
0,
0,
0,
0,
0,
0,
0,
0,
0,
0,
0,
0,
0,
0,
0,
0,
0,
0,
0,
0,
0,
0,
0,
0,
0,
0,
0,
0,
0,
0,
0,
0,
0,
0,
0,
0,
0,
0,
0,
0,
0,
0,
0,
0,
0,
0,
0,
0,
0,
0,
0,
0,
0,
0,
0,
0,
0,
0,
0,
0,
0,
0,
0,
0,
0,
0,
0,
0,
0,
0,
0,
0,
0,
0,
0,
0,
0,
0,
0,
0,
0,
0,
0,
0,
0,
0,
0,
0,
0,
0,
0,
0,
0,
0,
0,
0,
0,
0,
0,
0,
0,
0,
0,
0,
0,
0,
0,
0,
0,
0,
0,
0,
0,
0,
0,
0,
0,
0,
0,
0,
0,
0,
0,
0,
0,
0,
0,
0,
0,
0,
0,
0,
0,
0,
0,
0,
0,
0,
0,
0,
0,
0,
0,
0,
0,
0,
0,
0,
0,
0,
0,
0,
0,
0,
0,
0,
0,
0,
0,
0,
0,
0,
0,
0,
0,
0,
0,
0,
0,
0,
0,
0,
0,
0,
0,
0,
0,
0,
0,
0,
#ENDOFDATA   :