File: N132962/Quantification/20 keV/Chucks Circular/CC Marjabrite Olivine[4][4].msa
#FORMAT      : EMSA/MAS Spectral Data File
#VERSION     : 1.0
#TITLE       : CC Marjabrite Olivine[4][all]
#DATE        : 09-SEP-2025
#TIME        : 12:00
#OWNER       : Unknown
#NPOINTS     : 4096
#NCOLUMNS    : 1
#XUNITS      : eV
#YUNITS      : counts
#DATATYPE    : Y
#XPERCHAN    : 9.99778
#OFFSET      : 1.69135
#BEAMKV      : 20
#SIGNALTYPE  : EDS
#ELEVANGLE   : 35
#AZIMANGLE   : 0
#LIVETIME    : 240.163
#REALTIME    : 259.75
#PROBECUR    : 1.24242
#TAUWIND     : 0
#TDEADLYR    : 0
#TACTLYR     : 0.045
#TALWIND     : 0.025
#CHOFFSET    : 0.0
#XLABEL      : Energy (eV)
#YLABEL      : Counts
#XPOSITION   : 10.31712
#YPOSITION   : 6.26781
#ZPOSITION   : 37.19848
#EDSDET      : SD
##SPECIMEN   : CC Marjabrite Olivine[4][all]
##DET_HASH   : 12273538-fd48-a23f-0a19-f1e6fa85caef
##CALIB_HASH : 6abaa72c-aa41-8738-0be9-f592914732f3
##WORKING    : 15.02 mm
##DET_NAME   : EDAX All
##DET_MODE   : MediumLE
#SPECTRUM    :
28,
22,
9,
24,
90,
327,
803,
2013,
4415,
5686,
4077,
3211,
3822,
4877,
9545,
35296,
134231,
255164,
186170,
50217,
8060,
4430,
6090,
10357,
10197,
5744,
3501,
3181,
3179,
3365,
3327,
3586,
3861,
4294,
4826,
5356,
5496,
6244,
8396,
22176,
86670,
219325,
261531,
146148,
41514,
8823,
3888,
3416,
3486,
3754,
3877,
3992,
4105,
4160,
5330,
13225,
47754,
120276,
162528,
114498,
47899,
17037,
8277,
4584,
3055,
2870,
2824,
2692,
2793,
2759,
2875,
2885,
2867,
3006,
3261,
3444,
3470,
3150,
2952,
2884,
3043,
3049,
3194,
3330,
3331,
3070,
2951,
2799,
2890,
2863,
2828,
2827,
2982,
2806,
2824,
2862,
2899,
2800,
3074,
3219,
3277,
3148,
2852,
2689,
2701,
2637,
2609,
2544,
2686,
2577,
2627,
2617,
2468,
2493,
2527,
2584,
2625,
2617,
2425,
2405,
2382,
2410,
2321,
2440,
2395,
2290,
2292,
2249,
2206,
2280,
2158,
2240,
2164,
2225,
2178,
2114,
2142,
2028,
2096,
2078,
2049,
2020,
2022,
2050,
2040,
1912,
1986,
1990,
1934,
2041,
1997,
2066,
1918,
1914,
1881,
1868,
1850,
1822,
1783,
1815,
1780,
1768,
1790,
1758,
1784,
1752,
1683,
1698,
1708,
1662,
1751,
1685,
1603,
1602,
1582,
1555,
1602,
1540,
1594,
1622,
1596,
1586,
1556,
1545,
1509,
1480,
1454,
1435,
1438,
1431,
1445,
1404,
1503,
1511,
1558,
1828,
1953,
1995,
1809,
1581,
1479,
1360,
1328,
1303,
1279,
1338,
1409,
1358,
1898,
3001,
5835,
10961,
16950,
20326,
19268,
13937,
8352,
4275,
2133,
1433,
1237,
1209,
1126,
1112,
1116,
1088,
1083,
1121,
1099,
1187,
1320,
1482,
1829,
2610,
3212,
3550,
3271,
2665,
1942,
1282,
1080,
961,
885,
931,
932,
942,
910,
985,
1032,
940,
900,
913,
869,
875,
905,
920,
878,
886,
870,
873,
849,
769,
783,
780,
796,
834,
815,
755,
806,
780,
778,
784,
784,
802,
762,
778,
742,
745,
751,
733,
767,
691,
702,
730,
720,
661,
707,
681,
720,
697,
667,
647,
711,
605,
666,
644,
638,
633,
625,
634,
607,
627,
621,
587,
568,
610,
557,
601,
580,
594,
507,
547,
527,
565,
569,
560,
578,
597,
515,
573,
553,
520,
526,
518,
522,
533,
558,
511,
502,
519,
507,
484,
450,
451,
464,
482,
492,
499,
436,
444,
455,
472,
441,
431,
450,
447,
441,
464,
420,
447,
432,
436,
424,
438,
418,
435,
390,
393,
367,
410,
366,
357,
376,
404,
377,
387,
365,
366,
371,
368,
344,
375,
334,
373,
350,
327,
341,
331,
375,
358,
334,
314,
306,
324,
329,
322,
312,
325,
311,
323,
296,
286,
300,
294,
297,
269,
302,
311,
293,
297,
285,
274,
251,
274,
277,
236,
241,
280,
243,
262,
255,
244,
269,
258,
243,
228,
234,
256,
238,
237,
234,
223,
231,
222,
226,
219,
219,
213,
209,
219,
211,
194,
202,
203,
229,
193,
187,
157,
191,
188,
197,
192,
178,
187,
169,
166,
178,
206,
164,
191,
163,
169,
162,
155,
161,
164,
159,
137,
156,
157,
151,
139,
139,
132,
152,
130,
127,
140,
130,
141,
139,
140,
128,
133,
109,
108,
127,
137,
99,
139,
104,
134,
119,
126,
110,
105,
99,
127,
85,
111,
99,
109,
104,
87,
93,
97,
107,
93,
114,
101,
103,
104,
86,
97,
87,
90,
77,
82,
80,
94,
72,
78,
62,
98,
71,
69,
74,
77,
83,
78,
68,
64,
76,
58,
68,
60,
72,
79,
77,
61,
63,
51,
62,
77,
53,
61,
58,
58,
60,
59,
55,
53,
47,
59,
48,
44,
49,
47,
54,
45,
46,
42,
48,
52,
40,
35,
53,
36,
41,
45,
44,
54,
46,
40,
47,
46,
35,
32,
51,
22,
34,
33,
35,
29,
35,
34,
36,
25,
29,
27,
27,
33,
20,
20,
28,
17,
32,
21,
24,
25,
23,
22,
21,
22,
11,
22,
25,
25,
24,
27,
17,
24,
20,
30,
14,
18,
17,
19,
10,
11,
13,
10,
18,
16,
18,
14,
12,
14,
15,
14,
15,
13,
11,
11,
7,
8,
12,
12,
11,
11,
8,
12,
13,
8,
4,
7,
4,
10,
7,
5,
10,
6,
8,
2,
12,
7,
4,
2,
2,
6,
6,
3,
1,
3,
3,
3,
1,
2,
2,
1,
4,
4,
1,
1,
1,
1,
1,
2,
0,
0,
0,
0,
1,
0,
1,
0,
0,
0,
0,
0,
1,
1,
0,
0,
1,
0,
0,
1,
0,
0,
0,
0,
0,
0,
0,
0,
0,
0,
1,
0,
0,
0,
1,
0,
0,
0,
1,
0,
1,
0,
0,
0,
0,
0,
0,
0,
0,
0,
0,
0,
0,
0,
0,
0,
0,
0,
0,
0,
0,
0,
0,
0,
0,
0,
0,
0,
0,
0,
0,
0,
0,
0,
0,
0,
1,
0,
0,
0,
0,
0,
0,
0,
0,
0,
0,
0,
0,
0,
0,
0,
0,
0,
0,
0,
0,
0,
0,
0,
0,
0,
0,
0,
0,
0,
0,
0,
0,
0,
1,
0,
0,
0,
0,
0,
0,
0,
0,
0,
0,
0,
0,
0,
0,
0,
0,
0,
0,
0,
0,
0,
0,
0,
0,
0,
0,
0,
0,
0,
0,
0,
0,
0,
0,
0,
0,
0,
0,
0,
0,
0,
0,
0,
0,
0,
0,
0,
0,
0,
0,
0,
0,
0,
0,
0,
0,
0,
0,
0,
0,
0,
0,
0,
0,
0,
0,
0,
0,
0,
0,
0,
0,
0,
0,
0,
0,
0,
0,
0,
0,
0,
0,
0,
0,
0,
0,
0,
0,
0,
0,
0,
0,
0,
0,
0,
0,
0,
0,
0,
0,
0,
0,
0,
0,
0,
0,
0,
0,
0,
0,
0,
0,
0,
0,
0,
0,
0,
0,
0,
0,
0,
0,
0,
0,
0,
0,
0,
0,
0,
0,
0,
0,
0,
0,
0,
0,
0,
0,
0,
0,
0,
0,
0,
0,
0,
0,
0,
0,
0,
0,
0,
0,
0,
0,
0,
0,
0,
0,
0,
0,
0,
0,
0,
0,
0,
0,
0,
0,
0,
0,
0,
0,
0,
0,
0,
0,
0,
0,
0,
0,
0,
0,
0,
0,
0,
0,
0,
0,
0,
0,
0,
0,
0,
0,
0,
0,
0,
0,
0,
0,
0,
0,
0,
0,
0,
0,
0,
0,
0,
0,
0,
0,
0,
0,
0,
0,
0,
0,
0,
0,
0,
0,
0,
0,
0,
0,
0,
0,
0,
0,
0,
0,
0,
0,
0,
0,
0,
0,
0,
0,
0,
0,
0,
0,
0,
0,
0,
0,
0,
0,
0,
0,
0,
0,
0,
0,
0,
0,
0,
0,
0,
0,
0,
0,
0,
0,
0,
0,
0,
0,
0,
0,
0,
0,
0,
0,
0,
0,
0,
0,
0,
0,
0,
0,
0,
0,
0,
0,
0,
0,
0,
0,
0,
0,
0,
0,
0,
0,
0,
0,
0,
0,
0,
0,
0,
0,
0,
0,
0,
0,
0,
0,
0,
0,
0,
0,
0,
0,
0,
0,
0,
0,
0,
0,
0,
0,
0,
0,
0,
0,
0,
0,
0,
0,
0,
0,
0,
0,
0,
0,
0,
0,
0,
0,
0,
0,
0,
0,
0,
0,
0,
0,
0,
0,
0,
0,
0,
0,
0,
0,
0,
0,
0,
0,
0,
0,
0,
0,
0,
0,
0,
0,
0,
0,
0,
0,
0,
0,
0,
0,
0,
0,
0,
0,
0,
0,
0,
0,
0,
0,
0,
0,
0,
0,
0,
0,
0,
0,
0,
0,
0,
0,
0,
0,
0,
0,
0,
0,
0,
0,
0,
0,
0,
0,
0,
0,
0,
0,
0,
0,
0,
0,
0,
0,
0,
0,
0,
0,
0,
0,
0,
0,
0,
0,
0,
0,
0,
0,
0,
0,
0,
0,
0,
0,
0,
0,
0,
0,
0,
0,
0,
0,
0,
0,
0,
0,
0,
0,
0,
0,
0,
0,
0,
0,
0,
0,
0,
0,
0,
0,
0,
0,
0,
0,
0,
0,
0,
0,
0,
0,
0,
0,
0,
0,
0,
0,
0,
0,
0,
0,
0,
0,
0,
0,
0,
0,
0,
0,
0,
0,
0,
0,
0,
0,
0,
0,
0,
0,
0,
0,
0,
0,
0,
0,
0,
0,
0,
0,
0,
0,
0,
0,
0,
0,
0,
0,
0,
0,
0,
0,
0,
0,
0,
0,
0,
0,
0,
0,
0,
0,
0,
0,
0,
0,
0,
0,
0,
0,
0,
0,
0,
0,
0,
0,
0,
0,
0,
0,
0,
0,
0,
0,
0,
0,
0,
0,
0,
0,
0,
0,
0,
0,
0,
0,
0,
0,
0,
0,
0,
0,
0,
0,
0,
0,
0,
0,
0,
#ENDOFDATA   :