File: N132962/Quantification/20 keV/Chucks Circular/CC Marjabrite Olivine[0][4].msa
#FORMAT      : EMSA/MAS Spectral Data File
#VERSION     : 1.0
#TITLE       : CC Marjabrite Olivine[0][all]
#DATE        : 09-SEP-2025
#TIME        : 11:55
#OWNER       : Unknown
#NPOINTS     : 4096
#NCOLUMNS    : 1
#XUNITS      : eV
#YUNITS      : counts
#DATATYPE    : Y
#XPERCHAN    : 9.99778
#OFFSET      : 1.69135
#BEAMKV      : 20
#SIGNALTYPE  : EDS
#ELEVANGLE   : 35
#AZIMANGLE   : 0
#LIVETIME    : 240.119
#REALTIME    : 259.689
#PROBECUR    : 1.24242
#TAUWIND     : 0
#TDEADLYR    : 0
#TACTLYR     : 0.045
#TALWIND     : 0.025
#CHOFFSET    : 0.0
#XLABEL      : Energy (eV)
#YLABEL      : Counts
#XPOSITION   : 10.28713
#YPOSITION   : 6.33532
#ZPOSITION   : 37.19848
#EDSDET      : SD
##SPECIMEN   : CC Marjabrite Olivine[0][all]
##DET_HASH   : 12273538-fd48-a23f-0a19-f1e6fa85caef
##CALIB_HASH : 6abaa72c-aa41-8738-0be9-f592914732f3
##WORKING    : 15.02 mm
##DET_NAME   : EDAX All
##DET_MODE   : MediumLE
#SPECTRUM    :
20,
31,
10,
18,
89,
366,
864,
2100,
4465,
5664,
3937,
3108,
3823,
4908,
9569,
35302,
134176,
255154,
186647,
49732,
8039,
4411,
6229,
10475,
10197,
5735,
3510,
3099,
3127,
3323,
3270,
3534,
3795,
4372,
4816,
5220,
5457,
6300,
8420,
22239,
86582,
218231,
262507,
146962,
41215,
8775,
3799,
3297,
3451,
3617,
3974,
4048,
4139,
4307,
5284,
12844,
47792,
120484,
162811,
116058,
47548,
16946,
8242,
4662,
3159,
2802,
2797,
2759,
2674,
2759,
2762,
2813,
2860,
3058,
3316,
3457,
3453,
3121,
3030,
2888,
2969,
2947,
3142,
3249,
3307,
3095,
2995,
2843,
2826,
2793,
2875,
2787,
2814,
2762,
2712,
2862,
2824,
2873,
3028,
3214,
3287,
3107,
2824,
2688,
2749,
2663,
2575,
2571,
2499,
2600,
2585,
2565,
2545,
2479,
2498,
2688,
2624,
2551,
2443,
2388,
2410,
2493,
2440,
2567,
2393,
2331,
2265,
2238,
2260,
2209,
2140,
2220,
2230,
2235,
2175,
2104,
2213,
2113,
2011,
2152,
1990,
2053,
1996,
2034,
2018,
1895,
1963,
1965,
1975,
2065,
2024,
2000,
1894,
1930,
1964,
1897,
1873,
1810,
1861,
1783,
1801,
1762,
1781,
1705,
1721,
1726,
1747,
1651,
1727,
1568,
1679,
1581,
1643,
1551,
1583,
1495,
1530,
1573,
1591,
1554,
1649,
1652,
1547,
1515,
1526,
1446,
1442,
1466,
1431,
1399,
1446,
1433,
1394,
1475,
1626,
1725,
1923,
1957,
1800,
1591,
1397,
1362,
1324,
1336,
1343,
1333,
1364,
1458,
1874,
2963,
5964,
11185,
17018,
20282,
19219,
14263,
8187,
4225,
2126,
1457,
1230,
1111,
1196,
1118,
1151,
1143,
1102,
1088,
1107,
1225,
1311,
1507,
1867,
2536,
3153,
3445,
3216,
2618,
1846,
1278,
1049,
942,
931,
909,
905,
966,
898,
940,
946,
940,
1008,
985,
891,
892,
919,
845,
925,
893,
829,
856,
816,
793,
786,
762,
758,
830,
805,
828,
814,
785,
738,
814,
831,
769,
806,
789,
772,
759,
722,
736,
709,
729,
721,
685,
685,
708,
684,
658,
663,
680,
670,
653,
634,
657,
680,
655,
666,
693,
623,
652,
622,
617,
631,
604,
586,
607,
540,
562,
596,
576,
563,
622,
574,
561,
542,
607,
547,
539,
479,
526,
545,
562,
541,
519,
538,
499,
528,
506,
509,
479,
485,
508,
464,
499,
505,
505,
458,
433,
460,
450,
454,
456,
456,
463,
479,
449,
442,
480,
430,
437,
424,
394,
433,
429,
418,
367,
408,
389,
398,
424,
416,
407,
384,
365,
398,
339,
378,
348,
355,
350,
386,
373,
355,
341,
328,
348,
374,
355,
357,
317,
367,
331,
280,
350,
332,
330,
312,
337,
312,
304,
297,
288,
321,
312,
277,
275,
276,
300,
259,
275,
249,
258,
260,
278,
263,
275,
268,
293,
236,
262,
248,
246,
254,
223,
257,
236,
245,
221,
246,
225,
228,
209,
233,
244,
204,
235,
215,
227,
217,
196,
202,
202,
222,
217,
205,
207,
190,
190,
185,
198,
180,
190,
195,
175,
159,
179,
178,
186,
171,
162,
162,
160,
173,
193,
170,
164,
126,
163,
140,
148,
150,
147,
161,
173,
139,
152,
156,
144,
130,
141,
142,
150,
131,
127,
126,
134,
123,
130,
130,
121,
125,
94,
122,
102,
123,
109,
106,
115,
99,
124,
111,
98,
106,
88,
109,
86,
86,
105,
100,
102,
79,
102,
87,
81,
107,
110,
98,
103,
73,
67,
87,
80,
78,
73,
98,
88,
79,
73,
82,
86,
90,
90,
74,
64,
68,
63,
49,
74,
85,
78,
52,
60,
69,
76,
56,
60,
69,
65,
53,
50,
59,
46,
59,
46,
52,
49,
53,
66,
62,
38,
49,
42,
51,
42,
45,
38,
46,
53,
46,
44,
58,
45,
41,
44,
46,
39,
37,
28,
32,
43,
26,
34,
28,
26,
26,
31,
29,
39,
35,
29,
28,
31,
26,
26,
19,
28,
41,
25,
17,
27,
23,
30,
19,
20,
19,
12,
24,
15,
15,
15,
19,
27,
14,
19,
23,
21,
14,
19,
13,
24,
10,
12,
17,
22,
16,
11,
14,
8,
12,
15,
11,
10,
10,
9,
15,
6,
14,
3,
10,
9,
3,
9,
4,
8,
8,
10,
10,
7,
3,
10,
8,
6,
5,
3,
8,
6,
3,
5,
3,
2,
5,
2,
4,
4,
5,
2,
2,
4,
6,
0,
3,
1,
0,
2,
3,
0,
0,
2,
0,
0,
0,
0,
0,
0,
0,
1,
0,
0,
0,
0,
0,
0,
0,
0,
0,
0,
0,
0,
0,
0,
1,
1,
1,
1,
0,
0,
0,
0,
1,
0,
0,
0,
0,
0,
1,
1,
0,
0,
0,
0,
1,
1,
0,
1,
0,
0,
0,
1,
0,
0,
0,
0,
0,
1,
0,
0,
0,
0,
0,
0,
0,
1,
0,
0,
0,
0,
0,
0,
0,
0,
0,
0,
1,
0,
0,
1,
0,
0,
1,
0,
0,
0,
0,
0,
0,
0,
1,
0,
0,
0,
1,
0,
0,
0,
0,
0,
0,
0,
0,
0,
0,
0,
0,
0,
0,
0,
0,
0,
0,
0,
0,
0,
0,
0,
1,
0,
0,
0,
0,
0,
0,
0,
0,
0,
0,
0,
0,
0,
0,
0,
0,
0,
0,
0,
0,
0,
0,
0,
0,
0,
0,
0,
0,
1,
0,
0,
0,
0,
0,
0,
0,
0,
0,
0,
0,
0,
0,
1,
0,
0,
0,
0,
0,
0,
0,
0,
0,
0,
0,
0,
0,
0,
0,
0,
0,
0,
0,
0,
0,
0,
1,
0,
0,
0,
0,
0,
0,
0,
0,
0,
0,
0,
0,
0,
0,
0,
0,
0,
0,
0,
0,
0,
0,
0,
0,
0,
0,
0,
0,
0,
0,
0,
0,
0,
0,
0,
0,
0,
0,
0,
0,
0,
0,
0,
0,
0,
0,
0,
0,
0,
0,
0,
0,
0,
0,
0,
0,
0,
0,
0,
0,
0,
0,
0,
0,
0,
0,
0,
0,
0,
0,
0,
0,
0,
1,
0,
0,
0,
0,
0,
0,
0,
0,
0,
0,
0,
0,
0,
0,
0,
0,
0,
0,
0,
0,
0,
0,
0,
0,
0,
0,
0,
0,
0,
0,
0,
0,
0,
0,
0,
0,
0,
0,
0,
0,
0,
0,
0,
0,
0,
0,
0,
0,
0,
0,
0,
0,
0,
0,
0,
0,
0,
0,
0,
0,
0,
0,
0,
0,
0,
0,
0,
0,
0,
0,
0,
0,
0,
0,
0,
0,
0,
0,
0,
0,
0,
0,
0,
0,
0,
0,
0,
0,
0,
0,
0,
0,
0,
0,
0,
0,
0,
0,
0,
0,
0,
0,
0,
0,
0,
0,
0,
0,
0,
0,
0,
0,
0,
0,
0,
0,
0,
0,
0,
0,
0,
0,
0,
0,
0,
0,
0,
0,
0,
0,
0,
0,
0,
0,
0,
0,
0,
0,
0,
0,
0,
0,
0,
0,
0,
0,
0,
0,
0,
0,
0,
0,
0,
0,
0,
0,
0,
0,
0,
0,
0,
0,
0,
0,
0,
0,
0,
0,
0,
0,
0,
0,
0,
0,
0,
0,
0,
0,
0,
0,
0,
0,
0,
0,
0,
0,
0,
0,
0,
0,
0,
0,
0,
0,
0,
0,
0,
0,
0,
0,
0,
0,
0,
0,
0,
0,
0,
0,
0,
0,
0,
0,
0,
0,
0,
0,
0,
0,
0,
0,
0,
0,
0,
0,
0,
0,
0,
0,
0,
0,
0,
0,
0,
0,
0,
0,
0,
0,
0,
0,
0,
0,
0,
0,
0,
0,
0,
0,
0,
0,
0,
0,
0,
0,
0,
0,
0,
0,
0,
0,
0,
0,
0,
0,
0,
0,
0,
0,
0,
0,
0,
0,
0,
0,
0,
0,
0,
0,
0,
0,
0,
0,
0,
0,
0,
0,
0,
0,
0,
0,
0,
0,
0,
0,
0,
0,
0,
0,
0,
0,
0,
0,
0,
0,
0,
0,
0,
0,
0,
0,
0,
0,
0,
0,
0,
0,
0,
0,
0,
0,
0,
0,
0,
0,
0,
0,
0,
0,
0,
0,
0,
0,
0,
0,
0,
0,
0,
0,
0,
0,
0,
0,
0,
0,
0,
0,
0,
0,
0,
0,
0,
0,
0,
0,
0,
0,
0,
0,
0,
0,
0,
0,
0,
0,
0,
0,
0,
0,
0,
0,
0,
0,
0,
0,
0,
0,
0,
0,
0,
0,
0,
0,
0,
0,
0,
0,
0,
0,
0,
0,
0,
0,
0,
0,
0,
0,
0,
0,
0,
0,
0,
0,
0,
0,
0,
0,
0,
0,
0,
0,
0,
0,
0,
0,
0,
0,
0,
0,
0,
0,
0,
0,
0,
0,
0,
0,
0,
0,
0,
0,
0,
0,
0,
0,
0,
0,
0,
0,
0,
0,
0,
#ENDOFDATA   :