File: N132962/Quantification/20 keV/Chucks Circular/CC Shallowater Enstatite[5][4].msa
#FORMAT      : EMSA/MAS Spectral Data File
#VERSION     : 1.0
#TITLE       : CC Shallow Water Enstatite[5][all]
#DATE        : 09-SEP-2025
#TIME        : 12:08
#OWNER       : Unknown
#NPOINTS     : 4096
#NCOLUMNS    : 1
#XUNITS      : eV
#YUNITS      : counts
#DATATYPE    : Y
#XPERCHAN    : 9.99778
#OFFSET      : 1.69135
#BEAMKV      : 20
#SIGNALTYPE  : EDS
#ELEVANGLE   : 35
#AZIMANGLE   : 0
#LIVETIME    : 239.929
#REALTIME    : 260.193
#PROBECUR    : 1.24242
#TAUWIND     : 0
#TDEADLYR    : 0
#TACTLYR     : 0.045
#TALWIND     : 0.025
#CHOFFSET    : 0.0
#XLABEL      : Energy (eV)
#YLABEL      : Counts
#XPOSITION   : 10.58865
#YPOSITION   : 8.34719
#ZPOSITION   : 37.19848
#EDSDET      : SD
##SPECIMEN   : CC Shallow Water Enstatite[5][all]
##DET_HASH   : 12273538-fd48-a23f-0a19-f1e6fa85caef
##CALIB_HASH : 6abaa72c-aa41-8738-0be9-f592914732f3
##WORKING    : 15.02 mm
##DET_NAME   : EDAX All
##DET_MODE   : MediumLE
#SPECTRUM    :
32,
22,
8,
22,
80,
330,
780,
1888,
4260,
5379,
3729,
2918,
3403,
4648,
8946,
34972,
135113,
258823,
187134,
49414,
6002,
2083,
2113,
2337,
2530,
2567,
2790,
3048,
3204,
3392,
3567,
3772,
4080,
4573,
5150,
5551,
5725,
6472,
8432,
21184,
82113,
205354,
247260,
137911,
39145,
8590,
4139,
3847,
4025,
4589,
4773,
4665,
4633,
4927,
6424,
18803,
75409,
193313,
262745,
186253,
74409,
24904,
11078,
5334,
3152,
2523,
2362,
2439,
2514,
2435,
2507,
2522,
2619,
2713,
3192,
3456,
3505,
2921,
2753,
2567,
2692,
2629,
2852,
2957,
3045,
2750,
2635,
2663,
2571,
2562,
2675,
2573,
2503,
2447,
2526,
2467,
2682,
2588,
3055,
3242,
3405,
3198,
2785,
2587,
2507,
2465,
2571,
2435,
2372,
2267,
2292,
2319,
2332,
2323,
2455,
2503,
2530,
2537,
2379,
2257,
2327,
2375,
2414,
2548,
2338,
2274,
2071,
2064,
2076,
2024,
1974,
1986,
2082,
1975,
1961,
2002,
1981,
1890,
1928,
1907,
1859,
1896,
1819,
1785,
1882,
1756,
1754,
1779,
1854,
1834,
1835,
1815,
1846,
1641,
1682,
1634,
1667,
1587,
1622,
1708,
1565,
1530,
1647,
1620,
1504,
1552,
1585,
1460,
1522,
1419,
1514,
1465,
1457,
1498,
1479,
1405,
1404,
1315,
1366,
1347,
1341,
1353,
1354,
1290,
1355,
1300,
1342,
1254,
1273,
1283,
1283,
1214,
1259,
1231,
1240,
1226,
1226,
1216,
1172,
1180,
1159,
1111,
1181,
1117,
1232,
1148,
1129,
1126,
1053,
1139,
1128,
1157,
1112,
1161,
1102,
1091,
1049,
1017,
1045,
1046,
1056,
983,
1076,
997,
1032,
984,
939,
967,
963,
997,
979,
909,
950,
933,
876,
967,
939,
905,
854,
941,
848,
906,
792,
827,
812,
877,
787,
879,
863,
896,
875,
810,
801,
821,
775,
800,
760,
797,
785,
743,
742,
764,
738,
810,
713,
718,
670,
665,
685,
648,
699,
679,
749,
683,
734,
640,
656,
658,
685,
657,
650,
682,
645,
656,
610,
637,
616,
617,
594,
639,
617,
583,
554,
594,
622,
593,
637,
603,
569,
585,
578,
567,
532,
556,
576,
520,
540,
525,
502,
517,
556,
581,
511,
491,
521,
501,
517,
499,
472,
467,
505,
469,
494,
530,
473,
451,
447,
445,
439,
462,
447,
431,
448,
415,
425,
429,
396,
408,
435,
426,
384,
406,
408,
393,
418,
414,
439,
375,
393,
354,
351,
340,
391,
369,
342,
348,
321,
345,
337,
315,
325,
330,
348,
309,
313,
328,
347,
340,
356,
328,
341,
329,
335,
309,
319,
298,
315,
314,
294,
289,
315,
304,
294,
263,
280,
280,
288,
252,
281,
262,
289,
244,
296,
259,
266,
296,
246,
234,
215,
250,
265,
225,
227,
257,
228,
245,
252,
220,
227,
228,
251,
216,
225,
215,
208,
212,
219,
212,
188,
207,
195,
187,
199,
213,
197,
211,
169,
194,
175,
194,
188,
167,
160,
165,
162,
178,
184,
161,
201,
164,
159,
171,
150,
154,
149,
176,
166,
144,
166,
152,
166,
152,
150,
143,
168,
134,
128,
131,
146,
149,
146,
124,
121,
123,
149,
129,
119,
126,
135,
116,
110,
123,
104,
120,
119,
113,
92,
98,
112,
116,
93,
104,
101,
117,
109,
123,
108,
99,
106,
87,
93,
107,
92,
70,
71,
89,
95,
94,
72,
84,
93,
85,
71,
68,
80,
74,
76,
78,
74,
70,
81,
75,
69,
66,
71,
77,
70,
58,
64,
63,
55,
54,
54,
67,
69,
64,
48,
59,
61,
55,
54,
66,
50,
50,
46,
55,
62,
48,
54,
53,
65,
45,
48,
44,
39,
36,
47,
54,
32,
37,
42,
31,
46,
33,
25,
26,
35,
33,
23,
46,
43,
30,
28,
41,
36,
28,
31,
28,
34,
29,
36,
23,
38,
42,
29,
31,
30,
30,
22,
29,
20,
24,
20,
24,
31,
25,
17,
17,
22,
14,
39,
16,
16,
15,
29,
23,
14,
20,
16,
11,
14,
18,
19,
13,
17,
11,
11,
11,
20,
14,
13,
12,
14,
15,
13,
13,
14,
15,
10,
12,
3,
13,
19,
14,
8,
7,
8,
9,
9,
7,
5,
5,
14,
11,
11,
10,
4,
5,
3,
4,
8,
4,
6,
6,
5,
4,
2,
5,
3,
5,
3,
2,
4,
2,
0,
1,
2,
5,
2,
1,
1,
1,
2,
2,
1,
1,
1,
0,
0,
0,
0,
0,
0,
0,
0,
0,
1,
0,
0,
0,
0,
0,
2,
2,
1,
0,
0,
0,
0,
1,
0,
0,
0,
0,
0,
0,
1,
0,
0,
0,
0,
0,
0,
0,
1,
0,
0,
0,
1,
0,
0,
0,
0,
0,
0,
0,
0,
0,
0,
0,
0,
0,
0,
0,
0,
0,
0,
0,
0,
0,
0,
0,
1,
0,
0,
0,
0,
0,
0,
0,
0,
0,
0,
0,
1,
1,
0,
0,
0,
0,
0,
0,
0,
0,
0,
0,
0,
0,
0,
0,
0,
0,
0,
0,
0,
0,
0,
0,
0,
0,
0,
0,
0,
0,
0,
0,
0,
0,
0,
0,
0,
0,
0,
0,
0,
0,
0,
0,
1,
0,
0,
0,
0,
0,
0,
0,
0,
0,
0,
0,
0,
0,
0,
0,
0,
0,
0,
0,
0,
0,
0,
0,
0,
0,
0,
0,
0,
0,
0,
0,
0,
0,
0,
0,
0,
0,
0,
0,
0,
0,
0,
0,
0,
0,
0,
0,
0,
0,
0,
0,
0,
0,
0,
0,
0,
0,
0,
0,
0,
0,
0,
0,
0,
0,
0,
0,
0,
0,
0,
0,
0,
0,
0,
0,
0,
0,
0,
0,
0,
0,
0,
0,
0,
0,
0,
0,
0,
0,
0,
0,
0,
0,
0,
0,
0,
0,
0,
0,
0,
0,
0,
0,
0,
0,
0,
0,
0,
0,
0,
0,
0,
0,
0,
0,
0,
0,
0,
0,
0,
0,
0,
0,
0,
0,
0,
0,
0,
0,
1,
0,
0,
0,
0,
0,
0,
0,
0,
0,
0,
0,
0,
0,
0,
0,
0,
0,
0,
0,
0,
0,
0,
0,
0,
0,
0,
0,
0,
0,
0,
0,
0,
0,
0,
0,
0,
0,
0,
0,
0,
0,
0,
0,
0,
0,
0,
0,
0,
0,
0,
0,
0,
0,
0,
0,
0,
0,
0,
0,
0,
0,
0,
0,
0,
0,
0,
0,
0,
0,
0,
0,
0,
0,
0,
0,
0,
0,
0,
0,
0,
0,
0,
0,
0,
0,
0,
0,
0,
0,
0,
0,
0,
0,
0,
0,
0,
0,
0,
0,
0,
0,
0,
0,
0,
0,
0,
0,
0,
0,
0,
0,
0,
0,
0,
0,
0,
0,
0,
0,
0,
0,
0,
0,
0,
0,
0,
0,
0,
0,
0,
0,
0,
0,
0,
0,
0,
0,
0,
0,
0,
0,
0,
0,
0,
0,
0,
0,
0,
0,
0,
0,
0,
0,
0,
0,
0,
0,
0,
0,
0,
0,
0,
0,
0,
0,
0,
0,
0,
0,
0,
0,
0,
0,
0,
0,
0,
0,
0,
0,
0,
0,
0,
0,
0,
0,
0,
0,
0,
0,
0,
0,
0,
0,
0,
0,
0,
0,
0,
0,
0,
0,
0,
0,
0,
0,
0,
0,
0,
0,
0,
0,
0,
0,
0,
0,
0,
0,
0,
0,
0,
0,
0,
0,
0,
0,
0,
0,
0,
0,
0,
0,
0,
0,
0,
0,
0,
0,
0,
0,
0,
0,
0,
0,
0,
0,
0,
0,
0,
0,
0,
0,
0,
0,
0,
0,
0,
0,
0,
0,
0,
0,
0,
0,
0,
0,
0,
0,
0,
0,
0,
0,
0,
0,
0,
0,
0,
0,
0,
0,
0,
0,
0,
0,
0,
0,
0,
0,
0,
0,
0,
0,
0,
0,
0,
0,
0,
0,
0,
0,
0,
0,
0,
0,
0,
0,
0,
0,
0,
0,
0,
0,
0,
0,
0,
0,
0,
0,
0,
0,
0,
0,
0,
0,
0,
0,
0,
0,
0,
0,
0,
0,
0,
0,
0,
0,
0,
0,
0,
0,
0,
0,
0,
0,
0,
0,
0,
0,
0,
0,
0,
0,
0,
0,
0,
0,
0,
0,
0,
0,
0,
0,
0,
0,
0,
0,
0,
0,
0,
0,
0,
0,
0,
0,
0,
0,
0,
0,
0,
0,
0,
0,
0,
0,
0,
0,
0,
0,
0,
0,
0,
0,
0,
0,
0,
0,
0,
0,
0,
0,
0,
0,
0,
0,
0,
0,
0,
0,
0,
0,
0,
0,
0,
0,
0,
0,
0,
0,
0,
0,
0,
0,
0,
0,
0,
0,
0,
0,
0,
0,
0,
0,
0,
0,
0,
0,
0,
0,
0,
0,
0,
0,
0,
0,
0,
0,
0,
0,
#ENDOFDATA   :