File: N132962/Quantification/15 keV/GMIIIA/GMIIIA K309[2][4].msa
#FORMAT      : EMSA/MAS Spectral Data File
#VERSION     : 1.0
#TITLE       : GMIIIA K309[2][all]
#DATE        : 22-SEP-2025
#TIME        : 15:22
#OWNER       : Unknown
#NPOINTS     : 4096
#NCOLUMNS    : 1
#XUNITS      : eV
#YUNITS      : counts
#DATATYPE    : Y
#XPERCHAN    : 9.99778
#OFFSET      : 1.69135
#BEAMKV      : 15
#SIGNALTYPE  : EDS
#ELEVANGLE   : 35
#AZIMANGLE   : 0
#LIVETIME    : 239.968
#REALTIME    : 255.593
#PROBECUR    : 1.21681
#TAUWIND     : 0
#TDEADLYR    : 0
#TACTLYR     : 0.045
#TALWIND     : 0.025
#CHOFFSET    : 0.0
#XLABEL      : Energy (eV)
#YLABEL      : Counts
#XPOSITION   : 12.52381
#YPOSITION   : 3.83348
#ZPOSITION   : 37.36299
#EDSDET      : SD
##SPECIMEN   : GMIIIA K309[2][all]
##D2STDCMP   : K309,(O:38.72),(Al:7.94),(Si:18.7),(Ca:10.72),(Fe:10.49),(Ba:13.43)
##DET_HASH   : 12273538-fd48-a23f-0a19-f1e6fa85caef
##CALIB_HASH : 6abaa72c-aa41-8738-0be9-f592914732f3
##WORKING    : 15.0 mm
##DET_NAME   : EDAX All
##DET_MODE   : MediumLE
#SPECTRUM    :
16,
33,
13,
21,
82,
446,
1197,
3100,
6966,
10543,
9098,
6826,
6023,
6124,
9326,
28776,
103373,
194507,
142260,
40728,
10527,
7425,
9815,
15644,
15039,
9071,
6369,
5330,
4286,
4068,
4012,
4447,
4882,
5321,
5654,
5810,
5183,
4858,
4802,
4940,
4976,
4992,
5161,
5213,
5474,
5719,
6480,
11779,
31323,
59560,
60607,
33288,
13222,
7376,
6816,
12785,
42454,
105609,
142835,
102069,
42791,
15793,
8377,
5353,
4352,
4015,
3931,
3878,
3622,
3634,
3504,
3471,
3521,
3653,
3675,
3879,
3851,
3847,
3568,
3380,
3404,
3376,
3245,
3246,
3247,
3194,
3236,
3144,
3204,
3134,
3279,
3070,
3060,
3097,
3002,
2939,
3011,
3014,
2926,
2855,
2970,
2887,
2941,
2871,
2808,
2819,
2917,
2796,
2760,
2739,
2722,
2593,
2670,
2569,
2680,
2679,
2731,
2925,
3060,
4045,
7778,
17399,
30616,
38278,
32486,
18981,
8515,
3795,
2609,
2548,
2863,
3850,
5000,
6253,
6572,
5615,
3966,
2689,
2185,
2080,
2082,
1994,
2108,
2113,
2310,
2912,
4697,
8121,
11860,
13327,
11252,
7142,
3993,
2444,
1960,
1833,
1930,
2089,
2780,
4289,
6039,
7145,
6497,
5219,
3743,
2904,
2344,
2050,
2058,
2085,
2541,
3074,
3451,
3170,
2511,
1975,
1668,
1518,
1466,
1480,
1511,
1597,
1747,
1932,
2101,
2063,
1804,
1596,
1452,
1370,
1454,
1412,
1515,
1492,
1500,
1422,
1392,
1299,
1265,
1290,
1195,
1218,
1239,
1157,
1162,
1204,
1173,
1246,
1407,
2044,
3501,
6091,
9368,
11068,
10533,
7775,
4727,
2642,
1565,
1136,
1127,
991,
1032,
958,
1000,
1064,
988,
974,
991,
1002,
1143,
1093,
1401,
1732,
2060,
2308,
2075,
1690,
1324,
1073,
967,
852,
839,
790,
828,
821,
819,
828,
818,
825,
840,
802,
791,
736,
737,
713,
717,
721,
697,
761,
738,
703,
706,
711,
640,
714,
711,
704,
709,
696,
707,
689,
647,
670,
657,
699,
612,
630,
591,
601,
578,
626,
602,
599,
591,
638,
567,
580,
583,
583,
573,
585,
577,
553,
527,
537,
519,
530,
522,
507,
516,
465,
528,
487,
504,
490,
503,
492,
466,
467,
451,
466,
439,
445,
494,
425,
494,
442,
451,
437,
448,
434,
413,
396,
431,
408,
377,
394,
421,
403,
408,
384,
397,
372,
373,
393,
426,
355,
386,
372,
362,
361,
346,
324,
340,
331,
356,
304,
330,
333,
305,
325,
302,
280,
299,
281,
298,
305,
331,
291,
282,
288,
277,
243,
274,
291,
239,
227,
262,
273,
246,
263,
246,
239,
212,
251,
250,
224,
260,
261,
220,
221,
236,
216,
200,
231,
184,
185,
209,
207,
184,
190,
187,
188,
190,
161,
189,
173,
169,
190,
148,
160,
161,
156,
163,
166,
148,
152,
147,
148,
137,
137,
145,
137,
126,
111,
110,
135,
135,
112,
136,
132,
121,
123,
112,
116,
116,
104,
96,
95,
105,
100,
109,
101,
110,
73,
82,
89,
84,
90,
80,
71,
63,
76,
75,
61,
73,
82,
66,
80,
89,
56,
73,
60,
61,
70,
51,
61,
47,
58,
51,
62,
44,
34,
44,
39,
40,
38,
48,
44,
35,
37,
35,
30,
15,
28,
29,
27,
25,
28,
26,
23,
23,
22,
18,
14,
12,
17,
15,
8,
9,
8,
6,
12,
6,
7,
6,
5,
3,
6,
3,
1,
0,
2,
1,
1,
1,
0,
1,
1,
1,
1,
2,
0,
1,
1,
1,
0,
2,
0,
0,
0,
0,
1,
0,
0,
0,
2,
1,
0,
1,
0,
0,
2,
0,
0,
0,
0,
0,
0,
0,
0,
2,
0,
0,
0,
0,
0,
0,
1,
0,
1,
0,
0,
0,
0,
1,
0,
1,
0,
0,
0,
0,
1,
1,
0,
0,
0,
1,
0,
1,
0,
1,
1,
0,
1,
0,
0,
0,
0,
0,
0,
1,
0,
0,
0,
0,
1,
0,
0,
1,
0,
0,
0,
0,
0,
0,
0,
0,
0,
0,
0,
1,
0,
0,
1,
1,
0,
0,
1,
0,
0,
0,
0,
0,
0,
0,
0,
0,
1,
0,
0,
0,
0,
0,
0,
0,
0,
0,
0,
0,
0,
0,
0,
0,
0,
0,
1,
0,
0,
0,
0,
0,
0,
0,
0,
1,
0,
0,
0,
1,
0,
0,
0,
0,
0,
0,
0,
0,
0,
0,
0,
0,
1,
0,
1,
0,
0,
0,
0,
1,
1,
0,
0,
0,
0,
0,
0,
0,
0,
0,
0,
0,
0,
0,
0,
0,
0,
0,
0,
0,
0,
0,
0,
0,
0,
0,
0,
0,
0,
0,
0,
0,
0,
0,
0,
0,
0,
0,
0,
0,
0,
0,
0,
0,
0,
0,
0,
0,
0,
0,
0,
0,
0,
0,
0,
0,
0,
0,
0,
0,
0,
0,
0,
0,
0,
0,
0,
0,
0,
0,
0,
0,
0,
0,
0,
0,
0,
0,
0,
0,
0,
0,
0,
0,
0,
0,
0,
0,
0,
0,
0,
0,
0,
0,
0,
0,
0,
0,
0,
0,
0,
0,
0,
0,
0,
0,
0,
0,
0,
0,
0,
0,
0,
0,
0,
0,
0,
0,
0,
0,
0,
0,
0,
0,
0,
0,
0,
0,
0,
0,
0,
0,
0,
0,
0,
0,
0,
0,
0,
0,
0,
0,
0,
0,
0,
0,
0,
0,
0,
0,
0,
0,
0,
0,
0,
0,
0,
0,
0,
0,
0,
0,
0,
0,
0,
0,
0,
0,
0,
0,
0,
0,
0,
0,
0,
0,
0,
0,
0,
0,
0,
0,
0,
0,
0,
0,
0,
0,
0,
0,
0,
0,
0,
0,
0,
0,
0,
0,
0,
0,
0,
0,
0,
0,
0,
0,
0,
0,
0,
0,
0,
0,
0,
0,
0,
0,
0,
0,
0,
0,
0,
0,
0,
0,
0,
0,
0,
0,
0,
0,
0,
0,
0,
0,
0,
0,
0,
0,
0,
0,
0,
0,
0,
0,
0,
0,
0,
0,
0,
0,
0,
0,
0,
0,
0,
0,
0,
0,
0,
0,
0,
0,
0,
0,
0,
0,
0,
0,
0,
0,
0,
0,
0,
0,
0,
0,
0,
0,
0,
0,
0,
0,
0,
0,
0,
0,
0,
0,
0,
0,
0,
0,
0,
0,
0,
0,
0,
0,
0,
0,
0,
0,
0,
0,
0,
0,
0,
0,
0,
0,
0,
0,
0,
0,
0,
0,
0,
0,
0,
0,
0,
0,
0,
0,
0,
0,
0,
0,
0,
0,
0,
0,
0,
0,
0,
0,
0,
0,
0,
0,
0,
0,
0,
0,
0,
0,
0,
0,
0,
0,
0,
0,
0,
0,
0,
0,
0,
0,
0,
0,
0,
0,
0,
0,
0,
0,
0,
0,
0,
0,
0,
0,
0,
0,
0,
0,
0,
0,
0,
0,
0,
0,
0,
0,
0,
0,
0,
0,
0,
0,
0,
0,
0,
0,
0,
0,
0,
0,
0,
0,
0,
0,
0,
0,
0,
0,
0,
0,
0,
0,
0,
0,
0,
0,
0,
0,
0,
0,
0,
0,
0,
0,
0,
0,
0,
0,
0,
0,
0,
0,
0,
0,
0,
0,
0,
0,
0,
0,
0,
0,
0,
0,
0,
0,
0,
0,
0,
0,
0,
0,
0,
0,
0,
0,
0,
0,
0,
0,
0,
0,
0,
0,
0,
0,
0,
0,
0,
0,
0,
0,
0,
0,
0,
0,
0,
0,
0,
0,
0,
0,
0,
0,
0,
0,
0,
0,
0,
0,
0,
0,
0,
0,
0,
0,
0,
0,
0,
0,
0,
0,
0,
0,
0,
0,
0,
0,
0,
0,
0,
0,
0,
0,
0,
0,
0,
0,
0,
0,
0,
0,
0,
0,
0,
0,
0,
0,
0,
0,
0,
0,
0,
0,
0,
0,
0,
0,
0,
0,
0,
0,
0,
0,
0,
0,
0,
0,
0,
0,
0,
0,
0,
0,
0,
0,
0,
0,
0,
0,
0,
0,
0,
0,
0,
0,
0,
0,
0,
0,
0,
0,
0,
0,
0,
0,
0,
0,
0,
0,
0,
0,
0,
0,
0,
0,
0,
0,
0,
0,
0,
0,
0,
0,
0,
0,
0,
0,
0,
0,
0,
0,
0,
0,
0,
0,
0,
0,
0,
0,
0,
0,
0,
0,
0,
0,
0,
0,
0,
0,
0,
0,
0,
0,
0,
0,
0,
0,
0,
0,
0,
0,
0,
0,
0,
0,
0,
0,
0,
0,
0,
0,
0,
0,
0,
0,
0,
0,
0,
0,
0,
0,
0,
0,
0,
0,
0,
0,
0,
0,
0,
0,
0,
0,
0,
0,
0,
0,
0,
0,
0,
0,
0,
0,
0,
0,
0,
0,
0,
0,
0,
0,
0,
0,
0,
0,
0,
0,
0,
0,
0,
0,
0,
0,
0,
0,
0,
#ENDOFDATA   :