File: N132962/Quantification/15 keV/GMIIIA/GMIIIA K1012[2][4].msa
#FORMAT      : EMSA/MAS Spectral Data File
#VERSION     : 1.0
#TITLE       : GMIIIA K1012[2][all]
#DATE        : 22-SEP-2025
#TIME        : 21:23
#OWNER       : Unknown
#NPOINTS     : 4096
#NCOLUMNS    : 1
#XUNITS      : eV
#YUNITS      : counts
#DATATYPE    : Y
#XPERCHAN    : 9.99778
#OFFSET      : 1.69135
#BEAMKV      : 15
#SIGNALTYPE  : EDS
#ELEVANGLE   : 35
#AZIMANGLE   : 0
#LIVETIME    : 239.929
#REALTIME    : 256.6039
#PROBECUR    : 1.21822
#TAUWIND     : 0
#TDEADLYR    : 0
#TACTLYR     : 0.045
#TALWIND     : 0.025
#CHOFFSET    : 0.0
#XLABEL      : Energy (eV)
#YLABEL      : Counts
#XPOSITION   : 6.80631
#YPOSITION   : 15.45149
#ZPOSITION   : 37.36299
#EDSDET      : SD
##SPECIMEN   : GMIIIA K1012[2][all]
##D2STDCMP   : K1012,(O:39.34),(Na:1.48),(Mg:9.05),(Al:7.94),(Si:18.7),(P:0.63),(K:1.66),(Ca:0.4),(Ga:1.49),(Se:0.71),(In:1.65),(Cs:1.89),(Ba:13.43),(Ce:1.63)
##DET_HASH   : 12273538-fd48-a23f-0a19-f1e6fa85caef
##CALIB_HASH : 6abaa72c-aa41-8738-0be9-f592914732f3
##WORKING    : 15.0 mm
##DET_NAME   : EDAX All
##DET_MODE   : MediumLE
#SPECTRUM    :
26,
20,
18,
32,
86,
403,
1135,
2976,
6426,
8165,
5906,
4965,
5783,
6692,
10934,
35595,
129537,
245785,
178800,
49128,
9003,
4722,
4671,
4736,
4660,
5430,
5870,
5655,
5104,
5285,
5468,
5706,
6907,
9627,
15388,
17917,
15381,
12748,
9907,
10269,
24679,
55846,
66047,
39200,
13989,
6417,
6125,
10775,
28874,
56421,
57111,
30989,
12538,
6828,
6281,
12478,
43108,
107773,
145208,
103231,
42817,
15927,
8196,
5147,
4043,
4255,
5568,
6464,
5761,
4273,
3436,
3378,
3414,
3345,
3512,
3716,
3586,
3443,
3348,
3191,
3028,
3132,
3084,
3097,
3027,
3049,
3049,
2969,
2997,
3030,
2972,
2990,
2984,
2849,
3024,
2931,
2906,
2970,
2824,
2838,
2878,
2853,
2754,
2687,
2647,
2721,
3021,
3679,
5787,
8927,
11115,
10513,
7295,
4384,
3434,
3237,
3549,
3573,
3614,
3442,
3534,
3528,
3722,
3974,
3773,
3140,
2573,
2355,
2227,
2306,
2451,
2526,
2577,
2529,
2370,
2179,
2065,
2122,
2007,
2135,
2458,
3050,
3470,
3868,
3558,
3542,
4637,
7470,
10780,
12180,
10053,
6811,
4068,
2904,
2609,
2592,
2399,
2549,
3065,
4550,
6623,
7424,
7048,
5559,
4083,
3056,
2471,
2087,
1826,
1956,
2395,
2853,
3178,
3002,
2622,
2456,
2182,
1855,
1716,
1578,
1504,
1472,
1621,
1852,
1987,
2042,
1856,
1677,
1504,
1396,
1400,
1379,
1484,
1475,
1432,
1367,
1267,
1256,
1207,
1175,
1197,
1262,
1242,
1098,
1136,
1124,
1098,
1039,
1115,
1101,
1078,
1064,
1114,
1074,
1076,
1056,
999,
1016,
1004,
937,
977,
983,
959,
949,
926,
941,
931,
891,
914,
907,
885,
919,
859,
872,
836,
851,
817,
840,
868,
877,
822,
799,
787,
845,
820,
766,
805,
793,
770,
776,
689,
752,
737,
693,
711,
732,
708,
689,
760,
671,
709,
724,
640,
667,
656,
687,
622,
655,
597,
688,
625,
675,
653,
613,
606,
634,
571,
657,
601,
580,
529,
563,
559,
553,
547,
601,
588,
579,
544,
553,
545,
537,
533,
514,
483,
482,
454,
519,
503,
515,
511,
493,
476,
509,
568,
644,
715,
780,
815,
730,
640,
566,
504,
485,
483,
423,
435,
410,
401,
431,
418,
385,
408,
361,
408,
380,
361,
376,
382,
379,
376,
351,
335,
383,
344,
339,
376,
364,
343,
357,
367,
393,
330,
359,
328,
350,
317,
308,
291,
327,
323,
288,
244,
273,
286,
271,
284,
254,
269,
265,
250,
254,
251,
235,
253,
256,
289,
234,
256,
248,
243,
229,
226,
225,
207,
228,
214,
192,
206,
198,
185,
186,
203,
187,
214,
200,
189,
193,
165,
181,
177,
174,
160,
173,
167,
183,
177,
150,
166,
157,
153,
143,
154,
155,
132,
150,
138,
156,
141,
173,
133,
117,
124,
131,
142,
120,
124,
116,
120,
132,
112,
114,
97,
108,
132,
92,
102,
104,
93,
87,
101,
110,
85,
89,
102,
84,
80,
81,
86,
87,
93,
64,
75,
64,
81,
68,
42,
67,
58,
73,
62,
47,
72,
37,
66,
51,
57,
63,
39,
53,
42,
46,
39,
42,
34,
52,
39,
43,
47,
34,
30,
26,
34,
28,
30,
20,
31,
26,
21,
28,
22,
29,
21,
22,
16,
18,
18,
14,
16,
6,
19,
7,
9,
6,
4,
6,
4,
1,
3,
3,
1,
0,
1,
0,
0,
1,
0,
0,
1,
0,
0,
2,
2,
0,
0,
0,
1,
0,
0,
0,
0,
1,
0,
0,
0,
0,
0,
0,
0,
0,
0,
0,
0,
0,
0,
1,
0,
0,
0,
0,
0,
0,
0,
0,
0,
0,
0,
0,
0,
0,
0,
0,
0,
0,
0,
0,
0,
0,
1,
0,
0,
0,
0,
0,
0,
0,
0,
0,
0,
0,
0,
0,
0,
1,
0,
0,
0,
0,
0,
0,
0,
0,
1,
0,
0,
1,
0,
0,
0,
0,
0,
0,
0,
0,
0,
1,
0,
0,
0,
0,
0,
1,
0,
0,
0,
0,
0,
0,
0,
0,
0,
0,
0,
0,
1,
0,
0,
0,
0,
0,
0,
0,
0,
0,
0,
0,
0,
0,
0,
0,
0,
0,
0,
0,
1,
0,
0,
0,
0,
0,
0,
0,
0,
0,
0,
0,
1,
0,
0,
0,
0,
0,
0,
0,
0,
0,
0,
0,
0,
0,
0,
0,
0,
0,
0,
0,
0,
0,
0,
0,
0,
0,
0,
0,
0,
1,
0,
0,
0,
0,
0,
0,
0,
0,
0,
0,
0,
0,
0,
0,
0,
0,
0,
0,
0,
0,
0,
0,
1,
0,
0,
0,
0,
0,
0,
0,
0,
0,
0,
0,
0,
0,
0,
0,
0,
0,
0,
0,
0,
0,
0,
0,
0,
0,
0,
0,
0,
0,
0,
0,
0,
0,
0,
0,
0,
0,
0,
0,
0,
0,
0,
0,
0,
0,
0,
0,
0,
0,
0,
0,
0,
0,
0,
0,
0,
0,
0,
0,
0,
0,
0,
0,
0,
0,
0,
0,
0,
0,
0,
0,
0,
0,
0,
0,
0,
0,
0,
0,
0,
0,
0,
0,
0,
0,
0,
0,
0,
0,
0,
0,
0,
0,
0,
0,
0,
0,
0,
0,
0,
0,
0,
0,
0,
0,
0,
0,
0,
0,
1,
0,
0,
0,
0,
0,
0,
0,
0,
0,
0,
0,
0,
0,
0,
0,
0,
0,
0,
0,
0,
0,
0,
0,
0,
0,
0,
0,
0,
0,
0,
0,
0,
0,
0,
0,
0,
0,
0,
0,
0,
0,
0,
0,
0,
0,
0,
0,
0,
0,
0,
0,
0,
0,
0,
0,
0,
0,
0,
0,
0,
0,
0,
0,
0,
0,
0,
0,
0,
0,
0,
0,
0,
0,
0,
0,
0,
0,
0,
0,
0,
0,
0,
0,
0,
0,
0,
0,
0,
0,
0,
0,
0,
0,
0,
0,
0,
0,
0,
0,
0,
0,
0,
0,
0,
0,
0,
0,
0,
0,
0,
0,
0,
0,
0,
0,
0,
0,
0,
0,
0,
0,
0,
0,
0,
0,
0,
0,
0,
0,
0,
0,
0,
0,
0,
0,
0,
0,
0,
0,
0,
0,
0,
0,
0,
0,
0,
0,
0,
0,
0,
0,
0,
0,
0,
0,
0,
0,
0,
0,
0,
0,
0,
0,
0,
0,
0,
0,
0,
0,
0,
0,
0,
0,
0,
0,
0,
0,
0,
0,
0,
0,
0,
0,
0,
0,
0,
0,
0,
0,
0,
0,
0,
0,
0,
0,
0,
0,
0,
0,
0,
0,
0,
0,
0,
0,
0,
0,
0,
0,
0,
0,
0,
0,
0,
0,
0,
0,
0,
0,
0,
0,
0,
0,
0,
0,
0,
0,
0,
0,
0,
0,
0,
0,
0,
0,
0,
0,
0,
0,
0,
0,
0,
0,
0,
0,
0,
0,
0,
0,
0,
0,
0,
0,
0,
0,
0,
0,
0,
0,
0,
0,
0,
0,
0,
0,
0,
0,
0,
0,
0,
0,
0,
0,
0,
0,
0,
0,
0,
0,
0,
0,
0,
0,
0,
0,
0,
0,
0,
0,
0,
0,
0,
0,
0,
0,
0,
0,
0,
0,
0,
0,
0,
0,
0,
0,
0,
0,
0,
0,
0,
0,
0,
0,
0,
0,
0,
0,
0,
0,
0,
0,
0,
0,
0,
0,
0,
0,
0,
0,
0,
0,
0,
0,
0,
0,
0,
0,
0,
0,
0,
0,
0,
0,
0,
0,
0,
0,
0,
0,
0,
0,
0,
0,
0,
0,
0,
0,
0,
0,
0,
0,
0,
0,
0,
0,
0,
0,
0,
0,
0,
0,
0,
0,
0,
0,
0,
0,
0,
0,
0,
0,
0,
0,
0,
0,
0,
0,
0,
0,
0,
0,
0,
0,
0,
0,
0,
0,
0,
0,
0,
0,
0,
0,
0,
0,
0,
0,
0,
0,
0,
0,
0,
0,
0,
0,
0,
0,
0,
0,
0,
0,
0,
0,
0,
0,
0,
0,
0,
0,
0,
0,
0,
0,
0,
0,
0,
0,
0,
0,
0,
0,
0,
0,
0,
0,
0,
0,
0,
0,
0,
0,
0,
0,
0,
0,
0,
0,
0,
0,
0,
0,
0,
0,
0,
0,
0,
0,
0,
0,
0,
0,
0,
0,
0,
0,
0,
0,
0,
0,
0,
0,
0,
0,
0,
0,
0,
0,
0,
0,
0,
0,
0,
0,
0,
0,
0,
0,
0,
0,
0,
0,
0,
0,
0,
0,
0,
0,
0,
0,
0,
0,
0,
0,
0,
0,
0,
0,
0,
0,
0,
0,
0,
0,
0,
0,
0,
0,
0,
0,
0,
0,
0,
0,
0,
0,
0,
0,
0,
0,
0,
0,
0,
0,
0,
0,
0,
0,
0,
0,
0,
0,
0,
0,
0,
0,
0,
0,
#ENDOFDATA   :