File: N132962/Quantification/15 keV/GMIIIA/GMIIIA K1236[3][4].msa
#FORMAT      : EMSA/MAS Spectral Data File
#VERSION     : 1.0
#TITLE       : GMIIIA K1236[3][all]
#DATE        : 22-SEP-2025
#TIME        : 23:07
#OWNER       : Unknown
#NPOINTS     : 4096
#NCOLUMNS    : 1
#XUNITS      : eV
#YUNITS      : counts
#DATATYPE    : Y
#XPERCHAN    : 9.99778
#OFFSET      : 1.69135
#BEAMKV      : 15
#SIGNALTYPE  : EDS
#ELEVANGLE   : 35
#AZIMANGLE   : 0
#LIVETIME    : 239.912
#REALTIME    : 258.856
#PROBECUR    : 1.21388
#TAUWIND     : 0
#TDEADLYR    : 0
#TACTLYR     : 0.045
#TALWIND     : 0.025
#CHOFFSET    : 0.0
#XLABEL      : Energy (eV)
#YLABEL      : Counts
#XPOSITION   : 7.18739
#YPOSITION   : 19.00863
#ZPOSITION   : 37.36299
#EDSDET      : SD
##SPECIMEN   : GMIIIA K1236[3][all]
##D2STDCMP   : K1236,(O:21.27),(Sc:0.65),(Ge:40.95),(Pb:37.13)
##DET_HASH   : 12273538-fd48-a23f-0a19-f1e6fa85caef
##CALIB_HASH : 6abaa72c-aa41-8738-0be9-f592914732f3
##WORKING    : 15.0 mm
##DET_NAME   : EDAX All
##DET_MODE   : MediumLE
#SPECTRUM    :
23,
31,
11,
38,
169,
690,
1929,
4620,
9493,
12010,
8460,
6603,
6760,
7091,
8762,
18496,
55221,
100361,
73836,
23133,
8589,
7140,
6984,
7593,
7577,
7386,
7418,
7892,
8365,
8536,
8525,
9144,
9901,
12955,
18086,
20183,
18081,
26033,
75204,
171748,
211642,
137796,
53455,
17512,
9099,
7042,
6280,
6265,
6226,
6490,
6504,
6568,
6506,
6332,
6691,
6773,
7052,
7843,
8472,
9144,
10386,
10862,
9389,
7668,
6679,
6394,
6294,
6261,
6366,
6231,
6377,
6904,
7302,
7827,
8706,
12136,
24104,
48743,
70799,
68654,
54626,
50469,
42944,
26129,
12582,
7153,
6288,
7229,
8282,
7972,
6570,
5550,
4867,
4738,
4685,
4891,
4930,
4965,
4910,
4993,
5122,
5454,
5464,
5512,
5476,
5044,
4838,
4663,
4451,
4435,
4360,
4243,
4322,
4408,
4233,
4368,
4358,
4357,
4409,
4476,
4343,
4167,
4219,
4093,
4119,
4224,
4014,
4082,
3962,
3919,
3900,
3976,
3854,
4055,
4321,
5239,
5477,
5429,
4856,
4089,
3780,
3749,
3660,
3667,
3606,
3586,
3660,
3626,
3861,
3919,
3907,
3767,
3529,
3506,
3414,
3445,
3361,
3324,
3259,
3347,
3315,
3246,
3271,
3210,
3211,
3291,
3239,
3176,
3270,
3241,
3015,
3055,
3002,
3008,
3038,
3065,
3059,
2956,
3013,
2872,
2911,
2866,
2807,
2883,
2821,
2818,
2720,
2668,
2729,
2808,
2705,
2693,
2623,
2741,
2488,
2667,
2523,
2532,
2540,
2579,
2549,
2521,
2566,
2457,
2470,
2590,
2507,
2419,
2318,
2498,
2430,
2453,
2453,
2351,
2359,
2335,
2353,
2278,
2250,
2197,
2243,
2217,
2110,
2195,
2081,
2227,
2072,
2229,
2085,
2105,
2061,
2092,
2082,
2018,
1990,
2019,
2071,
1956,
1975,
1975,
1974,
1894,
1913,
1904,
1928,
1862,
1891,
1830,
1827,
1875,
1838,
1848,
1815,
1742,
1767,
1738,
1679,
1781,
1740,
1733,
1638,
1678,
1651,
1693,
1635,
1639,
1606,
1607,
1569,
1556,
1579,
1545,
1515,
1514,
1518,
1503,
1495,
1448,
1465,
1418,
1479,
1467,
1464,
1412,
1417,
1430,
1395,
1325,
1332,
1368,
1369,
1361,
1290,
1267,
1330,
1332,
1320,
1240,
1265,
1257,
1306,
1244,
1225,
1288,
1207,
1215,
1183,
1184,
1221,
1206,
1205,
1138,
1102,
1122,
1065,
1079,
1074,
1052,
1101,
1051,
1092,
1060,
1153,
1463,
1832,
2715,
4119,
5935,
7420,
7987,
7577,
5993,
4194,
2655,
1730,
1219,
1062,
911,
936,
898,
928,
883,
917,
910,
848,
867,
953,
1087,
1178,
1272,
1502,
1570,
1534,
1376,
1209,
1005,
825,
827,
790,
772,
797,
898,
1011,
1189,
1435,
1588,
1683,
1539,
1336,
1087,
832,
753,
690,
672,
598,
595,
597,
585,
565,
529,
600,
584,
543,
549,
581,
539,
523,
526,
538,
485,
478,
487,
486,
517,
482,
481,
489,
452,
455,
477,
468,
467,
438,
442,
462,
391,
405,
405,
372,
399,
372,
410,
411,
384,
374,
373,
389,
412,
441,
438,
468,
466,
434,
367,
308,
316,
304,
330,
308,
280,
264,
269,
270,
285,
302,
283,
249,
248,
273,
243,
253,
218,
231,
228,
232,
207,
197,
187,
199,
206,
196,
198,
175,
196,
161,
160,
159,
164,
164,
169,
135,
127,
134,
119,
137,
136,
117,
130,
105,
130,
99,
102,
99,
77,
87,
93,
89,
85,
100,
66,
72,
80,
65,
65,
39,
52,
47,
50,
42,
37,
34,
35,
37,
30,
33,
31,
22,
21,
9,
10,
2,
7,
1,
4,
1,
4,
0,
0,
7,
2,
2,
2,
0,
2,
1,
0,
2,
0,
3,
4,
1,
4,
2,
5,
1,
1,
3,
1,
2,
3,
1,
4,
2,
2,
1,
1,
2,
3,
0,
2,
2,
0,
4,
2,
2,
0,
2,
0,
2,
1,
1,
1,
2,
1,
1,
0,
1,
0,
1,
2,
1,
3,
2,
2,
2,
1,
1,
1,
1,
0,
1,
1,
1,
0,
0,
0,
3,
2,
1,
0,
2,
6,
0,
1,
1,
2,
1,
2,
0,
2,
0,
1,
0,
1,
2,
3,
2,
0,
2,
3,
0,
0,
0,
0,
0,
1,
0,
0,
0,
0,
0,
2,
0,
1,
0,
1,
2,
1,
4,
0,
0,
1,
0,
1,
1,
0,
1,
0,
1,
1,
1,
0,
1,
0,
0,
1,
0,
1,
1,
1,
0,
0,
0,
0,
2,
0,
1,
0,
1,
1,
1,
2,
2,
0,
0,
3,
1,
1,
1,
0,
2,
2,
2,
0,
0,
0,
2,
4,
0,
0,
0,
1,
0,
0,
1,
2,
0,
1,
2,
1,
2,
1,
0,
0,
0,
2,
0,
0,
1,
0,
0,
1,
0,
1,
1,
1,
0,
2,
1,
0,
1,
0,
1,
0,
0,
0,
1,
0,
0,
0,
0,
1,
0,
0,
0,
0,
2,
1,
0,
0,
1,
0,
0,
0,
0,
0,
0,
1,
1,
0,
0,
0,
1,
0,
0,
0,
0,
0,
1,
0,
0,
0,
0,
0,
1,
0,
0,
0,
0,
0,
0,
0,
0,
0,
0,
0,
0,
0,
0,
0,
0,
0,
0,
0,
0,
0,
0,
0,
0,
1,
0,
0,
0,
1,
0,
0,
0,
1,
0,
0,
0,
0,
0,
1,
0,
0,
0,
0,
0,
0,
0,
0,
0,
0,
0,
0,
0,
0,
0,
0,
0,
1,
0,
0,
0,
0,
0,
0,
0,
0,
0,
0,
0,
0,
0,
0,
0,
0,
0,
0,
0,
0,
0,
0,
0,
0,
0,
0,
0,
0,
0,
0,
0,
0,
0,
0,
0,
0,
0,
0,
0,
0,
0,
0,
0,
0,
0,
0,
0,
0,
0,
0,
0,
0,
0,
0,
0,
0,
0,
0,
0,
0,
0,
0,
0,
0,
0,
0,
0,
0,
0,
0,
0,
0,
1,
0,
0,
0,
0,
0,
0,
0,
0,
0,
0,
0,
0,
0,
0,
0,
0,
0,
0,
0,
0,
0,
0,
0,
0,
0,
0,
0,
0,
0,
0,
0,
0,
0,
0,
0,
0,
0,
0,
0,
0,
0,
0,
0,
0,
0,
0,
0,
0,
0,
0,
0,
0,
0,
0,
0,
0,
0,
0,
0,
0,
0,
0,
0,
0,
0,
0,
0,
0,
0,
0,
0,
0,
0,
0,
0,
0,
0,
0,
0,
0,
0,
0,
0,
0,
0,
0,
0,
0,
0,
0,
0,
0,
0,
0,
0,
0,
0,
0,
0,
0,
0,
0,
0,
0,
0,
0,
0,
0,
0,
0,
0,
0,
0,
0,
0,
0,
0,
0,
0,
0,
0,
0,
0,
0,
0,
0,
0,
0,
0,
0,
0,
0,
0,
0,
0,
0,
0,
0,
0,
0,
0,
0,
0,
0,
0,
0,
0,
0,
0,
0,
0,
0,
0,
0,
0,
0,
0,
0,
0,
0,
0,
0,
0,
0,
0,
0,
0,
0,
0,
0,
0,
0,
0,
0,
0,
0,
0,
0,
0,
0,
0,
0,
0,
0,
0,
0,
0,
0,
0,
0,
0,
0,
0,
0,
0,
0,
0,
0,
0,
0,
0,
0,
0,
0,
0,
0,
0,
0,
0,
0,
0,
0,
0,
0,
0,
0,
0,
0,
0,
0,
0,
0,
0,
0,
0,
0,
0,
0,
0,
0,
0,
0,
0,
0,
0,
0,
0,
0,
0,
0,
0,
0,
0,
0,
0,
0,
0,
0,
0,
0,
0,
0,
0,
0,
0,
0,
0,
0,
0,
0,
0,
0,
0,
0,
0,
0,
0,
0,
0,
0,
0,
0,
0,
0,
0,
0,
0,
0,
0,
0,
0,
0,
0,
0,
0,
0,
0,
0,
0,
0,
0,
0,
0,
0,
0,
0,
0,
0,
0,
0,
0,
0,
0,
0,
0,
0,
0,
0,
0,
0,
0,
0,
0,
0,
0,
0,
0,
0,
0,
0,
0,
0,
0,
0,
0,
0,
0,
0,
0,
0,
0,
0,
0,
0,
0,
0,
0,
0,
0,
0,
0,
0,
0,
0,
0,
0,
0,
0,
0,
0,
0,
0,
0,
0,
0,
0,
0,
0,
0,
0,
0,
0,
0,
0,
0,
0,
0,
0,
0,
0,
0,
0,
0,
0,
0,
0,
0,
0,
0,
0,
0,
0,
0,
0,
0,
0,
0,
0,
0,
0,
0,
0,
0,
0,
0,
0,
0,
0,
0,
0,
0,
0,
0,
0,
0,
0,
0,
0,
0,
0,
0,
0,
0,
0,
0,
0,
0,
0,
0,
0,
0,
0,
0,
0,
0,
0,
0,
0,
0,
0,
0,
0,
0,
0,
0,
0,
0,
0,
0,
0,
0,
0,
0,
0,
0,
0,
0,
0,
0,
0,
0,
0,
0,
0,
0,
0,
0,
0,
0,
0,
0,
0,
0,
0,
0,
0,
0,
0,
0,
0,
0,
0,
0,
0,
0,
0,
0,
0,
0,
0,
0,
0,
0,
0,
0,
0,
0,
0,
0,
0,
0,
#ENDOFDATA   :