File: N132962/Quantification/15 keV/GMIIIA/GMIIIA K252[6][4].msa
#FORMAT      : EMSA/MAS Spectral Data File
#VERSION     : 1.0
#TITLE       : GMIIIA K252[6][all]
#DATE        : 22-SEP-2025
#TIME        : 14:54
#OWNER       : Unknown
#NPOINTS     : 4096
#NCOLUMNS    : 1
#XUNITS      : eV
#YUNITS      : counts
#DATATYPE    : Y
#XPERCHAN    : 9.99778
#OFFSET      : 1.69135
#BEAMKV      : 15
#SIGNALTYPE  : EDS
#ELEVANGLE   : 35
#AZIMANGLE   : 0
#LIVETIME    : 239.946
#REALTIME    : 257.0694
#PROBECUR    : 1.21732
#TAUWIND     : 0
#TDEADLYR    : 0
#TACTLYR     : 0.045
#TALWIND     : 0.025
#CHOFFSET    : 0.0
#XLABEL      : Energy (eV)
#YLABEL      : Counts
#XPOSITION   : 4.71132
#YPOSITION   : 2.58129
#ZPOSITION   : 37.36299
#EDSDET      : SD
##SPECIMEN   : GMIIIA K252[6][all]
##D2STDCMP   : K252,(O:30.83),(Si:18.7),(Mn:3.16),(Co:3.93),(Cu:3.99),(Zn:8.03),(Ba:31.35)
##DET_HASH   : 12273538-fd48-a23f-0a19-f1e6fa85caef
##CALIB_HASH : 6abaa72c-aa41-8738-0be9-f592914732f3
##WORKING    : 15.0 mm
##DET_NAME   : EDAX All
##DET_MODE   : MediumLE
#SPECTRUM    :
23,
31,
9,
32,
171,
635,
1565,
3719,
7543,
9786,
7243,
6471,
7168,
8660,
12456,
34621,
118740,
218650,
161011,
50457,
17537,
12927,
10368,
8492,
9349,
14909,
18148,
13422,
8878,
9501,
14275,
19201,
21556,
29432,
33206,
22090,
10162,
6103,
5065,
4821,
4848,
5022,
5012,
5160,
5065,
5475,
5306,
5618,
5788,
6111,
6230,
6196,
6093,
6325,
6879,
13360,
42620,
104115,
139473,
99662,
42219,
16596,
8978,
6107,
4650,
4409,
4223,
4355,
4405,
4265,
4338,
4302,
4404,
4459,
4467,
4738,
4726,
4580,
4460,
4333,
4340,
4246,
4197,
4225,
4216,
4189,
4230,
4040,
4226,
4156,
4208,
4357,
4308,
4090,
3905,
3998,
3830,
3933,
3847,
3827,
3740,
3701,
3781,
3737,
3676,
3753,
3543,
3618,
3500,
3468,
3410,
3454,
3320,
3445,
3485,
3501,
3516,
3444,
3254,
3299,
3218,
3136,
3162,
3172,
3153,
3165,
3037,
3071,
3183,
3351,
3493,
3921,
4113,
3761,
3394,
3178,
2946,
2916,
2786,
2806,
2871,
2954,
3044,
3244,
3783,
5168,
9880,
18393,
28253,
32034,
26256,
15875,
7876,
4153,
2930,
2723,
2853,
3542,
5299,
9018,
13705,
16090,
14629,
11253,
7867,
5778,
4119,
3490,
3215,
3606,
4816,
6286,
7019,
6187,
4720,
3309,
2449,
2197,
2173,
2064,
2126,
2236,
2761,
3231,
3725,
3660,
3138,
2537,
2089,
1990,
2071,
2214,
2630,
3198,
4102,
5257,
5823,
5888,
4713,
3465,
2413,
1928,
1708,
1613,
1646,
1597,
1596,
1648,
1684,
1608,
1568,
1554,
1607,
1688,
1797,
1988,
2081,
1988,
1798,
1633,
1530,
1415,
1461,
1414,
1450,
1353,
1485,
1840,
2471,
3288,
4193,
4100,
3611,
2904,
2130,
1529,
1316,
1273,
1251,
1216,
1248,
1263,
1240,
1235,
1175,
1216,
1231,
1206,
1195,
1284,
1199,
1255,
1309,
1418,
1431,
1488,
1441,
1296,
1164,
1130,
1103,
1035,
1106,
1195,
1369,
1776,
2206,
2567,
2812,
2615,
2065,
1577,
1320,
1116,
1039,
976,
959,
982,
958,
907,
950,
986,
978,
1256,
1669,
2292,
3082,
3663,
3564,
3188,
2398,
1623,
1230,
1039,
986,
981,
979,
1008,
908,
946,
844,
801,
793,
792,
770,
731,
721,
739,
747,
706,
694,
718,
704,
667,
749,
757,
844,
963,
976,
1050,
943,
907,
793,
781,
700,
625,
643,
641,
605,
613,
585,
594,
604,
578,
616,
595,
555,
561,
563,
515,
553,
564,
474,
527,
541,
539,
494,
521,
483,
516,
517,
512,
468,
466,
489,
471,
471,
447,
465,
435,
443,
459,
434,
419,
389,
415,
421,
397,
406,
380,
401,
391,
376,
421,
345,
384,
374,
374,
322,
305,
295,
327,
319,
346,
323,
318,
345,
269,
296,
330,
296,
311,
306,
290,
307,
290,
258,
273,
268,
278,
264,
255,
257,
253,
244,
226,
241,
245,
230,
215,
253,
216,
216,
221,
217,
224,
191,
182,
203,
207,
212,
202,
180,
181,
185,
190,
178,
161,
167,
176,
159,
167,
163,
130,
156,
163,
163,
146,
127,
127,
130,
132,
126,
140,
101,
113,
105,
132,
126,
118,
98,
117,
104,
85,
100,
97,
97,
111,
80,
93,
91,
78,
70,
75,
59,
76,
65,
71,
62,
50,
75,
47,
53,
56,
63,
51,
52,
45,
41,
39,
59,
42,
29,
36,
23,
34,
35,
31,
20,
20,
21,
14,
12,
25,
11,
14,
13,
8,
4,
4,
4,
1,
1,
0,
0,
1,
1,
0,
1,
0,
1,
0,
1,
1,
2,
0,
1,
1,
1,
2,
2,
2,
5,
3,
1,
0,
2,
3,
1,
2,
3,
0,
1,
2,
0,
1,
0,
1,
0,
0,
2,
3,
0,
1,
0,
1,
1,
1,
0,
1,
0,
2,
0,
1,
0,
0,
0,
0,
0,
0,
0,
1,
0,
0,
0,
0,
1,
1,
0,
1,
1,
1,
1,
1,
0,
1,
1,
0,
0,
1,
1,
0,
0,
1,
2,
0,
0,
2,
1,
3,
1,
0,
0,
0,
0,
0,
2,
1,
0,
0,
0,
0,
1,
2,
0,
0,
0,
0,
1,
0,
0,
1,
0,
1,
1,
1,
1,
3,
0,
0,
0,
0,
1,
0,
0,
1,
0,
0,
1,
0,
0,
0,
0,
2,
1,
0,
0,
0,
1,
0,
2,
0,
0,
0,
0,
0,
0,
1,
0,
1,
0,
0,
0,
0,
0,
0,
0,
0,
0,
0,
1,
0,
0,
0,
0,
1,
0,
0,
0,
0,
0,
0,
0,
0,
1,
0,
0,
0,
0,
0,
0,
0,
0,
1,
0,
0,
0,
0,
0,
1,
0,
0,
0,
0,
0,
0,
0,
0,
1,
0,
0,
0,
0,
0,
0,
0,
0,
0,
0,
1,
0,
0,
0,
0,
0,
0,
0,
0,
0,
0,
0,
0,
0,
0,
0,
0,
0,
0,
0,
0,
0,
0,
0,
0,
0,
0,
0,
0,
0,
0,
0,
0,
0,
0,
0,
0,
0,
0,
0,
0,
0,
0,
0,
0,
0,
0,
0,
0,
0,
0,
0,
0,
0,
0,
0,
0,
0,
0,
1,
0,
0,
0,
0,
0,
0,
0,
0,
0,
0,
0,
0,
0,
1,
0,
0,
0,
0,
0,
0,
0,
0,
0,
0,
0,
0,
0,
0,
0,
0,
0,
0,
0,
0,
0,
0,
0,
0,
0,
0,
0,
0,
0,
0,
0,
0,
0,
0,
0,
0,
0,
0,
0,
0,
0,
0,
0,
0,
0,
0,
0,
0,
0,
0,
0,
0,
0,
0,
0,
0,
1,
0,
0,
0,
0,
0,
0,
0,
0,
0,
0,
0,
0,
0,
0,
0,
0,
0,
0,
0,
0,
0,
0,
0,
0,
0,
0,
0,
0,
0,
0,
0,
0,
0,
0,
0,
0,
0,
0,
0,
0,
0,
0,
0,
0,
0,
0,
0,
0,
0,
0,
0,
0,
0,
0,
0,
0,
0,
0,
0,
0,
0,
0,
0,
0,
0,
0,
0,
0,
0,
0,
0,
0,
0,
0,
0,
0,
0,
0,
0,
0,
0,
0,
0,
0,
0,
0,
0,
0,
0,
0,
0,
0,
0,
0,
0,
0,
0,
0,
0,
0,
0,
0,
0,
0,
0,
0,
0,
0,
0,
0,
0,
0,
0,
0,
0,
0,
0,
0,
0,
0,
0,
0,
0,
0,
0,
0,
0,
0,
0,
0,
0,
0,
0,
0,
0,
0,
0,
0,
0,
0,
0,
0,
0,
0,
0,
0,
0,
0,
0,
0,
0,
0,
0,
0,
0,
0,
0,
0,
0,
0,
0,
0,
0,
0,
0,
0,
0,
0,
0,
0,
0,
0,
0,
0,
0,
0,
0,
0,
0,
0,
0,
0,
0,
0,
0,
0,
0,
0,
0,
0,
0,
0,
0,
0,
0,
0,
0,
0,
0,
0,
0,
0,
0,
0,
0,
0,
0,
0,
0,
0,
0,
0,
0,
0,
0,
0,
0,
0,
0,
0,
0,
0,
0,
0,
0,
0,
0,
0,
0,
0,
0,
0,
0,
0,
0,
0,
0,
0,
0,
0,
0,
0,
0,
0,
0,
0,
0,
0,
0,
0,
0,
0,
0,
0,
0,
0,
0,
0,
0,
0,
0,
0,
0,
0,
0,
0,
0,
0,
0,
0,
0,
0,
0,
0,
0,
0,
0,
0,
0,
0,
0,
0,
0,
0,
0,
0,
0,
0,
0,
0,
0,
0,
0,
0,
0,
0,
0,
0,
0,
0,
0,
0,
0,
0,
0,
0,
0,
0,
0,
0,
0,
0,
0,
0,
0,
0,
0,
0,
0,
0,
0,
0,
0,
0,
0,
0,
0,
0,
0,
0,
0,
0,
0,
0,
0,
0,
0,
0,
0,
0,
0,
0,
0,
0,
0,
0,
0,
0,
0,
0,
0,
0,
0,
0,
0,
0,
0,
0,
0,
0,
0,
0,
0,
0,
0,
0,
0,
0,
0,
0,
0,
0,
0,
0,
0,
0,
0,
0,
0,
0,
0,
0,
0,
0,
0,
0,
0,
0,
0,
0,
0,
0,
0,
0,
0,
0,
0,
0,
0,
0,
0,
0,
0,
0,
0,
0,
0,
0,
0,
0,
0,
0,
0,
0,
0,
0,
0,
0,
0,
0,
0,
0,
0,
0,
0,
0,
0,
0,
0,
0,
0,
0,
0,
0,
0,
0,
0,
0,
0,
0,
0,
0,
0,
0,
0,
0,
0,
0,
0,
0,
0,
0,
0,
0,
0,
0,
0,
0,
0,
0,
0,
0,
0,
0,
0,
0,
0,
0,
0,
0,
0,
0,
0,
0,
0,
0,
0,
0,
0,
0,
0,
0,
0,
0,
0,
0,
0,
0,
0,
0,
0,
0,
0,
0,
0,
0,
0,
0,
0,
0,
0,
0,
0,
0,
0,
0,
0,
0,
0,
0,
0,
0,
0,
0,
0,
0,
0,
0,
0,
0,
0,
0,
0,
0,
0,
0,
#ENDOFDATA   :