File: N132962/Quantification/15 keV/GMIIIA/GMIIIA K1001[3][4].msa
#FORMAT      : EMSA/MAS Spectral Data File
#VERSION     : 1.0
#TITLE       : GMIIIA K1001[3][all]
#DATE        : 22-SEP-2025
#TIME        : 21:55
#OWNER       : Unknown
#NPOINTS     : 4096
#NCOLUMNS    : 1
#XUNITS      : eV
#YUNITS      : counts
#DATATYPE    : Y
#XPERCHAN    : 9.99778
#OFFSET      : 1.69135
#BEAMKV      : 15
#SIGNALTYPE  : EDS
#ELEVANGLE   : 35
#AZIMANGLE   : 0
#LIVETIME    : 240.007
#REALTIME    : 256.292
#PROBECUR    : 1.21615
#TAUWIND     : 0
#TDEADLYR    : 0
#TACTLYR     : 0.045
#TALWIND     : 0.025
#CHOFFSET    : 0.0
#XLABEL      : Energy (eV)
#YLABEL      : Counts
#XPOSITION   : 13.51371
#YPOSITION   : 15.06616
#ZPOSITION   : 37.36299
#EDSDET      : SD
##SPECIMEN   : GMIIIA K1001[3][all]
##D2STDCMP   : K1001,(O:39.47),(Na:1.67),(Mg:1.36),(Al:8.92),(Si:21.02),(K:1.87),(Ca:6.75),(Rb:2.06),(Sr:10.05),(Pr:1.92),(Nd:1.93),(Er:1.97),(Pb:1.04)
##DET_HASH   : 12273538-fd48-a23f-0a19-f1e6fa85caef
##CALIB_HASH : 6abaa72c-aa41-8738-0be9-f592914732f3
##WORKING    : 15.0 mm
##DET_NAME   : EDAX All
##DET_MODE   : MediumLE
#SPECTRUM    :
18,
28,
12,
21,
99,
393,
1183,
2989,
7329,
9714,
6860,
4816,
4490,
4829,
7509,
24280,
89019,
167886,
122769,
32821,
5740,
3426,
4036,
4535,
4526,
4534,
4305,
4433,
4737,
5130,
5871,
6965,
7921,
10678,
16090,
17355,
11321,
7329,
6230,
6462,
9088,
14475,
16527,
11851,
7821,
7578,
10340,
18154,
42204,
76149,
76247,
40788,
17138,
9680,
9290,
18783,
57403,
134367,
182541,
144855,
84961,
49485,
29255,
16606,
9335,
6133,
4627,
3855,
3335,
3031,
3217,
3167,
3253,
3325,
3551,
3545,
3831,
4211,
4480,
4397,
3985,
3904,
3754,
3456,
3112,
2897,
2880,
2965,
2872,
2896,
2927,
2844,
2838,
2818,
2784,
2712,
2704,
2727,
2729,
2809,
2768,
2692,
2738,
2708,
2641,
2616,
2844,
3158,
4372,
6593,
8734,
8912,
6467,
4073,
2888,
2605,
2705,
2825,
3266,
3928,
6373,
11891,
19606,
23692,
20421,
12241,
5989,
3091,
2267,
2138,
2222,
2744,
3444,
4390,
4680,
4020,
3024,
2271,
1866,
1872,
1830,
1850,
1852,
1843,
1802,
1752,
1742,
1812,
1774,
1802,
1890,
1821,
1723,
1731,
1719,
1659,
1718,
1623,
1568,
1590,
1548,
1520,
1535,
1575,
1678,
1936,
2438,
2845,
2840,
2613,
2124,
1929,
1922,
2194,
2426,
2256,
1988,
1707,
1548,
1479,
1556,
1706,
1809,
1932,
1856,
1692,
1533,
1545,
1559,
1623,
1647,
1709,
1645,
1589,
1635,
1555,
1410,
1304,
1299,
1243,
1235,
1224,
1250,
1276,
1173,
1197,
1165,
1133,
1103,
1091,
1180,
1148,
1179,
1097,
1095,
1062,
1039,
1000,
1073,
1117,
1079,
1031,
1053,
900,
932,
916,
1032,
1020,
1074,
1248,
1374,
1519,
1398,
1274,
1117,
1037,
877,
908,
833,
833,
796,
830,
866,
760,
837,
776,
816,
821,
812,
762,
773,
747,
747,
700,
728,
732,
733,
777,
832,
883,
884,
923,
809,
785,
757,
739,
685,
682,
730,
711,
692,
757,
715,
734,
663,
659,
670,
635,
562,
588,
626,
627,
592,
552,
543,
536,
529,
527,
513,
592,
512,
491,
523,
501,
492,
503,
541,
497,
514,
524,
516,
484,
520,
523,
484,
514,
501,
435,
456,
426,
454,
438,
433,
412,
453,
423,
426,
397,
382,
441,
410,
378,
371,
414,
318,
401,
369,
381,
348,
385,
389,
365,
373,
333,
374,
352,
371,
357,
323,
347,
295,
355,
323,
300,
338,
309,
340,
319,
303,
310,
286,
320,
302,
344,
298,
302,
281,
288,
268,
274,
274,
265,
256,
255,
245,
224,
234,
229,
231,
255,
263,
240,
228,
217,
213,
230,
188,
249,
208,
192,
205,
216,
207,
181,
181,
210,
172,
166,
160,
187,
197,
153,
173,
185,
191,
169,
162,
164,
157,
157,
169,
160,
166,
145,
146,
152,
148,
153,
152,
127,
126,
134,
137,
119,
137,
120,
116,
128,
125,
126,
116,
120,
101,
128,
101,
96,
89,
94,
106,
90,
97,
94,
88,
91,
94,
88,
75,
81,
101,
79,
67,
80,
71,
69,
85,
60,
74,
64,
64,
57,
47,
58,
51,
46,
52,
62,
56,
57,
54,
41,
35,
39,
42,
37,
55,
45,
39,
22,
36,
43,
36,
22,
35,
23,
28,
29,
23,
25,
24,
29,
14,
20,
13,
16,
20,
18,
9,
10,
14,
6,
12,
13,
9,
7,
3,
7,
4,
3,
3,
2,
2,
3,
0,
3,
2,
1,
0,
0,
2,
0,
0,
0,
1,
0,
1,
1,
2,
0,
1,
0,
0,
1,
0,
0,
0,
0,
0,
0,
1,
0,
0,
1,
0,
0,
0,
0,
0,
0,
1,
0,
0,
0,
0,
1,
0,
0,
0,
1,
0,
0,
0,
0,
0,
1,
1,
0,
0,
0,
0,
0,
0,
0,
0,
0,
0,
0,
0,
0,
0,
1,
1,
0,
0,
0,
0,
0,
0,
0,
0,
0,
0,
1,
0,
0,
0,
1,
0,
0,
0,
0,
0,
0,
1,
0,
0,
0,
0,
0,
0,
0,
0,
1,
0,
0,
0,
2,
0,
1,
0,
0,
0,
0,
0,
0,
1,
0,
0,
0,
0,
0,
0,
0,
0,
1,
0,
1,
0,
0,
0,
0,
0,
0,
1,
0,
0,
0,
0,
0,
0,
0,
0,
0,
0,
0,
0,
0,
0,
0,
1,
0,
0,
0,
1,
0,
0,
1,
0,
0,
0,
0,
0,
0,
0,
0,
0,
0,
0,
0,
0,
0,
0,
0,
0,
0,
0,
0,
0,
0,
0,
0,
0,
0,
0,
0,
0,
0,
0,
0,
0,
0,
0,
0,
0,
0,
0,
0,
0,
0,
0,
0,
0,
0,
0,
0,
0,
0,
0,
0,
0,
0,
0,
0,
0,
0,
0,
0,
0,
0,
0,
0,
0,
0,
0,
0,
0,
0,
0,
0,
0,
0,
0,
0,
0,
0,
0,
0,
0,
0,
0,
0,
0,
0,
0,
0,
0,
0,
0,
0,
0,
0,
0,
0,
0,
0,
0,
0,
0,
0,
0,
0,
0,
0,
0,
0,
0,
0,
0,
0,
0,
0,
0,
0,
0,
0,
0,
0,
0,
0,
0,
0,
0,
0,
0,
0,
0,
0,
0,
0,
0,
0,
0,
0,
0,
0,
0,
0,
0,
0,
0,
0,
0,
0,
0,
0,
0,
0,
0,
0,
0,
0,
0,
0,
0,
0,
0,
0,
0,
0,
0,
0,
0,
0,
0,
0,
0,
0,
0,
0,
0,
0,
0,
0,
0,
0,
0,
0,
0,
0,
0,
0,
0,
0,
0,
0,
0,
0,
0,
0,
0,
0,
0,
0,
0,
0,
0,
0,
0,
0,
0,
0,
0,
0,
0,
0,
0,
0,
0,
0,
0,
0,
0,
0,
0,
0,
0,
0,
0,
0,
0,
0,
0,
0,
0,
0,
0,
0,
0,
0,
0,
0,
0,
0,
0,
0,
0,
0,
0,
0,
0,
0,
0,
0,
0,
0,
0,
0,
0,
0,
0,
0,
0,
0,
0,
0,
0,
0,
0,
0,
0,
0,
0,
0,
0,
0,
0,
0,
0,
0,
0,
0,
0,
0,
0,
0,
0,
0,
0,
0,
0,
0,
0,
0,
0,
0,
0,
0,
0,
0,
0,
0,
0,
0,
0,
0,
0,
0,
0,
0,
0,
0,
0,
0,
0,
0,
0,
0,
0,
0,
0,
0,
0,
0,
0,
0,
0,
0,
0,
0,
0,
0,
0,
0,
0,
0,
0,
0,
0,
0,
0,
0,
0,
0,
0,
0,
0,
0,
0,
0,
0,
0,
0,
0,
0,
0,
0,
0,
0,
0,
0,
0,
0,
0,
0,
0,
0,
0,
0,
0,
0,
0,
0,
0,
0,
0,
0,
0,
0,
0,
0,
0,
0,
0,
0,
0,
0,
0,
0,
0,
0,
0,
0,
0,
0,
0,
0,
0,
0,
0,
0,
0,
0,
0,
0,
0,
0,
0,
0,
0,
0,
0,
0,
0,
0,
0,
0,
0,
0,
0,
0,
0,
0,
0,
0,
0,
0,
0,
0,
0,
0,
0,
0,
0,
0,
0,
0,
0,
0,
0,
0,
0,
0,
0,
0,
0,
0,
0,
0,
0,
0,
0,
0,
0,
0,
0,
0,
0,
0,
0,
0,
0,
0,
0,
0,
0,
0,
0,
0,
0,
0,
0,
0,
0,
0,
0,
0,
0,
0,
0,
0,
0,
0,
0,
0,
0,
0,
0,
0,
0,
0,
0,
0,
0,
0,
0,
0,
0,
0,
0,
0,
0,
0,
0,
0,
0,
0,
0,
0,
0,
0,
0,
0,
0,
0,
0,
0,
0,
0,
0,
0,
0,
0,
0,
0,
0,
0,
0,
0,
0,
0,
0,
0,
0,
0,
0,
0,
0,
0,
0,
0,
0,
0,
0,
0,
0,
0,
0,
0,
0,
0,
0,
0,
0,
0,
0,
0,
0,
0,
0,
0,
0,
0,
0,
0,
0,
0,
0,
0,
0,
0,
0,
0,
0,
0,
0,
0,
0,
0,
0,
0,
0,
0,
0,
0,
0,
0,
0,
0,
0,
0,
0,
0,
0,
0,
0,
0,
0,
0,
0,
0,
0,
0,
0,
0,
0,
0,
0,
0,
0,
0,
0,
0,
0,
0,
0,
0,
0,
0,
0,
0,
0,
0,
0,
0,
0,
0,
0,
0,
0,
0,
0,
0,
0,
0,
0,
0,
0,
0,
0,
0,
0,
0,
0,
0,
0,
0,
0,
0,
0,
0,
0,
0,
0,
0,
0,
0,
0,
0,
0,
0,
0,
0,
0,
0,
0,
0,
0,
0,
0,
0,
0,
0,
0,
0,
0,
0,
0,
0,
0,
0,
0,
0,
0,
0,
0,
0,
0,
0,
0,
0,
0,
0,
0,
0,
0,
0,
0,
0,
0,
0,
0,
0,
0,
0,
0,
0,
0,
0,
0,
0,
0,
0,
0,
0,
0,
0,
0,
#ENDOFDATA   :