File: N132962/Quantification/15 keV/GMIIIA/GMIIIA K251[6][4].msa
#FORMAT      : EMSA/MAS Spectral Data File
#VERSION     : 1.0
#TITLE       : GMIIIA K251[6][all]
#DATE        : 22-SEP-2025
#TIME        : 15:02
#OWNER       : Unknown
#NPOINTS     : 4096
#NCOLUMNS    : 1
#XUNITS      : eV
#YUNITS      : counts
#DATATYPE    : Y
#XPERCHAN    : 9.99778
#OFFSET      : 1.69135
#BEAMKV      : 15
#SIGNALTYPE  : EDS
#ELEVANGLE   : 35
#AZIMANGLE   : 0
#LIVETIME    : 239.973
#REALTIME    : 259.185
#PROBECUR    : 1.21732
#TAUWIND     : 0
#TDEADLYR    : 0
#TACTLYR     : 0.045
#TALWIND     : 0.025
#CHOFFSET    : 0.0
#XLABEL      : Energy (eV)
#YLABEL      : Counts
#XPOSITION   : 7.04616
#YPOSITION   : 2.48686
#ZPOSITION   : 37.36299
#EDSDET      : SD
##SPECIMEN   : GMIIIA K251[6][all]
##D2STDCMP   : K251,(O:23.02),(Al:1.32),(Si:14.02),(Ba:8.96),(Ta:4.09),(Pb:44.1),(Bi:4.48)
##DET_HASH   : 12273538-fd48-a23f-0a19-f1e6fa85caef
##CALIB_HASH : 6abaa72c-aa41-8738-0be9-f592914732f3
##WORKING    : 15.0 mm
##DET_NAME   : EDAX All
##DET_MODE   : MediumLE
#SPECTRUM    :
31,
36,
16,
36,
206,
911,
2419,
5583,
11053,
13546,
9393,
7176,
7090,
7436,
9241,
19941,
60680,
108472,
80240,
26185,
10420,
8097,
7791,
7984,
7454,
7571,
7977,
7890,
7362,
7131,
7103,
7433,
8026,
8101,
8235,
8122,
8008,
7946,
7883,
8095,
8240,
8433,
8690,
9018,
9419,
9606,
9490,
10376,
14122,
20107,
19954,
14674,
10746,
9747,
10826,
18778,
50735,
110596,
142777,
103636,
49676,
24482,
15528,
10393,
7956,
7434,
7177,
6916,
6680,
6574,
6779,
7394,
7881,
8668,
9757,
14128,
28607,
58638,
84923,
84245,
70978,
66748,
56702,
35833,
18949,
11115,
8190,
8137,
8821,
8591,
7295,
5932,
5223,
4827,
4786,
4808,
4770,
4819,
4894,
5090,
4956,
5353,
5562,
5714,
5539,
5226,
5113,
4849,
4520,
4393,
4322,
4275,
4236,
4420,
4211,
4370,
4274,
4299,
4290,
4284,
4041,
4158,
4034,
4257,
4216,
4124,
4017,
4114,
3997,
3948,
4054,
4058,
4222,
4126,
3965,
3927,
3937,
3865,
3818,
3857,
3755,
3722,
3814,
3915,
4057,
4359,
5632,
8163,
10750,
11900,
10211,
7431,
5205,
4055,
3588,
3559,
3610,
3739,
4337,
5418,
6561,
7413,
6824,
5895,
4733,
4277,
3886,
3690,
3505,
3791,
3869,
4341,
4615,
4298,
3914,
3360,
3160,
2965,
3036,
2995,
2970,
3114,
3058,
3383,
3371,
3358,
3214,
2963,
2995,
2855,
2814,
2771,
2995,
2868,
2964,
2866,
2676,
2675,
2665,
2706,
2585,
2614,
2473,
2481,
2504,
2488,
2450,
2560,
2441,
2344,
2482,
2453,
2472,
2545,
2519,
2434,
2354,
2263,
2440,
2294,
2233,
2289,
2221,
2315,
2225,
2217,
2142,
2224,
2133,
2208,
2120,
2217,
2163,
2070,
2122,
2120,
2078,
2113,
2057,
2067,
1979,
2002,
1893,
1968,
1978,
1932,
1950,
1977,
1946,
1833,
1887,
1914,
1923,
1842,
1788,
1798,
1751,
1692,
1798,
1776,
1731,
1781,
1763,
1812,
1641,
1670,
1736,
1754,
1934,
2118,
2186,
2399,
2283,
2179,
1950,
1691,
1646,
1581,
1587,
1521,
1554,
1546,
1473,
1536,
1505,
1466,
1474,
1388,
1387,
1411,
1433,
1487,
1416,
1394,
1370,
1323,
1374,
1353,
1297,
1289,
1316,
1308,
1291,
1308,
1300,
1391,
1348,
1322,
1356,
1393,
1386,
1446,
1411,
1411,
1263,
1260,
1212,
1221,
1152,
1224,
1202,
1252,
1260,
1202,
1183,
1060,
1075,
1051,
1080,
1076,
1002,
983,
1073,
1011,
1012,
942,
971,
1044,
970,
945,
970,
977,
984,
911,
896,
979,
1081,
1053,
1272,
1505,
1584,
1726,
1650,
1557,
1299,
1104,
929,
865,
808,
828,
852,
854,
805,
795,
805,
812,
727,
763,
723,
705,
723,
704,
685,
696,
652,
628,
672,
663,
653,
642,
577,
601,
614,
600,
622,
618,
539,
628,
526,
585,
545,
595,
504,
497,
526,
508,
555,
483,
501,
488,
465,
491,
500,
430,
433,
464,
451,
447,
447,
423,
405,
461,
402,
417,
422,
388,
468,
461,
475,
487,
523,
489,
464,
434,
406,
358,
371,
315,
365,
340,
347,
355,
294,
288,
292,
270,
259,
290,
267,
245,
267,
237,
241,
238,
219,
204,
209,
220,
192,
196,
175,
182,
177,
186,
190,
180,
157,
173,
167,
147,
175,
164,
149,
121,
130,
159,
108,
135,
128,
119,
126,
114,
102,
120,
101,
82,
96,
85,
96,
74,
78,
72,
64,
71,
54,
53,
58,
61,
48,
57,
45,
33,
31,
25,
23,
23,
21,
20,
13,
6,
8,
6,
10,
5,
2,
0,
1,
2,
3,
2,
5,
2,
3,
1,
2,
3,
2,
0,
3,
3,
1,
2,
3,
0,
3,
2,
1,
1,
2,
2,
4,
4,
1,
1,
3,
4,
0,
0,
3,
1,
0,
2,
3,
1,
1,
0,
3,
3,
4,
3,
1,
0,
0,
0,
0,
3,
0,
2,
0,
2,
0,
1,
1,
4,
2,
4,
2,
1,
1,
0,
1,
0,
1,
2,
1,
1,
0,
2,
4,
3,
0,
3,
0,
1,
2,
1,
0,
1,
0,
3,
0,
0,
2,
0,
2,
1,
1,
1,
1,
1,
1,
1,
0,
2,
0,
0,
3,
0,
1,
1,
0,
1,
0,
1,
0,
1,
0,
1,
0,
0,
0,
2,
0,
1,
0,
0,
0,
0,
1,
1,
0,
0,
1,
0,
1,
1,
0,
0,
1,
0,
1,
0,
1,
0,
0,
0,
0,
0,
0,
0,
0,
0,
0,
1,
0,
0,
1,
1,
1,
0,
2,
1,
0,
0,
1,
0,
0,
0,
1,
1,
0,
0,
0,
0,
0,
0,
0,
0,
0,
0,
0,
0,
0,
0,
2,
0,
0,
0,
0,
0,
0,
1,
0,
0,
0,
0,
0,
0,
0,
1,
0,
2,
0,
0,
0,
0,
0,
0,
0,
0,
0,
0,
1,
0,
0,
0,
0,
0,
0,
1,
0,
1,
0,
0,
0,
0,
0,
0,
0,
0,
0,
0,
0,
0,
0,
0,
1,
0,
0,
0,
0,
0,
0,
2,
0,
1,
0,
1,
0,
0,
0,
0,
0,
0,
1,
0,
0,
0,
0,
0,
0,
0,
0,
1,
0,
0,
0,
0,
0,
0,
0,
0,
0,
0,
0,
0,
0,
0,
0,
0,
0,
0,
0,
0,
0,
0,
0,
0,
0,
0,
0,
0,
0,
0,
0,
0,
0,
0,
0,
0,
0,
0,
0,
0,
0,
0,
0,
0,
0,
0,
0,
0,
0,
0,
0,
0,
0,
0,
0,
0,
1,
0,
0,
0,
0,
0,
0,
0,
0,
0,
0,
0,
0,
0,
0,
1,
0,
0,
0,
0,
0,
0,
0,
0,
0,
0,
0,
0,
0,
0,
0,
0,
0,
0,
0,
0,
0,
0,
0,
0,
0,
0,
0,
0,
0,
0,
0,
0,
0,
0,
0,
0,
0,
0,
0,
0,
0,
0,
0,
0,
0,
0,
0,
0,
0,
0,
0,
0,
0,
0,
0,
0,
0,
0,
0,
0,
0,
0,
0,
0,
0,
0,
0,
0,
0,
0,
0,
0,
0,
0,
0,
0,
0,
0,
0,
0,
0,
0,
0,
0,
0,
0,
0,
0,
0,
0,
0,
0,
0,
0,
0,
0,
0,
0,
0,
0,
0,
0,
0,
0,
0,
0,
0,
0,
0,
0,
0,
0,
0,
0,
0,
0,
0,
0,
0,
0,
0,
0,
0,
0,
0,
0,
0,
0,
0,
0,
0,
0,
0,
0,
0,
0,
0,
0,
0,
0,
0,
0,
0,
0,
0,
0,
0,
0,
0,
0,
0,
0,
0,
0,
0,
0,
0,
0,
0,
0,
0,
0,
0,
0,
0,
0,
0,
0,
0,
0,
0,
0,
0,
0,
0,
0,
0,
0,
0,
0,
0,
0,
0,
0,
0,
0,
0,
0,
0,
0,
0,
0,
0,
0,
0,
0,
0,
0,
0,
0,
0,
0,
0,
0,
0,
0,
0,
0,
0,
0,
0,
0,
0,
0,
0,
0,
0,
0,
0,
0,
0,
0,
0,
0,
0,
0,
0,
0,
0,
0,
0,
0,
0,
0,
0,
0,
0,
0,
0,
0,
0,
0,
0,
0,
0,
0,
0,
0,
0,
0,
0,
0,
0,
0,
0,
0,
0,
0,
0,
0,
0,
0,
0,
0,
0,
0,
0,
0,
0,
0,
0,
0,
0,
0,
0,
0,
0,
0,
0,
0,
0,
0,
0,
0,
0,
0,
0,
0,
0,
0,
0,
0,
0,
0,
0,
0,
0,
0,
0,
0,
0,
0,
0,
0,
0,
0,
0,
0,
0,
0,
0,
0,
0,
0,
0,
0,
0,
0,
0,
0,
0,
0,
0,
0,
0,
0,
0,
0,
0,
0,
0,
0,
0,
0,
0,
0,
0,
0,
0,
0,
0,
0,
0,
0,
0,
0,
0,
0,
0,
0,
0,
0,
0,
0,
0,
0,
0,
0,
0,
0,
0,
0,
0,
0,
0,
0,
0,
0,
0,
0,
0,
0,
0,
0,
0,
0,
0,
0,
0,
0,
0,
0,
0,
0,
0,
0,
0,
0,
0,
0,
0,
0,
0,
0,
0,
0,
0,
0,
0,
0,
0,
0,
0,
0,
0,
0,
0,
0,
0,
0,
0,
0,
0,
0,
0,
0,
0,
0,
0,
0,
0,
0,
0,
0,
0,
0,
0,
0,
0,
0,
0,
0,
0,
0,
0,
0,
0,
0,
0,
0,
0,
0,
0,
0,
0,
0,
0,
0,
0,
0,
0,
0,
0,
0,
0,
0,
0,
0,
0,
0,
0,
0,
0,
0,
0,
0,
0,
0,
0,
0,
0,
0,
0,
0,
0,
0,
0,
0,
0,
0,
0,
0,
0,
0,
0,
0,
0,
0,
0,
0,
0,
0,
0,
0,
0,
0,
0,
0,
0,
0,
0,
0,
0,
0,
0,
0,
0,
0,
0,
0,
0,
0,
0,
0,
0,
0,
0,
0,
0,
0,
0,
0,
0,
0,
0,
0,
0,
0,
0,
0,
#ENDOFDATA   :