File: N132962/Quantification/15 keV/GMIIIA/GMIIIA K1053[5][4].msa
#FORMAT      : EMSA/MAS Spectral Data File
#VERSION     : 1.0
#TITLE       : GMIIIA K1053[5][all]
#DATE        : 22-SEP-2025
#TIME        : 21:16
#OWNER       : Unknown
#NPOINTS     : 4096
#NCOLUMNS    : 1
#XUNITS      : eV
#YUNITS      : counts
#DATATYPE    : Y
#XPERCHAN    : 9.99778
#OFFSET      : 1.69135
#BEAMKV      : 15
#SIGNALTYPE  : EDS
#ELEVANGLE   : 35
#AZIMANGLE   : 0
#LIVETIME    : 239.897
#REALTIME    : 260.996
#PROBECUR    : 1.21822
#TAUWIND     : 0
#TDEADLYR    : 0
#TACTLYR     : 0.045
#TALWIND     : 0.025
#CHOFFSET    : 0.0
#XLABEL      : Energy (eV)
#YLABEL      : Counts
#XPOSITION   : 4.58185
#YPOSITION   : 15.44591
#ZPOSITION   : 37.36299
#EDSDET      : SD
##SPECIMEN   : GMIIIA K1053[5][all]
##D2STDCMP   : K1053,(O:16.13),(F:0.39),(Si:9.35),(Cl:0.64),(Br:1.09),(I:1.37),(Pb:71.02)
##DET_HASH   : 12273538-fd48-a23f-0a19-f1e6fa85caef
##CALIB_HASH : 6abaa72c-aa41-8738-0be9-f592914732f3
##WORKING    : 15.0 mm
##DET_NAME   : EDAX All
##DET_MODE   : MediumLE
#SPECTRUM    :
20,
23,
10,
49,
331,
1195,
3106,
6694,
12822,
15636,
10753,
7736,
7269,
7410,
8434,
15429,
41146,
71809,
53219,
19182,
10355,
9851,
10422,
10861,
8845,
7681,
7528,
7731,
8251,
8409,
8362,
8541,
8522,
8970,
8985,
9104,
9222,
9267,
9347,
9463,
9743,
9757,
10069,
10242,
10331,
10233,
10523,
11076,
12994,
15377,
15718,
13597,
12068,
11173,
11230,
15340,
34287,
74247,
98831,
75416,
41643,
26376,
19029,
12605,
9580,
8902,
8503,
8459,
8318,
8390,
8721,
9613,
10651,
11678,
13492,
21416,
47254,
101128,
147459,
142248,
112814,
102521,
87404,
51858,
22339,
10684,
9624,
12401,
13942,
12608,
9195,
6592,
5525,
5317,
5253,
5571,
5454,
5540,
5758,
5656,
5830,
6256,
6866,
6824,
6589,
6078,
5648,
5414,
5082,
4889,
4816,
4761,
4731,
4828,
4808,
4760,
4839,
4923,
5015,
4724,
4747,
4679,
4584,
4861,
4649,
4801,
4661,
4687,
4798,
5016,
5438,
5635,
5846,
5363,
4749,
4532,
4541,
4554,
4748,
4734,
4939,
5043,
5014,
4658,
4494,
4451,
4231,
4261,
4394,
4596,
4637,
4534,
4466,
4341,
4118,
4073,
4033,
4056,
4117,
4289,
4249,
4244,
4199,
3929,
3907,
3942,
3863,
3939,
3819,
3856,
3735,
3758,
3846,
3624,
3653,
3705,
3721,
3569,
3598,
3557,
3523,
3492,
3533,
3444,
3463,
3513,
3364,
3516,
3469,
3488,
3376,
3373,
3279,
3306,
3217,
3319,
3296,
3260,
3255,
3270,
3116,
3185,
3189,
3213,
3108,
3065,
3110,
3176,
3072,
3030,
2958,
3028,
3075,
3145,
3175,
2914,
2914,
2789,
2957,
2941,
2864,
2835,
2781,
2760,
2727,
2752,
2705,
2802,
2593,
2595,
2658,
2627,
2659,
2556,
2673,
2554,
2507,
2561,
2520,
2599,
2373,
2573,
2465,
2369,
2420,
2472,
2430,
2431,
2455,
2400,
2322,
2337,
2314,
2367,
2321,
2203,
2205,
2276,
2304,
2129,
2248,
2162,
2060,
2096,
2164,
2126,
2052,
2077,
2063,
2040,
2062,
2067,
2005,
2039,
1968,
2068,
2037,
1945,
1918,
1931,
1869,
1915,
1889,
1843,
1883,
1777,
1848,
1765,
1821,
1709,
1726,
1738,
1707,
1707,
1714,
1702,
1682,
1760,
1679,
1674,
1710,
1613,
1639,
1640,
1621,
1642,
1717,
1669,
1578,
1609,
1572,
1498,
1515,
1483,
1459,
1359,
1445,
1449,
1467,
1389,
1427,
1470,
1393,
1441,
1362,
1354,
1362,
1356,
1346,
1363,
1335,
1261,
1311,
1297,
1239,
1242,
1226,
1199,
1236,
1254,
1180,
1258,
1148,
1219,
1234,
1235,
1347,
1595,
1775,
2123,
2478,
2620,
2521,
2237,
1934,
1563,
1271,
1164,
1055,
1014,
995,
977,
946,
971,
938,
980,
889,
975,
919,
895,
876,
879,
891,
828,
884,
870,
825,
911,
812,
811,
798,
745,
791,
782,
761,
755,
746,
747,
681,
726,
716,
744,
712,
724,
717,
705,
689,
730,
636,
652,
654,
613,
601,
622,
605,
583,
612,
608,
600,
528,
565,
574,
524,
548,
548,
561,
560,
624,
703,
709,
698,
736,
680,
591,
568,
479,
434,
427,
461,
434,
440,
386,
442,
396,
397,
352,
362,
371,
345,
331,
318,
342,
299,
300,
272,
313,
285,
291,
289,
274,
259,
278,
223,
249,
223,
240,
234,
253,
219,
239,
219,
213,
208,
194,
188,
204,
176,
186,
183,
163,
169,
130,
147,
140,
124,
129,
139,
111,
126,
103,
124,
126,
90,
116,
92,
64,
65,
75,
59,
65,
46,
35,
46,
45,
41,
25,
32,
27,
14,
14,
8,
11,
8,
8,
7,
5,
7,
1,
5,
3,
3,
3,
3,
4,
1,
5,
3,
3,
5,
2,
4,
4,
4,
6,
2,
5,
4,
1,
5,
1,
2,
5,
4,
4,
3,
2,
3,
4,
3,
2,
3,
3,
4,
2,
3,
2,
2,
2,
2,
0,
0,
0,
3,
1,
2,
0,
1,
1,
1,
0,
1,
4,
9,
2,
9,
1,
3,
2,
3,
2,
3,
1,
2,
2,
2,
3,
1,
1,
0,
4,
1,
1,
3,
1,
0,
0,
0,
1,
1,
1,
3,
1,
1,
1,
1,
2,
3,
4,
1,
0,
0,
0,
0,
1,
4,
0,
1,
1,
0,
1,
0,
0,
0,
1,
1,
1,
0,
0,
1,
1,
0,
2,
0,
1,
0,
1,
1,
1,
2,
2,
2,
0,
1,
3,
2,
1,
1,
0,
0,
0,
0,
0,
2,
2,
1,
0,
1,
1,
1,
0,
0,
0,
1,
1,
0,
2,
1,
1,
0,
1,
1,
1,
0,
0,
1,
0,
0,
1,
0,
0,
2,
0,
4,
1,
0,
1,
0,
0,
1,
0,
0,
0,
1,
1,
1,
0,
1,
0,
0,
0,
0,
0,
0,
0,
0,
0,
1,
0,
2,
0,
1,
0,
0,
1,
2,
0,
1,
0,
0,
0,
2,
0,
2,
1,
1,
1,
0,
0,
0,
0,
0,
1,
0,
0,
0,
0,
0,
0,
0,
0,
0,
1,
0,
2,
0,
0,
0,
1,
0,
1,
0,
0,
0,
0,
0,
0,
1,
0,
0,
0,
0,
0,
1,
0,
0,
0,
0,
0,
1,
1,
0,
0,
0,
0,
0,
0,
0,
0,
0,
0,
0,
0,
0,
0,
0,
0,
0,
0,
0,
0,
1,
0,
0,
0,
1,
0,
0,
0,
0,
0,
0,
1,
0,
0,
0,
0,
0,
0,
1,
0,
0,
0,
0,
0,
0,
0,
0,
1,
0,
0,
1,
0,
0,
0,
1,
0,
0,
0,
0,
0,
0,
0,
0,
0,
0,
0,
0,
0,
0,
0,
0,
1,
0,
0,
0,
0,
0,
0,
0,
0,
0,
0,
0,
0,
0,
0,
0,
0,
0,
0,
0,
0,
0,
0,
0,
0,
0,
0,
0,
0,
0,
0,
0,
0,
0,
0,
1,
0,
0,
0,
0,
0,
0,
0,
0,
0,
0,
0,
0,
0,
0,
0,
0,
0,
0,
0,
0,
0,
0,
0,
0,
0,
0,
0,
0,
0,
0,
0,
0,
0,
0,
0,
0,
0,
0,
0,
0,
0,
0,
0,
0,
0,
0,
0,
0,
0,
0,
0,
0,
0,
0,
0,
0,
0,
0,
0,
0,
0,
0,
0,
0,
0,
0,
0,
0,
0,
0,
0,
0,
0,
0,
0,
0,
0,
0,
0,
0,
0,
0,
0,
0,
0,
0,
0,
0,
0,
0,
0,
0,
0,
0,
0,
0,
0,
0,
0,
0,
0,
0,
0,
0,
0,
0,
0,
0,
0,
0,
0,
0,
0,
0,
0,
0,
0,
0,
0,
0,
0,
0,
0,
0,
0,
0,
0,
0,
0,
0,
0,
0,
0,
0,
0,
0,
0,
0,
0,
0,
0,
0,
0,
0,
0,
0,
0,
0,
0,
0,
0,
0,
0,
0,
0,
0,
0,
0,
0,
0,
0,
0,
0,
0,
0,
0,
0,
0,
0,
0,
0,
0,
0,
0,
0,
0,
0,
0,
0,
0,
0,
0,
0,
0,
0,
0,
0,
0,
0,
0,
0,
0,
0,
0,
0,
0,
0,
0,
0,
0,
0,
0,
0,
0,
0,
0,
0,
0,
0,
0,
0,
0,
0,
0,
0,
0,
0,
0,
0,
0,
0,
0,
0,
0,
0,
0,
0,
0,
0,
0,
0,
0,
0,
0,
0,
0,
0,
0,
0,
0,
0,
0,
0,
0,
0,
0,
0,
0,
0,
0,
0,
0,
0,
0,
0,
0,
0,
0,
0,
0,
0,
0,
0,
0,
0,
0,
0,
0,
0,
0,
0,
0,
0,
0,
0,
0,
0,
0,
0,
0,
0,
0,
0,
0,
0,
0,
0,
0,
0,
0,
0,
0,
0,
0,
0,
0,
0,
0,
0,
0,
0,
0,
0,
0,
0,
0,
0,
0,
0,
0,
0,
0,
0,
0,
0,
0,
0,
0,
0,
0,
0,
0,
0,
0,
0,
0,
0,
0,
0,
0,
0,
0,
0,
0,
0,
0,
0,
0,
0,
0,
0,
0,
0,
0,
0,
0,
0,
0,
0,
0,
0,
0,
0,
0,
0,
0,
0,
0,
0,
0,
0,
0,
0,
0,
0,
0,
0,
0,
0,
0,
0,
0,
0,
0,
0,
0,
0,
0,
0,
0,
0,
0,
0,
0,
0,
0,
0,
0,
0,
0,
0,
0,
0,
0,
0,
0,
0,
0,
0,
0,
0,
0,
0,
0,
0,
0,
0,
0,
0,
0,
0,
0,
0,
0,
0,
0,
0,
0,
0,
0,
0,
0,
0,
0,
0,
0,
0,
0,
0,
0,
0,
0,
0,
0,
0,
0,
0,
0,
0,
0,
0,
0,
0,
0,
0,
0,
0,
0,
0,
0,
0,
0,
0,
0,
0,
0,
0,
0,
0,
0,
0,
0,
0,
0,
0,
0,
0,
0,
0,
0,
0,
0,
0,
0,
0,
0,
0,
0,
0,
0,
0,
0,
0,
0,
0,
0,
0,
0,
0,
0,
0,
0,
0,
0,
0,
0,
0,
0,
0,
#ENDOFDATA   :