File: N132962/Quantification/15 keV/GMIIIA/GMIIIA K253[4][4].msa
#FORMAT      : EMSA/MAS Spectral Data File
#VERSION     : 1.0
#TITLE       : GMIIIA K253[4][all]
#DATE        : 22-SEP-2025
#TIME        : 14:44
#OWNER       : Unknown
#NPOINTS     : 4096
#NCOLUMNS    : 1
#XUNITS      : eV
#YUNITS      : counts
#DATATYPE    : Y
#XPERCHAN    : 9.99778
#OFFSET      : 1.69135
#BEAMKV      : 15
#SIGNALTYPE  : EDS
#ELEVANGLE   : 35
#AZIMANGLE   : 0
#LIVETIME    : 239.9699
#REALTIME    : 257.124
#PROBECUR    : 1.21983
#TAUWIND     : 0
#TDEADLYR    : 0
#TACTLYR     : 0.045
#TALWIND     : 0.025
#CHOFFSET    : 0.0
#XLABEL      : Energy (eV)
#YLABEL      : Counts
#XPOSITION   : 2.52118
#YPOSITION   : 2.35389
#ZPOSITION   : 37.36299
#EDSDET      : SD
##SPECIMEN   : GMIIIA K253[4][all]
##D2STDCMP   : K253,(O:31.64),(Si:18.7),(Mn:6.32),(Co:1.97),(Cu:2.0),(Zn:8.03),(Ba:31.35)
##DET_HASH   : 12273538-fd48-a23f-0a19-f1e6fa85caef
##CALIB_HASH : 6abaa72c-aa41-8738-0be9-f592914732f3
##WORKING    : 15.0 mm
##DET_NAME   : EDAX All
##DET_MODE   : MediumLE
#SPECTRUM    :
26,
36,
9,
31,
144,
602,
1504,
3776,
7821,
10020,
7320,
6401,
7118,
8473,
12541,
35174,
120324,
223063,
165306,
51825,
19422,
15602,
11871,
8122,
8159,
11595,
13926,
10788,
7625,
8240,
10669,
14092,
18306,
28176,
32920,
22082,
10360,
6214,
5106,
4813,
4798,
4905,
5194,
5159,
5185,
5390,
5359,
5664,
5678,
6150,
6348,
6317,
6269,
6266,
7046,
13361,
42772,
104375,
140933,
100617,
42651,
16532,
9021,
5929,
4767,
4467,
4326,
4331,
4371,
4318,
4440,
4303,
4372,
4398,
4671,
4890,
4659,
4555,
4586,
4359,
4278,
4191,
4139,
4217,
4079,
4177,
4176,
4203,
4240,
4231,
4218,
4306,
4274,
4060,
3955,
3999,
3936,
3823,
3850,
3747,
3768,
3753,
3812,
3659,
3702,
3608,
3668,
3732,
3481,
3509,
3540,
3542,
3410,
3470,
3541,
3484,
3466,
3427,
3215,
3240,
3348,
3234,
3169,
3075,
3081,
3144,
3122,
3096,
3121,
3241,
3513,
3902,
4059,
3807,
3442,
3082,
2970,
2981,
2870,
2813,
2862,
2858,
2987,
3246,
3739,
5408,
10101,
18772,
28751,
32351,
26531,
16330,
7960,
4164,
2977,
2613,
2751,
3466,
5456,
9158,
13644,
16153,
14633,
11264,
7991,
5816,
4369,
3472,
3191,
3578,
4846,
6450,
7066,
6287,
4673,
3230,
2453,
2134,
2073,
2037,
2115,
2365,
2765,
3366,
3729,
3669,
3204,
2588,
2073,
1964,
2161,
2296,
2915,
3932,
5723,
8048,
9537,
9492,
7446,
4914,
3104,
2150,
1740,
1702,
1570,
1597,
1572,
1698,
1649,
1523,
1591,
1643,
1749,
1858,
2141,
2333,
2541,
2406,
2165,
1869,
1573,
1407,
1399,
1395,
1388,
1397,
1441,
1648,
2011,
2433,
2697,
2812,
2580,
2165,
1657,
1473,
1303,
1291,
1261,
1292,
1252,
1166,
1214,
1261,
1201,
1235,
1181,
1164,
1181,
1217,
1177,
1195,
1217,
1345,
1313,
1338,
1217,
1175,
1138,
1139,
1075,
1050,
1038,
1152,
1191,
1406,
1711,
1956,
2024,
1884,
1590,
1314,
1157,
1025,
1011,
966,
959,
960,
994,
932,
941,
897,
1038,
1200,
1696,
2259,
2979,
3536,
3616,
3129,
2356,
1564,
1253,
1043,
891,
935,
933,
907,
906,
819,
758,
853,
782,
779,
780,
709,
777,
768,
732,
695,
721,
662,
699,
710,
732,
791,
868,
948,
983,
972,
976,
904,
778,
694,
628,
604,
627,
596,
607,
592,
589,
628,
610,
543,
577,
599,
535,
538,
547,
539,
496,
538,
545,
486,
502,
519,
533,
477,
508,
482,
496,
456,
478,
472,
451,
467,
476,
436,
477,
437,
461,
421,
410,
364,
405,
432,
422,
363,
376,
378,
382,
392,
415,
414,
358,
360,
389,
386,
380,
368,
316,
363,
342,
328,
343,
327,
295,
321,
339,
269,
337,
302,
329,
315,
318,
270,
259,
284,
272,
262,
262,
272,
261,
253,
234,
275,
244,
242,
256,
224,
247,
223,
226,
251,
207,
205,
206,
204,
189,
200,
176,
218,
191,
169,
169,
179,
167,
162,
179,
167,
165,
158,
174,
141,
143,
132,
154,
151,
164,
136,
134,
117,
133,
134,
108,
120,
113,
125,
96,
92,
102,
103,
111,
97,
98,
101,
79,
98,
93,
84,
91,
92,
59,
85,
78,
72,
55,
51,
71,
45,
56,
62,
50,
51,
69,
43,
43,
38,
39,
47,
39,
48,
33,
34,
19,
39,
21,
20,
16,
11,
29,
18,
16,
13,
15,
15,
9,
7,
8,
4,
7,
3,
2,
2,
0,
1,
1,
4,
2,
1,
1,
3,
0,
1,
0,
2,
0,
1,
0,
3,
1,
0,
1,
1,
3,
1,
0,
0,
0,
3,
0,
1,
2,
0,
0,
0,
1,
2,
0,
1,
3,
1,
0,
1,
0,
0,
0,
1,
0,
1,
2,
0,
1,
1,
1,
0,
1,
3,
0,
0,
0,
0,
2,
0,
0,
0,
1,
2,
0,
0,
0,
2,
0,
1,
0,
1,
1,
2,
1,
1,
0,
0,
3,
0,
0,
0,
3,
0,
0,
1,
1,
0,
0,
0,
1,
1,
1,
0,
0,
1,
1,
0,
1,
0,
0,
0,
0,
2,
0,
2,
3,
0,
0,
0,
0,
0,
0,
0,
0,
0,
1,
0,
0,
0,
1,
1,
1,
0,
0,
1,
0,
0,
0,
0,
0,
0,
0,
0,
1,
0,
0,
0,
1,
0,
0,
0,
0,
0,
0,
2,
0,
0,
0,
0,
0,
0,
0,
0,
0,
0,
0,
0,
1,
0,
0,
0,
0,
1,
0,
0,
0,
0,
0,
0,
0,
0,
0,
0,
1,
0,
0,
0,
0,
0,
0,
0,
0,
0,
0,
1,
0,
0,
0,
0,
1,
0,
0,
0,
0,
0,
0,
0,
0,
0,
0,
0,
0,
0,
0,
0,
0,
0,
0,
0,
0,
0,
0,
1,
0,
0,
0,
0,
0,
0,
0,
0,
0,
0,
0,
0,
0,
0,
0,
0,
0,
0,
0,
0,
0,
0,
0,
0,
0,
0,
0,
0,
0,
0,
0,
0,
0,
1,
0,
0,
0,
0,
0,
0,
0,
0,
0,
0,
0,
0,
0,
0,
0,
0,
0,
0,
0,
0,
0,
0,
0,
0,
0,
0,
0,
0,
0,
0,
0,
0,
0,
0,
0,
0,
0,
0,
0,
0,
0,
0,
0,
0,
0,
0,
0,
0,
0,
0,
0,
0,
0,
0,
0,
0,
0,
0,
0,
0,
0,
0,
0,
0,
1,
0,
0,
0,
0,
0,
0,
0,
0,
1,
0,
0,
0,
0,
0,
0,
0,
0,
0,
0,
0,
0,
0,
0,
0,
0,
0,
0,
0,
0,
0,
0,
0,
0,
0,
0,
0,
0,
0,
0,
0,
0,
0,
0,
0,
0,
0,
0,
0,
0,
0,
0,
0,
0,
0,
0,
0,
0,
0,
0,
0,
0,
0,
0,
0,
0,
0,
0,
0,
0,
0,
0,
0,
0,
0,
0,
0,
0,
0,
0,
0,
0,
0,
0,
0,
0,
0,
0,
0,
0,
0,
0,
0,
0,
0,
0,
0,
0,
0,
0,
0,
0,
0,
0,
0,
0,
0,
0,
0,
0,
0,
0,
0,
0,
0,
0,
0,
0,
0,
0,
0,
0,
0,
0,
0,
0,
0,
0,
0,
0,
0,
0,
0,
0,
0,
0,
0,
0,
0,
0,
0,
0,
0,
0,
0,
0,
0,
0,
0,
0,
0,
0,
0,
0,
0,
0,
0,
0,
0,
0,
0,
0,
0,
0,
0,
0,
0,
0,
0,
0,
0,
0,
0,
0,
0,
0,
0,
0,
0,
0,
0,
0,
0,
0,
0,
0,
0,
0,
0,
0,
0,
0,
0,
0,
0,
0,
0,
0,
0,
0,
0,
0,
0,
0,
0,
0,
0,
0,
0,
0,
0,
0,
0,
0,
0,
0,
0,
0,
0,
0,
0,
0,
0,
0,
0,
0,
0,
0,
0,
0,
0,
0,
0,
0,
0,
0,
0,
0,
0,
0,
0,
0,
0,
0,
0,
0,
0,
0,
0,
0,
0,
0,
0,
0,
0,
0,
0,
0,
0,
0,
0,
0,
0,
0,
0,
0,
0,
0,
0,
0,
0,
0,
0,
0,
0,
0,
0,
0,
0,
0,
0,
0,
0,
0,
0,
0,
0,
0,
0,
0,
0,
0,
0,
0,
0,
0,
0,
0,
0,
0,
0,
0,
0,
0,
0,
0,
0,
0,
0,
0,
0,
0,
0,
0,
0,
0,
0,
0,
0,
0,
0,
0,
0,
0,
0,
0,
0,
0,
0,
0,
0,
0,
0,
0,
0,
0,
0,
0,
0,
0,
0,
0,
0,
0,
0,
0,
0,
0,
0,
0,
0,
0,
0,
0,
0,
0,
0,
0,
0,
0,
0,
0,
0,
0,
0,
0,
0,
0,
0,
0,
0,
0,
0,
0,
0,
0,
0,
0,
0,
0,
0,
0,
0,
0,
0,
0,
0,
0,
0,
0,
0,
0,
0,
0,
0,
0,
0,
0,
0,
0,
0,
0,
0,
0,
0,
0,
0,
0,
0,
0,
0,
0,
0,
0,
0,
0,
0,
0,
0,
0,
0,
0,
0,
0,
0,
0,
0,
0,
0,
0,
0,
0,
0,
0,
0,
0,
0,
0,
0,
0,
0,
0,
0,
0,
0,
0,
0,
0,
0,
0,
0,
0,
0,
0,
0,
0,
0,
0,
0,
0,
0,
0,
0,
0,
0,
0,
0,
0,
0,
0,
0,
0,
0,
0,
0,
0,
0,
0,
0,
0,
0,
0,
0,
0,
0,
0,
0,
0,
0,
0,
0,
0,
0,
0,
0,
0,
0,
0,
0,
0,
0,
0,
0,
0,
0,
0,
0,
0,
0,
0,
0,
0,
0,
0,
0,
0,
0,
0,
0,
0,
0,
0,
0,
0,
0,
0,
0,
0,
0,
0,
0,
0,
0,
0,
0,
0,
0,
0,
0,
0,
0,
0,
0,
0,
0,
0,
0,
0,
0,
0,
#ENDOFDATA   :