File: N132962/Quantification/15 keV/GMIIIA/GMIIIA K229[0][4].msa
#FORMAT      : EMSA/MAS Spectral Data File
#VERSION     : 1.0
#TITLE       : GMIIIA K229[0][all]
#DATE        : 22-SEP-2025
#TIME        : 14:23
#OWNER       : Unknown
#NPOINTS     : 4096
#NCOLUMNS    : 1
#XUNITS      : eV
#YUNITS      : counts
#DATATYPE    : Y
#XPERCHAN    : 9.99778
#OFFSET      : 1.69135
#BEAMKV      : 15
#SIGNALTYPE  : EDS
#ELEVANGLE   : 35
#AZIMANGLE   : 0
#LIVETIME    : 239.906
#REALTIME    : 260.1414
#PROBECUR    : 1.21983
#TAUWIND     : 0
#TDEADLYR    : 0
#TACTLYR     : 0.045
#TALWIND     : 0.025
#CHOFFSET    : 0.0
#XLABEL      : Energy (eV)
#YLABEL      : Counts
#XPOSITION   : 5.92752
#YPOSITION   : 0.71367
#ZPOSITION   : 37.36299
#EDSDET      : SD
##SPECIMEN   : GMIIIA K229[0][all]
##D2STDCMP   : K229,(O:20.99),(Si:14.02),(Pb:64.98)
##DET_HASH   : 12273538-fd48-a23f-0a19-f1e6fa85caef
##CALIB_HASH : 6abaa72c-aa41-8738-0be9-f592914732f3
##WORKING    : 15.0 mm
##DET_NAME   : EDAX All
##DET_MODE   : MediumLE
#SPECTRUM    :
23,
32,
12,
46,
247,
934,
2484,
5711,
11463,
14203,
9658,
7247,
6980,
7233,
8560,
17381,
51580,
91429,
67151,
22469,
9659,
8174,
8246,
8679,
8193,
7018,
6891,
7193,
7590,
7641,
7745,
7820,
8078,
8209,
8089,
8529,
8479,
8657,
8605,
8872,
9037,
9178,
9201,
9403,
9474,
9469,
9678,
9599,
9919,
10274,
10287,
10323,
10027,
10098,
10836,
17227,
45174,
104028,
138659,
102567,
51658,
28563,
18611,
11882,
8739,
7825,
7543,
7429,
7406,
7505,
7679,
8562,
9371,
10546,
12159,
18891,
42220,
88313,
128517,
124487,
99095,
90535,
76124,
45545,
19624,
8972,
7229,
8744,
10330,
9971,
7933,
6068,
4916,
4793,
4817,
4842,
5044,
5097,
5194,
5257,
5453,
5856,
6189,
6279,
5996,
5556,
5188,
4820,
4537,
4456,
4392,
4410,
4567,
4287,
4393,
4465,
4457,
4585,
4484,
4295,
4371,
4303,
4359,
4340,
4253,
4292,
4142,
4316,
4102,
4033,
4031,
4002,
4141,
4027,
4029,
4101,
4078,
4131,
4142,
4105,
4118,
3927,
3897,
3887,
3832,
3833,
3849,
3802,
3853,
3915,
3927,
4049,
3915,
3731,
3786,
3717,
3768,
3716,
3746,
3707,
3797,
3843,
3610,
3615,
3599,
3553,
3416,
3466,
3357,
3430,
3364,
3371,
3240,
3352,
3364,
3330,
3334,
3161,
3322,
3186,
3196,
3214,
3152,
3149,
3101,
3236,
3172,
3094,
3112,
3059,
2974,
3032,
2990,
2896,
2970,
2974,
2913,
2932,
2827,
2781,
2785,
2816,
2788,
2742,
2855,
2772,
2723,
2816,
2773,
2662,
2712,
2727,
2707,
2764,
2700,
2722,
2599,
2591,
2565,
2528,
2514,
2382,
2515,
2419,
2440,
2494,
2358,
2371,
2327,
2337,
2413,
2304,
2353,
2407,
2275,
2379,
2325,
2195,
2287,
2181,
2236,
2241,
2178,
2179,
2156,
2181,
2101,
2120,
2210,
2143,
2174,
2073,
2123,
2008,
2008,
1902,
2048,
1998,
1877,
1987,
1815,
1933,
1904,
1911,
1926,
1802,
1826,
1814,
1926,
1750,
1758,
1759,
1794,
1773,
1802,
1750,
1708,
1727,
1751,
1672,
1700,
1681,
1640,
1611,
1667,
1582,
1567,
1593,
1586,
1569,
1566,
1606,
1522,
1573,
1503,
1475,
1459,
1426,
1443,
1491,
1343,
1455,
1489,
1461,
1462,
1473,
1514,
1458,
1455,
1395,
1372,
1401,
1330,
1280,
1332,
1302,
1309,
1266,
1244,
1311,
1296,
1216,
1227,
1251,
1221,
1201,
1225,
1166,
1247,
1155,
1151,
1106,
1145,
1122,
1092,
1141,
1062,
1049,
1110,
1057,
1032,
1061,
1009,
1056,
1065,
1107,
1224,
1386,
1616,
1838,
2059,
2219,
2249,
1960,
1684,
1333,
1159,
960,
943,
882,
870,
885,
862,
792,
812,
766,
816,
810,
817,
799,
747,
773,
788,
718,
787,
731,
736,
758,
689,
707,
670,
684,
648,
673,
691,
694,
642,
668,
687,
625,
624,
643,
620,
590,
572,
547,
545,
561,
545,
557,
530,
612,
563,
538,
530,
503,
506,
515,
463,
490,
502,
454,
487,
460,
479,
451,
526,
536,
572,
571,
635,
585,
547,
521,
482,
413,
407,
379,
389,
340,
362,
383,
367,
356,
345,
324,
344,
303,
336,
298,
300,
256,
291,
260,
273,
258,
263,
251,
241,
248,
225,
253,
235,
203,
210,
214,
199,
190,
194,
211,
182,
201,
166,
158,
175,
162,
160,
153,
142,
136,
130,
128,
128,
119,
134,
102,
108,
101,
102,
97,
94,
99,
76,
75,
73,
70,
59,
70,
62,
57,
59,
48,
38,
38,
30,
23,
17,
32,
14,
5,
20,
4,
6,
4,
4,
6,
2,
6,
3,
1,
3,
4,
2,
3,
3,
4,
1,
4,
2,
2,
3,
3,
4,
2,
1,
3,
5,
2,
1,
3,
2,
4,
1,
0,
1,
1,
1,
5,
1,
2,
2,
2,
0,
1,
0,
5,
1,
1,
2,
1,
0,
1,
1,
1,
2,
0,
0,
1,
0,
2,
2,
3,
2,
1,
0,
2,
0,
3,
1,
1,
5,
1,
0,
2,
0,
1,
0,
1,
0,
2,
3,
0,
2,
2,
3,
2,
0,
1,
3,
1,
1,
1,
1,
0,
1,
1,
1,
1,
0,
1,
2,
2,
6,
2,
0,
0,
0,
0,
1,
1,
1,
0,
2,
0,
1,
3,
1,
0,
1,
0,
1,
0,
2,
0,
0,
1,
1,
0,
0,
2,
2,
0,
1,
0,
1,
0,
1,
2,
0,
0,
1,
0,
1,
1,
0,
0,
1,
0,
0,
0,
2,
1,
0,
2,
0,
2,
1,
0,
1,
0,
0,
0,
2,
0,
0,
0,
1,
0,
0,
0,
0,
4,
0,
3,
1,
0,
1,
1,
0,
2,
0,
0,
0,
2,
0,
0,
0,
0,
0,
0,
0,
0,
0,
1,
2,
0,
0,
0,
0,
0,
0,
0,
0,
0,
1,
0,
0,
0,
0,
0,
1,
0,
1,
0,
1,
1,
0,
0,
0,
0,
0,
0,
0,
0,
1,
0,
0,
0,
1,
0,
0,
0,
0,
1,
0,
0,
0,
1,
1,
0,
0,
0,
1,
1,
0,
0,
0,
0,
0,
0,
0,
1,
0,
0,
0,
0,
0,
0,
0,
1,
0,
0,
0,
0,
1,
0,
0,
0,
0,
0,
0,
0,
0,
0,
0,
0,
0,
1,
0,
0,
0,
0,
0,
0,
0,
1,
0,
0,
0,
0,
0,
0,
0,
0,
0,
0,
0,
0,
0,
1,
0,
0,
0,
0,
0,
0,
0,
0,
0,
0,
0,
0,
0,
0,
0,
0,
0,
0,
0,
0,
0,
0,
0,
0,
0,
0,
0,
0,
0,
0,
0,
0,
0,
0,
0,
0,
0,
0,
0,
0,
1,
0,
0,
0,
0,
0,
0,
0,
0,
0,
0,
0,
0,
0,
0,
0,
0,
0,
0,
0,
0,
0,
0,
0,
0,
0,
0,
0,
0,
0,
0,
0,
0,
0,
0,
0,
0,
0,
0,
0,
0,
0,
0,
0,
0,
0,
0,
1,
0,
0,
0,
0,
0,
0,
0,
0,
0,
0,
0,
0,
0,
0,
0,
0,
0,
0,
0,
0,
0,
0,
0,
0,
0,
0,
0,
0,
0,
0,
0,
0,
0,
0,
0,
0,
0,
0,
0,
0,
0,
0,
0,
0,
0,
0,
0,
0,
0,
0,
0,
0,
0,
0,
0,
0,
0,
0,
0,
0,
0,
0,
0,
0,
0,
0,
0,
0,
0,
0,
0,
0,
0,
0,
0,
0,
0,
0,
0,
0,
0,
0,
0,
0,
0,
0,
0,
0,
0,
0,
0,
0,
0,
0,
0,
0,
0,
0,
0,
0,
0,
0,
0,
0,
0,
0,
0,
0,
0,
0,
0,
0,
0,
0,
0,
0,
0,
0,
0,
0,
0,
0,
0,
0,
0,
0,
0,
0,
0,
0,
0,
0,
0,
0,
0,
0,
0,
0,
0,
0,
0,
0,
0,
0,
0,
0,
0,
0,
0,
0,
0,
0,
0,
0,
0,
0,
0,
0,
0,
0,
0,
0,
0,
0,
0,
0,
0,
0,
0,
0,
0,
0,
0,
0,
0,
0,
0,
0,
0,
0,
0,
0,
0,
0,
0,
0,
0,
0,
0,
0,
0,
0,
0,
0,
0,
0,
0,
0,
0,
0,
0,
0,
0,
0,
0,
0,
0,
0,
0,
0,
0,
0,
0,
0,
0,
0,
0,
0,
0,
0,
0,
0,
0,
0,
0,
0,
0,
0,
0,
0,
0,
0,
0,
0,
0,
0,
0,
0,
0,
0,
0,
0,
0,
0,
0,
0,
0,
0,
0,
0,
0,
0,
0,
0,
0,
0,
0,
0,
0,
0,
0,
0,
0,
0,
0,
0,
0,
0,
0,
0,
0,
0,
0,
0,
0,
0,
0,
0,
0,
0,
0,
0,
0,
0,
0,
0,
0,
0,
0,
0,
0,
0,
0,
0,
0,
0,
0,
0,
0,
0,
0,
0,
0,
0,
0,
0,
0,
0,
0,
0,
0,
0,
0,
0,
0,
0,
0,
0,
0,
0,
0,
0,
0,
0,
0,
0,
0,
0,
0,
0,
0,
0,
0,
0,
0,
0,
0,
0,
0,
0,
0,
0,
0,
0,
0,
0,
0,
0,
0,
0,
0,
0,
0,
0,
0,
0,
0,
0,
0,
0,
0,
0,
0,
0,
0,
0,
0,
0,
0,
0,
0,
0,
0,
0,
0,
0,
0,
0,
0,
0,
0,
0,
0,
0,
0,
0,
0,
0,
0,
0,
0,
0,
0,
0,
0,
0,
0,
0,
0,
0,
0,
0,
0,
0,
0,
0,
0,
0,
0,
0,
0,
0,
0,
0,
0,
0,
0,
0,
0,
0,
0,
0,
0,
0,
0,
0,
0,
0,
0,
0,
0,
0,
0,
0,
0,
0,
0,
0,
0,
0,
0,
0,
0,
0,
0,
0,
0,
0,
0,
0,
0,
0,
0,
0,
0,
0,
0,
0,
0,
0,
0,
0,
0,
0,
0,
0,
0,
0,
0,
0,
0,
0,
0,
0,
0,
0,
0,
0,
#ENDOFDATA   :