File: N132962/Quantification/15 keV/GMIIIA/GMIIIA K240[6][4].msa
#FORMAT      : EMSA/MAS Spectral Data File
#VERSION     : 1.0
#TITLE       : GMIIIA K240[6][all]
#DATE        : 22-SEP-2025
#TIME        : 15:19
#OWNER       : Unknown
#NPOINTS     : 4096
#NCOLUMNS    : 1
#XUNITS      : eV
#YUNITS      : counts
#DATATYPE    : Y
#XPERCHAN    : 9.99778
#OFFSET      : 1.69135
#BEAMKV      : 15
#SIGNALTYPE  : EDS
#ELEVANGLE   : 35
#AZIMANGLE   : 0
#LIVETIME    : 240.031
#REALTIME    : 256.104
#PROBECUR    : 1.21681
#TAUWIND     : 0
#TDEADLYR    : 0
#TACTLYR     : 0.045
#TALWIND     : 0.025
#CHOFFSET    : 0.0
#XLABEL      : Energy (eV)
#YLABEL      : Counts
#XPOSITION   : 11.35619
#YPOSITION   : 1.74097
#ZPOSITION   : 37.36299
#EDSDET      : SD
##SPECIMEN   : GMIIIA K240[6][all]
##D2STDCMP   : K240,(O:34.0),(Mg:3.02),(Si:18.7),(Ti:6.0),(Zn:4.02),(Zr:7.4),(Ba:26.87)
##DET_HASH   : 12273538-fd48-a23f-0a19-f1e6fa85caef
##CALIB_HASH : 6abaa72c-aa41-8738-0be9-f592914732f3
##WORKING    : 15.0 mm
##DET_NAME   : EDAX All
##DET_MODE   : MediumLE
#SPECTRUM    :
20,
26,
8,
40,
157,
615,
1487,
3484,
7383,
9625,
7109,
6530,
8380,
10711,
13981,
30894,
98589,
180757,
132471,
39742,
11299,
6366,
5126,
5217,
5853,
7466,
8718,
7558,
6115,
5753,
5880,
6833,
10378,
17074,
20029,
14653,
8553,
6052,
5685,
6462,
10836,
19686,
23077,
15296,
8130,
5834,
5462,
5601,
5865,
6089,
6179,
6194,
6261,
6403,
7364,
14233,
44477,
107182,
144600,
104140,
44755,
17282,
9646,
6468,
5336,
6146,
9475,
16219,
21446,
19302,
15315,
12548,
9765,
7275,
5828,
5241,
4701,
4388,
4215,
3913,
3870,
3810,
3846,
4014,
3995,
3978,
3858,
3783,
3833,
3735,
3924,
3881,
3853,
3739,
3688,
3718,
3513,
3542,
3528,
3488,
3510,
3493,
3541,
3468,
3516,
3338,
3384,
3240,
3224,
3165,
3154,
3303,
3140,
3245,
3181,
3204,
3130,
3149,
3153,
2976,
2997,
2962,
2992,
3008,
2955,
2946,
2908,
2863,
2884,
2913,
3193,
3558,
3668,
3474,
3056,
2867,
2674,
2637,
2525,
2555,
2570,
2591,
2706,
2995,
3375,
4821,
8957,
17277,
28667,
36425,
35001,
25985,
14925,
7421,
3791,
2778,
2583,
3096,
4616,
7797,
11403,
13526,
12976,
10686,
8438,
6492,
4913,
3738,
3074,
3204,
4105,
5306,
5732,
5115,
3924,
2850,
2275,
1952,
1958,
1839,
1923,
2188,
2379,
2907,
3222,
3290,
2829,
2212,
1899,
1821,
1815,
1995,
2159,
2213,
2195,
1875,
1752,
1641,
1592,
1738,
1590,
1603,
1517,
1455,
1486,
1447,
1444,
1485,
1446,
1506,
1394,
1304,
1364,
1437,
1406,
1375,
1329,
1369,
1346,
1349,
1273,
1276,
1284,
1328,
1221,
1326,
1254,
1232,
1212,
1273,
1221,
1258,
1221,
1158,
1167,
1147,
1138,
1118,
1109,
1202,
1149,
1142,
1018,
1127,
1143,
1055,
1151,
1115,
1132,
1112,
1106,
1096,
1006,
1059,
962,
1015,
983,
971,
964,
1024,
956,
955,
873,
955,
1009,
911,
947,
945,
886,
911,
889,
925,
895,
846,
851,
867,
864,
831,
817,
848,
870,
822,
852,
948,
1186,
1449,
1810,
2063,
2032,
1848,
1493,
1166,
853,
781,
790,
746,
706,
706,
699,
739,
716,
741,
719,
723,
692,
671,
675,
649,
649,
676,
668,
682,
623,
629,
649,
681,
736,
773,
771,
771,
745,
687,
679,
603,
608,
559,
540,
554,
563,
594,
523,
544,
528,
472,
526,
520,
487,
536,
509,
501,
484,
487,
488,
478,
466,
447,
463,
451,
458,
474,
452,
423,
415,
450,
435,
435,
408,
425,
396,
376,
412,
397,
411,
397,
396,
351,
400,
384,
347,
381,
348,
370,
339,
350,
347,
345,
320,
313,
312,
330,
294,
328,
305,
270,
308,
306,
299,
284,
272,
286,
270,
284,
253,
248,
261,
272,
231,
242,
240,
244,
227,
226,
238,
247,
238,
205,
205,
214,
211,
191,
208,
171,
191,
201,
198,
183,
200,
180,
190,
159,
183,
192,
167,
164,
158,
153,
141,
146,
150,
143,
138,
147,
160,
129,
113,
118,
105,
130,
121,
131,
126,
105,
117,
106,
89,
117,
96,
101,
97,
81,
96,
84,
73,
96,
74,
77,
71,
80,
73,
80,
75,
75,
59,
72,
66,
62,
57,
77,
62,
48,
46,
60,
54,
58,
36,
44,
36,
37,
24,
38,
40,
28,
32,
26,
23,
19,
20,
18,
12,
19,
9,
20,
9,
15,
12,
5,
4,
6,
4,
1,
1,
2,
3,
2,
1,
0,
1,
3,
1,
0,
0,
1,
0,
2,
1,
0,
1,
0,
1,
0,
1,
3,
0,
1,
2,
2,
1,
2,
1,
1,
2,
2,
0,
0,
0,
0,
1,
1,
1,
2,
0,
2,
0,
0,
0,
0,
0,
1,
0,
2,
2,
0,
0,
4,
0,
2,
0,
1,
0,
2,
0,
2,
0,
1,
1,
0,
1,
1,
1,
0,
0,
0,
1,
1,
0,
0,
0,
1,
0,
0,
0,
0,
0,
0,
0,
0,
1,
0,
0,
0,
1,
0,
1,
0,
0,
0,
0,
0,
0,
1,
2,
0,
0,
0,
0,
1,
0,
1,
0,
2,
0,
0,
0,
0,
0,
0,
1,
0,
0,
0,
1,
1,
0,
0,
1,
0,
0,
0,
1,
1,
0,
0,
0,
0,
0,
0,
0,
0,
0,
1,
1,
0,
1,
0,
0,
0,
1,
0,
0,
0,
0,
1,
0,
0,
1,
1,
0,
0,
0,
0,
0,
0,
0,
0,
0,
0,
0,
0,
1,
0,
0,
0,
0,
1,
0,
0,
0,
0,
0,
0,
0,
0,
0,
0,
0,
0,
0,
0,
0,
0,
0,
0,
0,
0,
0,
0,
0,
0,
0,
0,
0,
0,
0,
0,
0,
0,
0,
0,
0,
0,
0,
0,
0,
0,
0,
0,
0,
0,
0,
1,
0,
0,
0,
0,
0,
0,
0,
0,
0,
0,
0,
0,
0,
0,
0,
0,
0,
0,
0,
0,
0,
0,
0,
0,
0,
0,
0,
0,
0,
0,
0,
0,
0,
0,
0,
0,
0,
0,
0,
0,
0,
0,
0,
0,
0,
0,
0,
0,
0,
0,
0,
0,
0,
0,
0,
0,
0,
0,
0,
0,
0,
0,
0,
0,
0,
0,
0,
0,
0,
0,
0,
0,
0,
0,
0,
0,
0,
0,
0,
0,
0,
0,
0,
0,
0,
0,
0,
0,
0,
0,
0,
0,
0,
0,
0,
0,
0,
0,
0,
0,
0,
0,
0,
0,
0,
0,
0,
0,
0,
0,
0,
0,
0,
0,
0,
0,
0,
0,
0,
0,
0,
0,
0,
0,
0,
0,
0,
0,
0,
0,
0,
0,
0,
0,
0,
0,
0,
0,
0,
0,
0,
0,
0,
0,
0,
0,
0,
0,
0,
0,
0,
0,
0,
0,
0,
0,
0,
0,
0,
0,
0,
0,
0,
0,
0,
0,
0,
0,
0,
0,
0,
0,
0,
0,
0,
0,
0,
0,
0,
0,
0,
0,
0,
0,
0,
0,
0,
0,
0,
0,
0,
0,
0,
0,
0,
0,
0,
0,
0,
0,
0,
0,
0,
0,
0,
0,
0,
0,
0,
0,
0,
0,
0,
0,
0,
0,
0,
0,
0,
0,
0,
0,
0,
0,
0,
0,
0,
0,
0,
0,
0,
0,
0,
0,
0,
0,
0,
0,
0,
0,
0,
0,
0,
0,
0,
0,
0,
0,
0,
0,
0,
0,
0,
0,
0,
0,
0,
0,
0,
0,
0,
0,
0,
0,
0,
0,
0,
0,
0,
0,
0,
0,
0,
0,
0,
0,
0,
0,
0,
0,
0,
0,
0,
0,
0,
0,
0,
0,
0,
0,
0,
0,
0,
0,
0,
0,
0,
0,
0,
0,
0,
0,
0,
0,
0,
0,
0,
0,
0,
0,
0,
0,
0,
0,
0,
0,
0,
0,
0,
0,
0,
0,
0,
0,
0,
0,
0,
0,
0,
0,
0,
0,
0,
0,
0,
0,
0,
0,
0,
0,
0,
0,
0,
0,
0,
0,
0,
0,
0,
0,
0,
0,
0,
0,
0,
0,
0,
0,
0,
0,
0,
0,
0,
0,
0,
0,
0,
0,
0,
0,
0,
0,
0,
0,
0,
0,
0,
0,
0,
0,
0,
0,
0,
0,
0,
0,
0,
0,
0,
0,
0,
0,
0,
0,
0,
0,
0,
0,
0,
0,
0,
0,
0,
0,
0,
0,
0,
0,
0,
0,
0,
0,
0,
0,
0,
0,
0,
0,
0,
0,
0,
0,
0,
0,
0,
0,
0,
0,
0,
0,
0,
0,
0,
0,
0,
0,
0,
0,
0,
0,
0,
0,
0,
0,
0,
0,
0,
0,
0,
0,
0,
0,
0,
0,
0,
0,
0,
0,
0,
0,
0,
0,
0,
0,
0,
0,
0,
0,
0,
0,
0,
0,
0,
0,
0,
0,
0,
0,
0,
0,
0,
0,
0,
0,
0,
0,
0,
0,
0,
0,
0,
0,
0,
0,
0,
0,
0,
0,
0,
0,
0,
0,
0,
0,
0,
0,
0,
0,
0,
0,
0,
0,
0,
0,
0,
0,
0,
0,
0,
0,
0,
0,
0,
0,
0,
0,
0,
0,
0,
0,
0,
0,
0,
0,
0,
0,
0,
0,
0,
0,
0,
0,
0,
0,
0,
0,
0,
0,
0,
0,
0,
0,
0,
0,
0,
0,
0,
0,
0,
0,
0,
0,
0,
0,
0,
0,
0,
0,
0,
0,
0,
0,
0,
0,
0,
0,
0,
0,
0,
0,
0,
0,
0,
0,
0,
0,
0,
0,
0,
0,
0,
0,
0,
0,
0,
0,
0,
0,
0,
0,
0,
0,
0,
0,
0,
0,
0,
0,
0,
0,
0,
0,
0,
0,
0,
0,
0,
0,
0,
0,
0,
0,
0,
0,
0,
0,
0,
0,
0,
0,
0,
0,
0,
0,
0,
0,
0,
0,
0,
0,
0,
0,
0,
0,
0,
0,
#ENDOFDATA   :