File: N132962/Quantification/15 keV/GMIIIA/GMIIIA K1012[8][4].msa
#FORMAT      : EMSA/MAS Spectral Data File
#VERSION     : 1.0
#TITLE       : GMIIIA K1012[8][all]
#DATE        : 22-SEP-2025
#TIME        : 21:30
#OWNER       : Unknown
#NPOINTS     : 4096
#NCOLUMNS    : 1
#XUNITS      : eV
#YUNITS      : counts
#DATATYPE    : Y
#XPERCHAN    : 9.99778
#OFFSET      : 1.69135
#BEAMKV      : 15
#SIGNALTYPE  : EDS
#ELEVANGLE   : 35
#AZIMANGLE   : 0
#LIVETIME    : 239.933
#REALTIME    : 256.617
#PROBECUR    : 1.21615
#TAUWIND     : 0
#TDEADLYR    : 0
#TACTLYR     : 0.045
#TALWIND     : 0.025
#CHOFFSET    : 0.0
#XLABEL      : Energy (eV)
#YLABEL      : Counts
#XPOSITION   : 6.82592
#YPOSITION   : 15.4299
#ZPOSITION   : 37.36299
#EDSDET      : SD
##SPECIMEN   : GMIIIA K1012[8][all]
##D2STDCMP   : K1012,(O:39.34),(Na:1.48),(Mg:9.05),(Al:7.94),(Si:18.7),(P:0.63),(K:1.66),(Ca:0.4),(Ga:1.49),(Se:0.71),(In:1.65),(Cs:1.89),(Ba:13.43),(Ce:1.63)
##DET_HASH   : 12273538-fd48-a23f-0a19-f1e6fa85caef
##CALIB_HASH : 6abaa72c-aa41-8738-0be9-f592914732f3
##WORKING    : 15.0 mm
##DET_NAME   : EDAX All
##DET_MODE   : MediumLE
#SPECTRUM    :
21,
30,
12,
18,
102,
400,
1203,
2966,
6438,
7879,
5705,
5063,
5707,
6789,
11103,
35630,
130346,
245640,
179992,
49357,
9097,
4744,
4735,
4800,
4731,
5295,
5997,
5461,
5257,
5286,
5458,
5675,
6855,
9534,
15457,
17787,
15515,
12888,
9793,
10373,
24696,
55823,
65920,
38763,
13987,
6464,
6177,
10772,
29600,
56439,
57141,
31258,
12732,
6673,
6419,
12792,
42918,
107529,
145269,
103253,
42903,
16050,
8269,
5012,
3910,
4383,
5644,
6488,
5776,
4297,
3577,
3431,
3243,
3316,
3547,
3714,
3660,
3389,
3183,
3199,
3113,
3108,
2934,
3152,
3193,
3104,
3044,
2988,
2986,
3004,
2861,
2990,
2951,
2909,
2831,
2951,
2902,
2836,
2921,
2897,
2817,
2883,
2783,
2744,
2726,
2751,
3125,
3731,
5693,
8773,
11170,
10324,
7321,
4247,
3297,
3209,
3542,
3647,
3645,
3498,
3543,
3612,
3829,
4004,
3737,
3136,
2620,
2245,
2159,
2324,
2346,
2555,
2607,
2574,
2442,
2194,
2138,
2067,
2101,
2234,
2397,
2862,
3582,
3823,
3664,
3520,
4625,
7401,
10850,
11948,
10300,
6764,
3983,
2958,
2748,
2593,
2440,
2485,
3036,
4528,
6408,
7443,
7043,
5635,
4028,
3160,
2452,
2072,
1864,
1971,
2455,
2945,
3298,
3078,
2739,
2403,
2172,
1937,
1734,
1615,
1494,
1480,
1678,
1805,
2011,
2064,
1943,
1759,
1521,
1351,
1341,
1361,
1445,
1449,
1444,
1344,
1288,
1199,
1271,
1235,
1263,
1167,
1162,
1144,
1095,
1133,
1045,
1131,
1073,
1071,
1046,
1080,
1059,
1087,
1054,
1043,
997,
989,
965,
978,
919,
891,
929,
956,
895,
953,
962,
942,
895,
857,
883,
886,
905,
851,
834,
862,
822,
843,
795,
807,
837,
811,
809,
780,
781,
778,
787,
820,
845,
714,
755,
716,
754,
762,
785,
739,
710,
677,
730,
714,
695,
714,
678,
690,
657,
643,
623,
654,
650,
638,
639,
627,
634,
622,
617,
598,
615,
564,
622,
566,
601,
552,
624,
548,
574,
565,
585,
562,
561,
573,
545,
525,
542,
492,
484,
510,
493,
502,
488,
514,
486,
492,
495,
490,
556,
602,
706,
732,
789,
762,
650,
568,
539,
494,
455,
431,
413,
417,
454,
391,
411,
419,
386,
413,
358,
383,
380,
382,
412,
362,
375,
372,
371,
411,
342,
356,
323,
353,
334,
381,
381,
353,
424,
362,
341,
366,
306,
321,
313,
317,
303,
312,
277,
302,
282,
294,
252,
300,
270,
273,
229,
240,
256,
218,
251,
250,
219,
243,
261,
239,
215,
246,
236,
231,
228,
234,
213,
215,
212,
227,
203,
217,
190,
191,
230,
192,
198,
173,
221,
187,
146,
185,
162,
200,
181,
176,
161,
190,
149,
140,
152,
170,
142,
149,
139,
134,
139,
160,
146,
129,
129,
143,
138,
127,
129,
114,
117,
110,
109,
119,
118,
100,
99,
116,
123,
107,
105,
114,
107,
101,
117,
91,
99,
79,
100,
76,
99,
81,
90,
87,
72,
68,
72,
71,
87,
62,
63,
70,
68,
80,
61,
69,
54,
60,
43,
59,
46,
51,
51,
49,
54,
37,
37,
49,
36,
55,
44,
32,
31,
35,
37,
28,
30,
33,
29,
29,
24,
27,
24,
20,
24,
18,
17,
16,
21,
13,
9,
12,
12,
12,
11,
11,
14,
8,
8,
8,
6,
2,
2,
0,
0,
3,
0,
0,
0,
0,
0,
0,
0,
0,
0,
0,
1,
0,
1,
1,
0,
0,
0,
1,
1,
0,
0,
0,
0,
0,
1,
1,
0,
0,
0,
0,
1,
0,
2,
1,
1,
0,
0,
0,
1,
1,
0,
0,
1,
0,
0,
0,
1,
1,
0,
1,
0,
1,
0,
0,
0,
0,
0,
0,
0,
0,
0,
2,
0,
0,
0,
0,
0,
0,
1,
0,
0,
0,
1,
0,
1,
1,
0,
0,
0,
0,
1,
0,
0,
0,
0,
0,
0,
0,
1,
0,
1,
0,
0,
0,
0,
0,
0,
1,
1,
0,
1,
0,
0,
0,
0,
0,
0,
0,
0,
0,
0,
0,
0,
0,
0,
0,
0,
0,
0,
0,
1,
0,
0,
1,
0,
1,
0,
0,
0,
0,
0,
0,
0,
0,
0,
0,
0,
0,
0,
0,
0,
1,
0,
0,
1,
0,
0,
0,
0,
0,
0,
0,
0,
0,
0,
0,
0,
1,
0,
0,
0,
0,
0,
0,
0,
0,
0,
0,
0,
0,
0,
0,
0,
0,
0,
0,
0,
0,
0,
0,
0,
0,
0,
0,
0,
0,
0,
0,
0,
0,
1,
0,
0,
0,
0,
0,
0,
0,
0,
0,
0,
0,
0,
0,
0,
0,
0,
0,
0,
0,
0,
0,
0,
0,
0,
0,
0,
0,
0,
0,
0,
0,
0,
0,
0,
0,
1,
0,
0,
0,
0,
0,
0,
0,
0,
0,
0,
0,
0,
0,
0,
0,
0,
0,
0,
0,
0,
0,
0,
0,
0,
0,
0,
0,
0,
0,
0,
0,
0,
0,
0,
0,
0,
0,
0,
0,
0,
0,
0,
0,
0,
0,
0,
0,
0,
0,
0,
0,
0,
0,
0,
0,
0,
0,
0,
0,
0,
0,
0,
0,
0,
0,
0,
0,
0,
0,
0,
0,
0,
0,
0,
0,
0,
0,
0,
0,
0,
0,
0,
0,
0,
0,
0,
0,
0,
0,
0,
0,
0,
0,
0,
0,
0,
0,
0,
0,
0,
0,
0,
0,
0,
0,
0,
0,
0,
0,
0,
0,
0,
0,
0,
0,
0,
0,
0,
0,
0,
0,
0,
0,
0,
0,
0,
0,
0,
0,
0,
0,
0,
0,
0,
0,
0,
0,
0,
0,
0,
0,
0,
0,
0,
0,
0,
0,
0,
0,
0,
0,
0,
0,
0,
0,
0,
0,
0,
0,
0,
0,
0,
0,
0,
0,
0,
0,
0,
0,
0,
0,
0,
0,
0,
0,
0,
0,
0,
0,
0,
0,
0,
0,
0,
0,
0,
0,
0,
0,
0,
0,
0,
0,
0,
0,
0,
0,
0,
0,
0,
0,
0,
0,
0,
0,
0,
0,
0,
0,
0,
0,
0,
0,
0,
0,
0,
0,
0,
0,
0,
0,
0,
0,
0,
0,
0,
0,
0,
0,
0,
0,
0,
0,
0,
0,
0,
0,
0,
0,
0,
0,
0,
0,
0,
0,
0,
0,
0,
0,
0,
0,
0,
0,
0,
0,
0,
0,
0,
0,
0,
0,
0,
0,
0,
0,
0,
0,
0,
0,
0,
0,
0,
0,
0,
0,
0,
0,
0,
0,
0,
0,
0,
0,
0,
0,
0,
0,
0,
0,
0,
0,
0,
0,
0,
0,
0,
0,
0,
0,
0,
0,
0,
0,
0,
0,
0,
0,
0,
0,
0,
0,
0,
0,
0,
0,
0,
0,
0,
0,
0,
0,
0,
0,
0,
0,
0,
0,
0,
0,
0,
0,
0,
0,
0,
0,
0,
0,
0,
0,
0,
0,
0,
0,
0,
0,
0,
0,
0,
0,
0,
0,
0,
0,
0,
0,
0,
0,
0,
0,
0,
0,
0,
0,
0,
0,
0,
0,
0,
0,
0,
0,
0,
0,
0,
0,
0,
0,
0,
0,
0,
0,
0,
0,
0,
0,
0,
0,
0,
0,
0,
0,
0,
0,
0,
0,
0,
0,
0,
0,
0,
0,
0,
0,
0,
0,
0,
0,
0,
0,
0,
0,
0,
0,
0,
0,
0,
0,
0,
0,
0,
0,
0,
0,
0,
0,
0,
0,
0,
0,
0,
0,
0,
0,
0,
0,
0,
0,
0,
0,
0,
0,
0,
0,
0,
0,
0,
0,
0,
0,
0,
0,
0,
0,
0,
0,
0,
0,
0,
0,
0,
0,
0,
0,
0,
0,
0,
0,
0,
0,
0,
0,
0,
0,
0,
0,
0,
0,
0,
0,
0,
0,
0,
0,
0,
0,
0,
0,
0,
0,
0,
0,
0,
0,
0,
0,
0,
0,
0,
0,
0,
0,
0,
0,
0,
0,
0,
0,
0,
0,
0,
0,
0,
0,
0,
0,
0,
0,
0,
0,
0,
0,
0,
0,
0,
0,
0,
0,
0,
0,
0,
0,
0,
0,
0,
0,
0,
0,
0,
0,
0,
0,
0,
0,
0,
0,
0,
0,
0,
0,
0,
0,
0,
0,
0,
0,
0,
0,
0,
0,
0,
0,
0,
0,
0,
0,
0,
0,
0,
0,
0,
0,
0,
0,
0,
0,
0,
0,
0,
0,
0,
0,
0,
0,
0,
0,
0,
0,
0,
0,
0,
0,
0,
0,
0,
0,
0,
0,
0,
0,
0,
0,
0,
0,
0,
0,
0,
0,
0,
0,
0,
0,
0,
0,
0,
0,
0,
0,
0,
0,
0,
0,
0,
0,
0,
0,
0,
0,
0,
0,
0,
0,
0,
0,
0,
0,
0,
0,
#ENDOFDATA   :