File: N132962/Quantification/15 keV/GMIIIA/GMIIIA K230[6][4].msa
#FORMAT      : EMSA/MAS Spectral Data File
#VERSION     : 1.0
#TITLE       : GMIIIA K230[6][all]
#DATE        : 22-SEP-2025
#TIME        : 14:38
#OWNER       : Unknown
#NPOINTS     : 4096
#NCOLUMNS    : 1
#XUNITS      : eV
#YUNITS      : counts
#DATATYPE    : Y
#XPERCHAN    : 9.99778
#OFFSET      : 1.69135
#BEAMKV      : 15
#SIGNALTYPE  : EDS
#ELEVANGLE   : 35
#AZIMANGLE   : 0
#LIVETIME    : 239.9195
#REALTIME    : 258.728
#PROBECUR    : 1.21983
#TAUWIND     : 0
#TDEADLYR    : 0
#TACTLYR     : 0.045
#TALWIND     : 0.025
#CHOFFSET    : 0.0
#XLABEL      : Energy (eV)
#YLABEL      : Counts
#XPOSITION   : 3.79863
#YPOSITION   : 0.90378
#ZPOSITION   : 37.36299
#EDSDET      : SD
##SPECIMEN   : GMIIIA K230[6][all]
##D2STDCMP   : K230,(O:24.49),(Al:2.65),(Si:14.02),(Zn:4.02),(Ba:8.96),(Ta:4.09),(Pb:41.77)
##DET_HASH   : 12273538-fd48-a23f-0a19-f1e6fa85caef
##CALIB_HASH : 6abaa72c-aa41-8738-0be9-f592914732f3
##WORKING    : 15.0 mm
##DET_NAME   : EDAX All
##DET_MODE   : MediumLE
#SPECTRUM    :
35,
41,
15,
41,
191,
713,
2022,
5031,
11454,
14352,
9521,
6614,
6613,
7305,
9359,
21473,
66980,
122651,
90076,
28345,
10020,
7768,
7554,
7766,
7332,
7315,
7588,
7638,
7691,
7872,
7905,
8520,
12234,
20539,
25284,
19902,
11911,
8329,
7648,
7442,
7820,
7824,
8031,
8270,
8515,
8798,
8762,
10609,
17522,
27283,
27948,
18057,
11113,
9403,
10085,
17686,
47888,
104527,
135120,
99341,
47049,
22671,
14167,
9410,
7502,
7559,
8245,
8741,
8038,
7120,
6677,
6852,
7511,
8023,
9198,
13059,
26511,
53429,
77072,
74085,
59218,
54238,
46381,
28390,
13317,
7105,
6219,
7327,
8314,
8121,
6659,
5305,
4679,
4489,
4542,
4640,
4648,
4749,
4696,
4733,
4832,
5101,
5324,
5439,
5095,
4818,
4674,
4370,
4345,
4261,
4260,
4119,
4166,
4234,
4122,
4173,
4177,
4153,
4125,
4073,
4116,
4013,
3998,
3999,
3898,
3947,
3828,
3764,
3812,
3765,
3869,
3886,
4130,
3992,
3800,
3786,
3793,
3702,
3678,
3587,
3594,
3669,
3456,
3600,
3735,
4149,
5220,
7675,
10532,
11643,
9615,
7032,
4941,
3690,
3349,
3352,
3309,
3462,
3964,
4925,
6227,
6893,
6488,
5611,
4639,
4017,
3624,
3286,
3257,
3418,
3674,
4177,
4305,
3885,
3622,
3303,
3010,
2989,
2854,
2723,
2822,
2780,
3026,
3028,
3232,
3181,
2991,
2851,
2828,
2665,
2660,
2725,
2663,
2785,
2647,
2608,
2561,
2436,
2542,
2485,
2514,
2394,
2374,
2382,
2279,
2388,
2370,
2233,
2347,
2292,
2293,
2390,
2338,
2319,
2405,
2222,
2178,
2153,
2124,
2065,
2088,
2098,
2119,
2094,
1983,
2126,
2033,
2023,
1935,
2003,
1989,
1963,
2011,
2095,
1875,
1968,
1987,
1898,
1921,
1843,
1851,
1862,
1832,
1851,
1788,
1766,
1792,
1897,
1870,
1794,
1764,
1748,
1693,
1663,
1681,
1636,
1682,
1695,
1591,
1588,
1572,
1589,
1529,
1584,
1521,
1535,
1557,
1645,
1769,
1919,
2023,
2227,
2128,
2007,
1778,
1618,
1501,
1448,
1457,
1407,
1410,
1453,
1396,
1614,
1707,
2042,
2456,
2797,
2762,
2411,
2086,
1661,
1496,
1343,
1298,
1169,
1184,
1192,
1161,
1196,
1147,
1259,
1199,
1186,
1177,
1206,
1173,
1237,
1265,
1270,
1300,
1359,
1291,
1215,
1217,
1170,
1194,
1288,
1279,
1262,
1248,
1256,
1197,
1130,
1014,
1038,
940,
923,
965,
933,
977,
938,
901,
918,
954,
882,
817,
838,
890,
852,
828,
844,
817,
862,
860,
810,
907,
956,
1160,
1238,
1435,
1544,
1471,
1269,
1083,
923,
879,
776,
736,
728,
684,
672,
727,
705,
673,
680,
731,
673,
669,
624,
649,
617,
621,
626,
599,
589,
635,
598,
580,
549,
587,
545,
542,
543,
521,
518,
561,
509,
536,
463,
470,
450,
477,
487,
441,
480,
453,
459,
466,
450,
443,
412,
464,
406,
439,
389,
428,
405,
386,
376,
364,
391,
340,
412,
348,
375,
384,
396,
425,
419,
494,
399,
416,
388,
339,
319,
278,
293,
287,
290,
282,
291,
266,
245,
246,
257,
242,
231,
240,
224,
214,
220,
213,
202,
192,
197,
201,
193,
177,
188,
160,
182,
180,
168,
167,
151,
161,
152,
156,
123,
138,
131,
127,
128,
118,
121,
114,
123,
107,
93,
117,
103,
101,
89,
99,
77,
79,
77,
69,
73,
73,
62,
53,
59,
49,
52,
59,
40,
41,
51,
22,
37,
30,
25,
26,
21,
12,
9,
8,
7,
3,
6,
2,
1,
2,
2,
3,
2,
3,
3,
1,
3,
2,
5,
1,
1,
4,
0,
5,
1,
1,
2,
2,
2,
4,
0,
2,
1,
2,
1,
1,
0,
0,
4,
0,
1,
0,
1,
2,
1,
2,
3,
2,
2,
0,
0,
2,
0,
1,
2,
0,
1,
0,
0,
1,
0,
1,
1,
0,
0,
2,
0,
0,
2,
2,
2,
1,
3,
0,
2,
0,
2,
1,
0,
2,
1,
2,
0,
0,
3,
2,
0,
1,
0,
0,
0,
1,
0,
3,
1,
0,
2,
2,
1,
1,
3,
0,
1,
1,
0,
0,
1,
1,
1,
0,
0,
2,
1,
0,
2,
0,
2,
0,
0,
1,
1,
0,
0,
0,
2,
1,
1,
0,
0,
0,
1,
1,
0,
0,
1,
0,
0,
1,
0,
1,
2,
1,
0,
2,
2,
2,
0,
0,
0,
0,
1,
0,
0,
0,
0,
1,
1,
1,
1,
1,
1,
0,
2,
0,
1,
0,
0,
0,
1,
0,
0,
1,
0,
0,
0,
0,
0,
0,
0,
0,
1,
0,
0,
0,
0,
0,
0,
1,
0,
0,
0,
0,
0,
0,
0,
0,
0,
0,
0,
1,
0,
0,
1,
1,
0,
2,
0,
0,
1,
0,
0,
1,
0,
0,
1,
0,
0,
0,
0,
0,
0,
0,
0,
0,
0,
0,
0,
0,
0,
0,
0,
0,
0,
0,
0,
0,
0,
0,
0,
0,
0,
0,
1,
1,
0,
0,
0,
0,
0,
0,
0,
0,
0,
3,
0,
0,
0,
0,
0,
0,
0,
0,
0,
0,
0,
0,
0,
0,
0,
0,
0,
0,
0,
0,
0,
0,
0,
0,
0,
0,
0,
0,
0,
0,
0,
0,
0,
1,
0,
0,
0,
0,
0,
0,
0,
0,
0,
0,
0,
0,
0,
0,
0,
0,
0,
0,
0,
0,
0,
0,
0,
0,
1,
0,
0,
0,
0,
0,
0,
0,
0,
0,
0,
0,
0,
0,
0,
0,
0,
0,
0,
0,
0,
0,
0,
0,
0,
0,
0,
0,
0,
0,
0,
0,
0,
0,
0,
0,
0,
0,
0,
0,
0,
0,
0,
0,
0,
0,
0,
0,
0,
0,
0,
0,
0,
0,
0,
0,
0,
0,
0,
0,
0,
0,
0,
0,
0,
0,
0,
0,
0,
0,
0,
0,
0,
0,
0,
0,
0,
0,
0,
0,
0,
0,
0,
0,
0,
0,
0,
0,
0,
0,
0,
0,
0,
0,
0,
0,
0,
0,
0,
0,
0,
0,
0,
0,
0,
0,
0,
0,
0,
0,
0,
0,
0,
0,
0,
0,
0,
0,
0,
0,
0,
0,
0,
0,
0,
0,
0,
0,
0,
0,
0,
0,
0,
0,
0,
0,
0,
0,
0,
0,
0,
0,
0,
0,
0,
0,
0,
0,
0,
0,
0,
0,
0,
0,
0,
0,
0,
0,
0,
0,
0,
0,
0,
0,
0,
0,
0,
0,
0,
0,
0,
0,
0,
0,
0,
0,
0,
0,
0,
0,
1,
0,
0,
0,
0,
0,
0,
0,
0,
0,
0,
0,
0,
0,
0,
0,
0,
0,
0,
0,
0,
0,
0,
0,
0,
0,
0,
0,
0,
0,
0,
0,
0,
0,
0,
0,
0,
0,
0,
0,
0,
0,
0,
0,
0,
0,
0,
0,
0,
0,
0,
0,
0,
0,
0,
0,
0,
0,
0,
0,
0,
0,
0,
0,
0,
0,
0,
0,
0,
0,
0,
0,
0,
0,
0,
0,
0,
0,
0,
0,
0,
0,
0,
0,
0,
0,
0,
0,
0,
0,
0,
0,
0,
0,
0,
0,
0,
0,
0,
0,
0,
0,
0,
0,
0,
0,
0,
0,
0,
0,
0,
0,
0,
0,
0,
0,
0,
0,
0,
0,
0,
0,
0,
0,
0,
0,
0,
0,
0,
0,
0,
0,
0,
0,
0,
0,
0,
0,
0,
0,
0,
0,
0,
0,
0,
0,
0,
0,
0,
0,
0,
0,
0,
0,
0,
0,
0,
0,
0,
0,
0,
0,
0,
0,
0,
0,
0,
0,
0,
0,
0,
0,
0,
0,
0,
0,
0,
0,
0,
0,
0,
0,
0,
0,
0,
0,
0,
0,
0,
0,
0,
0,
0,
0,
0,
0,
0,
0,
0,
0,
0,
0,
0,
0,
0,
0,
0,
0,
0,
0,
0,
0,
0,
0,
0,
0,
0,
0,
0,
0,
0,
0,
0,
0,
0,
0,
0,
0,
0,
0,
0,
0,
0,
0,
0,
0,
0,
0,
0,
0,
0,
0,
0,
0,
0,
0,
0,
0,
0,
0,
0,
0,
0,
0,
0,
0,
0,
0,
0,
0,
0,
0,
0,
0,
0,
0,
0,
0,
0,
0,
0,
0,
0,
0,
0,
0,
0,
0,
0,
0,
0,
0,
0,
0,
0,
0,
0,
0,
0,
0,
0,
0,
0,
0,
0,
0,
0,
0,
0,
0,
0,
0,
0,
0,
0,
0,
0,
0,
0,
0,
0,
0,
0,
0,
0,
0,
0,
0,
0,
0,
0,
0,
0,
0,
0,
0,
0,
0,
0,
0,
0,
0,
0,
0,
0,
0,
0,
0,
0,
0,
0,
0,
0,
0,
0,
0,
0,
0,
0,
0,
0,
0,
0,
0,
0,
0,
0,
0,
0,
0,
0,
0,
0,
0,
0,
0,
0,
0,
0,
0,
0,
0,
0,
0,
0,
0,
0,
0,
0,
#ENDOFDATA   :