File: N132962/Quantification/15 keV/GMIIIA/GMIIIA K249[0][4].msa
#FORMAT      : EMSA/MAS Spectral Data File
#VERSION     : 1.0
#TITLE       : GMIIIA K249[0][all]
#DATE        : 22-SEP-2025
#TIME        : 15:04
#OWNER       : Unknown
#NPOINTS     : 4096
#NCOLUMNS    : 1
#XUNITS      : eV
#YUNITS      : counts
#DATATYPE    : Y
#XPERCHAN    : 9.99778
#OFFSET      : 1.69135
#BEAMKV      : 15
#SIGNALTYPE  : EDS
#ELEVANGLE   : 35
#AZIMANGLE   : 0
#LIVETIME    : 239.943
#REALTIME    : 258.929
#PROBECUR    : 1.21732
#TAUWIND     : 0
#TDEADLYR    : 0
#TACTLYR     : 0.045
#TALWIND     : 0.025
#CHOFFSET    : 0.0
#XLABEL      : Energy (eV)
#YLABEL      : Counts
#XPOSITION   : 9.11798
#YPOSITION   : 2.24556
#ZPOSITION   : 37.36299
#EDSDET      : SD
##SPECIMEN   : GMIIIA K249[0][all]
##D2STDCMP   : K249,(O:24.49),(Al:2.65),(Si:14.02),(Ba:8.96),(Ta:8.19),(Pb:39.45),(Bi:2.24)
##DET_HASH   : 12273538-fd48-a23f-0a19-f1e6fa85caef
##CALIB_HASH : 6abaa72c-aa41-8738-0be9-f592914732f3
##WORKING    : 15.0 mm
##DET_NAME   : EDAX All
##DET_MODE   : MediumLE
#SPECTRUM    :
30,
34,
13,
41,
206,
838,
2281,
4993,
10060,
12542,
8965,
6875,
6758,
7234,
9349,
20824,
64876,
116765,
85205,
27658,
10190,
7779,
7050,
7396,
7272,
7456,
7869,
7513,
7291,
7000,
6941,
7243,
7790,
8082,
8150,
8205,
7984,
7843,
7922,
7941,
8240,
8224,
8725,
9419,
9904,
10112,
9648,
11317,
18667,
29268,
29823,
19525,
12015,
10050,
11482,
21709,
58121,
121347,
152491,
110126,
52448,
24193,
14600,
9546,
7835,
7149,
7058,
6747,
6336,
6338,
6402,
6794,
7373,
7949,
8942,
12839,
25425,
50913,
72989,
72423,
59960,
54957,
47216,
29475,
15019,
8812,
6957,
7294,
8164,
7981,
6742,
5608,
4890,
4659,
4648,
4600,
4653,
4780,
4728,
4747,
4816,
5183,
5280,
5307,
5277,
5128,
4750,
4518,
4373,
4251,
4256,
4193,
4148,
4327,
4134,
4179,
4126,
4224,
4134,
4136,
4070,
3868,
3938,
4035,
3991,
3998,
3928,
3937,
3774,
3900,
3991,
3994,
3981,
4025,
3911,
3869,
3864,
3825,
3759,
3731,
3749,
3717,
3581,
3706,
3830,
4275,
5473,
7882,
10682,
11583,
10186,
7317,
4910,
3849,
3422,
3466,
3508,
3501,
4137,
5101,
6458,
7046,
6785,
5589,
4661,
4083,
3695,
3434,
3351,
3448,
3825,
4121,
4304,
4016,
3730,
3249,
3074,
2974,
2966,
2793,
2831,
2925,
3012,
3226,
3270,
3132,
3001,
2870,
2900,
2747,
2770,
2800,
2837,
2842,
2802,
2742,
2639,
2668,
2521,
2648,
2613,
2488,
2520,
2471,
2463,
2424,
2390,
2407,
2357,
2386,
2263,
2281,
2385,
2453,
2321,
2297,
2319,
2337,
2253,
2179,
2272,
2114,
2175,
2156,
2128,
2116,
2035,
2122,
2040,
2107,
2002,
2100,
2050,
1990,
1994,
2116,
1901,
2031,
2030,
2081,
1980,
1951,
1958,
1903,
1930,
1862,
1766,
1911,
1872,
1781,
1815,
1788,
1778,
1733,
1816,
1704,
1748,
1685,
1719,
1650,
1658,
1656,
1687,
1658,
1669,
1646,
1643,
1857,
2064,
2444,
2707,
2949,
2985,
2483,
2196,
1840,
1665,
1533,
1519,
1408,
1492,
1508,
1467,
1445,
1369,
1359,
1315,
1353,
1377,
1357,
1393,
1290,
1325,
1258,
1230,
1285,
1252,
1243,
1222,
1337,
1246,
1208,
1197,
1294,
1249,
1333,
1338,
1368,
1369,
1401,
1524,
1607,
1526,
1462,
1291,
1224,
1200,
1231,
1172,
1258,
1309,
1299,
1279,
1253,
1158,
1103,
1037,
1039,
1019,
1004,
961,
919,
988,
947,
935,
939,
918,
887,
957,
898,
901,
891,
845,
848,
919,
865,
938,
1040,
1161,
1269,
1432,
1417,
1521,
1371,
1166,
1058,
925,
839,
837,
774,
763,
847,
835,
760,
757,
771,
719,
697,
679,
678,
693,
671,
674,
633,
682,
660,
629,
609,
606,
590,
617,
546,
581,
546,
561,
549,
589,
519,
532,
501,
530,
468,
485,
498,
474,
461,
484,
439,
452,
473,
475,
417,
438,
435,
468,
453,
438,
432,
399,
419,
413,
398,
429,
392,
377,
392,
406,
369,
448,
474,
447,
443,
394,
400,
381,
364,
296,
313,
302,
326,
296,
316,
290,
268,
268,
273,
287,
271,
255,
233,
236,
246,
237,
220,
232,
219,
194,
169,
207,
191,
161,
181,
175,
179,
177,
163,
148,
145,
166,
143,
153,
151,
137,
151,
130,
147,
142,
122,
93,
124,
103,
117,
130,
81,
108,
92,
83,
85,
65,
69,
82,
84,
77,
62,
67,
58,
55,
45,
35,
33,
29,
30,
30,
23,
23,
21,
24,
20,
7,
5,
9,
7,
1,
2,
4,
4,
1,
2,
2,
1,
3,
5,
2,
5,
6,
0,
2,
4,
3,
2,
4,
2,
4,
2,
2,
1,
2,
2,
0,
3,
1,
2,
1,
0,
4,
1,
1,
1,
0,
2,
0,
2,
2,
2,
0,
0,
0,
1,
0,
5,
0,
2,
2,
1,
1,
0,
0,
1,
0,
1,
0,
1,
1,
0,
2,
1,
1,
0,
0,
0,
0,
1,
2,
0,
2,
2,
2,
1,
0,
1,
1,
1,
1,
2,
1,
1,
2,
1,
0,
1,
2,
0,
3,
0,
1,
1,
2,
1,
0,
1,
0,
0,
0,
0,
0,
0,
0,
1,
0,
0,
0,
0,
1,
0,
1,
0,
0,
0,
1,
0,
1,
1,
0,
0,
1,
1,
0,
0,
0,
1,
0,
1,
0,
0,
0,
0,
0,
2,
0,
0,
1,
1,
1,
0,
1,
0,
1,
0,
0,
0,
1,
0,
1,
1,
1,
0,
0,
0,
0,
1,
0,
0,
0,
2,
1,
0,
1,
0,
0,
0,
0,
0,
0,
1,
0,
0,
0,
0,
0,
0,
0,
0,
0,
0,
0,
0,
0,
0,
0,
1,
1,
0,
0,
0,
0,
0,
0,
0,
1,
0,
0,
0,
0,
0,
0,
0,
0,
0,
0,
0,
0,
0,
0,
1,
0,
0,
0,
0,
0,
0,
0,
0,
0,
0,
0,
0,
0,
0,
0,
0,
0,
0,
0,
0,
0,
0,
0,
0,
0,
1,
0,
0,
0,
0,
0,
0,
0,
0,
0,
0,
0,
0,
0,
0,
0,
0,
0,
0,
0,
1,
0,
0,
0,
1,
0,
0,
0,
0,
0,
0,
0,
0,
0,
0,
0,
1,
0,
0,
0,
0,
0,
1,
0,
0,
0,
0,
0,
1,
0,
0,
0,
0,
0,
0,
0,
0,
0,
0,
0,
0,
0,
0,
0,
1,
0,
0,
0,
0,
0,
0,
0,
0,
0,
0,
0,
0,
0,
0,
0,
0,
0,
0,
0,
0,
0,
0,
0,
0,
0,
0,
0,
0,
1,
0,
0,
0,
0,
0,
0,
0,
0,
0,
0,
0,
0,
0,
0,
0,
0,
0,
1,
0,
0,
0,
0,
0,
0,
0,
0,
0,
0,
0,
0,
0,
0,
0,
0,
0,
0,
0,
0,
0,
0,
0,
0,
0,
0,
0,
0,
0,
0,
0,
0,
0,
0,
0,
0,
0,
0,
0,
0,
0,
0,
0,
0,
0,
0,
0,
0,
0,
0,
0,
0,
0,
0,
0,
0,
0,
0,
0,
0,
0,
0,
0,
0,
0,
0,
0,
0,
0,
0,
0,
0,
0,
0,
0,
0,
0,
0,
0,
0,
0,
0,
0,
0,
0,
0,
0,
0,
0,
0,
0,
0,
0,
0,
0,
0,
0,
0,
0,
0,
0,
0,
0,
0,
0,
0,
0,
0,
0,
0,
0,
0,
0,
0,
0,
0,
0,
0,
0,
0,
0,
0,
0,
0,
0,
0,
0,
0,
0,
0,
0,
0,
0,
0,
0,
0,
0,
0,
0,
0,
0,
0,
0,
0,
0,
0,
0,
0,
0,
0,
0,
0,
0,
0,
0,
0,
0,
0,
0,
0,
0,
0,
0,
0,
0,
0,
0,
0,
0,
0,
0,
0,
0,
0,
0,
0,
0,
0,
0,
0,
0,
0,
0,
0,
0,
0,
0,
0,
0,
0,
0,
0,
0,
0,
0,
0,
0,
0,
0,
0,
0,
0,
0,
0,
0,
0,
0,
0,
0,
0,
0,
0,
0,
0,
0,
0,
0,
0,
0,
0,
0,
0,
0,
0,
0,
0,
0,
0,
0,
0,
0,
0,
0,
0,
0,
0,
0,
0,
0,
0,
0,
0,
0,
0,
0,
0,
0,
0,
0,
0,
0,
0,
0,
0,
0,
0,
0,
0,
0,
0,
0,
0,
0,
0,
0,
0,
0,
0,
0,
0,
0,
0,
0,
0,
0,
0,
0,
0,
0,
0,
0,
0,
0,
0,
0,
0,
0,
0,
0,
0,
0,
0,
0,
0,
0,
0,
0,
0,
0,
0,
0,
0,
0,
0,
0,
0,
0,
0,
0,
0,
0,
0,
0,
0,
0,
0,
0,
0,
0,
0,
0,
0,
0,
0,
0,
0,
0,
0,
0,
0,
0,
0,
0,
0,
0,
0,
0,
0,
0,
0,
0,
0,
0,
0,
0,
0,
0,
0,
0,
0,
0,
0,
0,
0,
0,
0,
0,
0,
0,
0,
0,
0,
0,
0,
0,
0,
0,
0,
0,
0,
0,
0,
0,
0,
0,
0,
0,
0,
0,
0,
0,
0,
0,
0,
0,
0,
0,
0,
0,
0,
0,
0,
0,
0,
0,
0,
0,
0,
0,
0,
0,
0,
0,
0,
0,
0,
0,
0,
0,
0,
0,
0,
0,
0,
0,
0,
0,
0,
0,
0,
0,
0,
0,
0,
0,
0,
0,
0,
0,
0,
0,
0,
0,
0,
0,
0,
0,
0,
0,
0,
0,
0,
0,
0,
0,
0,
0,
0,
0,
0,
0,
0,
0,
0,
0,
0,
0,
0,
0,
0,
0,
0,
0,
0,
0,
0,
0,
0,
0,
0,
0,
0,
0,
0,
0,
0,
0,
0,
0,
0,
0,
0,
0,
0,
0,
0,
0,
0,
0,
0,
0,
0,
0,
0,
0,
0,
0,
0,
0,
0,
0,
0,
0,
0,
0,
0,
0,
0,
0,
0,
0,
0,
0,
0,
0,
#ENDOFDATA   :