File: N132962/Quantification/15 keV/GMIIIA/GMIIIA K249[4][4].msa
#FORMAT      : EMSA/MAS Spectral Data File
#VERSION     : 1.0
#TITLE       : GMIIIA K249[4][all]
#DATE        : 22-SEP-2025
#TIME        : 15:08
#OWNER       : Unknown
#NPOINTS     : 4096
#NCOLUMNS    : 1
#XUNITS      : eV
#YUNITS      : counts
#DATATYPE    : Y
#XPERCHAN    : 9.99778
#OFFSET      : 1.69135
#BEAMKV      : 15
#SIGNALTYPE  : EDS
#ELEVANGLE   : 35
#AZIMANGLE   : 0
#LIVETIME    : 240.064
#REALTIME    : 259.047
#PROBECUR    : 1.21732
#TAUWIND     : 0
#TDEADLYR    : 0
#TACTLYR     : 0.045
#TALWIND     : 0.025
#CHOFFSET    : 0.0
#XLABEL      : Energy (eV)
#YLABEL      : Counts
#XPOSITION   : 9.16812
#YPOSITION   : 2.31465
#ZPOSITION   : 37.36299
#EDSDET      : SD
##SPECIMEN   : GMIIIA K249[4][all]
##D2STDCMP   : K249,(O:24.49),(Al:2.65),(Si:14.02),(Ba:8.96),(Ta:8.19),(Pb:39.45),(Bi:2.24)
##DET_HASH   : 12273538-fd48-a23f-0a19-f1e6fa85caef
##CALIB_HASH : 6abaa72c-aa41-8738-0be9-f592914732f3
##WORKING    : 15.0 mm
##DET_NAME   : EDAX All
##DET_MODE   : MediumLE
#SPECTRUM    :
29,
28,
17,
45,
188,
808,
2343,
5191,
10361,
12899,
9221,
6928,
6997,
7517,
9176,
20877,
64217,
116035,
85637,
27508,
9890,
7498,
6933,
7300,
7271,
7512,
7731,
7747,
7223,
6958,
7249,
7367,
7946,
8192,
8119,
8195,
7830,
7836,
7767,
7981,
7943,
8269,
8496,
9333,
9841,
10069,
9527,
11243,
18782,
29291,
29441,
19500,
11995,
10162,
11374,
21461,
58627,
121120,
152870,
110384,
52353,
24549,
14503,
9645,
7614,
7121,
7089,
6683,
6473,
6311,
6442,
6881,
7392,
7921,
9021,
12895,
25406,
51221,
73008,
71727,
59357,
55261,
46977,
29679,
14871,
8810,
7004,
7344,
8075,
7934,
6605,
5603,
4924,
4559,
4540,
4645,
4748,
4710,
4848,
4860,
5095,
5174,
5413,
5237,
5376,
5157,
4771,
4607,
4371,
4345,
4289,
4244,
4211,
4146,
4064,
4214,
4283,
4243,
4121,
4117,
3936,
4050,
3851,
3901,
4067,
3938,
3940,
3880,
3845,
3851,
3907,
4104,
4169,
4002,
3948,
3930,
3770,
3726,
3720,
3740,
3678,
3682,
3696,
3676,
3851,
4282,
5508,
8056,
10755,
11645,
9993,
7249,
4923,
3889,
3466,
3348,
3377,
3660,
4208,
5186,
6555,
6927,
6668,
5822,
4823,
4183,
3722,
3382,
3369,
3525,
3815,
4199,
4383,
4193,
3707,
3260,
3161,
2870,
2947,
2962,
2988,
2963,
2984,
3178,
3355,
3311,
3199,
2981,
2744,
2731,
2738,
2766,
2759,
2789,
2826,
2677,
2653,
2723,
2531,
2555,
2570,
2479,
2464,
2482,
2469,
2411,
2378,
2389,
2336,
2324,
2311,
2430,
2395,
2355,
2374,
2333,
2191,
2216,
2271,
2214,
2245,
2204,
2153,
2144,
2113,
2165,
2056,
2088,
2055,
2082,
2068,
2048,
1997,
2081,
2049,
2086,
1997,
2104,
1936,
2008,
1950,
1904,
1967,
1917,
1892,
1794,
1920,
1882,
1862,
1832,
1793,
1786,
1707,
1779,
1684,
1708,
1692,
1810,
1769,
1679,
1720,
1654,
1619,
1579,
1638,
1664,
1650,
1877,
2066,
2385,
2790,
2989,
2863,
2624,
2201,
1859,
1540,
1489,
1453,
1472,
1462,
1409,
1415,
1422,
1444,
1379,
1378,
1402,
1369,
1327,
1395,
1381,
1296,
1310,
1294,
1353,
1367,
1257,
1288,
1285,
1239,
1277,
1240,
1280,
1245,
1235,
1315,
1407,
1409,
1470,
1544,
1570,
1467,
1384,
1314,
1294,
1250,
1201,
1227,
1237,
1296,
1285,
1328,
1287,
1114,
1132,
1049,
1009,
1032,
1006,
958,
1019,
965,
1000,
935,
951,
929,
890,
917,
919,
894,
824,
923,
887,
861,
851,
943,
1036,
1117,
1283,
1389,
1553,
1454,
1353,
1256,
1057,
912,
855,
810,
793,
793,
804,
739,
821,
765,
732,
661,
702,
691,
710,
659,
665,
687,
617,
666,
651,
641,
619,
619,
601,
590,
562,
557,
564,
538,
561,
566,
525,
538,
531,
513,
517,
518,
476,
475,
477,
470,
447,
490,
468,
470,
467,
438,
453,
435,
449,
438,
420,
391,
391,
351,
407,
372,
407,
359,
389,
399,
407,
437,
458,
473,
418,
416,
371,
353,
334,
356,
267,
290,
288,
357,
281,
313,
285,
286,
293,
281,
248,
235,
243,
238,
216,
258,
210,
232,
222,
208,
211,
217,
179,
182,
189,
177,
173,
179,
166,
160,
158,
160,
137,
152,
136,
154,
129,
129,
115,
134,
118,
134,
107,
119,
109,
106,
98,
86,
80,
92,
84,
72,
79,
74,
67,
59,
65,
53,
71,
52,
54,
42,
35,
31,
27,
37,
21,
23,
19,
19,
15,
11,
2,
6,
5,
4,
4,
2,
2,
0,
3,
3,
1,
4,
5,
4,
2,
6,
6,
2,
0,
3,
1,
1,
1,
1,
3,
1,
2,
2,
6,
2,
1,
0,
1,
0,
2,
1,
4,
2,
0,
1,
4,
2,
2,
0,
3,
0,
1,
1,
1,
1,
0,
0,
1,
0,
1,
3,
2,
1,
0,
0,
1,
0,
1,
3,
1,
1,
0,
0,
3,
3,
0,
0,
1,
2,
0,
2,
2,
0,
2,
1,
1,
0,
1,
2,
3,
1,
0,
3,
1,
2,
0,
0,
1,
2,
3,
2,
0,
2,
1,
0,
0,
1,
0,
1,
3,
0,
0,
0,
0,
0,
0,
0,
1,
1,
0,
1,
0,
1,
0,
1,
1,
1,
0,
0,
0,
0,
0,
1,
1,
1,
0,
1,
0,
1,
0,
0,
0,
0,
1,
0,
1,
1,
0,
1,
0,
0,
3,
0,
0,
0,
0,
0,
0,
0,
0,
1,
0,
0,
3,
0,
0,
1,
2,
0,
1,
0,
0,
2,
0,
2,
1,
0,
0,
0,
1,
0,
0,
0,
0,
1,
0,
0,
0,
0,
0,
0,
0,
0,
0,
0,
0,
0,
0,
0,
1,
1,
0,
0,
0,
0,
0,
0,
1,
2,
1,
0,
0,
1,
0,
1,
0,
0,
0,
0,
0,
1,
0,
0,
0,
0,
0,
0,
0,
0,
0,
0,
0,
0,
0,
0,
1,
0,
0,
0,
0,
0,
0,
0,
1,
0,
0,
0,
0,
0,
0,
0,
0,
0,
0,
1,
0,
0,
0,
0,
0,
0,
0,
0,
0,
1,
0,
0,
0,
0,
0,
0,
0,
0,
0,
0,
0,
0,
0,
0,
0,
0,
0,
0,
0,
0,
0,
0,
0,
0,
0,
0,
0,
0,
0,
0,
0,
0,
0,
0,
0,
0,
0,
0,
0,
0,
0,
0,
0,
0,
0,
0,
0,
0,
0,
0,
0,
0,
0,
0,
0,
0,
0,
1,
0,
0,
0,
0,
0,
0,
0,
0,
0,
0,
0,
0,
0,
0,
0,
0,
0,
0,
0,
0,
0,
0,
0,
0,
0,
0,
0,
0,
0,
0,
0,
0,
0,
0,
0,
0,
1,
0,
0,
1,
0,
0,
0,
0,
0,
0,
0,
0,
0,
0,
0,
0,
0,
0,
0,
0,
0,
0,
0,
0,
0,
0,
0,
0,
0,
0,
0,
0,
0,
0,
0,
0,
0,
0,
0,
0,
0,
0,
0,
0,
0,
0,
0,
0,
0,
0,
0,
0,
0,
0,
0,
0,
0,
0,
0,
0,
0,
0,
0,
0,
0,
0,
0,
0,
0,
0,
0,
0,
0,
0,
0,
0,
0,
0,
0,
0,
0,
0,
0,
0,
0,
0,
0,
0,
0,
0,
0,
0,
0,
0,
0,
0,
0,
0,
0,
0,
0,
0,
0,
0,
0,
0,
0,
0,
0,
0,
0,
0,
0,
0,
0,
0,
0,
0,
0,
0,
0,
0,
0,
0,
0,
0,
0,
0,
0,
0,
0,
0,
0,
0,
0,
0,
0,
0,
0,
0,
0,
0,
0,
0,
0,
0,
0,
0,
0,
0,
0,
0,
0,
0,
0,
0,
0,
0,
0,
0,
0,
0,
0,
0,
0,
0,
0,
0,
0,
0,
0,
0,
0,
0,
0,
0,
0,
0,
0,
0,
0,
0,
0,
0,
0,
0,
0,
0,
0,
0,
0,
0,
0,
0,
0,
0,
0,
0,
0,
0,
0,
0,
0,
0,
0,
0,
0,
0,
0,
0,
0,
0,
0,
0,
0,
0,
0,
0,
0,
0,
0,
0,
0,
0,
0,
0,
0,
0,
0,
0,
0,
0,
0,
0,
0,
0,
0,
0,
0,
0,
0,
0,
0,
0,
0,
0,
0,
0,
0,
0,
0,
0,
0,
0,
0,
0,
0,
0,
0,
0,
0,
0,
0,
0,
0,
0,
0,
0,
0,
0,
0,
0,
0,
0,
0,
0,
0,
0,
0,
0,
0,
0,
0,
0,
0,
0,
0,
0,
0,
0,
0,
0,
0,
0,
0,
0,
0,
0,
0,
0,
0,
0,
0,
0,
0,
0,
0,
0,
0,
0,
0,
0,
0,
0,
0,
0,
0,
0,
0,
0,
0,
0,
0,
0,
0,
0,
0,
0,
0,
0,
0,
0,
0,
0,
0,
0,
0,
0,
0,
0,
0,
0,
0,
0,
0,
0,
0,
0,
0,
0,
0,
0,
0,
0,
0,
0,
0,
0,
0,
0,
0,
0,
0,
0,
0,
0,
0,
0,
0,
0,
0,
0,
0,
0,
0,
0,
0,
0,
0,
0,
0,
0,
0,
0,
0,
0,
0,
0,
0,
0,
0,
0,
0,
0,
0,
0,
0,
0,
0,
0,
0,
0,
0,
0,
0,
0,
0,
0,
0,
0,
0,
0,
0,
0,
0,
0,
0,
0,
0,
0,
0,
0,
0,
0,
0,
0,
0,
0,
0,
0,
0,
0,
0,
0,
0,
0,
0,
0,
0,
0,
0,
0,
0,
0,
0,
0,
0,
0,
0,
0,
0,
0,
0,
0,
0,
0,
0,
0,
0,
0,
0,
0,
0,
0,
0,
0,
0,
0,
0,
0,
0,
0,
0,
0,
0,
0,
0,
0,
0,
0,
0,
0,
0,
0,
0,
0,
0,
0,
0,
0,
0,
0,
0,
0,
0,
0,
0,
0,
0,
0,
0,
0,
0,
0,
0,
0,
0,
0,
0,
0,
0,
0,
0,
#ENDOFDATA   :