File: N132962/Quantification/15 keV/GMIIIA/GMIIIA K253[5][4].msa
#FORMAT      : EMSA/MAS Spectral Data File
#VERSION     : 1.0
#TITLE       : GMIIIA K253[5][all]
#DATE        : 22-SEP-2025
#TIME        : 14:45
#OWNER       : Unknown
#NPOINTS     : 4096
#NCOLUMNS    : 1
#XUNITS      : eV
#YUNITS      : counts
#DATATYPE    : Y
#XPERCHAN    : 9.99778
#OFFSET      : 1.69135
#BEAMKV      : 15
#SIGNALTYPE  : EDS
#ELEVANGLE   : 35
#AZIMANGLE   : 0
#LIVETIME    : 239.9137
#REALTIME    : 257.068
#PROBECUR    : 1.21732
#TAUWIND     : 0
#TDEADLYR    : 0
#TACTLYR     : 0.045
#TALWIND     : 0.025
#CHOFFSET    : 0.0
#XLABEL      : Energy (eV)
#YLABEL      : Counts
#XPOSITION   : 2.48203
#YPOSITION   : 2.27586
#ZPOSITION   : 37.36299
#EDSDET      : SD
##SPECIMEN   : GMIIIA K253[5][all]
##D2STDCMP   : K253,(O:31.64),(Si:18.7),(Mn:6.32),(Co:1.97),(Cu:2.0),(Zn:8.03),(Ba:31.35)
##DET_HASH   : 12273538-fd48-a23f-0a19-f1e6fa85caef
##CALIB_HASH : 6abaa72c-aa41-8738-0be9-f592914732f3
##WORKING    : 15.0 mm
##DET_NAME   : EDAX All
##DET_MODE   : MediumLE
#SPECTRUM    :
17,
28,
18,
46,
166,
557,
1551,
3679,
7919,
10059,
7472,
6420,
7137,
8529,
12475,
34889,
120278,
224476,
164892,
52163,
19136,
15657,
11694,
8083,
8063,
11781,
13928,
10947,
7805,
8056,
10841,
14169,
18396,
28361,
32870,
22391,
10417,
6103,
5228,
4897,
4762,
4953,
5109,
5161,
5374,
5088,
5415,
5620,
5799,
6182,
6499,
6208,
6162,
6250,
6980,
13405,
42796,
105101,
140608,
100563,
42734,
16407,
9057,
5882,
4715,
4462,
4351,
4340,
4345,
4363,
4306,
4410,
4515,
4420,
4763,
4782,
4774,
4542,
4449,
4411,
4370,
4321,
4196,
4156,
4270,
4167,
4206,
4107,
4197,
4266,
4286,
4307,
4207,
4065,
3860,
3914,
3847,
3951,
3755,
3855,
3863,
3804,
3713,
3746,
3711,
3594,
3640,
3571,
3540,
3602,
3569,
3456,
3575,
3421,
3519,
3392,
3407,
3410,
3403,
3377,
3215,
3186,
3235,
3187,
3267,
3183,
3066,
3046,
3177,
3232,
3539,
3859,
4026,
3843,
3432,
3031,
2886,
2931,
2928,
2788,
2821,
2848,
2966,
3309,
3628,
5331,
9913,
18748,
28955,
32680,
26398,
16001,
8115,
4067,
2902,
2737,
2786,
3482,
5430,
9257,
13529,
16131,
14961,
11338,
8011,
5864,
4417,
3437,
3143,
3598,
4869,
6309,
7091,
6299,
4741,
3279,
2510,
2162,
2081,
2098,
2146,
2299,
2686,
3257,
3696,
3753,
3225,
2582,
2091,
1946,
2008,
2311,
2871,
3952,
5890,
7990,
9681,
9464,
7622,
4854,
3104,
2100,
1772,
1678,
1573,
1625,
1630,
1538,
1522,
1660,
1523,
1666,
1765,
1887,
2068,
2326,
2484,
2415,
2102,
1822,
1577,
1489,
1412,
1421,
1415,
1443,
1582,
1627,
1858,
2383,
2708,
2710,
2493,
2096,
1721,
1407,
1239,
1288,
1226,
1265,
1211,
1191,
1224,
1146,
1222,
1176,
1181,
1165,
1181,
1221,
1237,
1221,
1203,
1335,
1302,
1311,
1269,
1202,
1093,
1076,
1042,
1057,
1086,
1075,
1273,
1386,
1660,
1953,
2027,
1890,
1602,
1286,
1147,
983,
973,
950,
961,
1004,
938,
910,
870,
969,
1028,
1207,
1549,
2283,
3017,
3497,
3642,
3024,
2322,
1575,
1208,
962,
940,
859,
921,
884,
872,
869,
789,
791,
752,
782,
808,
760,
756,
730,
726,
756,
736,
732,
677,
669,
719,
735,
831,
979,
964,
1009,
977,
911,
790,
713,
648,
621,
599,
641,
593,
617,
611,
594,
592,
561,
567,
541,
548,
590,
540,
533,
570,
539,
505,
554,
520,
516,
506,
494,
512,
501,
477,
512,
473,
487,
486,
467,
448,
487,
434,
456,
428,
447,
409,
415,
380,
386,
449,
444,
408,
355,
391,
360,
374,
352,
360,
385,
380,
368,
324,
339,
365,
324,
334,
327,
352,
338,
343,
288,
328,
316,
296,
347,
314,
268,
284,
273,
281,
273,
259,
254,
254,
250,
239,
265,
228,
258,
226,
228,
244,
204,
239,
240,
222,
218,
215,
213,
187,
218,
214,
186,
177,
195,
170,
227,
198,
201,
181,
161,
174,
159,
160,
161,
138,
169,
169,
162,
131,
140,
164,
132,
132,
130,
122,
146,
139,
109,
110,
99,
97,
109,
107,
104,
105,
95,
103,
98,
94,
89,
80,
100,
93,
85,
77,
73,
72,
71,
71,
63,
62,
64,
54,
72,
45,
53,
50,
53,
50,
42,
34,
56,
33,
41,
24,
35,
26,
28,
32,
28,
26,
19,
19,
14,
13,
13,
11,
10,
5,
1,
10,
3,
3,
3,
2,
1,
2,
0,
2,
2,
1,
2,
2,
0,
5,
1,
1,
2,
1,
3,
0,
1,
1,
0,
0,
0,
0,
0,
1,
1,
2,
1,
0,
1,
2,
1,
4,
2,
0,
1,
0,
0,
1,
0,
0,
1,
1,
1,
0,
2,
1,
1,
0,
1,
1,
0,
1,
0,
0,
0,
0,
1,
2,
1,
0,
0,
0,
2,
2,
1,
0,
2,
1,
0,
1,
0,
0,
0,
1,
1,
2,
1,
1,
0,
1,
0,
1,
0,
1,
0,
1,
1,
1,
0,
0,
0,
0,
0,
1,
2,
1,
0,
3,
1,
0,
0,
0,
1,
3,
0,
0,
0,
0,
0,
0,
0,
0,
0,
1,
0,
1,
0,
0,
0,
1,
0,
0,
1,
0,
0,
0,
0,
1,
0,
1,
0,
0,
1,
1,
0,
0,
0,
1,
2,
0,
0,
0,
0,
0,
0,
1,
0,
1,
0,
0,
0,
0,
0,
1,
0,
0,
0,
1,
0,
0,
1,
0,
0,
0,
0,
0,
0,
0,
0,
0,
0,
1,
0,
0,
1,
0,
0,
0,
1,
0,
1,
0,
0,
1,
0,
0,
0,
0,
0,
0,
0,
0,
0,
0,
1,
0,
0,
0,
0,
0,
0,
0,
0,
0,
1,
0,
0,
0,
0,
0,
0,
0,
0,
0,
0,
0,
0,
0,
0,
0,
0,
0,
0,
0,
0,
0,
0,
0,
0,
0,
0,
0,
0,
0,
0,
0,
0,
0,
0,
0,
0,
0,
0,
0,
0,
0,
0,
0,
0,
0,
0,
0,
0,
0,
0,
0,
0,
0,
0,
0,
0,
0,
0,
0,
1,
0,
0,
0,
0,
0,
0,
0,
0,
0,
0,
0,
0,
0,
0,
0,
0,
0,
0,
0,
0,
0,
0,
0,
0,
0,
0,
0,
0,
0,
0,
0,
0,
0,
0,
0,
0,
0,
0,
0,
0,
0,
0,
0,
0,
0,
0,
0,
0,
0,
0,
0,
0,
0,
0,
0,
0,
0,
0,
0,
0,
0,
0,
0,
0,
0,
0,
0,
0,
0,
0,
0,
0,
0,
0,
0,
0,
0,
0,
0,
0,
0,
0,
0,
0,
0,
0,
0,
0,
0,
0,
0,
0,
0,
0,
0,
0,
0,
1,
0,
0,
0,
0,
0,
0,
0,
0,
0,
0,
0,
0,
0,
0,
0,
0,
0,
0,
0,
0,
0,
0,
0,
0,
0,
0,
0,
0,
0,
0,
0,
0,
0,
0,
0,
0,
0,
0,
0,
0,
0,
0,
0,
0,
0,
0,
0,
0,
0,
0,
0,
0,
0,
0,
0,
0,
0,
0,
0,
0,
0,
0,
0,
0,
0,
0,
0,
0,
0,
0,
0,
0,
0,
0,
0,
0,
0,
0,
0,
0,
0,
0,
0,
0,
0,
0,
0,
0,
0,
0,
0,
0,
0,
0,
0,
0,
0,
0,
0,
0,
0,
0,
0,
0,
0,
0,
0,
0,
0,
0,
0,
0,
0,
0,
0,
0,
0,
0,
0,
0,
0,
0,
0,
0,
0,
0,
0,
0,
0,
0,
0,
0,
0,
0,
0,
0,
0,
0,
0,
0,
0,
0,
0,
0,
0,
0,
0,
0,
0,
0,
0,
0,
0,
0,
0,
0,
0,
0,
0,
0,
0,
0,
0,
0,
0,
0,
0,
0,
0,
0,
0,
0,
0,
0,
0,
0,
0,
0,
0,
0,
0,
0,
0,
0,
0,
0,
0,
0,
0,
0,
0,
0,
0,
0,
0,
0,
0,
0,
0,
0,
0,
0,
0,
0,
0,
0,
0,
0,
0,
0,
0,
0,
0,
0,
0,
0,
0,
0,
0,
0,
0,
0,
0,
0,
0,
0,
0,
0,
0,
0,
0,
0,
0,
0,
0,
0,
0,
0,
0,
0,
0,
0,
0,
0,
0,
0,
0,
0,
0,
0,
0,
0,
0,
0,
0,
0,
0,
0,
0,
0,
0,
0,
0,
0,
0,
0,
0,
0,
0,
0,
0,
0,
0,
0,
0,
0,
0,
0,
0,
0,
0,
0,
0,
0,
0,
0,
0,
0,
0,
0,
0,
0,
0,
0,
0,
0,
0,
0,
0,
0,
0,
0,
0,
0,
0,
0,
0,
0,
0,
0,
0,
0,
0,
0,
0,
0,
0,
0,
0,
0,
0,
0,
0,
0,
0,
0,
0,
0,
0,
0,
0,
0,
0,
0,
0,
0,
0,
0,
0,
0,
0,
0,
0,
0,
0,
0,
0,
0,
0,
0,
0,
0,
0,
0,
0,
0,
0,
0,
0,
0,
0,
0,
0,
0,
0,
0,
0,
0,
0,
0,
0,
0,
0,
0,
0,
0,
0,
0,
0,
0,
0,
0,
0,
0,
0,
0,
0,
0,
0,
0,
0,
0,
0,
0,
0,
0,
0,
0,
0,
0,
0,
0,
0,
0,
0,
0,
0,
0,
0,
0,
0,
0,
0,
0,
0,
0,
0,
0,
0,
0,
0,
0,
0,
0,
0,
0,
0,
0,
0,
0,
0,
0,
0,
0,
0,
0,
0,
0,
0,
0,
0,
0,
0,
0,
0,
0,
0,
0,
0,
0,
0,
0,
0,
0,
0,
0,
0,
0,
0,
0,
0,
0,
0,
0,
0,
0,
0,
0,
0,
0,
0,
0,
0,
0,
0,
0,
0,
0,
0,
0,
0,
0,
0,
0,
0,
0,
0,
0,
0,
0,
0,
0,
0,
0,
0,
0,
0,
0,
0,
0,
#ENDOFDATA   :