File: N132962/Quantification/15 keV/GMIIIA/GMIIIA K366[1][4].msa
#FORMAT      : EMSA/MAS Spectral Data File
#VERSION     : 1.0
#TITLE       : GMIIIA K366[1][all]
#DATE        : 22-SEP-2025
#TIME        : 15:37
#OWNER       : Unknown
#NPOINTS     : 4096
#NCOLUMNS    : 1
#XUNITS      : eV
#YUNITS      : counts
#DATATYPE    : Y
#XPERCHAN    : 9.99778
#OFFSET      : 1.69135
#BEAMKV      : 15
#SIGNALTYPE  : EDS
#ELEVANGLE   : 35
#AZIMANGLE   : 0
#LIVETIME    : 240.025
#REALTIME    : 260.388
#PROBECUR    : 1.21681
#TAUWIND     : 0
#TDEADLYR    : 0
#TACTLYR     : 0.045
#TALWIND     : 0.025
#CHOFFSET    : 0.0
#XLABEL      : Energy (eV)
#YLABEL      : Counts
#XPOSITION   : 8.38717
#YPOSITION   : 4.17241
#ZPOSITION   : 37.36299
#EDSDET      : SD
##SPECIMEN   : GMIIIA K366[1][all]
##D2STDCMP   : K366,(O:20.43),(Si:13.45),(Pb:66.12)
##DET_HASH   : 12273538-fd48-a23f-0a19-f1e6fa85caef
##CALIB_HASH : 6abaa72c-aa41-8738-0be9-f592914732f3
##WORKING    : 15.0 mm
##DET_NAME   : EDAX All
##DET_MODE   : MediumLE
#SPECTRUM    :
30,
30,
11,
44,
230,
977,
2570,
5859,
11383,
14073,
10028,
7365,
6878,
7222,
8421,
17364,
50158,
89115,
65252,
21879,
9823,
8087,
8210,
8683,
7850,
7063,
6820,
7191,
7550,
7712,
7831,
7833,
7934,
8031,
8300,
8593,
8568,
8774,
8811,
9139,
9044,
9242,
9492,
9474,
9433,
9421,
9671,
9644,
10182,
10311,
10464,
10412,
10004,
10252,
11066,
16878,
43513,
100320,
133766,
100032,
50647,
28175,
18612,
11816,
8944,
7999,
7555,
7582,
7549,
7555,
7883,
8422,
9482,
10542,
12363,
19463,
42382,
91380,
131753,
127775,
101998,
92014,
78603,
46856,
19885,
9236,
7405,
8960,
10647,
10071,
8153,
6186,
5078,
4836,
4838,
4943,
5187,
5320,
5213,
5237,
5483,
5808,
6409,
6250,
6054,
5728,
5201,
4774,
4601,
4532,
4537,
4471,
4509,
4391,
4485,
4561,
4514,
4467,
4522,
4455,
4354,
4440,
4291,
4258,
4358,
4254,
4338,
4319,
4150,
4175,
4146,
4129,
4104,
4149,
4179,
4199,
4335,
4214,
4171,
4190,
4223,
3955,
4086,
3806,
3950,
3911,
3778,
4007,
3856,
3954,
4166,
4140,
3958,
3881,
3798,
3860,
3769,
3787,
3820,
3703,
3801,
3683,
3671,
3741,
3584,
3664,
3644,
3502,
3398,
3408,
3629,
3387,
3439,
3335,
3288,
3522,
3294,
3266,
3270,
3282,
3321,
3209,
3206,
3282,
3220,
3231,
3125,
3232,
3066,
3124,
3120,
3125,
3045,
3060,
3016,
2978,
2944,
2874,
3073,
2875,
2875,
2857,
2927,
2798,
2835,
2830,
2860,
2799,
2809,
2723,
2812,
2789,
2791,
2817,
2789,
2803,
2582,
2581,
2664,
2533,
2626,
2480,
2562,
2443,
2456,
2384,
2395,
2436,
2366,
2472,
2349,
2421,
2399,
2392,
2402,
2338,
2219,
2355,
2302,
2249,
2234,
2249,
2254,
2202,
2151,
2197,
2210,
2177,
2106,
2187,
2171,
2217,
2147,
2162,
2089,
2058,
2069,
2133,
1990,
2003,
1970,
2033,
2013,
1994,
1874,
1948,
1876,
1893,
1905,
1887,
1792,
1804,
1845,
1786,
1808,
1723,
1744,
1780,
1771,
1716,
1733,
1722,
1749,
1654,
1645,
1583,
1690,
1668,
1587,
1615,
1598,
1639,
1561,
1578,
1582,
1586,
1478,
1540,
1547,
1503,
1490,
1468,
1509,
1497,
1466,
1482,
1476,
1491,
1471,
1375,
1393,
1295,
1344,
1309,
1320,
1243,
1290,
1312,
1239,
1280,
1341,
1261,
1189,
1255,
1256,
1238,
1223,
1205,
1237,
1215,
1219,
1130,
1155,
1164,
1107,
1134,
1079,
1124,
1056,
1045,
1066,
1027,
1064,
1038,
1056,
1116,
1246,
1364,
1655,
1879,
2164,
2316,
2252,
2092,
1684,
1331,
1212,
1039,
979,
913,
857,
778,
870,
844,
879,
832,
814,
757,
790,
824,
796,
819,
804,
780,
742,
696,
744,
732,
787,
733,
762,
676,
723,
699,
726,
699,
654,
661,
635,
601,
622,
643,
630,
583,
595,
616,
592,
587,
596,
527,
583,
558,
549,
542,
541,
546,
534,
542,
512,
483,
508,
488,
491,
501,
490,
509,
500,
527,
578,
648,
704,
666,
571,
526,
462,
469,
419,
373,
365,
363,
393,
338,
377,
367,
359,
324,
285,
316,
291,
292,
267,
295,
275,
251,
273,
244,
273,
225,
264,
254,
228,
223,
210,
176,
224,
213,
211,
223,
192,
212,
195,
184,
162,
171,
163,
188,
160,
133,
151,
144,
137,
127,
140,
113,
103,
122,
91,
115,
92,
102,
83,
94,
68,
86,
85,
69,
70,
55,
66,
52,
52,
41,
37,
47,
44,
37,
25,
31,
11,
12,
11,
10,
4,
5,
1,
4,
2,
3,
1,
5,
1,
2,
2,
1,
3,
1,
3,
2,
5,
1,
2,
3,
2,
3,
1,
0,
5,
1,
1,
2,
6,
3,
6,
1,
2,
1,
4,
0,
1,
2,
1,
0,
2,
2,
1,
0,
4,
2,
2,
5,
2,
3,
0,
2,
0,
2,
1,
5,
1,
0,
3,
4,
0,
1,
2,
1,
2,
3,
0,
1,
0,
1,
4,
0,
2,
3,
1,
1,
2,
2,
1,
1,
1,
0,
2,
3,
1,
0,
0,
2,
2,
2,
1,
3,
0,
2,
2,
2,
1,
1,
1,
0,
1,
0,
0,
1,
1,
2,
1,
2,
1,
0,
0,
0,
0,
1,
1,
2,
1,
3,
1,
0,
0,
2,
0,
2,
0,
0,
1,
2,
2,
0,
0,
1,
0,
0,
1,
0,
1,
1,
2,
1,
1,
0,
0,
1,
1,
0,
1,
1,
2,
2,
0,
2,
0,
0,
1,
2,
0,
0,
3,
3,
0,
0,
0,
0,
2,
1,
0,
0,
0,
0,
0,
1,
0,
0,
0,
1,
0,
1,
1,
0,
1,
0,
1,
0,
0,
0,
0,
1,
0,
0,
0,
1,
2,
0,
1,
0,
0,
0,
0,
1,
1,
0,
0,
0,
1,
0,
0,
0,
0,
0,
0,
0,
0,
0,
0,
1,
0,
2,
0,
0,
0,
1,
0,
0,
0,
0,
1,
1,
0,
0,
0,
0,
0,
0,
0,
0,
0,
0,
0,
0,
0,
0,
0,
0,
0,
0,
0,
0,
0,
0,
0,
0,
1,
1,
0,
0,
1,
0,
0,
0,
0,
0,
0,
0,
0,
0,
0,
0,
0,
2,
0,
0,
0,
0,
0,
0,
0,
0,
0,
0,
0,
0,
0,
0,
0,
0,
0,
0,
0,
0,
0,
0,
0,
0,
0,
0,
0,
0,
0,
0,
0,
1,
0,
0,
0,
0,
0,
0,
0,
0,
0,
0,
0,
0,
0,
0,
0,
0,
0,
1,
0,
0,
0,
0,
0,
0,
0,
0,
0,
0,
0,
0,
0,
0,
0,
0,
0,
0,
0,
0,
0,
0,
0,
0,
0,
0,
0,
0,
0,
0,
0,
1,
0,
1,
0,
0,
0,
0,
0,
0,
0,
0,
0,
0,
0,
1,
0,
0,
0,
0,
0,
0,
0,
0,
0,
0,
0,
0,
0,
0,
0,
0,
0,
0,
0,
0,
0,
0,
0,
0,
0,
0,
0,
0,
0,
0,
0,
0,
0,
0,
0,
0,
0,
0,
0,
0,
0,
0,
0,
0,
0,
0,
0,
0,
0,
0,
0,
0,
0,
0,
0,
0,
0,
0,
0,
0,
0,
0,
0,
0,
0,
0,
0,
0,
0,
0,
0,
0,
0,
0,
0,
0,
0,
0,
0,
0,
0,
0,
0,
0,
0,
0,
0,
0,
0,
0,
0,
0,
0,
0,
0,
0,
0,
0,
0,
0,
0,
0,
0,
0,
0,
0,
0,
0,
0,
0,
0,
0,
0,
0,
0,
0,
0,
0,
0,
0,
0,
0,
0,
0,
0,
0,
0,
0,
0,
0,
0,
0,
0,
0,
0,
0,
0,
0,
0,
0,
0,
0,
0,
0,
0,
0,
0,
0,
0,
0,
0,
0,
0,
0,
0,
0,
0,
0,
0,
0,
0,
0,
0,
0,
0,
0,
0,
0,
0,
0,
0,
0,
0,
0,
0,
0,
0,
0,
0,
0,
0,
0,
0,
0,
0,
0,
0,
0,
0,
0,
0,
0,
0,
0,
0,
0,
0,
0,
0,
0,
0,
0,
0,
0,
0,
0,
0,
0,
0,
0,
0,
0,
0,
0,
0,
0,
0,
0,
0,
0,
0,
0,
0,
0,
0,
0,
0,
0,
0,
0,
0,
0,
0,
0,
0,
0,
0,
0,
0,
0,
0,
0,
0,
0,
0,
0,
0,
0,
0,
0,
0,
0,
0,
0,
0,
0,
0,
0,
0,
0,
0,
0,
0,
0,
0,
0,
0,
0,
0,
0,
0,
0,
0,
0,
0,
0,
0,
0,
0,
0,
0,
0,
0,
0,
0,
0,
0,
0,
0,
0,
0,
0,
0,
0,
0,
0,
0,
0,
0,
0,
0,
0,
0,
0,
0,
0,
0,
0,
0,
0,
0,
0,
0,
0,
0,
0,
0,
0,
0,
0,
0,
0,
0,
0,
0,
0,
0,
0,
0,
0,
0,
0,
0,
0,
0,
0,
0,
0,
0,
0,
0,
0,
0,
0,
0,
0,
0,
0,
0,
0,
0,
0,
0,
0,
0,
0,
0,
0,
0,
0,
0,
0,
0,
0,
0,
0,
0,
0,
0,
0,
0,
0,
0,
0,
0,
0,
0,
0,
0,
0,
0,
0,
0,
0,
0,
0,
0,
0,
0,
0,
0,
0,
0,
0,
0,
0,
0,
0,
0,
0,
0,
0,
0,
0,
0,
0,
0,
0,
0,
0,
0,
0,
0,
0,
0,
0,
0,
0,
0,
0,
0,
0,
0,
0,
0,
0,
0,
0,
0,
0,
0,
0,
0,
0,
0,
0,
0,
0,
0,
0,
0,
0,
0,
0,
0,
0,
0,
0,
0,
0,
0,
0,
0,
0,
0,
0,
0,
0,
0,
0,
0,
0,
0,
0,
0,
0,
0,
0,
0,
0,
0,
0,
0,
0,
0,
0,
0,
0,
0,
0,
0,
0,
0,
0,
0,
0,
0,
0,
0,
0,
0,
0,
0,
0,
0,
0,
0,
0,
#ENDOFDATA   :