File: N132962/Quantification/15 keV/GMIIIA/GMIIIA K1001[1][4].msa
#FORMAT      : EMSA/MAS Spectral Data File
#VERSION     : 1.0
#TITLE       : GMIIIA K1001[1][all]
#DATE        : 22-SEP-2025
#TIME        : 21:53
#OWNER       : Unknown
#NPOINTS     : 4096
#NCOLUMNS    : 1
#XUNITS      : eV
#YUNITS      : counts
#DATATYPE    : Y
#XPERCHAN    : 9.99778
#OFFSET      : 1.69135
#BEAMKV      : 15
#SIGNALTYPE  : EDS
#ELEVANGLE   : 35
#AZIMANGLE   : 0
#LIVETIME    : 239.999
#REALTIME    : 256.293
#PROBECUR    : 1.21615
#TAUWIND     : 0
#TDEADLYR    : 0
#TACTLYR     : 0.045
#TALWIND     : 0.025
#CHOFFSET    : 0.0
#XLABEL      : Energy (eV)
#YLABEL      : Counts
#XPOSITION   : 13.46578
#YPOSITION   : 15.0759
#ZPOSITION   : 37.36299
#EDSDET      : SD
##SPECIMEN   : GMIIIA K1001[1][all]
##D2STDCMP   : K1001,(O:39.47),(Na:1.67),(Mg:1.36),(Al:8.92),(Si:21.02),(K:1.87),(Ca:6.75),(Rb:2.06),(Sr:10.05),(Pr:1.92),(Nd:1.93),(Er:1.97),(Pb:1.04)
##DET_HASH   : 12273538-fd48-a23f-0a19-f1e6fa85caef
##CALIB_HASH : 6abaa72c-aa41-8738-0be9-f592914732f3
##WORKING    : 15.0 mm
##DET_NAME   : EDAX All
##DET_MODE   : MediumLE
#SPECTRUM    :
22,
32,
10,
28,
113,
427,
1154,
3044,
7092,
9209,
6723,
4695,
4530,
4929,
7449,
24545,
88948,
169035,
122094,
33115,
5863,
3506,
4178,
4541,
4548,
4467,
4342,
4418,
4696,
5080,
5857,
7093,
7981,
10755,
16146,
17128,
11451,
7078,
6039,
6592,
9266,
14845,
16880,
11992,
7870,
7575,
10242,
18034,
41916,
76073,
75710,
41127,
17020,
9842,
9457,
18964,
57150,
134503,
182905,
144503,
84392,
49329,
28855,
16494,
9537,
5850,
4662,
3605,
3343,
3150,
3124,
3179,
3235,
3452,
3507,
3654,
3959,
4226,
4509,
4373,
4125,
3956,
3793,
3376,
3009,
2898,
2968,
2987,
2913,
2878,
2900,
2814,
2822,
2880,
2836,
2788,
2710,
2696,
2837,
2736,
2730,
2655,
2673,
2772,
2687,
2635,
2864,
3139,
4207,
6659,
8841,
8732,
6369,
4090,
2860,
2642,
2639,
2833,
3223,
4041,
6208,
11764,
19548,
23860,
20337,
12055,
5848,
2997,
2233,
2147,
2246,
2709,
3478,
4292,
4655,
3988,
3070,
2257,
1925,
1858,
1930,
1917,
1765,
1759,
1764,
1727,
1739,
1837,
1761,
1891,
1844,
1779,
1804,
1764,
1741,
1688,
1659,
1583,
1614,
1641,
1709,
1595,
1645,
1602,
1699,
1950,
2383,
2748,
2811,
2598,
2129,
1873,
2042,
2154,
2327,
2280,
1973,
1705,
1536,
1454,
1573,
1752,
1978,
1987,
1876,
1764,
1599,
1533,
1610,
1589,
1645,
1736,
1622,
1465,
1603,
1459,
1391,
1293,
1255,
1215,
1209,
1250,
1195,
1257,
1272,
1279,
1123,
1127,
1116,
1117,
1197,
1086,
1170,
1152,
1074,
1091,
1046,
1014,
1059,
1025,
1063,
1076,
1046,
999,
971,
931,
969,
1017,
1075,
1208,
1295,
1555,
1472,
1319,
1166,
999,
890,
873,
794,
801,
810,
798,
809,
795,
784,
757,
803,
806,
795,
739,
759,
783,
742,
754,
720,
740,
792,
767,
852,
898,
899,
904,
832,
784,
746,
745,
707,
686,
677,
700,
705,
682,
727,
700,
742,
656,
602,
632,
633,
619,
615,
612,
599,
587,
582,
569,
559,
576,
524,
528,
522,
550,
514,
523,
492,
544,
506,
519,
525,
495,
483,
517,
533,
519,
463,
470,
473,
433,
442,
435,
444,
457,
380,
445,
404,
445,
428,
415,
439,
414,
430,
399,
399,
409,
352,
366,
369,
370,
355,
348,
372,
379,
372,
371,
352,
409,
330,
317,
354,
356,
329,
339,
326,
317,
326,
315,
305,
340,
345,
324,
324,
332,
307,
302,
299,
309,
275,
262,
305,
283,
279,
264,
247,
235,
250,
258,
233,
259,
229,
220,
225,
252,
235,
229,
216,
239,
221,
200,
215,
222,
204,
230,
205,
191,
188,
211,
203,
178,
187,
178,
188,
199,
186,
154,
174,
150,
178,
141,
173,
164,
142,
147,
157,
139,
148,
155,
127,
146,
135,
117,
146,
126,
134,
129,
128,
104,
136,
127,
132,
127,
105,
114,
123,
102,
118,
106,
110,
106,
104,
107,
110,
96,
92,
92,
97,
89,
81,
77,
72,
71,
74,
77,
74,
60,
89,
73,
73,
75,
59,
74,
51,
60,
63,
64,
64,
48,
55,
58,
48,
48,
39,
29,
44,
35,
41,
48,
35,
33,
36,
33,
31,
23,
31,
27,
38,
23,
25,
35,
24,
21,
23,
16,
15,
12,
15,
11,
12,
10,
9,
10,
6,
9,
9,
13,
4,
4,
3,
6,
2,
2,
5,
1,
0,
0,
0,
1,
0,
0,
0,
0,
2,
1,
1,
1,
1,
1,
1,
0,
0,
0,
0,
0,
0,
1,
0,
1,
0,
1,
0,
0,
0,
1,
0,
1,
0,
0,
0,
1,
1,
1,
0,
0,
0,
0,
0,
0,
1,
0,
1,
0,
1,
0,
0,
1,
0,
0,
0,
0,
1,
0,
0,
0,
0,
0,
0,
0,
0,
1,
0,
0,
0,
0,
1,
0,
0,
0,
0,
0,
0,
0,
0,
0,
0,
0,
0,
0,
0,
0,
0,
1,
0,
0,
0,
1,
0,
0,
1,
0,
0,
0,
0,
0,
0,
0,
1,
0,
0,
0,
0,
0,
0,
0,
0,
1,
0,
1,
0,
0,
0,
0,
0,
0,
0,
0,
0,
0,
1,
0,
0,
0,
0,
0,
0,
0,
1,
0,
0,
0,
0,
0,
0,
0,
0,
0,
0,
0,
1,
0,
0,
0,
0,
0,
0,
0,
1,
0,
0,
0,
0,
0,
0,
0,
1,
1,
0,
0,
0,
0,
0,
0,
0,
0,
0,
0,
0,
0,
0,
0,
0,
0,
0,
0,
0,
0,
0,
1,
0,
0,
0,
0,
0,
0,
0,
0,
0,
0,
0,
0,
0,
0,
0,
0,
0,
0,
0,
0,
0,
0,
0,
0,
0,
0,
0,
0,
0,
0,
0,
0,
0,
0,
0,
0,
0,
0,
0,
0,
0,
0,
0,
0,
0,
0,
0,
0,
0,
0,
0,
0,
0,
0,
0,
0,
0,
0,
0,
0,
0,
0,
0,
0,
0,
0,
0,
0,
0,
0,
0,
0,
0,
0,
0,
0,
0,
0,
0,
0,
0,
0,
0,
0,
0,
0,
0,
0,
0,
0,
0,
0,
0,
0,
0,
0,
0,
0,
0,
0,
0,
0,
0,
0,
0,
0,
0,
0,
0,
0,
0,
0,
0,
0,
0,
0,
0,
0,
0,
0,
0,
0,
0,
0,
0,
0,
0,
0,
0,
0,
0,
0,
0,
0,
0,
0,
0,
0,
0,
0,
0,
0,
0,
0,
0,
0,
0,
0,
0,
0,
0,
0,
0,
0,
0,
0,
0,
0,
0,
0,
0,
0,
0,
0,
0,
0,
0,
0,
0,
0,
0,
0,
0,
0,
0,
0,
0,
0,
0,
0,
0,
0,
0,
0,
0,
0,
1,
0,
0,
0,
0,
0,
0,
0,
0,
0,
0,
0,
0,
0,
0,
0,
0,
0,
0,
0,
0,
0,
0,
0,
0,
0,
0,
0,
0,
0,
0,
0,
0,
0,
0,
0,
0,
0,
0,
0,
0,
0,
0,
0,
0,
0,
0,
0,
0,
0,
0,
0,
0,
0,
0,
0,
0,
0,
0,
0,
0,
0,
0,
0,
0,
0,
0,
0,
0,
0,
0,
0,
0,
0,
0,
0,
0,
0,
0,
0,
0,
0,
0,
0,
0,
0,
0,
0,
0,
0,
0,
0,
0,
0,
0,
0,
0,
0,
0,
0,
0,
0,
0,
0,
0,
0,
0,
0,
0,
0,
0,
0,
0,
0,
0,
0,
0,
0,
0,
0,
0,
0,
0,
0,
0,
0,
0,
0,
0,
0,
0,
0,
0,
0,
0,
0,
0,
0,
0,
0,
0,
0,
0,
0,
0,
0,
0,
0,
0,
0,
0,
0,
0,
0,
0,
0,
0,
0,
0,
0,
0,
0,
0,
0,
0,
0,
0,
0,
0,
0,
0,
0,
0,
0,
0,
0,
0,
0,
0,
0,
0,
0,
0,
0,
0,
0,
0,
0,
0,
0,
0,
0,
0,
0,
0,
0,
0,
0,
0,
0,
0,
0,
0,
0,
0,
0,
0,
0,
0,
0,
0,
0,
0,
0,
0,
0,
0,
0,
0,
0,
0,
0,
0,
0,
0,
0,
0,
0,
0,
0,
0,
0,
0,
0,
0,
0,
0,
0,
0,
0,
0,
0,
0,
0,
0,
0,
0,
0,
0,
0,
0,
0,
0,
0,
0,
0,
0,
0,
0,
0,
0,
0,
0,
0,
0,
0,
0,
0,
0,
0,
0,
0,
0,
0,
0,
0,
0,
0,
0,
0,
0,
0,
0,
0,
0,
0,
0,
0,
0,
0,
0,
0,
0,
0,
0,
0,
0,
0,
0,
0,
0,
0,
0,
0,
0,
0,
0,
0,
0,
0,
0,
0,
0,
0,
0,
0,
0,
0,
0,
0,
0,
0,
0,
0,
0,
0,
0,
0,
0,
0,
0,
0,
0,
0,
0,
0,
0,
0,
0,
0,
0,
0,
0,
0,
0,
0,
0,
0,
0,
0,
0,
0,
0,
0,
0,
0,
0,
0,
0,
0,
0,
0,
0,
0,
0,
0,
0,
0,
0,
0,
0,
0,
0,
0,
0,
0,
0,
0,
0,
0,
0,
0,
0,
0,
0,
0,
0,
0,
0,
0,
0,
0,
0,
0,
0,
0,
0,
0,
0,
0,
0,
0,
0,
0,
0,
0,
0,
0,
0,
0,
0,
0,
0,
0,
0,
0,
0,
0,
0,
0,
0,
0,
0,
0,
0,
0,
0,
0,
0,
0,
0,
0,
0,
0,
0,
0,
0,
0,
0,
0,
0,
0,
0,
0,
0,
0,
0,
0,
0,
0,
0,
0,
0,
0,
0,
0,
0,
0,
0,
0,
0,
0,
0,
0,
0,
0,
0,
0,
0,
0,
0,
0,
0,
0,
0,
0,
0,
0,
0,
0,
0,
0,
0,
0,
0,
0,
0,
0,
0,
0,
0,
0,
0,
0,
#ENDOFDATA   :