File: N132962/Quantification/15 keV/GMIIIA/GMIIIA K240[1][4].msa
#FORMAT      : EMSA/MAS Spectral Data File
#VERSION     : 1.0
#TITLE       : GMIIIA K240[1][all]
#DATE        : 22-SEP-2025
#TIME        : 15:13
#OWNER       : Unknown
#NPOINTS     : 4096
#NCOLUMNS    : 1
#XUNITS      : eV
#YUNITS      : counts
#DATATYPE    : Y
#XPERCHAN    : 9.99778
#OFFSET      : 1.69135
#BEAMKV      : 15
#SIGNALTYPE  : EDS
#ELEVANGLE   : 35
#AZIMANGLE   : 0
#LIVETIME    : 239.961
#REALTIME    : 256.041
#PROBECUR    : 1.21732
#TAUWIND     : 0
#TDEADLYR    : 0
#TACTLYR     : 0.045
#TALWIND     : 0.025
#CHOFFSET    : 0.0
#XLABEL      : Energy (eV)
#YLABEL      : Counts
#XPOSITION   : 11.37187
#YPOSITION   : 1.6943
#ZPOSITION   : 37.36299
#EDSDET      : SD
##SPECIMEN   : GMIIIA K240[1][all]
##D2STDCMP   : K240,(O:34.0),(Mg:3.02),(Si:18.7),(Ti:6.0),(Zn:4.02),(Zr:7.4),(Ba:26.87)
##DET_HASH   : 12273538-fd48-a23f-0a19-f1e6fa85caef
##CALIB_HASH : 6abaa72c-aa41-8738-0be9-f592914732f3
##WORKING    : 15.0 mm
##DET_NAME   : EDAX All
##DET_MODE   : MediumLE
#SPECTRUM    :
34,
31,
19,
33,
174,
601,
1569,
3542,
7493,
9563,
7219,
6510,
8432,
10617,
13669,
31257,
97476,
181113,
132812,
39641,
11072,
6443,
5099,
5095,
5737,
7317,
8534,
7382,
5984,
5722,
5832,
6681,
10337,
17467,
19917,
14666,
8476,
6175,
5596,
6317,
10822,
20165,
23142,
15397,
8003,
5855,
5581,
5656,
5696,
6089,
6186,
6106,
6270,
6551,
7509,
14131,
43873,
107378,
145229,
104527,
44694,
17544,
9622,
6335,
5329,
5995,
9452,
16015,
21159,
18877,
15262,
12544,
9789,
7257,
5944,
5200,
4757,
4507,
4156,
3957,
3944,
4019,
3879,
4060,
3935,
4012,
3832,
3784,
3799,
3874,
3950,
3972,
3888,
3743,
3600,
3663,
3584,
3382,
3544,
3326,
3521,
3524,
3379,
3624,
3332,
3445,
3333,
3274,
3216,
3251,
3342,
3255,
3155,
3139,
3119,
3203,
3146,
3168,
3000,
3006,
2960,
2911,
2903,
2961,
2870,
2789,
2836,
2831,
2848,
3015,
3229,
3580,
3556,
3441,
3140,
2761,
2678,
2639,
2560,
2571,
2635,
2650,
2906,
2953,
3470,
4870,
9065,
17547,
29069,
36941,
35230,
26008,
14924,
7455,
3869,
2751,
2644,
3068,
4798,
7691,
11504,
13583,
13047,
10665,
8362,
6675,
4967,
3722,
2972,
3108,
4207,
5236,
5786,
5281,
3997,
2813,
2161,
2010,
1932,
1874,
1882,
2072,
2291,
2879,
3164,
3165,
2689,
2331,
1889,
1698,
1738,
2010,
2190,
2171,
2102,
1970,
1769,
1617,
1660,
1648,
1607,
1520,
1532,
1477,
1476,
1412,
1493,
1391,
1489,
1425,
1463,
1430,
1413,
1401,
1412,
1361,
1374,
1325,
1326,
1353,
1272,
1317,
1289,
1224,
1288,
1221,
1259,
1251,
1241,
1264,
1214,
1187,
1194,
1252,
1199,
1139,
1227,
1133,
1183,
1175,
1070,
1068,
1107,
1081,
1031,
1079,
1082,
1042,
1067,
1031,
1052,
1054,
968,
1060,
978,
987,
959,
976,
971,
971,
971,
984,
955,
1011,
939,
926,
928,
880,
890,
957,
875,
894,
837,
892,
915,
894,
873,
797,
785,
840,
825,
870,
889,
1014,
1110,
1500,
1865,
2029,
2118,
1803,
1470,
1116,
932,
823,
762,
748,
754,
706,
764,
705,
701,
664,
684,
691,
666,
696,
637,
652,
673,
645,
681,
628,
614,
663,
643,
675,
670,
758,
783,
780,
725,
702,
600,
614,
604,
571,
519,
561,
566,
556,
513,
505,
516,
517,
497,
511,
497,
492,
492,
511,
510,
486,
440,
460,
474,
452,
466,
458,
499,
425,
437,
449,
451,
415,
424,
439,
409,
412,
420,
404,
377,
415,
424,
372,
405,
363,
387,
339,
338,
348,
351,
361,
346,
365,
339,
335,
340,
318,
339,
325,
321,
311,
304,
299,
276,
275,
314,
267,
290,
311,
266,
250,
293,
250,
236,
243,
266,
226,
266,
236,
238,
218,
246,
262,
210,
206,
216,
220,
221,
202,
197,
205,
192,
197,
192,
188,
176,
203,
177,
174,
160,
158,
173,
177,
176,
136,
161,
138,
171,
136,
140,
144,
122,
126,
138,
125,
139,
143,
145,
106,
113,
116,
104,
119,
111,
109,
118,
94,
99,
103,
94,
93,
86,
86,
102,
82,
89,
84,
87,
79,
62,
60,
68,
70,
56,
78,
50,
66,
60,
49,
50,
59,
43,
39,
37,
36,
32,
38,
39,
35,
41,
32,
31,
32,
31,
22,
19,
21,
26,
11,
21,
14,
10,
12,
9,
3,
14,
2,
4,
5,
2,
3,
2,
0,
1,
0,
2,
1,
3,
1,
0,
1,
0,
0,
0,
1,
0,
1,
0,
3,
1,
1,
1,
1,
0,
1,
1,
0,
0,
2,
0,
2,
0,
2,
0,
0,
0,
0,
1,
0,
1,
1,
1,
0,
0,
1,
0,
0,
0,
0,
1,
0,
1,
0,
0,
0,
0,
1,
0,
1,
0,
0,
0,
0,
0,
1,
1,
1,
0,
1,
2,
1,
0,
0,
0,
0,
0,
0,
0,
1,
1,
0,
0,
1,
2,
0,
1,
2,
1,
0,
1,
0,
2,
0,
0,
0,
1,
0,
0,
0,
0,
0,
0,
1,
0,
0,
1,
0,
1,
0,
0,
0,
0,
0,
0,
1,
0,
0,
1,
0,
0,
0,
0,
0,
1,
1,
0,
0,
0,
0,
0,
1,
0,
0,
0,
0,
0,
1,
0,
0,
0,
0,
0,
0,
0,
0,
0,
0,
0,
0,
1,
0,
0,
0,
0,
0,
0,
1,
1,
0,
0,
0,
0,
0,
0,
0,
0,
0,
0,
0,
0,
1,
0,
1,
0,
0,
0,
0,
0,
1,
0,
0,
0,
0,
0,
0,
0,
0,
0,
0,
0,
1,
0,
0,
1,
0,
0,
0,
0,
0,
0,
0,
0,
0,
0,
0,
0,
0,
0,
0,
1,
0,
0,
0,
0,
0,
0,
0,
0,
0,
0,
0,
0,
0,
0,
0,
0,
0,
0,
1,
0,
0,
0,
0,
0,
0,
0,
0,
1,
0,
0,
0,
0,
0,
0,
0,
0,
0,
0,
0,
0,
0,
0,
0,
0,
0,
0,
0,
0,
0,
0,
0,
0,
0,
0,
0,
0,
0,
0,
0,
0,
0,
0,
0,
0,
0,
0,
0,
0,
0,
0,
0,
0,
0,
0,
0,
0,
0,
0,
0,
0,
0,
0,
0,
0,
0,
0,
0,
0,
0,
0,
0,
0,
0,
0,
0,
0,
0,
0,
0,
0,
0,
0,
0,
0,
0,
0,
0,
0,
0,
0,
0,
0,
0,
0,
0,
0,
0,
0,
0,
0,
0,
0,
0,
0,
0,
0,
0,
0,
0,
0,
0,
0,
0,
0,
0,
0,
0,
0,
0,
0,
0,
0,
0,
0,
0,
0,
0,
0,
0,
0,
0,
0,
0,
0,
0,
0,
0,
0,
0,
0,
0,
0,
0,
0,
0,
0,
0,
0,
0,
0,
0,
0,
0,
0,
0,
0,
0,
0,
0,
0,
0,
0,
0,
0,
0,
0,
0,
0,
0,
0,
0,
0,
0,
0,
0,
0,
0,
0,
0,
0,
0,
0,
0,
0,
0,
0,
0,
0,
0,
0,
0,
0,
0,
0,
0,
0,
0,
0,
0,
0,
0,
0,
0,
0,
0,
0,
0,
0,
0,
0,
0,
0,
0,
0,
0,
0,
0,
0,
0,
0,
0,
0,
0,
0,
0,
0,
0,
0,
0,
0,
0,
0,
0,
0,
0,
0,
0,
0,
0,
0,
0,
0,
0,
0,
0,
0,
0,
0,
0,
0,
0,
0,
0,
0,
0,
0,
0,
0,
0,
0,
0,
0,
0,
0,
0,
0,
0,
0,
0,
0,
0,
0,
0,
0,
0,
0,
0,
0,
0,
0,
0,
0,
0,
0,
0,
0,
0,
0,
0,
0,
0,
0,
0,
0,
0,
0,
0,
0,
0,
0,
0,
0,
0,
0,
0,
0,
0,
0,
0,
0,
0,
0,
0,
0,
0,
0,
0,
0,
0,
0,
0,
0,
0,
0,
0,
0,
0,
0,
0,
0,
0,
0,
0,
0,
0,
0,
0,
0,
0,
0,
0,
0,
0,
0,
0,
0,
0,
0,
0,
0,
0,
0,
0,
0,
0,
0,
0,
0,
0,
0,
0,
0,
0,
0,
0,
0,
0,
0,
0,
0,
0,
0,
0,
0,
0,
0,
0,
0,
0,
0,
0,
0,
0,
0,
0,
0,
0,
0,
0,
0,
0,
0,
0,
0,
0,
0,
0,
0,
0,
0,
0,
0,
0,
0,
0,
0,
0,
0,
0,
0,
0,
0,
0,
0,
0,
0,
0,
0,
0,
0,
0,
0,
0,
0,
0,
0,
0,
0,
0,
0,
0,
0,
0,
0,
0,
0,
0,
0,
0,
0,
0,
0,
0,
0,
0,
0,
0,
0,
0,
0,
0,
0,
0,
0,
0,
0,
0,
0,
0,
0,
0,
0,
0,
0,
0,
0,
0,
0,
0,
0,
0,
0,
0,
0,
0,
0,
0,
0,
0,
0,
0,
0,
0,
0,
0,
0,
0,
0,
0,
0,
0,
0,
0,
0,
0,
0,
0,
0,
0,
0,
0,
0,
0,
0,
0,
0,
0,
0,
0,
0,
0,
0,
0,
0,
0,
0,
0,
0,
0,
0,
0,
0,
0,
0,
0,
0,
0,
0,
0,
0,
0,
0,
0,
0,
0,
0,
0,
0,
0,
0,
0,
0,
0,
0,
0,
0,
0,
0,
0,
0,
0,
0,
0,
0,
0,
0,
0,
0,
0,
0,
0,
0,
0,
0,
0,
0,
0,
0,
0,
0,
0,
0,
0,
0,
0,
0,
0,
0,
0,
0,
0,
0,
0,
0,
0,
0,
0,
0,
0,
0,
0,
0,
0,
0,
0,
0,
0,
0,
0,
0,
0,
0,
0,
0,
0,
0,
0,
0,
0,
0,
0,
0,
0,
0,
0,
0,
0,
0,
0,
0,
0,
0,
0,
0,
0,
0,
0,
0,
0,
0,
0,
0,
0,
0,
0,
#ENDOFDATA   :