File: N132962/Quantification/15 keV/GMIIIA/GMIIIA K1010[8][4].msa
#FORMAT      : EMSA/MAS Spectral Data File
#VERSION     : 1.0
#TITLE       : GMIIIA K1010[8][all]
#DATE        : 22-SEP-2025
#TIME        : 21:40
#OWNER       : Unknown
#NPOINTS     : 4096
#NCOLUMNS    : 1
#XUNITS      : eV
#YUNITS      : counts
#DATATYPE    : Y
#XPERCHAN    : 9.99778
#OFFSET      : 1.69135
#BEAMKV      : 15
#SIGNALTYPE  : EDS
#ELEVANGLE   : 35
#AZIMANGLE   : 0
#LIVETIME    : 240.001
#REALTIME    : 256.239
#PROBECUR    : 1.21615
#TAUWIND     : 0
#TDEADLYR    : 0
#TACTLYR     : 0.045
#TALWIND     : 0.025
#CHOFFSET    : 0.0
#XLABEL      : Energy (eV)
#YLABEL      : Counts
#XPOSITION   : 8.8884
#YPOSITION   : 15.4788
#ZPOSITION   : 37.36299
#EDSDET      : SD
##SPECIMEN   : GMIIIA K1010[8][all]
##D2STDCMP   : K1010,(O:38.96),(Al:8.92),(Si:21.02),(K:1.87),(Ca:6.75),(Ge:1.56),(Rb:2.06),(Sr:10.05),(Te:0.9),(Cs:2.12),(La:1.92),(Eu:1.94),(Gd:1.95)
##DET_HASH   : 12273538-fd48-a23f-0a19-f1e6fa85caef
##CALIB_HASH : 6abaa72c-aa41-8738-0be9-f592914732f3
##WORKING    : 15.0 mm
##DET_NAME   : EDAX All
##DET_MODE   : MediumLE
#SPECTRUM    :
31,
20,
14,
25,
111,
386,
1116,
2868,
6354,
8613,
6527,
4797,
4600,
5018,
7996,
24623,
90149,
171441,
124458,
33404,
5933,
3716,
4106,
4215,
4189,
4284,
4497,
5071,
5636,
5812,
5807,
5760,
5429,
5932,
6435,
6707,
6905,
8035,
11160,
14682,
15390,
11897,
8079,
6651,
6387,
6723,
7712,
14296,
39056,
74304,
75203,
41425,
17037,
9715,
9274,
18191,
56576,
133486,
181826,
144006,
84073,
49346,
29099,
16766,
9433,
6136,
4689,
3931,
3504,
3302,
3132,
3169,
3293,
3365,
3653,
3647,
3669,
3411,
3320,
3040,
3083,
3111,
3040,
2925,
3103,
3026,
3018,
2961,
3016,
2967,
2947,
2856,
2847,
2867,
2866,
2937,
2992,
2832,
2924,
2886,
2888,
2713,
2744,
2683,
2744,
2719,
2926,
3265,
4460,
6821,
9008,
9081,
6759,
4243,
3078,
2700,
2778,
2906,
3223,
4202,
6495,
11978,
19641,
24382,
20821,
13005,
6565,
3546,
2525,
2232,
2447,
2799,
3587,
4517,
4894,
4383,
3286,
2592,
2386,
2341,
2481,
3011,
3484,
3816,
3489,
2697,
2118,
1904,
1905,
1994,
2028,
2176,
2545,
3152,
3743,
3854,
3499,
2762,
2146,
1945,
1804,
1712,
1806,
1898,
1963,
2027,
2053,
2131,
2171,
2195,
1996,
1796,
1773,
1697,
1627,
1582,
1593,
1632,
1653,
1692,
1611,
1619,
1528,
1536,
1413,
1434,
1380,
1350,
1307,
1391,
1362,
1485,
1713,
1988,
2241,
2256,
1985,
1669,
1548,
1599,
1733,
2013,
2039,
1891,
1562,
1421,
1215,
1150,
1108,
1067,
1153,
1141,
1228,
1328,
1440,
1480,
1463,
1284,
1199,
1178,
1189,
1152,
1280,
1325,
1350,
1291,
1257,
1171,
1141,
1131,
1057,
1023,
962,
956,
975,
920,
1043,
1043,
1029,
913,
911,
862,
843,
824,
805,
835,
833,
820,
924,
900,
847,
854,
815,
794,
765,
739,
783,
795,
873,
880,
815,
754,
753,
721,
702,
709,
673,
719,
735,
672,
686,
653,
655,
677,
655,
652,
639,
672,
616,
580,
640,
593,
615,
570,
571,
610,
622,
606,
588,
558,
525,
586,
584,
516,
532,
475,
538,
481,
549,
508,
490,
478,
500,
482,
512,
483,
465,
459,
443,
464,
473,
476,
474,
427,
456,
412,
420,
386,
444,
386,
418,
402,
429,
419,
421,
455,
516,
522,
621,
566,
573,
521,
441,
426,
370,
365,
385,
367,
332,
349,
359,
339,
314,
351,
284,
309,
305,
328,
327,
315,
346,
346,
306,
286,
308,
278,
306,
290,
274,
282,
291,
278,
285,
285,
261,
281,
316,
272,
260,
255,
227,
250,
232,
241,
229,
225,
219,
213,
225,
239,
207,
214,
216,
194,
206,
190,
224,
206,
220,
186,
168,
192,
173,
174,
168,
163,
197,
174,
179,
172,
178,
160,
168,
161,
150,
157,
151,
154,
125,
129,
142,
149,
140,
128,
130,
131,
151,
130,
161,
132,
104,
107,
116,
113,
101,
101,
94,
112,
102,
99,
100,
107,
98,
97,
76,
85,
84,
75,
83,
80,
93,
69,
68,
66,
85,
73,
79,
69,
60,
71,
78,
52,
59,
53,
52,
63,
46,
56,
52,
51,
57,
37,
31,
40,
40,
40,
36,
49,
42,
47,
38,
42,
38,
42,
35,
25,
23,
25,
18,
33,
19,
16,
21,
13,
17,
21,
13,
14,
13,
13,
5,
8,
13,
8,
9,
3,
6,
3,
3,
0,
4,
1,
1,
1,
0,
0,
1,
1,
1,
2,
1,
0,
1,
0,
1,
0,
1,
0,
1,
0,
0,
0,
0,
0,
0,
0,
1,
0,
0,
0,
1,
0,
0,
0,
0,
0,
1,
1,
1,
0,
0,
0,
0,
1,
0,
0,
0,
0,
0,
0,
0,
0,
0,
0,
0,
0,
0,
0,
0,
0,
1,
0,
0,
0,
0,
0,
1,
1,
0,
0,
0,
0,
0,
0,
0,
0,
0,
0,
1,
0,
0,
0,
0,
1,
0,
1,
0,
0,
0,
1,
1,
0,
0,
0,
0,
0,
0,
0,
2,
0,
0,
0,
0,
0,
0,
0,
0,
0,
0,
0,
0,
0,
0,
0,
0,
0,
0,
0,
0,
0,
0,
0,
0,
0,
0,
0,
0,
0,
0,
0,
0,
0,
0,
0,
0,
0,
0,
0,
0,
0,
0,
0,
0,
0,
0,
0,
0,
0,
0,
0,
0,
0,
0,
0,
0,
0,
0,
0,
0,
0,
0,
0,
0,
0,
0,
0,
0,
0,
0,
0,
0,
0,
0,
0,
0,
0,
0,
0,
0,
0,
0,
0,
0,
0,
0,
0,
0,
0,
0,
0,
0,
0,
0,
0,
0,
0,
0,
0,
0,
0,
0,
0,
0,
0,
0,
0,
0,
0,
0,
0,
0,
0,
0,
0,
0,
0,
0,
0,
0,
1,
0,
0,
0,
0,
0,
0,
0,
0,
0,
0,
0,
0,
0,
0,
0,
0,
0,
0,
0,
0,
0,
0,
0,
0,
0,
0,
0,
0,
0,
0,
0,
0,
0,
0,
0,
0,
0,
0,
0,
0,
0,
0,
0,
0,
0,
0,
0,
0,
0,
0,
0,
0,
0,
0,
0,
0,
0,
0,
0,
0,
0,
0,
0,
0,
0,
0,
0,
0,
0,
0,
0,
0,
0,
0,
0,
0,
0,
0,
0,
0,
0,
0,
0,
0,
0,
1,
0,
0,
0,
0,
0,
0,
0,
0,
0,
0,
0,
0,
0,
0,
0,
0,
0,
0,
0,
0,
0,
0,
0,
0,
0,
0,
0,
0,
0,
0,
0,
0,
0,
0,
0,
0,
0,
0,
0,
0,
0,
0,
0,
0,
0,
0,
0,
0,
0,
0,
0,
0,
0,
0,
0,
0,
0,
0,
0,
0,
0,
0,
0,
0,
0,
0,
0,
0,
0,
0,
0,
0,
0,
0,
0,
0,
0,
0,
0,
0,
0,
0,
0,
0,
0,
0,
0,
0,
0,
0,
0,
0,
0,
0,
0,
0,
0,
0,
0,
0,
0,
0,
0,
0,
0,
0,
0,
0,
0,
0,
0,
0,
0,
0,
0,
0,
0,
0,
0,
0,
0,
0,
0,
0,
0,
0,
0,
0,
0,
0,
0,
0,
0,
0,
0,
0,
0,
0,
0,
0,
0,
0,
0,
0,
0,
0,
0,
0,
0,
0,
0,
0,
0,
0,
0,
0,
0,
0,
0,
0,
0,
0,
0,
0,
0,
0,
0,
0,
0,
0,
0,
0,
0,
0,
0,
0,
0,
0,
0,
0,
0,
0,
0,
0,
0,
0,
0,
0,
0,
0,
0,
0,
0,
0,
0,
0,
0,
0,
0,
0,
0,
0,
0,
0,
0,
0,
0,
0,
0,
0,
0,
0,
0,
0,
0,
0,
0,
0,
0,
0,
0,
0,
0,
0,
0,
0,
0,
0,
0,
0,
0,
0,
0,
0,
0,
0,
0,
0,
0,
0,
0,
0,
0,
0,
0,
0,
0,
0,
0,
0,
0,
0,
0,
0,
0,
0,
0,
0,
0,
0,
0,
0,
0,
0,
0,
0,
0,
0,
0,
0,
0,
0,
0,
0,
0,
0,
0,
0,
0,
0,
0,
0,
0,
0,
0,
0,
0,
0,
0,
0,
0,
0,
0,
0,
0,
0,
0,
0,
0,
0,
0,
0,
0,
0,
0,
0,
0,
0,
0,
0,
0,
0,
0,
0,
0,
0,
0,
0,
0,
0,
0,
0,
0,
0,
0,
0,
0,
0,
0,
0,
0,
0,
0,
0,
0,
0,
0,
0,
0,
0,
0,
0,
0,
0,
0,
0,
0,
0,
0,
0,
0,
0,
0,
0,
0,
0,
0,
0,
0,
0,
0,
0,
0,
0,
0,
0,
0,
0,
0,
0,
0,
0,
0,
0,
0,
0,
0,
0,
0,
0,
0,
0,
0,
0,
0,
0,
0,
0,
0,
0,
0,
0,
0,
0,
0,
0,
0,
0,
0,
0,
0,
0,
0,
0,
0,
0,
0,
0,
0,
0,
0,
0,
0,
0,
0,
0,
0,
0,
0,
0,
0,
0,
0,
0,
0,
0,
0,
0,
0,
0,
0,
0,
0,
0,
0,
0,
0,
0,
0,
0,
0,
0,
0,
0,
0,
0,
0,
0,
0,
0,
0,
0,
0,
0,
0,
0,
0,
0,
0,
0,
0,
0,
0,
0,
0,
0,
0,
0,
0,
0,
0,
0,
0,
0,
0,
0,
0,
0,
0,
0,
0,
0,
0,
0,
0,
0,
0,
0,
0,
0,
0,
0,
0,
0,
0,
0,
0,
0,
0,
0,
0,
0,
0,
0,
0,
0,
0,
0,
0,
0,
0,
0,
0,
0,
0,
0,
0,
0,
0,
0,
0,
0,
0,
0,
0,
0,
0,
0,
0,
0,
0,
0,
0,
0,
0,
0,
0,
0,
0,
0,
0,
0,
0,
0,
0,
0,
0,
0,
0,
0,
0,
0,
0,
0,
0,
0,
0,
0,
0,
0,
#ENDOFDATA   :