File: N132962/Quantification/15 keV/GMIIIA/GMIIIA K1132[5][4].msa
#FORMAT      : EMSA/MAS Spectral Data File
#VERSION     : 1.0
#TITLE       : GMIIIA K1132[5][all]
#DATE        : 22-SEP-2025
#TIME        : 22:28
#OWNER       : Unknown
#NPOINTS     : 4096
#NCOLUMNS    : 1
#XUNITS      : eV
#YUNITS      : counts
#DATATYPE    : Y
#XPERCHAN    : 9.99778
#OFFSET      : 1.69135
#BEAMKV      : 15
#SIGNALTYPE  : EDS
#ELEVANGLE   : 35
#AZIMANGLE   : 0
#LIVETIME    : 239.929
#REALTIME    : 255.333
#PROBECUR    : 1.21595
#TAUWIND     : 0
#TDEADLYR    : 0
#TACTLYR     : 0.045
#TALWIND     : 0.025
#CHOFFSET    : 0.0
#XLABEL      : Energy (eV)
#YLABEL      : Counts
#XPOSITION   : 8.26203
#YPOSITION   : 17.38353
#ZPOSITION   : 37.36299
#EDSDET      : SD
##SPECIMEN   : GMIIIA K1132[5][all]
##D2STDCMP   : K1132,(Li:2.32),(O:41.34),(Al:7.94),(Si:21.39),(Ca:10.72),(Cr:0.51),(Ni:1.18),(Mo:1.67),(Ba:13.43)
##DET_HASH   : 12273538-fd48-a23f-0a19-f1e6fa85caef
##CALIB_HASH : 6abaa72c-aa41-8738-0be9-f592914732f3
##WORKING    : 15.0 mm
##DET_NAME   : EDAX All
##DET_MODE   : MediumLE
#SPECTRUM    :
29,
28,
17,
20,
109,
420,
1183,
2850,
6757,
10123,
8524,
6260,
5469,
5774,
8697,
28357,
104511,
197450,
144991,
39349,
7894,
4152,
3841,
4091,
4347,
5213,
5854,
6547,
7257,
6683,
5149,
4831,
5128,
5616,
5804,
5899,
5245,
4930,
4754,
4670,
4911,
5077,
5209,
5210,
5559,
5756,
6340,
12038,
32082,
61793,
62482,
34027,
13322,
7322,
6798,
13837,
48777,
121215,
164121,
116422,
47999,
17319,
8660,
5300,
4103,
3834,
3764,
3759,
3556,
3355,
3290,
3344,
3392,
3651,
4252,
5708,
7061,
7033,
5671,
4978,
4629,
4196,
3678,
3463,
3392,
3269,
3091,
2995,
2945,
3062,
2940,
2933,
2830,
2810,
2854,
2806,
2756,
2731,
2842,
2744,
2677,
2618,
2766,
2651,
2623,
2682,
2731,
2668,
2663,
2592,
2426,
2462,
2454,
2415,
2474,
2472,
2565,
2659,
2821,
3852,
7519,
16381,
29419,
37070,
31337,
18227,
7986,
3677,
2469,
2351,
2634,
3497,
4767,
6192,
6362,
5322,
3779,
2511,
1991,
1948,
1972,
1926,
1909,
1945,
2171,
2683,
4388,
7692,
11480,
12839,
10789,
6732,
3691,
2246,
1851,
1646,
1720,
1974,
2638,
4102,
5802,
6592,
6138,
4795,
3534,
2779,
2232,
1888,
1854,
1946,
2355,
2993,
3262,
2916,
2384,
1844,
1546,
1522,
1648,
1902,
2176,
2107,
2186,
2100,
1970,
1991,
1741,
1501,
1297,
1304,
1272,
1351,
1390,
1427,
1420,
1344,
1297,
1245,
1231,
1190,
1168,
1201,
1029,
1167,
1046,
1100,
1035,
1028,
1023,
1069,
981,
1048,
978,
966,
1006,
1030,
953,
951,
955,
969,
967,
893,
903,
901,
895,
888,
877,
872,
832,
822,
885,
881,
830,
805,
851,
860,
819,
836,
801,
806,
840,
874,
810,
774,
792,
815,
993,
1165,
1316,
1460,
1308,
1172,
938,
821,
751,
736,
702,
667,
704,
666,
708,
659,
647,
670,
647,
642,
631,
613,
601,
625,
669,
627,
640,
664,
721,
681,
676,
686,
665,
605,
553,
567,
548,
567,
614,
566,
541,
515,
513,
507,
500,
529,
500,
489,
498,
526,
502,
447,
500,
473,
444,
466,
431,
490,
497,
458,
461,
405,
437,
436,
464,
356,
472,
405,
357,
426,
426,
382,
382,
390,
404,
407,
411,
337,
364,
396,
382,
344,
373,
363,
345,
370,
306,
357,
357,
333,
363,
315,
361,
345,
337,
312,
335,
322,
327,
325,
311,
296,
305,
265,
314,
297,
311,
279,
289,
313,
274,
251,
239,
270,
253,
277,
248,
272,
228,
258,
235,
242,
251,
251,
226,
222,
209,
219,
223,
210,
218,
213,
229,
206,
215,
206,
189,
196,
168,
169,
202,
184,
161,
140,
190,
173,
161,
150,
144,
161,
154,
144,
149,
169,
144,
141,
152,
137,
126,
139,
139,
150,
131,
119,
130,
120,
110,
99,
135,
125,
107,
104,
98,
109,
111,
88,
98,
93,
96,
96,
94,
98,
79,
75,
102,
83,
95,
80,
87,
79,
91,
88,
71,
84,
81,
81,
62,
76,
86,
60,
42,
57,
70,
60,
59,
57,
55,
61,
48,
50,
47,
53,
47,
45,
43,
41,
47,
44,
41,
29,
40,
42,
31,
26,
34,
33,
30,
32,
21,
31,
31,
19,
26,
24,
24,
23,
22,
15,
17,
14,
15,
6,
12,
10,
13,
6,
13,
8,
12,
7,
1,
9,
1,
3,
2,
2,
0,
1,
0,
0,
2,
1,
0,
1,
1,
2,
1,
1,
2,
1,
0,
0,
0,
1,
0,
0,
2,
0,
0,
1,
0,
0,
1,
0,
0,
0,
0,
0,
1,
0,
0,
0,
1,
1,
0,
0,
0,
0,
0,
1,
1,
0,
1,
1,
0,
0,
0,
0,
1,
0,
0,
0,
0,
0,
0,
0,
0,
0,
1,
0,
0,
0,
1,
0,
0,
0,
0,
0,
0,
1,
0,
0,
2,
0,
0,
0,
0,
0,
0,
0,
0,
0,
0,
0,
0,
0,
0,
0,
0,
0,
0,
0,
0,
0,
0,
0,
0,
0,
0,
1,
0,
0,
0,
0,
0,
0,
1,
0,
0,
0,
0,
0,
0,
0,
0,
0,
0,
0,
0,
0,
0,
0,
0,
0,
0,
0,
1,
0,
0,
0,
0,
0,
0,
0,
0,
0,
0,
0,
0,
0,
0,
0,
0,
0,
0,
0,
0,
0,
0,
0,
0,
0,
0,
0,
0,
0,
0,
0,
0,
0,
0,
0,
0,
0,
0,
0,
0,
0,
0,
0,
0,
0,
0,
0,
0,
0,
0,
0,
0,
0,
0,
0,
0,
0,
0,
0,
0,
0,
0,
0,
0,
0,
0,
1,
0,
0,
0,
0,
0,
0,
0,
0,
0,
0,
0,
0,
0,
0,
0,
0,
0,
0,
0,
0,
0,
0,
0,
0,
0,
0,
0,
0,
0,
0,
0,
0,
0,
0,
0,
0,
0,
0,
0,
0,
0,
0,
0,
0,
0,
0,
0,
0,
0,
0,
0,
0,
0,
0,
0,
0,
0,
0,
0,
0,
0,
0,
0,
0,
0,
0,
0,
0,
0,
0,
0,
0,
0,
0,
0,
0,
0,
0,
0,
0,
0,
0,
0,
0,
0,
0,
0,
0,
0,
0,
0,
0,
0,
0,
0,
0,
0,
0,
0,
0,
0,
0,
0,
0,
0,
0,
0,
0,
0,
0,
0,
0,
0,
0,
0,
0,
0,
0,
0,
0,
0,
0,
0,
0,
0,
0,
0,
0,
0,
0,
0,
0,
0,
0,
0,
0,
0,
0,
0,
0,
0,
0,
0,
0,
1,
0,
0,
0,
0,
0,
0,
0,
0,
0,
0,
0,
0,
0,
0,
0,
0,
0,
0,
0,
0,
0,
0,
0,
0,
0,
0,
0,
0,
0,
0,
0,
0,
0,
0,
0,
0,
0,
0,
0,
0,
0,
0,
0,
0,
0,
0,
0,
0,
0,
0,
0,
0,
0,
0,
0,
0,
0,
0,
0,
0,
0,
0,
0,
0,
0,
0,
0,
0,
0,
0,
0,
0,
0,
0,
0,
0,
0,
0,
0,
0,
0,
0,
0,
0,
0,
0,
0,
0,
0,
0,
0,
0,
0,
0,
0,
0,
0,
0,
0,
0,
0,
0,
0,
0,
0,
0,
0,
0,
0,
0,
0,
0,
0,
0,
0,
0,
0,
0,
0,
0,
0,
0,
0,
0,
0,
0,
0,
0,
0,
0,
0,
0,
0,
0,
0,
0,
0,
0,
0,
0,
0,
0,
0,
0,
0,
0,
0,
0,
0,
0,
0,
0,
0,
0,
0,
0,
0,
0,
0,
0,
0,
0,
0,
0,
0,
0,
0,
0,
0,
0,
0,
0,
0,
0,
0,
0,
0,
0,
0,
0,
0,
0,
0,
0,
0,
0,
0,
0,
0,
0,
0,
0,
0,
0,
0,
0,
0,
0,
0,
0,
0,
0,
0,
0,
0,
0,
0,
0,
0,
0,
0,
0,
0,
0,
0,
0,
0,
0,
0,
0,
0,
0,
0,
0,
0,
0,
0,
0,
0,
0,
0,
0,
0,
0,
0,
0,
0,
0,
0,
0,
0,
0,
0,
0,
0,
0,
0,
0,
0,
0,
0,
0,
0,
0,
0,
0,
0,
0,
0,
0,
0,
0,
0,
0,
0,
0,
0,
0,
0,
0,
0,
0,
0,
0,
0,
0,
0,
0,
0,
0,
0,
0,
0,
0,
0,
0,
0,
0,
0,
0,
0,
0,
0,
0,
0,
0,
0,
0,
0,
0,
0,
0,
0,
0,
0,
0,
0,
0,
0,
0,
0,
0,
0,
0,
0,
0,
0,
0,
0,
0,
0,
0,
0,
0,
0,
0,
0,
0,
0,
0,
0,
0,
0,
0,
0,
0,
0,
0,
0,
0,
0,
0,
0,
0,
0,
0,
0,
0,
0,
0,
0,
0,
0,
0,
0,
0,
0,
0,
0,
0,
0,
0,
0,
0,
0,
0,
0,
0,
0,
0,
0,
0,
0,
0,
0,
0,
0,
0,
0,
0,
0,
0,
0,
0,
0,
0,
0,
0,
0,
0,
0,
0,
0,
0,
0,
0,
0,
0,
0,
0,
0,
0,
0,
0,
0,
0,
0,
0,
0,
0,
0,
0,
0,
0,
0,
0,
0,
0,
0,
0,
0,
0,
0,
0,
0,
0,
0,
0,
0,
0,
0,
0,
0,
0,
0,
0,
0,
0,
0,
0,
0,
0,
0,
0,
0,
0,
0,
0,
0,
0,
0,
0,
0,
0,
0,
0,
0,
0,
0,
0,
0,
0,
0,
0,
0,
0,
1,
0,
0,
0,
0,
0,
0,
0,
0,
0,
0,
0,
0,
0,
0,
0,
0,
0,
0,
0,
0,
0,
0,
0,
0,
0,
0,
0,
0,
0,
0,
0,
0,
0,
0,
0,
0,
0,
0,
0,
0,
0,
0,
0,
0,
0,
0,
0,
0,
0,
0,
0,
0,
0,
0,
#ENDOFDATA   :