File: N132962/Quantification/15 keV/GMIIIA/GMIIIA K251[3][4].msa
#FORMAT      : EMSA/MAS Spectral Data File
#VERSION     : 1.0
#TITLE       : GMIIIA K251[3][all]
#DATE        : 22-SEP-2025
#TIME        : 14:59
#OWNER       : Unknown
#NPOINTS     : 4096
#NCOLUMNS    : 1
#XUNITS      : eV
#YUNITS      : counts
#DATATYPE    : Y
#XPERCHAN    : 9.99778
#OFFSET      : 1.69135
#BEAMKV      : 15
#SIGNALTYPE  : EDS
#ELEVANGLE   : 35
#AZIMANGLE   : 0
#LIVETIME    : 239.983
#REALTIME    : 259.171
#PROBECUR    : 1.21732
#TAUWIND     : 0
#TDEADLYR    : 0
#TACTLYR     : 0.045
#TALWIND     : 0.025
#CHOFFSET    : 0.0
#XLABEL      : Energy (eV)
#YLABEL      : Counts
#XPOSITION   : 7.15532
#YPOSITION   : 2.47195
#ZPOSITION   : 37.36299
#EDSDET      : SD
##SPECIMEN   : GMIIIA K251[3][all]
##D2STDCMP   : K251,(O:23.02),(Al:1.32),(Si:14.02),(Ba:8.96),(Ta:4.09),(Pb:44.1),(Bi:4.48)
##DET_HASH   : 12273538-fd48-a23f-0a19-f1e6fa85caef
##CALIB_HASH : 6abaa72c-aa41-8738-0be9-f592914732f3
##WORKING    : 15.0 mm
##DET_NAME   : EDAX All
##DET_MODE   : MediumLE
#SPECTRUM    :
28,
31,
19,
44,
201,
865,
2312,
5457,
10815,
13256,
9429,
6917,
7082,
7295,
9009,
19924,
60373,
108875,
79777,
25812,
10187,
8003,
7611,
7989,
7660,
7507,
7811,
7821,
7397,
7120,
7067,
7351,
7886,
8142,
8172,
8059,
8175,
7948,
7919,
8084,
8041,
8274,
8582,
9023,
9331,
9360,
9263,
10196,
14292,
19994,
20329,
14690,
10697,
9620,
10543,
18868,
50939,
110002,
142504,
103635,
50226,
24747,
15374,
10472,
8269,
7323,
7222,
6854,
6654,
6637,
6818,
7265,
7950,
8546,
9814,
14216,
28470,
58143,
85105,
84120,
71363,
66429,
56909,
35689,
18891,
11094,
8220,
8214,
8815,
8609,
7189,
5969,
5153,
4789,
4708,
4839,
4770,
4860,
4889,
4894,
5090,
5285,
5614,
5727,
5476,
5249,
5021,
4797,
4584,
4399,
4296,
4328,
4294,
4232,
4287,
4337,
4455,
4347,
4415,
4173,
4043,
4144,
4146,
4312,
4104,
4014,
4029,
3938,
3935,
4021,
3992,
4246,
4195,
4186,
4046,
3916,
3893,
3945,
3877,
3928,
3879,
3757,
3797,
3919,
3977,
4381,
5528,
8087,
10894,
11817,
10302,
7574,
5172,
4018,
3566,
3591,
3552,
3648,
4308,
5379,
6595,
7137,
6889,
5817,
4901,
4301,
3843,
3605,
3484,
3516,
3936,
4202,
4577,
4175,
3758,
3373,
3153,
3068,
3105,
2965,
2928,
2974,
3158,
3467,
3423,
3362,
3230,
3006,
2861,
2770,
2851,
2974,
2949,
2863,
2950,
2822,
2679,
2755,
2705,
2698,
2742,
2631,
2568,
2550,
2470,
2518,
2448,
2406,
2477,
2451,
2498,
2558,
2548,
2553,
2486,
2500,
2340,
2300,
2311,
2292,
2307,
2228,
2164,
2303,
2160,
2171,
2225,
2205,
2197,
2136,
2043,
2162,
2072,
2146,
2144,
2124,
2151,
2082,
2124,
2052,
2047,
2106,
2024,
1959,
1981,
1940,
1978,
1950,
1921,
1979,
1846,
1907,
1858,
1884,
1826,
1834,
1823,
1711,
1796,
1802,
1678,
1738,
1779,
1720,
1725,
1745,
1715,
1779,
1861,
2105,
2282,
2377,
2281,
2190,
1918,
1751,
1665,
1570,
1509,
1550,
1515,
1532,
1543,
1405,
1499,
1479,
1493,
1458,
1428,
1470,
1336,
1373,
1407,
1422,
1338,
1409,
1448,
1310,
1305,
1361,
1295,
1297,
1316,
1289,
1354,
1337,
1338,
1310,
1338,
1309,
1416,
1403,
1403,
1374,
1302,
1261,
1245,
1264,
1126,
1284,
1200,
1227,
1204,
1170,
1181,
1171,
1086,
1054,
1041,
1015,
1010,
1021,
1007,
972,
976,
986,
1024,
934,
922,
910,
947,
931,
967,
924,
925,
964,
948,
1072,
1234,
1440,
1620,
1694,
1647,
1449,
1291,
1136,
959,
922,
871,
835,
875,
836,
817,
800,
810,
780,
700,
729,
684,
704,
730,
710,
701,
693,
690,
684,
661,
641,
710,
596,
640,
631,
587,
612,
571,
617,
595,
621,
561,
564,
550,
533,
534,
527,
529,
525,
487,
487,
501,
490,
494,
510,
430,
497,
467,
464,
466,
489,
437,
434,
446,
436,
417,
410,
435,
383,
454,
454,
436,
482,
489,
523,
484,
415,
407,
368,
336,
309,
342,
300,
330,
320,
308,
333,
329,
294,
288,
283,
276,
241,
227,
254,
262,
274,
227,
237,
212,
217,
193,
200,
211,
202,
198,
207,
209,
150,
190,
157,
167,
165,
182,
155,
167,
134,
130,
148,
127,
127,
145,
104,
109,
112,
107,
119,
112,
104,
99,
92,
77,
81,
80,
75,
79,
66,
70,
52,
57,
49,
46,
59,
43,
49,
38,
35,
26,
26,
22,
17,
12,
7,
9,
4,
2,
2,
3,
4,
5,
4,
3,
2,
0,
1,
3,
3,
2,
2,
1,
2,
1,
2,
1,
3,
0,
1,
2,
3,
0,
2,
1,
1,
2,
3,
0,
2,
1,
2,
3,
1,
0,
2,
2,
1,
2,
4,
1,
1,
1,
0,
2,
0,
1,
1,
2,
0,
0,
1,
4,
0,
3,
0,
3,
1,
0,
2,
2,
2,
2,
0,
0,
2,
0,
1,
2,
1,
1,
4,
4,
0,
0,
0,
2,
1,
3,
0,
1,
1,
2,
2,
1,
2,
0,
0,
0,
1,
1,
0,
2,
2,
0,
2,
1,
0,
3,
0,
1,
0,
0,
4,
0,
0,
1,
4,
3,
3,
0,
0,
1,
1,
0,
0,
1,
0,
1,
0,
0,
1,
1,
0,
1,
0,
1,
0,
1,
0,
0,
1,
1,
0,
0,
2,
2,
0,
1,
0,
0,
1,
0,
0,
1,
0,
1,
0,
0,
0,
0,
0,
1,
0,
0,
0,
0,
0,
0,
0,
0,
0,
0,
0,
0,
0,
1,
0,
1,
0,
0,
0,
0,
0,
1,
0,
0,
0,
1,
1,
0,
1,
0,
0,
0,
0,
0,
1,
0,
1,
0,
0,
0,
0,
0,
0,
0,
0,
2,
1,
0,
0,
0,
0,
1,
1,
0,
0,
3,
0,
0,
0,
2,
0,
0,
0,
0,
1,
0,
0,
0,
0,
2,
2,
0,
0,
1,
0,
0,
0,
1,
0,
0,
0,
0,
0,
0,
0,
0,
1,
1,
0,
0,
0,
0,
0,
0,
0,
0,
0,
0,
1,
0,
0,
0,
0,
0,
0,
0,
0,
0,
0,
0,
0,
1,
0,
1,
0,
0,
0,
1,
0,
0,
0,
0,
0,
0,
0,
0,
0,
0,
0,
0,
0,
0,
0,
0,
1,
0,
0,
0,
0,
0,
0,
0,
0,
0,
0,
1,
0,
0,
0,
0,
0,
0,
0,
0,
0,
0,
0,
0,
0,
0,
0,
0,
0,
0,
0,
0,
0,
0,
0,
0,
0,
0,
0,
0,
0,
0,
0,
0,
0,
1,
0,
0,
0,
0,
0,
0,
0,
0,
0,
0,
0,
0,
0,
0,
0,
0,
0,
0,
0,
0,
0,
0,
0,
0,
0,
0,
0,
0,
0,
0,
0,
1,
0,
0,
0,
0,
0,
0,
0,
0,
0,
0,
0,
0,
0,
0,
0,
0,
0,
0,
0,
0,
0,
0,
0,
0,
0,
0,
0,
0,
0,
0,
0,
0,
0,
0,
0,
0,
0,
0,
0,
0,
0,
0,
0,
0,
0,
0,
0,
0,
0,
0,
0,
0,
0,
0,
0,
0,
0,
0,
0,
0,
0,
0,
0,
0,
0,
0,
0,
0,
0,
0,
0,
0,
0,
0,
0,
0,
0,
0,
0,
0,
0,
0,
0,
0,
0,
0,
0,
0,
0,
0,
0,
0,
0,
0,
0,
0,
0,
0,
0,
0,
0,
0,
0,
0,
0,
0,
0,
0,
0,
0,
0,
0,
0,
0,
0,
0,
0,
0,
0,
0,
0,
0,
0,
0,
0,
0,
0,
0,
0,
0,
0,
0,
0,
0,
0,
0,
0,
0,
0,
0,
0,
0,
0,
0,
0,
0,
0,
0,
0,
0,
0,
0,
0,
0,
0,
0,
0,
0,
0,
0,
0,
0,
0,
0,
0,
0,
0,
0,
0,
0,
0,
0,
0,
0,
0,
0,
0,
0,
0,
0,
0,
0,
0,
0,
0,
0,
0,
0,
0,
0,
0,
0,
0,
0,
0,
0,
0,
0,
0,
0,
0,
0,
0,
0,
0,
0,
0,
0,
0,
0,
0,
0,
0,
0,
0,
0,
0,
0,
0,
0,
0,
0,
0,
0,
0,
0,
0,
0,
0,
0,
0,
0,
0,
0,
0,
0,
0,
0,
0,
0,
0,
0,
0,
0,
0,
0,
0,
0,
0,
0,
0,
0,
0,
0,
0,
0,
0,
0,
0,
0,
0,
0,
0,
0,
0,
0,
0,
0,
0,
0,
0,
0,
0,
0,
0,
0,
0,
0,
0,
0,
0,
0,
0,
0,
0,
0,
0,
0,
0,
0,
0,
0,
0,
0,
0,
0,
0,
0,
0,
0,
0,
0,
0,
0,
0,
0,
0,
0,
0,
0,
0,
0,
0,
0,
0,
0,
0,
0,
0,
0,
0,
0,
0,
0,
0,
0,
0,
0,
0,
0,
0,
0,
0,
0,
0,
0,
0,
0,
0,
0,
0,
0,
0,
0,
0,
0,
0,
0,
0,
0,
0,
0,
0,
0,
0,
0,
0,
0,
0,
0,
0,
0,
0,
0,
0,
0,
0,
0,
0,
0,
0,
0,
0,
0,
0,
0,
0,
0,
0,
0,
0,
0,
0,
0,
0,
0,
0,
0,
0,
0,
0,
0,
0,
0,
0,
0,
0,
0,
0,
0,
0,
0,
0,
0,
0,
0,
0,
0,
0,
0,
0,
0,
0,
0,
0,
0,
0,
0,
0,
0,
0,
0,
0,
0,
0,
0,
0,
0,
0,
0,
0,
0,
0,
0,
0,
0,
0,
0,
0,
0,
0,
0,
0,
0,
0,
0,
0,
0,
0,
0,
0,
0,
0,
0,
0,
0,
0,
0,
0,
0,
0,
0,
0,
0,
0,
0,
0,
0,
0,
0,
0,
0,
0,
0,
0,
0,
0,
0,
0,
0,
0,
0,
0,
0,
0,
0,
0,
0,
0,
0,
0,
0,
0,
0,
0,
0,
0,
#ENDOFDATA   :