File: N132962/Quantification/15 keV/GMIIIA/GMIIIA K1010[4][4].msa
#FORMAT      : EMSA/MAS Spectral Data File
#VERSION     : 1.0
#TITLE       : GMIIIA K1010[4][all]
#DATE        : 22-SEP-2025
#TIME        : 21:36
#OWNER       : Unknown
#NPOINTS     : 4096
#NCOLUMNS    : 1
#XUNITS      : eV
#YUNITS      : counts
#DATATYPE    : Y
#XPERCHAN    : 9.99778
#OFFSET      : 1.69135
#BEAMKV      : 15
#SIGNALTYPE  : EDS
#ELEVANGLE   : 35
#AZIMANGLE   : 0
#LIVETIME    : 240.006
#REALTIME    : 256.243
#PROBECUR    : 1.21615
#TAUWIND     : 0
#TDEADLYR    : 0
#TACTLYR     : 0.045
#TALWIND     : 0.025
#CHOFFSET    : 0.0
#XLABEL      : Energy (eV)
#YLABEL      : Counts
#XPOSITION   : 8.91349
#YPOSITION   : 15.45868
#ZPOSITION   : 37.36299
#EDSDET      : SD
##SPECIMEN   : GMIIIA K1010[4][all]
##D2STDCMP   : K1010,(O:38.96),(Al:8.92),(Si:21.02),(K:1.87),(Ca:6.75),(Ge:1.56),(Rb:2.06),(Sr:10.05),(Te:0.9),(Cs:2.12),(La:1.92),(Eu:1.94),(Gd:1.95)
##DET_HASH   : 12273538-fd48-a23f-0a19-f1e6fa85caef
##CALIB_HASH : 6abaa72c-aa41-8738-0be9-f592914732f3
##WORKING    : 15.0 mm
##DET_NAME   : EDAX All
##DET_MODE   : MediumLE
#SPECTRUM    :
27,
31,
20,
23,
132,
426,
1152,
2836,
6536,
8557,
6514,
4888,
4683,
5182,
8223,
25404,
90858,
170415,
124106,
33894,
6121,
3822,
4067,
4268,
4268,
4143,
4544,
5035,
5565,
5912,
5782,
5582,
5446,
5895,
6448,
6560,
6768,
7950,
11146,
14672,
15242,
11698,
8005,
6529,
6387,
6621,
7735,
14374,
38479,
74150,
75395,
41371,
17047,
9736,
9500,
18608,
56889,
133720,
182505,
144533,
84214,
49661,
29065,
16602,
9712,
5992,
4650,
3758,
3340,
3300,
3296,
3209,
3246,
3408,
3507,
3643,
3581,
3473,
3205,
3143,
3111,
3066,
3018,
3036,
2981,
2989,
2939,
3019,
2929,
2971,
2911,
2861,
2801,
2929,
2911,
2881,
2855,
2827,
2859,
2863,
2960,
2747,
2782,
2664,
2731,
2771,
2905,
3237,
4343,
6742,
9186,
9037,
6647,
4186,
2970,
2755,
2821,
2790,
3234,
4153,
6469,
11985,
19826,
24609,
20964,
13055,
6584,
3486,
2738,
2375,
2412,
2809,
3669,
4686,
5054,
4332,
3375,
2665,
2258,
2300,
2470,
2999,
3671,
3790,
3412,
2810,
2222,
1922,
1842,
1889,
2059,
2162,
2598,
3084,
3763,
3824,
3384,
2795,
2203,
1934,
1764,
1717,
1673,
1894,
1862,
1938,
2068,
2092,
2237,
2170,
2041,
1815,
1753,
1659,
1617,
1581,
1638,
1715,
1768,
1723,
1612,
1687,
1568,
1452,
1442,
1402,
1376,
1272,
1270,
1302,
1386,
1437,
1727,
2027,
2157,
2241,
2056,
1734,
1565,
1636,
1725,
1933,
1982,
1882,
1655,
1367,
1270,
1139,
1104,
1139,
1165,
1125,
1191,
1352,
1503,
1402,
1445,
1345,
1230,
1151,
1159,
1227,
1246,
1365,
1344,
1336,
1249,
1192,
1213,
1175,
1031,
974,
949,
924,
951,
1013,
1046,
969,
1012,
954,
874,
860,
832,
882,
862,
840,
826,
820,
883,
885,
862,
838,
814,
752,
749,
785,
796,
830,
777,
781,
786,
761,
759,
709,
685,
746,
663,
737,
741,
705,
673,
634,
627,
675,
641,
692,
640,
602,
650,
612,
619,
642,
603,
603,
611,
577,
561,
586,
580,
613,
516,
552,
501,
532,
560,
559,
552,
522,
515,
473,
527,
500,
494,
468,
514,
474,
443,
483,
475,
464,
484,
444,
440,
442,
445,
467,
493,
434,
439,
392,
420,
420,
401,
426,
449,
477,
542,
546,
582,
623,
570,
520,
448,
431,
384,
374,
360,
364,
368,
347,
348,
368,
317,
346,
348,
317,
337,
344,
305,
331,
306,
330,
272,
333,
294,
313,
331,
297,
277,
311,
255,
305,
315,
294,
296,
265,
317,
264,
296,
261,
268,
253,
261,
243,
247,
200,
228,
216,
211,
238,
214,
194,
214,
196,
214,
219,
204,
187,
188,
200,
186,
208,
190,
194,
185,
186,
189,
169,
173,
144,
169,
163,
175,
159,
136,
156,
143,
160,
130,
144,
132,
142,
120,
121,
134,
125,
133,
137,
125,
104,
97,
119,
116,
144,
97,
98,
111,
97,
107,
99,
93,
106,
90,
98,
90,
101,
81,
93,
83,
81,
79,
87,
74,
62,
77,
78,
65,
64,
68,
62,
60,
65,
66,
60,
50,
58,
55,
44,
50,
53,
46,
39,
39,
38,
43,
42,
48,
38,
32,
35,
43,
38,
37,
26,
36,
38,
31,
29,
27,
20,
28,
24,
22,
17,
13,
21,
10,
14,
14,
15,
13,
18,
7,
9,
10,
7,
8,
3,
3,
0,
4,
1,
0,
1,
1,
3,
0,
0,
0,
0,
0,
0,
1,
1,
1,
0,
0,
1,
1,
0,
0,
0,
1,
0,
1,
0,
1,
0,
0,
0,
1,
0,
1,
0,
0,
0,
0,
2,
0,
0,
0,
1,
0,
0,
0,
0,
0,
0,
0,
0,
1,
0,
0,
1,
1,
0,
0,
0,
1,
0,
1,
0,
0,
0,
0,
0,
0,
0,
0,
1,
0,
0,
1,
0,
1,
1,
1,
0,
0,
1,
0,
0,
0,
0,
0,
0,
1,
0,
1,
0,
0,
0,
1,
0,
1,
0,
0,
0,
0,
1,
0,
0,
0,
0,
0,
0,
0,
0,
1,
0,
1,
1,
0,
1,
0,
0,
0,
0,
1,
0,
0,
0,
0,
0,
0,
0,
0,
0,
0,
0,
0,
0,
0,
0,
0,
0,
0,
0,
0,
0,
0,
0,
0,
0,
0,
0,
0,
0,
1,
0,
0,
1,
0,
0,
0,
0,
1,
0,
0,
0,
0,
0,
0,
0,
0,
0,
0,
0,
0,
0,
0,
0,
0,
1,
0,
0,
0,
0,
0,
0,
1,
0,
0,
0,
0,
0,
0,
0,
0,
0,
0,
1,
0,
0,
0,
0,
0,
0,
0,
0,
0,
0,
0,
0,
0,
0,
0,
0,
0,
0,
0,
0,
0,
0,
0,
0,
0,
0,
0,
0,
0,
0,
0,
0,
0,
0,
0,
0,
0,
0,
0,
0,
0,
0,
0,
0,
0,
0,
0,
0,
0,
0,
0,
0,
0,
0,
0,
0,
0,
0,
0,
0,
0,
0,
0,
0,
0,
0,
0,
0,
0,
0,
0,
0,
0,
0,
0,
0,
0,
0,
0,
0,
0,
0,
0,
0,
0,
0,
0,
0,
0,
0,
0,
0,
0,
0,
0,
0,
0,
0,
0,
0,
0,
0,
0,
0,
0,
0,
0,
0,
0,
0,
0,
0,
0,
0,
0,
0,
0,
0,
0,
0,
0,
0,
0,
0,
0,
0,
0,
0,
0,
0,
0,
0,
0,
0,
0,
0,
0,
0,
0,
0,
0,
0,
0,
0,
0,
0,
0,
0,
0,
0,
0,
0,
0,
0,
0,
0,
0,
0,
0,
0,
0,
0,
0,
0,
0,
0,
0,
0,
0,
0,
0,
0,
0,
0,
0,
0,
0,
0,
0,
0,
0,
0,
0,
0,
0,
0,
0,
0,
0,
0,
0,
0,
0,
0,
0,
0,
0,
0,
0,
0,
0,
0,
0,
0,
0,
0,
0,
0,
0,
0,
0,
0,
0,
0,
0,
0,
0,
0,
0,
0,
0,
0,
0,
0,
0,
0,
0,
0,
0,
0,
0,
0,
0,
0,
0,
0,
0,
0,
0,
0,
0,
0,
0,
0,
0,
0,
0,
0,
0,
0,
0,
0,
0,
0,
0,
0,
0,
0,
0,
0,
0,
0,
0,
0,
0,
0,
0,
0,
0,
0,
0,
0,
0,
0,
0,
0,
0,
0,
0,
0,
0,
0,
0,
0,
0,
0,
0,
0,
0,
0,
0,
0,
0,
0,
0,
0,
0,
0,
0,
0,
0,
0,
0,
0,
0,
0,
0,
0,
0,
0,
0,
0,
0,
0,
0,
0,
0,
0,
0,
0,
0,
0,
0,
0,
0,
0,
0,
0,
0,
0,
0,
0,
0,
0,
0,
0,
0,
0,
0,
0,
0,
0,
0,
0,
0,
0,
0,
0,
0,
0,
0,
0,
0,
0,
0,
0,
0,
0,
0,
0,
0,
0,
0,
0,
0,
0,
0,
0,
0,
0,
0,
0,
0,
0,
0,
0,
0,
0,
0,
0,
0,
0,
0,
0,
0,
0,
0,
0,
0,
0,
0,
0,
0,
0,
0,
0,
0,
0,
0,
0,
0,
0,
0,
0,
0,
0,
0,
0,
0,
0,
0,
0,
0,
0,
0,
0,
0,
0,
0,
0,
0,
0,
0,
0,
0,
0,
0,
0,
0,
0,
0,
0,
0,
0,
0,
0,
0,
0,
0,
0,
0,
0,
0,
0,
0,
0,
0,
0,
0,
0,
0,
0,
0,
0,
0,
0,
0,
0,
0,
0,
0,
0,
0,
0,
0,
0,
0,
0,
0,
0,
0,
0,
0,
0,
0,
0,
0,
0,
0,
0,
0,
0,
0,
0,
0,
0,
0,
0,
0,
0,
0,
0,
0,
0,
0,
0,
0,
0,
0,
0,
0,
0,
0,
0,
0,
0,
0,
0,
0,
0,
0,
0,
0,
0,
0,
0,
0,
0,
0,
0,
0,
0,
0,
0,
0,
0,
0,
0,
0,
0,
0,
0,
0,
0,
0,
0,
0,
0,
0,
0,
0,
0,
0,
0,
0,
0,
0,
0,
0,
0,
0,
0,
0,
0,
0,
0,
0,
0,
0,
0,
0,
0,
0,
0,
0,
0,
0,
0,
0,
0,
0,
0,
0,
0,
0,
0,
0,
0,
0,
0,
0,
0,
0,
0,
0,
0,
0,
0,
0,
0,
0,
0,
0,
0,
0,
0,
0,
0,
0,
0,
0,
0,
0,
0,
0,
0,
0,
0,
0,
0,
0,
0,
0,
0,
0,
0,
0,
0,
0,
0,
0,
0,
0,
0,
0,
0,
0,
0,
0,
0,
0,
0,
0,
0,
0,
0,
0,
0,
0,
0,
0,
0,
0,
0,
0,
0,
0,
0,
0,
0,
0,
0,
0,
0,
0,
0,
0,
0,
0,
0,
0,
0,
0,
0,
0,
0,
0,
0,
0,
0,
0,
0,
0,
0,
#ENDOFDATA   :