File: N132962/Quantification/15 keV/GMIIIA/GMIIIA K1070[2][4].msa
#FORMAT      : EMSA/MAS Spectral Data File
#VERSION     : 1.0
#TITLE       : GMIIIA K1070[2][all]
#DATE        : 22-SEP-2025
#TIME        : 21:02
#OWNER       : Unknown
#NPOINTS     : 4096
#NCOLUMNS    : 1
#XUNITS      : eV
#YUNITS      : counts
#DATATYPE    : Y
#XPERCHAN    : 9.99778
#OFFSET      : 1.69135
#BEAMKV      : 15
#SIGNALTYPE  : EDS
#ELEVANGLE   : 35
#AZIMANGLE   : 0
#LIVETIME    : 240.052
#REALTIME    : 256.252
#PROBECUR    : 1.21822
#TAUWIND     : 0
#TDEADLYR    : 0
#TACTLYR     : 0.045
#TALWIND     : 0.025
#CHOFFSET    : 0.0
#XLABEL      : Energy (eV)
#YLABEL      : Counts
#XPOSITION   : 2.28482
#YPOSITION   : 15.7112
#ZPOSITION   : 37.36299
#EDSDET      : SD
##SPECIMEN   : GMIIIA K1070[2][all]
##D2STDCMP   : K1070,(O:34.31),(Mg:7.54),(Si:18.7),(Ca:8.93),(Zn:10.04),(Ba:11.2),(Pb:9.28)
##DET_HASH   : 12273538-fd48-a23f-0a19-f1e6fa85caef
##CALIB_HASH : 6abaa72c-aa41-8738-0be9-f592914732f3
##WORKING    : 15.0 mm
##DET_NAME   : EDAX All
##DET_MODE   : MediumLE
#SPECTRUM    :
26,
26,
11,
37,
130,
454,
1303,
3307,
7500,
10838,
8803,
6652,
5932,
5961,
8794,
25334,
88991,
166215,
121192,
34769,
8224,
5358,
4897,
5144,
5210,
5827,
6745,
6545,
6559,
7414,
7782,
8613,
17193,
36200,
44965,
28881,
12829,
7154,
6338,
8386,
20187,
44221,
52727,
31337,
12272,
6191,
5427,
5344,
5529,
5751,
5967,
6088,
5873,
5963,
6908,
13320,
44132,
108076,
146908,
104732,
44634,
17717,
9893,
6220,
4704,
4387,
4205,
4002,
3916,
4038,
4001,
4217,
4191,
4436,
4874,
5500,
8327,
13532,
18264,
17539,
14558,
13634,
11892,
8197,
5218,
3914,
3813,
4020,
4232,
4356,
3969,
3710,
3620,
3493,
3309,
3210,
3369,
3258,
3230,
3253,
3441,
3364,
3441,
3414,
3310,
3248,
3154,
3017,
3027,
2953,
2920,
2858,
2957,
3001,
2894,
2941,
3051,
3015,
3255,
4072,
7177,
14677,
25606,
32161,
27408,
16126,
7557,
3902,
2831,
2909,
3075,
3774,
4801,
6026,
6138,
5273,
3796,
2879,
2486,
2368,
2305,
2320,
2342,
2412,
2591,
3096,
4553,
7432,
10676,
11845,
10035,
6602,
3828,
2594,
2143,
2114,
2187,
2328,
3052,
4088,
5600,
6507,
6011,
4898,
3748,
2998,
2467,
2330,
2225,
2315,
2817,
3146,
3272,
3083,
2637,
2138,
1879,
1852,
1779,
1729,
1739,
1817,
1906,
2027,
2210,
2266,
2046,
1831,
1744,
1583,
1647,
1610,
1666,
1766,
1774,
1646,
1620,
1550,
1483,
1419,
1518,
1480,
1433,
1362,
1403,
1411,
1382,
1315,
1326,
1358,
1359,
1333,
1366,
1265,
1395,
1257,
1270,
1312,
1254,
1275,
1226,
1182,
1188,
1146,
1160,
1145,
1154,
1216,
1091,
1129,
1167,
1135,
1101,
1128,
1182,
1052,
1153,
1068,
1048,
1074,
1050,
1010,
1007,
1067,
1050,
971,
1009,
979,
1060,
1001,
1013,
983,
950,
983,
954,
911,
882,
927,
936,
879,
854,
885,
893,
886,
875,
870,
834,
834,
871,
869,
814,
822,
829,
791,
816,
768,
827,
822,
803,
732,
799,
793,
893,
1124,
1573,
2424,
3199,
3925,
3929,
3430,
2510,
1673,
1103,
826,
730,
700,
674,
648,
665,
658,
664,
604,
662,
626,
643,
632,
614,
623,
600,
626,
596,
588,
600,
590,
614,
667,
747,
873,
937,
984,
908,
836,
725,
617,
573,
519,
516,
502,
496,
501,
455,
481,
472,
476,
446,
472,
488,
463,
430,
463,
481,
456,
398,
428,
410,
471,
425,
462,
477,
459,
463,
563,
552,
521,
459,
449,
396,
386,
370,
360,
348,
391,
352,
317,
364,
367,
298,
356,
325,
308,
318,
285,
295,
312,
317,
284,
300,
290,
306,
276,
262,
307,
294,
251,
282,
266,
228,
245,
269,
239,
225,
229,
224,
248,
225,
230,
244,
220,
241,
221,
226,
210,
209,
189,
225,
210,
195,
158,
175,
181,
193,
190,
184,
187,
179,
194,
176,
171,
180,
168,
157,
185,
154,
155,
160,
144,
129,
124,
136,
109,
129,
129,
132,
137,
112,
117,
116,
110,
133,
100,
88,
115,
110,
85,
97,
88,
95,
101,
87,
83,
93,
85,
77,
75,
68,
77,
80,
72,
68,
61,
65,
53,
60,
52,
57,
60,
45,
50,
56,
45,
48,
42,
47,
43,
40,
33,
46,
26,
25,
37,
26,
25,
35,
21,
29,
24,
18,
19,
16,
12,
18,
20,
9,
11,
8,
6,
7,
4,
6,
6,
2,
2,
1,
0,
1,
2,
0,
1,
0,
2,
1,
0,
2,
3,
2,
1,
1,
3,
1,
1,
0,
1,
1,
2,
1,
0,
5,
1,
1,
0,
2,
1,
0,
0,
0,
0,
1,
0,
1,
2,
0,
0,
0,
1,
0,
0,
0,
2,
0,
0,
0,
0,
0,
0,
0,
0,
1,
0,
0,
0,
0,
0,
0,
1,
0,
0,
0,
1,
1,
0,
0,
2,
0,
0,
1,
0,
0,
0,
0,
0,
1,
0,
0,
1,
0,
2,
0,
0,
1,
0,
0,
0,
0,
0,
0,
0,
0,
0,
0,
0,
0,
0,
0,
0,
0,
0,
0,
0,
1,
0,
2,
0,
0,
0,
0,
0,
1,
0,
0,
0,
0,
0,
0,
0,
0,
0,
0,
0,
0,
0,
0,
1,
0,
0,
1,
0,
0,
0,
0,
0,
0,
0,
0,
0,
0,
0,
1,
0,
0,
0,
1,
0,
0,
0,
0,
0,
0,
0,
0,
0,
0,
0,
0,
0,
0,
0,
0,
0,
0,
0,
0,
0,
0,
0,
0,
0,
0,
1,
0,
0,
0,
0,
0,
0,
0,
0,
0,
0,
0,
0,
0,
0,
0,
0,
0,
0,
0,
0,
0,
0,
0,
0,
0,
1,
0,
0,
0,
0,
0,
0,
0,
0,
0,
0,
0,
0,
0,
0,
0,
0,
0,
0,
0,
0,
0,
0,
0,
0,
0,
0,
0,
0,
0,
0,
0,
0,
0,
0,
0,
0,
0,
0,
0,
0,
0,
0,
0,
0,
0,
0,
0,
0,
0,
0,
0,
0,
1,
0,
0,
0,
0,
0,
0,
0,
0,
0,
0,
0,
0,
0,
0,
0,
0,
0,
0,
0,
0,
0,
0,
0,
0,
0,
0,
0,
0,
0,
0,
0,
0,
0,
0,
0,
0,
0,
0,
0,
0,
0,
0,
0,
0,
0,
0,
0,
0,
0,
0,
0,
0,
0,
0,
0,
0,
0,
0,
0,
0,
0,
0,
1,
0,
0,
0,
0,
0,
0,
0,
0,
0,
0,
0,
0,
0,
0,
0,
0,
0,
0,
0,
0,
0,
0,
0,
0,
0,
0,
0,
0,
0,
0,
0,
0,
0,
0,
0,
0,
0,
0,
0,
0,
0,
0,
0,
0,
0,
0,
0,
0,
0,
0,
0,
0,
0,
0,
0,
0,
0,
0,
0,
0,
0,
0,
0,
0,
0,
0,
0,
0,
0,
0,
0,
0,
0,
0,
0,
0,
0,
0,
0,
0,
0,
0,
0,
0,
0,
0,
0,
0,
0,
0,
0,
0,
0,
0,
0,
0,
0,
0,
0,
0,
0,
0,
0,
0,
0,
0,
0,
0,
0,
0,
0,
0,
0,
0,
0,
0,
0,
0,
0,
0,
0,
0,
0,
0,
0,
0,
0,
0,
0,
0,
0,
0,
0,
0,
0,
0,
0,
0,
0,
0,
0,
0,
0,
0,
0,
0,
0,
0,
0,
0,
0,
0,
0,
0,
0,
0,
0,
0,
0,
0,
0,
0,
0,
0,
0,
0,
0,
0,
0,
0,
0,
0,
0,
0,
0,
0,
0,
0,
0,
0,
0,
0,
0,
0,
0,
0,
0,
0,
0,
0,
0,
0,
0,
0,
0,
0,
0,
0,
0,
0,
0,
0,
0,
0,
0,
0,
0,
0,
0,
0,
0,
0,
0,
0,
0,
0,
0,
0,
0,
0,
0,
0,
0,
0,
0,
0,
0,
0,
0,
0,
0,
0,
0,
0,
0,
0,
0,
0,
0,
0,
0,
0,
0,
0,
0,
0,
0,
0,
0,
0,
0,
0,
0,
0,
0,
0,
0,
0,
0,
0,
0,
0,
0,
0,
0,
0,
0,
0,
0,
0,
0,
0,
0,
0,
0,
0,
0,
0,
0,
0,
0,
0,
0,
0,
0,
0,
0,
0,
0,
0,
0,
0,
0,
0,
0,
0,
0,
0,
0,
0,
0,
0,
0,
0,
0,
0,
0,
0,
0,
0,
0,
0,
0,
0,
0,
0,
0,
0,
0,
0,
0,
0,
0,
0,
0,
0,
0,
0,
0,
0,
0,
0,
0,
0,
0,
0,
0,
0,
0,
0,
0,
0,
0,
0,
0,
0,
0,
0,
0,
0,
0,
0,
0,
0,
0,
0,
0,
0,
0,
0,
0,
0,
0,
0,
0,
0,
0,
0,
0,
0,
0,
0,
0,
0,
0,
0,
0,
0,
0,
0,
0,
0,
0,
0,
0,
0,
0,
0,
0,
0,
0,
0,
0,
0,
0,
0,
0,
0,
0,
0,
0,
0,
0,
0,
0,
0,
0,
0,
0,
0,
0,
0,
0,
0,
0,
0,
0,
0,
0,
0,
0,
0,
0,
0,
0,
0,
0,
0,
0,
0,
0,
0,
0,
0,
0,
0,
0,
0,
0,
0,
0,
0,
0,
0,
0,
0,
0,
0,
0,
0,
0,
0,
0,
0,
0,
0,
0,
0,
0,
0,
0,
0,
0,
0,
0,
0,
0,
0,
0,
0,
0,
0,
0,
0,
0,
0,
0,
0,
0,
0,
0,
0,
0,
0,
0,
0,
0,
0,
0,
0,
0,
0,
0,
0,
0,
0,
0,
0,
0,
0,
0,
0,
0,
0,
0,
0,
0,
0,
0,
0,
0,
0,
0,
0,
0,
0,
0,
0,
0,
0,
0,
0,
0,
0,
0,
0,
0,
0,
0,
0,
0,
0,
0,
0,
0,
0,
0,
0,
0,
0,
0,
0,
0,
0,
0,
0,
#ENDOFDATA   :