File: N132962/Quantification/15 keV/GMIIIA/GMIIIA K251[5][4].msa
#FORMAT      : EMSA/MAS Spectral Data File
#VERSION     : 1.0
#TITLE       : GMIIIA K251[5][all]
#DATE        : 22-SEP-2025
#TIME        : 15:01
#OWNER       : Unknown
#NPOINTS     : 4096
#NCOLUMNS    : 1
#XUNITS      : eV
#YUNITS      : counts
#DATATYPE    : Y
#XPERCHAN    : 9.99778
#OFFSET      : 1.69135
#BEAMKV      : 15
#SIGNALTYPE  : EDS
#ELEVANGLE   : 35
#AZIMANGLE   : 0
#LIVETIME    : 239.972
#REALTIME    : 259.1764
#PROBECUR    : 1.21732
#TAUWIND     : 0
#TDEADLYR    : 0
#TACTLYR     : 0.045
#TALWIND     : 0.025
#CHOFFSET    : 0.0
#XLABEL      : Energy (eV)
#YLABEL      : Counts
#XPOSITION   : 7.03313
#YPOSITION   : 2.46358
#ZPOSITION   : 37.36299
#EDSDET      : SD
##SPECIMEN   : GMIIIA K251[5][all]
##D2STDCMP   : K251,(O:23.02),(Al:1.32),(Si:14.02),(Ba:8.96),(Ta:4.09),(Pb:44.1),(Bi:4.48)
##DET_HASH   : 12273538-fd48-a23f-0a19-f1e6fa85caef
##CALIB_HASH : 6abaa72c-aa41-8738-0be9-f592914732f3
##WORKING    : 15.0 mm
##DET_NAME   : EDAX All
##DET_MODE   : MediumLE
#SPECTRUM    :
25,
35,
3,
51,
204,
838,
2401,
5468,
10944,
13503,
9298,
7191,
7048,
7360,
9182,
19998,
60028,
108527,
79763,
26175,
10221,
7960,
7706,
8058,
7842,
7636,
8082,
7733,
7386,
7112,
7179,
7405,
7954,
8049,
8167,
8196,
8190,
7927,
7962,
8064,
8067,
8399,
8653,
8988,
9401,
9334,
9349,
10112,
14195,
20016,
20451,
14629,
10924,
9795,
10756,
18915,
50588,
110424,
143255,
104080,
49816,
24618,
15666,
10501,
8118,
7432,
7141,
6870,
6652,
6579,
6830,
7104,
7912,
8576,
10038,
14123,
28971,
58464,
85147,
83947,
71273,
66858,
56742,
35773,
18711,
11223,
8400,
8037,
8815,
8560,
7226,
5886,
5157,
4963,
4753,
4664,
4780,
4794,
4807,
4950,
5121,
5474,
5429,
5752,
5605,
5274,
5073,
4724,
4592,
4456,
4417,
4198,
4261,
4156,
4235,
4256,
4333,
4193,
4298,
4205,
4051,
4186,
4190,
4042,
4123,
4096,
4170,
3993,
4009,
3927,
3914,
4187,
4253,
4077,
4027,
4063,
3894,
3924,
3856,
3746,
3803,
3771,
3735,
3785,
3928,
4448,
5486,
8139,
10892,
11924,
10417,
7522,
5069,
3985,
3639,
3533,
3563,
3734,
4275,
5390,
6702,
7279,
6900,
5928,
4943,
4249,
3822,
3562,
3445,
3604,
3926,
4300,
4541,
4242,
3852,
3409,
3112,
3104,
2999,
3043,
2997,
3008,
3130,
3311,
3438,
3352,
3286,
3017,
2930,
2786,
2933,
2846,
2872,
2966,
3000,
2780,
2691,
2647,
2729,
2628,
2683,
2569,
2573,
2619,
2497,
2521,
2440,
2506,
2472,
2458,
2476,
2493,
2516,
2554,
2401,
2471,
2454,
2348,
2320,
2294,
2329,
2225,
2231,
2204,
2283,
2207,
2169,
2241,
2265,
2182,
2200,
2115,
2220,
2127,
2204,
2225,
2096,
2060,
2130,
2165,
1951,
1947,
2043,
1952,
1917,
1961,
2016,
1930,
1894,
1982,
1939,
1894,
1873,
1846,
1784,
1931,
1810,
1819,
1752,
1770,
1693,
1760,
1735,
1698,
1709,
1699,
1802,
1875,
1861,
2093,
2218,
2302,
2300,
2103,
1965,
1772,
1643,
1630,
1637,
1472,
1501,
1427,
1431,
1440,
1594,
1487,
1408,
1536,
1385,
1409,
1403,
1392,
1406,
1422,
1420,
1326,
1357,
1355,
1318,
1303,
1333,
1274,
1322,
1257,
1357,
1355,
1396,
1339,
1422,
1453,
1463,
1495,
1382,
1337,
1315,
1228,
1212,
1191,
1235,
1181,
1212,
1254,
1253,
1172,
1120,
1136,
1083,
1048,
1106,
1027,
1062,
1042,
1097,
979,
992,
1024,
971,
941,
968,
965,
977,
894,
937,
930,
954,
950,
1000,
1142,
1284,
1436,
1632,
1636,
1664,
1579,
1240,
1132,
937,
878,
869,
821,
920,
872,
770,
777,
808,
754,
734,
760,
760,
708,
710,
669,
662,
736,
674,
644,
637,
611,
696,
613,
663,
661,
622,
613,
627,
551,
624,
543,
559,
550,
530,
527,
523,
519,
508,
515,
477,
513,
476,
475,
468,
507,
480,
514,
467,
509,
431,
476,
428,
450,
432,
432,
427,
386,
424,
439,
388,
465,
448,
480,
509,
488,
476,
429,
396,
388,
352,
304,
325,
339,
333,
304,
277,
261,
298,
285,
308,
243,
225,
250,
263,
280,
251,
241,
234,
250,
219,
213,
205,
222,
194,
211,
212,
191,
202,
183,
172,
154,
153,
161,
150,
187,
126,
156,
133,
157,
135,
137,
131,
111,
114,
114,
91,
103,
85,
86,
85,
90,
87,
85,
74,
83,
77,
69,
68,
63,
54,
48,
55,
45,
37,
39,
21,
39,
22,
18,
16,
16,
14,
5,
8,
9,
6,
7,
2,
4,
2,
2,
2,
1,
2,
3,
2,
3,
2,
0,
2,
2,
1,
2,
4,
3,
2,
3,
4,
1,
5,
3,
2,
1,
0,
3,
0,
1,
2,
2,
3,
0,
0,
2,
2,
4,
3,
1,
2,
2,
2,
3,
3,
1,
0,
1,
1,
0,
0,
0,
2,
1,
0,
1,
0,
3,
2,
2,
1,
1,
0,
1,
1,
0,
0,
0,
1,
2,
5,
1,
0,
1,
2,
2,
0,
2,
0,
2,
0,
1,
0,
1,
0,
0,
2,
0,
0,
1,
2,
0,
0,
0,
1,
0,
1,
1,
2,
1,
1,
1,
0,
1,
0,
0,
2,
1,
2,
0,
0,
4,
2,
0,
1,
1,
0,
0,
2,
0,
2,
0,
2,
0,
2,
0,
0,
0,
2,
0,
0,
1,
2,
2,
0,
1,
0,
0,
2,
0,
1,
1,
0,
0,
0,
1,
0,
0,
0,
0,
0,
0,
1,
1,
0,
2,
1,
0,
1,
1,
0,
0,
1,
1,
2,
0,
2,
0,
0,
0,
1,
0,
0,
1,
1,
0,
0,
0,
0,
0,
0,
0,
0,
1,
1,
1,
1,
1,
1,
1,
1,
0,
0,
1,
0,
0,
0,
0,
1,
0,
0,
0,
1,
0,
1,
0,
0,
1,
0,
0,
0,
0,
0,
0,
0,
0,
0,
0,
0,
0,
0,
0,
0,
0,
1,
0,
0,
0,
0,
0,
0,
1,
1,
0,
0,
1,
0,
0,
0,
1,
0,
0,
0,
0,
0,
0,
0,
0,
0,
0,
1,
0,
0,
0,
0,
0,
0,
0,
0,
0,
0,
0,
0,
0,
1,
0,
0,
0,
0,
0,
0,
0,
0,
0,
0,
1,
0,
0,
0,
0,
0,
0,
0,
0,
0,
0,
0,
0,
0,
0,
0,
0,
0,
0,
0,
0,
0,
0,
0,
0,
0,
0,
0,
0,
0,
0,
0,
0,
0,
0,
1,
0,
0,
0,
0,
0,
0,
0,
0,
0,
0,
0,
0,
0,
0,
0,
0,
0,
0,
0,
0,
0,
1,
0,
0,
1,
0,
0,
0,
0,
0,
0,
0,
0,
0,
0,
0,
0,
0,
0,
0,
0,
0,
0,
0,
0,
0,
0,
0,
0,
0,
0,
0,
0,
0,
0,
0,
0,
0,
0,
0,
0,
0,
0,
0,
0,
0,
0,
0,
0,
0,
0,
0,
0,
0,
0,
0,
0,
0,
0,
0,
0,
0,
0,
0,
0,
0,
0,
0,
0,
0,
0,
0,
0,
0,
0,
0,
0,
0,
0,
0,
0,
0,
0,
0,
0,
0,
0,
0,
0,
0,
0,
0,
0,
0,
0,
0,
0,
0,
0,
0,
0,
0,
0,
0,
0,
0,
0,
0,
0,
0,
0,
0,
0,
0,
0,
0,
0,
0,
0,
0,
0,
0,
0,
0,
0,
0,
0,
0,
0,
0,
0,
0,
0,
0,
0,
0,
0,
0,
0,
0,
0,
0,
0,
0,
0,
0,
0,
0,
0,
0,
0,
0,
0,
0,
0,
0,
0,
0,
0,
0,
0,
0,
0,
0,
0,
0,
0,
0,
0,
0,
0,
0,
0,
0,
0,
0,
0,
0,
0,
0,
0,
0,
0,
0,
0,
0,
0,
0,
0,
0,
0,
0,
0,
0,
0,
0,
0,
0,
0,
0,
0,
0,
0,
0,
0,
0,
0,
0,
0,
0,
0,
0,
0,
0,
0,
0,
0,
0,
0,
0,
0,
0,
0,
0,
0,
0,
0,
0,
0,
0,
0,
0,
0,
0,
0,
0,
0,
0,
0,
0,
0,
0,
0,
0,
0,
0,
0,
0,
0,
0,
0,
0,
0,
0,
0,
0,
0,
0,
0,
0,
0,
0,
0,
0,
0,
0,
0,
0,
0,
0,
0,
0,
0,
0,
0,
0,
0,
0,
0,
0,
0,
0,
0,
0,
0,
0,
0,
0,
0,
0,
0,
0,
0,
0,
0,
0,
0,
0,
0,
0,
0,
0,
0,
0,
0,
0,
0,
0,
0,
0,
0,
0,
0,
0,
0,
0,
0,
0,
0,
0,
0,
0,
0,
0,
0,
0,
0,
0,
0,
0,
0,
0,
0,
0,
0,
0,
0,
0,
0,
0,
0,
0,
0,
0,
0,
0,
0,
0,
0,
0,
0,
0,
0,
0,
0,
0,
0,
0,
0,
0,
0,
0,
0,
0,
0,
0,
0,
0,
0,
0,
0,
0,
0,
0,
0,
0,
0,
0,
0,
0,
0,
0,
0,
0,
0,
0,
0,
0,
0,
0,
0,
0,
0,
0,
0,
0,
0,
0,
0,
0,
0,
0,
0,
0,
0,
0,
0,
0,
0,
0,
0,
0,
0,
0,
0,
0,
0,
0,
0,
0,
0,
0,
0,
0,
0,
0,
0,
0,
0,
0,
0,
0,
0,
0,
0,
0,
0,
0,
0,
0,
0,
0,
0,
0,
0,
0,
0,
0,
0,
0,
0,
0,
0,
0,
0,
0,
0,
0,
0,
0,
0,
0,
0,
0,
0,
0,
0,
0,
0,
0,
0,
0,
0,
0,
0,
0,
0,
0,
0,
0,
0,
0,
0,
0,
0,
0,
0,
0,
0,
0,
0,
0,
0,
0,
0,
0,
0,
0,
0,
0,
0,
0,
0,
0,
0,
0,
0,
0,
0,
0,
0,
0,
0,
0,
0,
0,
0,
0,
0,
0,
0,
0,
0,
0,
0,
0,
0,
0,
0,
0,
0,
#ENDOFDATA   :