File: N132962/Quantification/15 keV/GMIIIA/GMIIIA K1234[7][4].msa
#FORMAT      : EMSA/MAS Spectral Data File
#VERSION     : 1.0
#TITLE       : GMIIIA K1234[7][all]
#DATE        : 22-SEP-2025
#TIME        : 23:01
#OWNER       : Unknown
#NPOINTS     : 4096
#NCOLUMNS    : 1
#XUNITS      : eV
#YUNITS      : counts
#DATATYPE    : Y
#XPERCHAN    : 9.99778
#OFFSET      : 1.69135
#BEAMKV      : 15
#SIGNALTYPE  : EDS
#ELEVANGLE   : 35
#AZIMANGLE   : 0
#LIVETIME    : 239.941
#REALTIME    : 255.858
#PROBECUR    : 1.21591
#TAUWIND     : 0
#TDEADLYR    : 0
#TACTLYR     : 0.045
#TALWIND     : 0.025
#CHOFFSET    : 0.0
#XLABEL      : Energy (eV)
#YLABEL      : Counts
#XPOSITION   : 1.98265
#YPOSITION   : 17.86984
#ZPOSITION   : 37.36299
#EDSDET      : SD
##SPECIMEN   : GMIIIA K1234[7][all]
##D2STDCMP   : K1234,(O:39.85),(Al:9.15),(Si:21.56),(Ca:12.36),(Ba:15.49),(W:1.59)
##DET_HASH   : 12273538-fd48-a23f-0a19-f1e6fa85caef
##CALIB_HASH : 6abaa72c-aa41-8738-0be9-f592914732f3
##WORKING    : 15.0 mm
##DET_NAME   : EDAX All
##DET_MODE   : MediumLE
#SPECTRUM    :
32,
20,
5,
25,
91,
399,
1186,
2923,
7280,
10722,
9085,
6540,
5527,
5704,
8739,
26763,
97995,
184580,
135289,
37985,
7971,
4525,
4285,
4296,
4469,
5252,
6027,
5569,
4585,
4385,
4489,
4717,
5348,
5815,
5975,
6089,
5467,
5059,
5104,
4982,
5158,
5074,
5294,
5447,
5707,
6185,
7175,
13247,
36521,
70545,
71241,
38746,
15089,
7828,
7264,
14217,
48832,
123599,
169832,
122215,
52401,
20629,
10605,
6097,
4391,
4062,
3826,
3810,
3743,
3480,
3373,
3403,
3306,
3490,
3754,
3862,
3777,
3723,
3513,
3366,
3292,
3250,
3155,
3155,
3168,
3233,
3085,
3089,
2990,
3032,
3217,
3161,
3039,
3086,
2949,
2925,
2905,
2905,
2951,
2884,
2856,
2856,
2723,
2916,
2775,
2794,
2855,
2880,
2743,
2757,
2681,
2646,
2647,
2546,
2569,
2662,
2755,
2888,
3158,
4177,
8463,
19015,
34580,
42937,
36758,
21046,
9295,
3977,
2708,
2588,
2877,
3873,
5412,
6825,
7331,
5978,
4132,
2796,
2165,
2053,
1958,
2039,
2082,
2162,
2295,
3028,
5029,
8932,
13163,
14837,
12281,
7717,
4082,
2375,
1920,
1828,
1876,
2185,
2945,
4726,
6645,
7631,
6956,
5571,
4023,
3132,
2511,
2052,
1899,
2185,
2708,
3395,
3670,
3390,
2545,
1978,
1649,
1488,
1471,
1459,
1482,
1587,
1802,
2014,
2125,
2158,
1850,
1653,
1473,
1408,
1401,
1433,
1494,
1590,
1472,
1441,
1354,
1331,
1232,
1270,
1184,
1236,
1186,
1108,
1159,
1163,
1106,
1108,
1099,
1114,
1084,
1093,
1111,
1080,
1119,
1024,
1065,
1017,
1041,
975,
1068,
947,
1023,
938,
993,
883,
948,
947,
974,
916,
937,
868,
945,
887,
879,
899,
887,
872,
844,
897,
898,
837,
845,
810,
845,
830,
820,
863,
791,
814,
772,
782,
784,
802,
786,
734,
730,
746,
778,
742,
742,
670,
733,
738,
709,
668,
675,
699,
684,
678,
678,
682,
657,
660,
663,
652,
707,
752,
753,
817,
787,
754,
668,
650,
612,
601,
559,
581,
578,
559,
523,
562,
588,
575,
573,
512,
548,
557,
492,
535,
504,
518,
493,
517,
444,
494,
499,
472,
496,
462,
480,
469,
423,
456,
484,
464,
454,
443,
447,
468,
485,
504,
433,
479,
472,
423,
434,
402,
434,
425,
393,
391,
414,
405,
380,
390,
404,
372,
366,
355,
363,
352,
344,
356,
356,
330,
312,
314,
300,
309,
308,
315,
307,
330,
323,
302,
323,
276,
290,
293,
279,
285,
283,
274,
276,
283,
286,
252,
250,
227,
236,
254,
217,
247,
253,
247,
256,
236,
273,
229,
215,
232,
223,
225,
221,
216,
202,
203,
212,
180,
179,
216,
176,
150,
176,
176,
181,
173,
161,
155,
169,
165,
145,
148,
158,
168,
129,
148,
177,
140,
144,
142,
139,
117,
150,
136,
145,
131,
140,
104,
113,
144,
125,
124,
117,
97,
112,
104,
124,
104,
88,
102,
101,
92,
96,
113,
85,
81,
88,
99,
84,
67,
79,
69,
76,
77,
58,
72,
70,
64,
64,
65,
56,
62,
52,
57,
62,
65,
45,
42,
44,
50,
41,
37,
42,
46,
43,
44,
32,
45,
29,
37,
45,
25,
20,
27,
33,
30,
26,
24,
21,
24,
20,
22,
18,
17,
10,
15,
13,
18,
13,
12,
8,
10,
5,
5,
4,
7,
5,
3,
0,
2,
2,
1,
0,
2,
1,
1,
2,
0,
0,
0,
1,
1,
0,
2,
0,
1,
0,
0,
0,
1,
1,
1,
0,
0,
0,
2,
0,
0,
1,
1,
0,
0,
1,
0,
1,
1,
0,
0,
0,
0,
1,
0,
0,
1,
1,
1,
1,
1,
0,
0,
0,
0,
0,
2,
0,
1,
0,
1,
0,
0,
1,
0,
0,
2,
1,
0,
0,
0,
1,
0,
0,
0,
0,
1,
0,
0,
1,
1,
0,
1,
1,
2,
0,
0,
0,
0,
0,
0,
0,
0,
0,
0,
0,
0,
0,
0,
0,
0,
0,
0,
1,
0,
0,
0,
0,
0,
0,
0,
0,
0,
0,
0,
0,
0,
0,
0,
0,
0,
0,
0,
3,
0,
0,
0,
0,
0,
0,
0,
0,
0,
0,
0,
0,
0,
0,
0,
0,
0,
0,
0,
0,
0,
0,
1,
1,
0,
0,
0,
0,
0,
0,
0,
0,
0,
0,
0,
0,
1,
1,
0,
0,
0,
0,
0,
0,
0,
0,
0,
0,
0,
0,
0,
0,
0,
0,
0,
0,
0,
0,
0,
0,
0,
0,
0,
0,
0,
0,
0,
0,
0,
0,
0,
1,
0,
0,
0,
0,
0,
0,
0,
0,
0,
0,
0,
0,
0,
0,
0,
0,
0,
0,
0,
0,
0,
0,
0,
0,
0,
0,
0,
0,
0,
0,
0,
0,
0,
0,
0,
0,
0,
0,
0,
0,
0,
0,
0,
0,
0,
0,
0,
0,
0,
0,
0,
0,
0,
0,
0,
0,
0,
0,
0,
0,
0,
0,
0,
0,
0,
0,
0,
0,
0,
0,
0,
0,
0,
0,
0,
0,
0,
0,
0,
0,
0,
0,
0,
0,
0,
0,
0,
0,
0,
0,
0,
0,
0,
0,
0,
0,
0,
0,
0,
0,
0,
0,
0,
0,
0,
0,
0,
0,
0,
0,
0,
0,
0,
0,
0,
0,
0,
0,
0,
0,
0,
0,
0,
0,
0,
0,
0,
0,
0,
0,
0,
0,
0,
0,
0,
0,
0,
0,
0,
0,
0,
0,
0,
0,
0,
0,
0,
0,
0,
0,
0,
0,
0,
0,
0,
0,
0,
0,
0,
0,
0,
0,
0,
0,
0,
0,
0,
0,
0,
0,
0,
0,
0,
0,
0,
0,
0,
0,
0,
0,
0,
0,
0,
0,
0,
0,
0,
0,
0,
0,
0,
0,
0,
0,
0,
0,
0,
0,
0,
0,
0,
0,
0,
0,
0,
0,
0,
0,
0,
0,
0,
0,
0,
0,
0,
0,
0,
0,
0,
0,
0,
0,
0,
0,
0,
0,
0,
0,
0,
0,
0,
0,
0,
0,
0,
0,
0,
0,
0,
0,
0,
0,
0,
0,
0,
0,
0,
0,
0,
0,
0,
0,
0,
0,
0,
0,
0,
0,
0,
0,
0,
0,
0,
0,
0,
0,
0,
0,
0,
0,
0,
0,
0,
0,
0,
0,
0,
0,
0,
0,
0,
0,
0,
0,
0,
0,
0,
0,
0,
0,
0,
0,
0,
0,
0,
0,
0,
0,
0,
0,
0,
0,
0,
0,
0,
0,
0,
0,
0,
0,
0,
0,
0,
0,
0,
0,
0,
0,
0,
0,
0,
0,
0,
0,
0,
0,
0,
0,
0,
0,
0,
0,
0,
0,
0,
0,
0,
0,
0,
0,
0,
0,
0,
0,
0,
0,
0,
0,
0,
0,
0,
0,
0,
0,
0,
0,
0,
0,
0,
0,
0,
0,
0,
0,
0,
0,
0,
0,
0,
0,
0,
0,
0,
0,
0,
0,
0,
0,
0,
0,
0,
0,
0,
0,
0,
0,
0,
0,
0,
0,
0,
0,
0,
0,
0,
0,
0,
0,
0,
0,
0,
0,
0,
0,
0,
0,
0,
0,
0,
0,
0,
0,
0,
0,
0,
0,
0,
0,
0,
0,
0,
0,
0,
0,
0,
0,
0,
0,
0,
0,
0,
0,
0,
0,
0,
0,
0,
0,
0,
0,
0,
0,
0,
0,
0,
0,
0,
0,
0,
0,
0,
0,
0,
0,
0,
0,
0,
0,
0,
0,
0,
0,
0,
0,
0,
0,
0,
0,
0,
0,
0,
0,
0,
0,
0,
0,
0,
0,
0,
0,
0,
0,
0,
0,
0,
0,
0,
0,
0,
0,
0,
0,
0,
0,
0,
0,
0,
0,
0,
0,
0,
0,
0,
0,
0,
0,
0,
0,
0,
0,
0,
0,
0,
0,
0,
0,
0,
0,
0,
0,
0,
0,
0,
0,
0,
0,
0,
0,
0,
0,
0,
0,
0,
0,
0,
0,
0,
0,
0,
0,
0,
0,
0,
0,
0,
0,
0,
0,
0,
0,
0,
0,
0,
0,
0,
0,
0,
0,
0,
0,
0,
0,
0,
0,
0,
0,
0,
0,
0,
0,
0,
0,
0,
0,
0,
0,
0,
0,
0,
0,
0,
0,
0,
0,
0,
0,
0,
0,
0,
0,
0,
0,
0,
0,
0,
0,
0,
0,
0,
0,
0,
0,
0,
0,
0,
0,
0,
0,
0,
0,
0,
0,
0,
0,
0,
0,
0,
0,
0,
0,
0,
0,
0,
0,
0,
0,
0,
0,
0,
0,
0,
0,
0,
0,
0,
0,
0,
0,
0,
0,
0,
0,
0,
0,
0,
0,
0,
0,
0,
0,
0,
0,
0,
0,
0,
0,
0,
0,
0,
0,
0,
0,
0,
0,
0,
0,
0,
0,
0,
0,
0,
#ENDOFDATA   :