File: N132962/Quantification/15 keV/GMIIIA/GMIIIA K1010[0][4].msa
#FORMAT      : EMSA/MAS Spectral Data File
#VERSION     : 1.0
#TITLE       : GMIIIA K1010[0][all]
#DATE        : 22-SEP-2025
#TIME        : 21:31
#OWNER       : Unknown
#NPOINTS     : 4096
#NCOLUMNS    : 1
#XUNITS      : eV
#YUNITS      : counts
#DATATYPE    : Y
#XPERCHAN    : 9.99778
#OFFSET      : 1.69135
#BEAMKV      : 15
#SIGNALTYPE  : EDS
#ELEVANGLE   : 35
#AZIMANGLE   : 0
#LIVETIME    : 239.9953
#REALTIME    : 256.233
#PROBECUR    : 1.21615
#TAUWIND     : 0
#TDEADLYR    : 0
#TACTLYR     : 0.045
#TALWIND     : 0.025
#CHOFFSET    : 0.0
#XLABEL      : Energy (eV)
#YLABEL      : Counts
#XPOSITION   : 8.89497
#YPOSITION   : 15.45763
#ZPOSITION   : 37.36299
#EDSDET      : SD
##SPECIMEN   : GMIIIA K1010[0][all]
##D2STDCMP   : K1010,(O:38.96),(Al:8.92),(Si:21.02),(K:1.87),(Ca:6.75),(Ge:1.56),(Rb:2.06),(Sr:10.05),(Te:0.9),(Cs:2.12),(La:1.92),(Eu:1.94),(Gd:1.95)
##DET_HASH   : 12273538-fd48-a23f-0a19-f1e6fa85caef
##CALIB_HASH : 6abaa72c-aa41-8738-0be9-f592914732f3
##WORKING    : 15.0 mm
##DET_NAME   : EDAX All
##DET_MODE   : MediumLE
#SPECTRUM    :
18,
27,
16,
21,
111,
400,
1159,
2840,
6382,
8649,
6479,
4937,
4775,
5139,
8136,
24741,
90754,
171202,
124542,
33711,
6037,
3823,
4118,
4232,
4181,
4186,
4401,
4946,
5566,
5909,
5840,
5524,
5476,
5910,
6395,
6644,
6989,
8061,
11146,
14388,
15312,
11852,
8026,
6614,
6490,
6579,
7449,
14148,
38261,
74253,
75379,
41181,
16858,
9775,
9367,
18288,
56294,
133432,
182337,
144246,
84920,
49340,
29364,
16618,
9563,
6226,
4800,
3855,
3406,
3320,
3230,
3216,
3409,
3425,
3610,
3743,
3608,
3340,
3251,
3098,
3075,
2963,
3013,
3081,
3033,
3020,
3018,
2933,
3051,
2996,
2868,
2935,
2848,
2833,
2872,
2883,
2850,
2794,
2865,
2814,
2858,
2647,
2760,
2718,
2614,
2769,
2989,
3233,
4498,
6691,
9099,
9023,
6708,
4235,
3074,
2616,
2758,
2913,
3248,
4128,
6620,
12003,
20030,
24423,
20810,
12743,
6526,
3512,
2579,
2380,
2418,
2873,
3740,
4557,
4872,
4444,
3259,
2552,
2265,
2152,
2538,
2943,
3643,
4002,
3465,
2782,
2250,
1992,
1860,
1886,
1983,
2186,
2551,
3209,
3690,
3857,
3396,
2821,
2168,
1925,
1708,
1765,
1811,
1773,
1918,
2004,
2065,
2174,
2163,
2076,
1942,
1809,
1748,
1694,
1569,
1605,
1598,
1660,
1680,
1723,
1655,
1643,
1526,
1479,
1410,
1387,
1421,
1299,
1347,
1297,
1384,
1445,
1751,
1984,
2188,
2329,
1933,
1737,
1534,
1606,
1920,
1982,
2021,
1825,
1618,
1435,
1242,
1131,
1095,
1114,
1136,
1216,
1267,
1305,
1397,
1445,
1480,
1311,
1180,
1120,
1171,
1200,
1289,
1318,
1398,
1368,
1284,
1223,
1215,
1126,
1062,
1013,
989,
914,
964,
958,
1062,
984,
976,
929,
810,
882,
885,
806,
806,
868,
824,
850,
852,
882,
767,
846,
792,
762,
713,
774,
761,
787,
796,
859,
813,
758,
717,
673,
713,
649,
690,
666,
678,
688,
694,
683,
695,
648,
623,
647,
628,
642,
685,
597,
624,
590,
606,
595,
585,
584,
571,
588,
571,
554,
567,
545,
523,
515,
564,
519,
470,
531,
504,
486,
483,
470,
565,
502,
512,
491,
474,
518,
452,
519,
476,
463,
458,
458,
442,
446,
437,
424,
449,
469,
411,
410,
422,
451,
396,
427,
500,
538,
570,
622,
596,
522,
479,
398,
397,
366,
356,
322,
384,
341,
352,
332,
353,
322,
356,
321,
312,
340,
309,
313,
305,
325,
302,
313,
281,
269,
303,
314,
255,
279,
280,
294,
277,
264,
285,
288,
276,
280,
274,
262,
274,
234,
284,
264,
231,
229,
244,
216,
207,
224,
210,
214,
212,
176,
203,
198,
195,
188,
210,
198,
207,
195,
187,
196,
182,
176,
168,
184,
158,
151,
157,
187,
171,
189,
147,
136,
110,
176,
171,
170,
150,
128,
123,
138,
120,
151,
113,
135,
138,
118,
134,
112,
106,
87,
103,
124,
107,
98,
111,
87,
92,
104,
94,
101,
83,
103,
76,
113,
81,
92,
94,
80,
82,
80,
72,
77,
61,
68,
63,
54,
53,
57,
74,
50,
52,
70,
68,
48,
53,
58,
51,
49,
41,
43,
42,
43,
33,
36,
32,
38,
40,
43,
31,
22,
33,
25,
31,
27,
26,
25,
20,
20,
15,
22,
25,
14,
12,
17,
11,
14,
11,
10,
9,
7,
6,
10,
1,
3,
2,
3,
3,
2,
1,
0,
1,
0,
1,
0,
0,
0,
0,
1,
1,
1,
1,
0,
0,
0,
0,
0,
1,
2,
0,
0,
1,
0,
0,
0,
0,
0,
0,
1,
0,
0,
0,
0,
1,
1,
2,
0,
0,
0,
0,
0,
0,
0,
1,
1,
1,
0,
0,
0,
0,
0,
1,
0,
0,
0,
0,
1,
0,
0,
0,
0,
0,
1,
0,
1,
0,
1,
0,
1,
1,
0,
0,
0,
0,
2,
0,
0,
0,
0,
0,
0,
0,
0,
0,
1,
0,
0,
0,
1,
0,
0,
0,
0,
0,
0,
0,
0,
0,
0,
0,
0,
0,
0,
0,
0,
0,
0,
0,
0,
0,
0,
0,
0,
0,
0,
0,
0,
0,
0,
0,
0,
0,
0,
0,
0,
0,
0,
0,
0,
0,
0,
0,
0,
0,
0,
0,
0,
0,
0,
0,
0,
0,
0,
0,
0,
1,
0,
0,
0,
0,
0,
0,
0,
0,
0,
0,
1,
0,
0,
0,
0,
0,
0,
0,
0,
0,
0,
0,
0,
0,
1,
0,
0,
0,
0,
0,
0,
0,
0,
0,
0,
0,
0,
1,
0,
0,
0,
0,
0,
0,
0,
0,
0,
0,
0,
0,
0,
0,
0,
0,
1,
0,
0,
0,
0,
0,
0,
0,
0,
0,
0,
0,
1,
0,
0,
0,
0,
0,
0,
0,
0,
0,
0,
0,
0,
0,
0,
0,
0,
0,
0,
0,
0,
0,
0,
0,
0,
0,
0,
0,
0,
0,
0,
0,
0,
0,
0,
0,
0,
0,
0,
0,
0,
1,
0,
0,
0,
0,
0,
0,
0,
0,
0,
0,
0,
0,
0,
0,
0,
0,
0,
0,
0,
0,
0,
0,
1,
0,
0,
0,
0,
0,
0,
0,
0,
0,
0,
0,
0,
0,
0,
0,
0,
0,
0,
0,
0,
0,
0,
0,
0,
0,
0,
0,
0,
0,
0,
0,
0,
0,
0,
0,
0,
0,
0,
0,
0,
0,
0,
0,
0,
0,
0,
0,
0,
0,
0,
0,
0,
0,
0,
0,
0,
0,
0,
0,
0,
0,
0,
0,
0,
0,
0,
0,
0,
0,
0,
0,
0,
0,
0,
0,
0,
0,
0,
0,
0,
0,
0,
0,
0,
0,
0,
0,
0,
0,
0,
0,
0,
0,
0,
0,
0,
0,
0,
0,
0,
0,
0,
0,
0,
0,
0,
0,
0,
0,
0,
0,
0,
0,
0,
0,
0,
0,
0,
0,
0,
0,
0,
0,
0,
0,
0,
0,
0,
0,
0,
0,
0,
0,
0,
0,
0,
0,
0,
0,
0,
0,
0,
0,
0,
0,
0,
0,
0,
0,
0,
0,
0,
0,
0,
0,
0,
0,
0,
0,
0,
0,
0,
0,
0,
0,
0,
0,
0,
0,
0,
0,
0,
0,
0,
0,
0,
0,
0,
0,
0,
0,
0,
0,
0,
0,
0,
0,
0,
0,
0,
0,
0,
0,
0,
0,
0,
0,
0,
0,
0,
0,
0,
0,
0,
0,
0,
0,
0,
0,
0,
0,
0,
0,
0,
0,
0,
0,
0,
0,
0,
0,
0,
0,
0,
0,
0,
0,
0,
0,
0,
0,
0,
0,
0,
0,
0,
0,
0,
0,
0,
0,
0,
0,
0,
0,
0,
0,
0,
0,
0,
0,
0,
0,
0,
0,
0,
0,
0,
0,
0,
0,
0,
0,
0,
0,
0,
0,
0,
0,
0,
0,
0,
0,
0,
0,
0,
0,
0,
0,
0,
0,
0,
0,
0,
0,
0,
0,
0,
0,
0,
0,
0,
0,
0,
0,
0,
0,
0,
0,
0,
0,
0,
0,
0,
0,
0,
0,
0,
0,
0,
0,
0,
0,
0,
0,
0,
0,
0,
0,
0,
0,
0,
0,
0,
0,
0,
0,
0,
0,
0,
0,
0,
0,
0,
0,
0,
0,
0,
0,
0,
0,
0,
0,
0,
0,
0,
0,
0,
0,
0,
0,
0,
0,
0,
0,
0,
0,
0,
0,
0,
0,
0,
0,
0,
0,
0,
0,
0,
0,
0,
0,
0,
0,
0,
0,
0,
0,
0,
0,
0,
0,
0,
0,
0,
0,
0,
0,
0,
0,
0,
0,
0,
0,
0,
0,
0,
0,
0,
0,
0,
0,
0,
0,
0,
0,
0,
0,
0,
0,
0,
0,
0,
0,
0,
0,
0,
0,
0,
0,
0,
0,
0,
0,
0,
0,
0,
0,
0,
0,
0,
0,
0,
0,
0,
0,
0,
0,
0,
0,
0,
0,
0,
0,
0,
0,
0,
0,
0,
0,
0,
0,
0,
0,
0,
0,
0,
0,
0,
0,
0,
0,
0,
0,
0,
0,
0,
0,
0,
0,
0,
0,
0,
0,
0,
0,
0,
0,
0,
0,
0,
0,
0,
0,
0,
0,
0,
0,
0,
0,
0,
0,
0,
0,
0,
0,
0,
0,
0,
0,
0,
0,
0,
0,
0,
0,
0,
0,
0,
0,
0,
0,
0,
0,
0,
0,
0,
0,
0,
0,
0,
0,
0,
0,
0,
0,
0,
0,
0,
0,
0,
0,
0,
0,
0,
0,
0,
0,
0,
0,
0,
0,
0,
0,
0,
0,
0,
0,
0,
0,
0,
0,
0,
0,
0,
0,
0,
0,
0,
0,
0,
0,
0,
0,
0,
0,
0,
0,
0,
0,
0,
0,
0,
0,
0,
0,
0,
0,
0,
0,
0,
0,
0,
0,
0,
0,
0,
#ENDOFDATA   :