File: N132962/Quantification/15 keV/GMIIIA/GMIIIA K249[2][4].msa
#FORMAT      : EMSA/MAS Spectral Data File
#VERSION     : 1.0
#TITLE       : GMIIIA K249[2][all]
#DATE        : 22-SEP-2025
#TIME        : 15:06
#OWNER       : Unknown
#NPOINTS     : 4096
#NCOLUMNS    : 1
#XUNITS      : eV
#YUNITS      : counts
#DATATYPE    : Y
#XPERCHAN    : 9.99778
#OFFSET      : 1.69135
#BEAMKV      : 15
#SIGNALTYPE  : EDS
#ELEVANGLE   : 35
#AZIMANGLE   : 0
#LIVETIME    : 239.927
#REALTIME    : 258.919
#PROBECUR    : 1.21732
#TAUWIND     : 0
#TDEADLYR    : 0
#TACTLYR     : 0.045
#TALWIND     : 0.025
#CHOFFSET    : 0.0
#XLABEL      : Energy (eV)
#YLABEL      : Counts
#XPOSITION   : 9.12459
#YPOSITION   : 2.17197
#ZPOSITION   : 37.36299
#EDSDET      : SD
##SPECIMEN   : GMIIIA K249[2][all]
##D2STDCMP   : K249,(O:24.49),(Al:2.65),(Si:14.02),(Ba:8.96),(Ta:8.19),(Pb:39.45),(Bi:2.24)
##DET_HASH   : 12273538-fd48-a23f-0a19-f1e6fa85caef
##CALIB_HASH : 6abaa72c-aa41-8738-0be9-f592914732f3
##WORKING    : 15.0 mm
##DET_NAME   : EDAX All
##DET_MODE   : MediumLE
#SPECTRUM    :
23,
25,
13,
28,
188,
806,
2238,
5185,
10178,
12688,
8864,
6909,
7046,
7509,
9211,
21220,
64823,
116617,
86333,
27432,
10071,
7515,
7057,
7458,
7268,
7540,
7731,
7637,
7166,
6897,
7028,
7157,
7675,
8010,
8080,
8178,
7972,
8016,
7907,
7938,
8086,
8230,
8593,
9342,
10029,
9867,
9643,
11278,
18577,
29082,
29657,
19393,
11975,
9981,
11173,
21711,
58091,
121684,
153562,
110581,
52741,
24612,
14380,
9664,
7482,
7253,
6931,
6487,
6269,
6227,
6368,
6856,
7439,
7949,
8957,
12963,
25261,
51277,
73778,
72560,
59268,
54902,
47380,
29446,
15068,
8587,
7103,
7359,
8059,
8063,
6783,
5604,
4909,
4644,
4441,
4648,
4667,
4793,
4827,
4811,
4972,
5118,
5224,
5438,
5318,
4936,
4774,
4539,
4412,
4227,
4313,
4184,
4234,
4240,
4259,
4136,
4267,
4126,
4141,
4039,
4108,
3991,
3950,
3883,
3827,
4105,
3824,
3949,
3884,
3960,
3900,
3980,
3932,
4036,
3871,
3855,
3719,
3812,
3750,
3682,
3730,
3696,
3714,
3702,
3812,
4382,
5410,
7933,
10644,
11726,
10161,
7187,
4886,
3849,
3571,
3414,
3396,
3620,
4147,
5219,
6338,
7092,
6580,
5720,
4774,
4124,
3719,
3517,
3461,
3499,
3858,
4208,
4398,
4193,
3608,
3328,
3037,
2976,
3005,
2922,
2883,
2968,
3095,
3254,
3389,
3297,
3259,
2901,
2898,
2766,
2752,
2771,
2780,
2824,
2843,
2765,
2597,
2560,
2609,
2523,
2564,
2508,
2451,
2466,
2413,
2433,
2435,
2333,
2277,
2419,
2405,
2396,
2295,
2344,
2412,
2342,
2358,
2218,
2293,
2223,
2185,
2077,
2160,
2120,
2130,
2056,
2156,
2075,
2050,
2047,
2072,
2033,
2036,
2035,
2055,
2023,
1975,
1920,
2115,
2042,
1918,
2012,
1945,
1854,
1851,
1803,
1827,
1895,
1964,
1772,
1851,
1876,
1804,
1783,
1719,
1775,
1742,
1703,
1681,
1668,
1657,
1652,
1654,
1633,
1655,
1638,
1663,
1766,
2046,
2327,
2744,
2991,
2893,
2597,
2166,
1857,
1602,
1586,
1420,
1487,
1446,
1369,
1410,
1396,
1461,
1389,
1386,
1300,
1361,
1365,
1372,
1366,
1276,
1351,
1287,
1261,
1224,
1321,
1312,
1216,
1195,
1232,
1267,
1264,
1280,
1272,
1236,
1353,
1412,
1408,
1469,
1564,
1554,
1467,
1306,
1341,
1186,
1193,
1151,
1301,
1271,
1330,
1220,
1237,
1172,
1085,
1029,
1032,
995,
1000,
958,
991,
948,
976,
883,
909,
857,
890,
866,
873,
929,
952,
852,
850,
860,
940,
939,
1017,
1101,
1258,
1496,
1553,
1527,
1382,
1172,
1060,
922,
794,
805,
804,
760,
824,
810,
783,
706,
775,
715,
660,
620,
683,
642,
666,
648,
655,
647,
659,
625,
656,
593,
591,
617,
585,
601,
582,
586,
578,
554,
527,
525,
539,
514,
561,
481,
532,
472,
496,
460,
484,
453,
472,
473,
456,
453,
479,
475,
424,
435,
426,
413,
393,
405,
390,
431,
376,
365,
396,
367,
408,
418,
452,
424,
485,
425,
389,
352,
339,
306,
298,
317,
286,
299,
307,
285,
277,
281,
269,
263,
238,
237,
229,
224,
227,
239,
223,
197,
233,
183,
189,
198,
193,
171,
174,
192,
169,
158,
169,
150,
149,
149,
131,
145,
142,
113,
143,
111,
155,
118,
108,
126,
99,
97,
90,
94,
98,
98,
80,
90,
75,
76,
65,
74,
71,
60,
54,
65,
62,
47,
43,
42,
42,
36,
39,
28,
28,
24,
21,
20,
14,
10,
11,
7,
7,
4,
1,
5,
2,
3,
2,
4,
2,
2,
4,
5,
4,
4,
5,
2,
3,
4,
1,
1,
2,
3,
2,
2,
6,
1,
3,
3,
0,
5,
3,
1,
3,
1,
0,
3,
2,
2,
2,
4,
2,
1,
1,
2,
1,
1,
4,
1,
0,
0,
3,
3,
2,
0,
0,
3,
2,
3,
0,
0,
0,
1,
3,
1,
1,
1,
1,
1,
0,
3,
3,
4,
0,
0,
1,
1,
3,
1,
0,
2,
0,
3,
0,
1,
2,
0,
0,
3,
2,
1,
1,
1,
0,
1,
0,
0,
1,
1,
1,
1,
1,
0,
1,
1,
1,
1,
0,
0,
0,
0,
0,
1,
0,
0,
1,
2,
0,
1,
0,
0,
1,
2,
0,
0,
0,
1,
1,
0,
3,
0,
0,
0,
2,
0,
2,
0,
1,
1,
1,
0,
0,
0,
0,
0,
0,
0,
0,
0,
0,
0,
1,
1,
2,
0,
0,
1,
1,
0,
0,
1,
1,
0,
0,
0,
1,
0,
0,
0,
1,
0,
0,
0,
0,
0,
0,
0,
0,
0,
0,
0,
0,
0,
0,
1,
0,
1,
1,
0,
0,
0,
0,
1,
0,
0,
0,
0,
0,
0,
0,
1,
0,
1,
0,
0,
0,
0,
0,
0,
0,
0,
0,
0,
0,
0,
0,
0,
0,
1,
0,
0,
0,
1,
0,
0,
0,
0,
0,
0,
0,
0,
0,
0,
1,
0,
0,
1,
0,
0,
0,
0,
0,
1,
0,
0,
0,
0,
0,
0,
1,
0,
0,
0,
0,
0,
1,
0,
0,
0,
0,
0,
0,
0,
0,
0,
0,
0,
0,
0,
0,
0,
0,
0,
0,
0,
0,
1,
0,
0,
0,
0,
0,
0,
0,
0,
0,
0,
0,
0,
0,
0,
0,
1,
0,
0,
0,
0,
0,
0,
0,
0,
0,
0,
0,
0,
0,
0,
0,
0,
0,
0,
0,
0,
0,
0,
0,
0,
0,
0,
1,
0,
0,
0,
0,
0,
0,
0,
0,
0,
0,
1,
0,
0,
0,
0,
0,
0,
0,
0,
0,
0,
0,
0,
0,
0,
0,
0,
0,
0,
0,
0,
0,
0,
0,
0,
0,
0,
0,
0,
0,
0,
0,
0,
0,
0,
0,
0,
0,
0,
0,
0,
0,
0,
0,
0,
1,
0,
0,
0,
0,
0,
0,
0,
0,
0,
0,
0,
0,
0,
0,
0,
0,
0,
0,
0,
0,
0,
0,
0,
0,
0,
0,
0,
0,
0,
0,
0,
0,
0,
0,
0,
0,
0,
0,
0,
0,
0,
0,
0,
0,
0,
0,
0,
0,
0,
0,
0,
0,
0,
0,
0,
0,
0,
0,
0,
0,
0,
0,
0,
0,
0,
0,
0,
0,
0,
0,
0,
0,
0,
0,
0,
0,
0,
0,
0,
0,
0,
0,
0,
0,
0,
0,
0,
0,
0,
0,
0,
0,
0,
0,
0,
0,
0,
0,
0,
0,
0,
0,
0,
0,
0,
0,
0,
0,
0,
0,
0,
0,
0,
0,
0,
0,
0,
0,
0,
0,
0,
0,
0,
0,
0,
0,
0,
0,
0,
0,
0,
0,
0,
0,
0,
0,
0,
0,
0,
0,
0,
0,
0,
0,
0,
0,
0,
0,
0,
0,
0,
0,
0,
0,
0,
0,
0,
0,
0,
0,
0,
0,
0,
0,
0,
0,
0,
0,
0,
0,
0,
0,
0,
0,
0,
0,
0,
0,
0,
0,
0,
0,
0,
0,
0,
0,
0,
0,
0,
0,
0,
0,
0,
0,
0,
0,
0,
0,
0,
0,
0,
0,
0,
0,
0,
0,
0,
0,
0,
0,
0,
0,
0,
0,
0,
0,
0,
0,
0,
0,
0,
0,
0,
0,
0,
0,
0,
0,
0,
0,
0,
0,
0,
0,
0,
0,
0,
0,
0,
0,
0,
0,
0,
0,
0,
0,
0,
0,
0,
0,
0,
0,
0,
0,
0,
0,
0,
0,
0,
0,
0,
0,
0,
0,
0,
0,
0,
0,
0,
0,
0,
0,
0,
0,
0,
0,
0,
0,
0,
0,
0,
0,
0,
0,
0,
0,
0,
0,
0,
0,
0,
0,
0,
0,
0,
0,
0,
0,
0,
0,
0,
0,
0,
0,
0,
0,
0,
0,
0,
0,
0,
0,
0,
0,
0,
0,
0,
0,
0,
0,
0,
0,
0,
0,
0,
0,
0,
0,
0,
0,
0,
0,
0,
0,
0,
0,
0,
0,
0,
0,
0,
0,
0,
0,
0,
0,
0,
0,
0,
0,
0,
0,
0,
0,
0,
0,
0,
0,
0,
0,
0,
0,
0,
0,
0,
0,
0,
0,
0,
0,
0,
0,
0,
0,
0,
0,
0,
0,
0,
0,
0,
0,
0,
0,
0,
0,
0,
0,
0,
0,
0,
0,
0,
0,
0,
0,
0,
0,
0,
0,
0,
0,
0,
0,
0,
0,
0,
0,
0,
0,
0,
0,
0,
0,
0,
0,
0,
0,
0,
0,
0,
0,
0,
0,
0,
0,
0,
0,
0,
0,
0,
0,
0,
0,
0,
0,
0,
0,
0,
0,
0,
0,
0,
0,
0,
0,
0,
0,
0,
0,
0,
0,
0,
0,
0,
0,
0,
0,
0,
0,
0,
0,
0,
0,
0,
0,
0,
0,
0,
0,
0,
0,
0,
0,
0,
0,
0,
0,
0,
0,
0,
0,
0,
0,
0,
0,
0,
0,
0,
0,
#ENDOFDATA   :