File: N132962/Quantification/15 keV/GMIIIA/GMIIIA K249[1][4].msa
#FORMAT      : EMSA/MAS Spectral Data File
#VERSION     : 1.0
#TITLE       : GMIIIA K249[1][all]
#DATE        : 22-SEP-2025
#TIME        : 15:05
#OWNER       : Unknown
#NPOINTS     : 4096
#NCOLUMNS    : 1
#XUNITS      : eV
#YUNITS      : counts
#DATATYPE    : Y
#XPERCHAN    : 9.99778
#OFFSET      : 1.69135
#BEAMKV      : 15
#SIGNALTYPE  : EDS
#ELEVANGLE   : 35
#AZIMANGLE   : 0
#LIVETIME    : 239.944
#REALTIME    : 258.919
#PROBECUR    : 1.21732
#TAUWIND     : 0
#TDEADLYR    : 0
#TACTLYR     : 0.045
#TALWIND     : 0.025
#CHOFFSET    : 0.0
#XLABEL      : Energy (eV)
#YLABEL      : Counts
#XPOSITION   : 9.13831
#YPOSITION   : 2.23338
#ZPOSITION   : 37.36299
#EDSDET      : SD
##SPECIMEN   : GMIIIA K249[1][all]
##D2STDCMP   : K249,(O:24.49),(Al:2.65),(Si:14.02),(Ba:8.96),(Ta:8.19),(Pb:39.45),(Bi:2.24)
##DET_HASH   : 12273538-fd48-a23f-0a19-f1e6fa85caef
##CALIB_HASH : 6abaa72c-aa41-8738-0be9-f592914732f3
##WORKING    : 15.0 mm
##DET_NAME   : EDAX All
##DET_MODE   : MediumLE
#SPECTRUM    :
24,
18,
11,
32,
190,
799,
2258,
5156,
10372,
12650,
8966,
6877,
6902,
7447,
9319,
20649,
64647,
116726,
85754,
27163,
10205,
7604,
7072,
7273,
7228,
7547,
8038,
7622,
7282,
7102,
7041,
7310,
7857,
8012,
8046,
8231,
7960,
7930,
7976,
7960,
8166,
8062,
8616,
9306,
10085,
9993,
9586,
11193,
18724,
29188,
29704,
19476,
12090,
10025,
11417,
21685,
58212,
121408,
151758,
109963,
51891,
24156,
14401,
9549,
7657,
7245,
7000,
6584,
6301,
6315,
6359,
6839,
7280,
8009,
9141,
12730,
25307,
50918,
73667,
71562,
59563,
55657,
47097,
29749,
14889,
8731,
7029,
7358,
7967,
7974,
6716,
5448,
4890,
4652,
4492,
4553,
4574,
4723,
4784,
4787,
4885,
5076,
5418,
5270,
5303,
5028,
4730,
4485,
4398,
4336,
4147,
4300,
4168,
4131,
4086,
4222,
4362,
4231,
4107,
4068,
4033,
3960,
4004,
4019,
4014,
3957,
3871,
3866,
3867,
3847,
3920,
3985,
4149,
4081,
3872,
3767,
3792,
3788,
3671,
3733,
3716,
3596,
3642,
3772,
3774,
4165,
5460,
7801,
10692,
11722,
9965,
7276,
5049,
3802,
3526,
3316,
3335,
3606,
4117,
5137,
6492,
6991,
6727,
5641,
4708,
4122,
3655,
3344,
3494,
3536,
3779,
4239,
4393,
4172,
3759,
3348,
3101,
3057,
2927,
2942,
2905,
2997,
3010,
3129,
3284,
3256,
3106,
2943,
2852,
2712,
2697,
2752,
2849,
2799,
2771,
2659,
2633,
2581,
2555,
2504,
2547,
2571,
2503,
2453,
2367,
2386,
2482,
2417,
2281,
2389,
2335,
2402,
2389,
2391,
2335,
2375,
2241,
2276,
2300,
2102,
2150,
2143,
2211,
2227,
2106,
2158,
2053,
2094,
2081,
2094,
1979,
2055,
2083,
1985,
2018,
2033,
2047,
1968,
1981,
1986,
1996,
2020,
1926,
1876,
1821,
1893,
1902,
1853,
1851,
1845,
1784,
1857,
1833,
1851,
1663,
1752,
1685,
1711,
1647,
1704,
1646,
1662,
1664,
1669,
1682,
1692,
1701,
1900,
2156,
2370,
2783,
2978,
2961,
2609,
2144,
1857,
1654,
1489,
1492,
1483,
1425,
1509,
1442,
1314,
1395,
1362,
1401,
1368,
1389,
1330,
1358,
1354,
1304,
1293,
1301,
1217,
1278,
1240,
1292,
1239,
1233,
1314,
1244,
1283,
1293,
1278,
1269,
1316,
1375,
1452,
1502,
1532,
1511,
1500,
1370,
1314,
1245,
1193,
1228,
1209,
1243,
1339,
1243,
1324,
1197,
1068,
1041,
980,
1055,
1001,
980,
911,
955,
898,
981,
909,
937,
933,
911,
829,
841,
877,
887,
837,
948,
849,
979,
1064,
1136,
1280,
1484,
1507,
1517,
1344,
1195,
1034,
859,
851,
755,
784,
785,
803,
808,
834,
803,
770,
747,
657,
697,
639,
653,
674,
687,
663,
634,
670,
644,
612,
587,
598,
599,
558,
553,
592,
536,
585,
572,
560,
543,
512,
532,
486,
534,
493,
517,
475,
499,
431,
491,
469,
447,
467,
473,
474,
419,
438,
444,
426,
434,
422,
372,
405,
387,
404,
414,
387,
384,
420,
452,
500,
438,
452,
413,
411,
363,
330,
346,
302,
289,
291,
336,
304,
317,
286,
285,
279,
258,
235,
232,
247,
212,
244,
203,
223,
220,
208,
219,
212,
188,
193,
196,
174,
192,
173,
142,
145,
180,
157,
128,
136,
134,
140,
137,
158,
147,
126,
109,
119,
138,
120,
103,
100,
97,
94,
84,
94,
94,
89,
92,
82,
70,
55,
63,
77,
61,
56,
44,
48,
44,
27,
38,
35,
24,
27,
20,
13,
24,
13,
14,
9,
7,
7,
6,
3,
1,
3,
4,
3,
3,
2,
1,
4,
6,
2,
4,
3,
4,
1,
1,
1,
0,
4,
3,
2,
1,
2,
1,
1,
3,
1,
0,
0,
4,
0,
2,
3,
2,
2,
2,
3,
3,
3,
1,
0,
0,
0,
1,
2,
0,
0,
1,
1,
1,
0,
2,
0,
0,
1,
1,
1,
3,
1,
0,
3,
0,
1,
0,
0,
2,
2,
5,
2,
1,
1,
1,
0,
1,
0,
2,
1,
1,
0,
1,
0,
2,
1,
2,
1,
0,
2,
2,
0,
1,
0,
1,
0,
1,
1,
1,
0,
0,
0,
1,
0,
1,
1,
0,
1,
1,
0,
0,
1,
0,
1,
0,
2,
1,
0,
0,
0,
1,
0,
0,
1,
3,
0,
1,
0,
1,
1,
0,
1,
0,
0,
0,
0,
0,
0,
0,
1,
0,
0,
0,
0,
1,
0,
0,
0,
1,
0,
0,
1,
0,
2,
0,
1,
0,
0,
1,
1,
0,
0,
0,
0,
0,
0,
0,
0,
0,
0,
1,
0,
0,
2,
0,
0,
2,
0,
0,
0,
0,
2,
0,
0,
0,
1,
1,
0,
0,
0,
0,
0,
0,
0,
0,
1,
0,
1,
0,
0,
1,
1,
0,
0,
0,
0,
0,
0,
0,
0,
0,
0,
0,
0,
0,
0,
0,
0,
0,
0,
0,
0,
1,
0,
0,
0,
1,
0,
1,
0,
1,
1,
0,
0,
1,
0,
0,
0,
0,
2,
0,
0,
1,
0,
0,
0,
0,
0,
0,
1,
0,
0,
0,
0,
1,
0,
0,
0,
0,
0,
0,
0,
0,
0,
0,
0,
0,
0,
0,
0,
0,
0,
0,
0,
0,
0,
0,
0,
0,
0,
0,
0,
0,
0,
0,
0,
0,
0,
0,
0,
0,
0,
0,
0,
0,
0,
0,
0,
0,
0,
0,
0,
0,
0,
0,
0,
0,
0,
0,
0,
0,
0,
0,
0,
0,
0,
0,
0,
0,
0,
0,
0,
0,
0,
0,
0,
0,
0,
0,
0,
0,
0,
0,
0,
0,
0,
0,
0,
0,
0,
0,
0,
0,
0,
0,
0,
0,
0,
0,
0,
0,
0,
0,
0,
0,
0,
0,
0,
0,
0,
0,
0,
0,
0,
0,
0,
0,
0,
0,
0,
0,
0,
0,
0,
0,
0,
0,
0,
0,
0,
0,
0,
0,
0,
0,
0,
0,
0,
0,
0,
0,
0,
0,
0,
0,
0,
0,
0,
0,
0,
0,
0,
0,
0,
0,
0,
0,
0,
0,
0,
0,
0,
0,
0,
0,
0,
0,
0,
0,
0,
0,
0,
0,
0,
0,
0,
0,
0,
0,
0,
0,
0,
0,
0,
0,
0,
0,
0,
0,
0,
0,
0,
0,
0,
0,
0,
0,
0,
0,
0,
0,
0,
0,
0,
0,
0,
0,
0,
0,
0,
0,
0,
0,
0,
0,
0,
0,
0,
0,
0,
0,
0,
0,
0,
0,
0,
0,
0,
0,
0,
0,
0,
0,
0,
0,
0,
0,
0,
0,
0,
0,
0,
0,
0,
0,
0,
0,
0,
0,
0,
0,
0,
0,
0,
0,
0,
0,
0,
0,
0,
0,
0,
0,
0,
0,
0,
0,
0,
0,
0,
0,
0,
0,
0,
0,
0,
0,
0,
0,
0,
0,
0,
0,
0,
0,
0,
0,
0,
0,
0,
0,
0,
0,
0,
0,
0,
0,
0,
0,
0,
0,
0,
0,
0,
0,
0,
0,
0,
0,
0,
0,
0,
0,
0,
0,
0,
0,
0,
0,
0,
0,
0,
0,
0,
0,
0,
0,
0,
0,
0,
0,
0,
0,
0,
0,
0,
0,
0,
0,
0,
0,
0,
0,
0,
0,
0,
0,
0,
0,
0,
0,
0,
0,
0,
0,
0,
0,
0,
0,
0,
0,
0,
0,
0,
0,
0,
0,
0,
0,
0,
0,
0,
0,
0,
0,
0,
0,
0,
0,
0,
0,
0,
0,
0,
0,
0,
0,
0,
0,
0,
0,
0,
0,
0,
0,
0,
0,
0,
0,
0,
0,
0,
0,
0,
0,
0,
0,
0,
0,
0,
0,
0,
0,
0,
0,
0,
0,
0,
0,
0,
0,
0,
0,
0,
0,
0,
0,
0,
0,
0,
0,
0,
0,
0,
0,
0,
0,
0,
0,
0,
0,
0,
0,
0,
0,
0,
0,
0,
0,
0,
0,
0,
0,
0,
0,
0,
0,
0,
0,
0,
0,
0,
0,
0,
0,
0,
0,
0,
0,
0,
0,
0,
0,
0,
0,
0,
0,
0,
0,
0,
0,
0,
0,
0,
0,
0,
0,
0,
0,
0,
0,
0,
0,
0,
0,
0,
0,
0,
0,
0,
0,
0,
0,
0,
0,
0,
0,
0,
0,
0,
0,
0,
0,
0,
0,
0,
0,
0,
0,
0,
0,
0,
0,
0,
0,
0,
0,
0,
0,
0,
0,
0,
0,
0,
0,
0,
0,
0,
0,
0,
0,
0,
0,
0,
0,
0,
0,
0,
0,
0,
0,
0,
0,
0,
0,
0,
0,
0,
0,
0,
0,
0,
0,
0,
0,
0,
0,
0,
0,
0,
0,
0,
0,
0,
0,
0,
0,
0,
0,
0,
0,
0,
0,
0,
0,
0,
0,
0,
0,
0,
0,
0,
0,
0,
0,
0,
0,
0,
0,
0,
0,
0,
0,
0,
0,
0,
0,
0,
0,
0,
0,
0,
0,
0,
0,
0,
#ENDOFDATA   :