File: N132962/Quantification/15 keV/GMIIIA/GMIIIA K1001[7][4].msa
#FORMAT      : EMSA/MAS Spectral Data File
#VERSION     : 1.0
#TITLE       : GMIIIA K1001[7][all]
#DATE        : 22-SEP-2025
#TIME        : 22:00
#OWNER       : Unknown
#NPOINTS     : 4096
#NCOLUMNS    : 1
#XUNITS      : eV
#YUNITS      : counts
#DATATYPE    : Y
#XPERCHAN    : 9.99778
#OFFSET      : 1.69135
#BEAMKV      : 15
#SIGNALTYPE  : EDS
#ELEVANGLE   : 35
#AZIMANGLE   : 0
#LIVETIME    : 240.015
#REALTIME    : 256.2894
#PROBECUR    : 1.21615
#TAUWIND     : 0
#TDEADLYR    : 0
#TACTLYR     : 0.045
#TALWIND     : 0.025
#CHOFFSET    : 0.0
#XLABEL      : Energy (eV)
#YLABEL      : Counts
#XPOSITION   : 13.4723
#YPOSITION   : 15.14084
#ZPOSITION   : 37.36299
#EDSDET      : SD
##SPECIMEN   : GMIIIA K1001[7][all]
##D2STDCMP   : K1001,(O:39.47),(Na:1.67),(Mg:1.36),(Al:8.92),(Si:21.02),(K:1.87),(Ca:6.75),(Rb:2.06),(Sr:10.05),(Pr:1.92),(Nd:1.93),(Er:1.97),(Pb:1.04)
##DET_HASH   : 12273538-fd48-a23f-0a19-f1e6fa85caef
##CALIB_HASH : 6abaa72c-aa41-8738-0be9-f592914732f3
##WORKING    : 15.0 mm
##DET_NAME   : EDAX All
##DET_MODE   : MediumLE
#SPECTRUM    :
25,
33,
9,
25,
125,
393,
1125,
3111,
7577,
9879,
6794,
4782,
4535,
4974,
7489,
24403,
88475,
167075,
121907,
32800,
5599,
3483,
4060,
4507,
4565,
4328,
4417,
4469,
4731,
5074,
5833,
7193,
7772,
10592,
16149,
16966,
11250,
7162,
6218,
6692,
9256,
14912,
16713,
12111,
7907,
7708,
10062,
18160,
41922,
76504,
75506,
41467,
17097,
9576,
9568,
18793,
57146,
134758,
182346,
144659,
85085,
49572,
28944,
16797,
9371,
6040,
4519,
3735,
3396,
3231,
3156,
3141,
3263,
3357,
3540,
3596,
3835,
4203,
4385,
4300,
4069,
3793,
3780,
3339,
3077,
2927,
2962,
2938,
2949,
2799,
2760,
2819,
2806,
2704,
2803,
2644,
2707,
2781,
2821,
2757,
2808,
2657,
2629,
2595,
2658,
2688,
2755,
3178,
4375,
6500,
8674,
8647,
6505,
4117,
2926,
2628,
2657,
2879,
3260,
3954,
6250,
11837,
19524,
24334,
20147,
12323,
5900,
3077,
2246,
2178,
2324,
2666,
3426,
4239,
4695,
3918,
3002,
2305,
1951,
1920,
1899,
1824,
1799,
1837,
1853,
1766,
1718,
1839,
1816,
1712,
1802,
1775,
1752,
1699,
1742,
1695,
1633,
1637,
1600,
1592,
1537,
1569,
1607,
1576,
1763,
2013,
2374,
2833,
2889,
2599,
2102,
1918,
2006,
2234,
2442,
2208,
1979,
1683,
1511,
1478,
1598,
1681,
1897,
1961,
1932,
1666,
1595,
1503,
1529,
1548,
1628,
1636,
1649,
1588,
1592,
1465,
1467,
1324,
1305,
1244,
1175,
1174,
1230,
1335,
1282,
1249,
1151,
1099,
1102,
1141,
1151,
1142,
1202,
1129,
1128,
1077,
1042,
1038,
1029,
1019,
1058,
1002,
982,
934,
964,
964,
983,
982,
1057,
1204,
1325,
1473,
1459,
1321,
1119,
970,
912,
869,
844,
846,
822,
827,
790,
843,
819,
800,
815,
772,
796,
808,
783,
723,
737,
766,
707,
760,
738,
793,
881,
890,
886,
844,
862,
791,
746,
674,
730,
704,
700,
717,
698,
687,
734,
695,
708,
683,
651,
584,
569,
584,
557,
580,
584,
548,
544,
513,
533,
542,
563,
522,
534,
553,
538,
533,
479,
496,
496,
466,
520,
460,
528,
485,
526,
564,
507,
481,
449,
433,
441,
470,
457,
443,
424,
439,
426,
434,
433,
461,
399,
385,
399,
383,
383,
391,
378,
400,
387,
371,
382,
370,
403,
376,
358,
340,
327,
369,
315,
345,
320,
326,
347,
302,
315,
306,
281,
330,
336,
311,
300,
306,
309,
316,
326,
290,
294,
290,
275,
275,
262,
276,
239,
281,
249,
236,
232,
266,
242,
246,
234,
215,
251,
233,
211,
223,
201,
218,
238,
215,
204,
226,
218,
195,
186,
172,
198,
188,
200,
154,
161,
168,
166,
193,
178,
177,
166,
178,
165,
149,
149,
172,
159,
150,
141,
145,
143,
155,
139,
140,
166,
125,
116,
114,
126,
145,
99,
125,
111,
125,
118,
122,
102,
105,
119,
100,
123,
91,
91,
96,
113,
109,
88,
94,
89,
93,
84,
72,
67,
77,
85,
77,
92,
80,
67,
70,
67,
68,
59,
72,
72,
59,
64,
49,
63,
63,
52,
65,
53,
49,
42,
49,
47,
39,
38,
45,
45,
31,
34,
21,
33,
27,
39,
29,
17,
21,
22,
23,
31,
21,
25,
20,
14,
17,
24,
15,
21,
20,
14,
17,
17,
6,
8,
12,
9,
10,
3,
3,
9,
3,
3,
2,
0,
0,
0,
0,
3,
0,
0,
0,
1,
0,
0,
0,
2,
0,
0,
0,
0,
1,
0,
0,
0,
0,
1,
1,
1,
0,
1,
0,
0,
0,
0,
0,
0,
1,
0,
0,
0,
0,
0,
1,
0,
0,
0,
0,
0,
0,
0,
0,
0,
0,
0,
0,
0,
0,
0,
0,
0,
1,
0,
1,
0,
0,
0,
0,
0,
0,
1,
0,
0,
0,
0,
0,
0,
0,
0,
0,
0,
0,
0,
0,
0,
0,
1,
0,
0,
0,
0,
1,
0,
0,
0,
0,
0,
0,
1,
0,
0,
0,
0,
0,
0,
0,
0,
0,
0,
1,
0,
0,
0,
0,
0,
0,
0,
0,
1,
1,
1,
0,
0,
0,
0,
0,
0,
0,
0,
0,
0,
0,
0,
0,
0,
0,
0,
0,
0,
0,
0,
0,
0,
0,
0,
0,
2,
0,
0,
0,
0,
0,
0,
0,
0,
0,
0,
0,
0,
0,
0,
0,
0,
0,
0,
0,
0,
0,
0,
0,
0,
0,
0,
0,
0,
0,
0,
0,
0,
1,
0,
0,
0,
0,
0,
0,
0,
0,
0,
0,
0,
0,
0,
0,
0,
0,
0,
0,
0,
0,
0,
1,
0,
0,
0,
0,
0,
0,
0,
0,
0,
0,
0,
0,
1,
0,
0,
0,
0,
0,
0,
0,
0,
0,
0,
0,
0,
0,
0,
0,
0,
0,
0,
0,
0,
0,
0,
0,
0,
0,
0,
0,
0,
0,
0,
0,
0,
0,
0,
0,
0,
0,
0,
0,
0,
0,
0,
0,
0,
0,
0,
0,
0,
0,
1,
0,
0,
0,
0,
0,
0,
0,
0,
0,
0,
0,
0,
0,
0,
0,
0,
0,
0,
0,
0,
0,
0,
0,
0,
0,
0,
0,
0,
0,
0,
0,
0,
0,
0,
0,
0,
0,
0,
0,
0,
0,
0,
0,
0,
0,
0,
0,
0,
0,
0,
0,
0,
0,
0,
0,
0,
0,
0,
0,
0,
0,
0,
0,
0,
0,
0,
0,
0,
0,
0,
0,
0,
0,
0,
0,
0,
0,
0,
0,
0,
0,
0,
0,
0,
0,
0,
0,
0,
0,
0,
0,
0,
0,
0,
0,
0,
0,
0,
0,
0,
0,
0,
0,
0,
0,
0,
0,
0,
0,
0,
0,
0,
0,
0,
0,
0,
0,
0,
0,
0,
0,
0,
0,
0,
0,
0,
0,
0,
0,
0,
0,
0,
0,
0,
0,
0,
0,
0,
0,
0,
0,
0,
0,
0,
0,
0,
0,
0,
0,
0,
0,
0,
0,
0,
0,
0,
0,
0,
0,
0,
0,
0,
0,
0,
0,
0,
0,
0,
0,
0,
0,
0,
0,
0,
0,
0,
0,
0,
0,
0,
0,
0,
0,
0,
0,
0,
0,
0,
0,
0,
0,
0,
0,
0,
0,
0,
0,
0,
0,
0,
0,
0,
0,
0,
0,
0,
0,
0,
0,
0,
0,
0,
0,
0,
0,
0,
0,
0,
0,
0,
0,
0,
0,
0,
0,
0,
0,
0,
0,
0,
0,
0,
0,
0,
0,
0,
0,
0,
0,
0,
0,
0,
0,
0,
0,
0,
0,
0,
0,
0,
0,
0,
0,
0,
0,
0,
0,
0,
0,
0,
0,
0,
0,
0,
0,
0,
0,
0,
0,
0,
0,
0,
0,
0,
0,
0,
0,
0,
0,
0,
0,
0,
0,
0,
0,
0,
0,
0,
0,
0,
0,
0,
0,
0,
0,
0,
0,
0,
0,
0,
0,
0,
0,
0,
0,
0,
0,
0,
0,
0,
0,
0,
0,
0,
0,
0,
0,
0,
0,
0,
0,
0,
0,
0,
0,
0,
0,
0,
0,
0,
0,
0,
0,
0,
0,
0,
0,
0,
0,
0,
0,
0,
0,
0,
0,
0,
0,
0,
0,
0,
0,
0,
0,
0,
0,
0,
0,
0,
0,
0,
0,
0,
0,
0,
0,
0,
0,
0,
0,
0,
0,
0,
0,
0,
0,
0,
0,
0,
0,
0,
0,
0,
0,
0,
0,
0,
0,
0,
0,
0,
0,
0,
0,
0,
0,
0,
0,
0,
0,
0,
0,
0,
0,
0,
0,
0,
0,
0,
0,
0,
0,
0,
0,
0,
0,
0,
0,
0,
0,
0,
0,
0,
0,
0,
0,
0,
0,
0,
0,
0,
0,
0,
0,
0,
0,
0,
0,
0,
0,
0,
0,
0,
0,
0,
0,
0,
0,
0,
0,
0,
0,
0,
0,
0,
0,
0,
0,
0,
0,
0,
0,
0,
0,
0,
0,
0,
0,
0,
0,
0,
0,
0,
0,
0,
0,
0,
0,
0,
0,
0,
0,
0,
0,
0,
0,
0,
0,
0,
0,
0,
0,
0,
0,
0,
0,
0,
0,
0,
0,
0,
0,
0,
0,
0,
0,
0,
0,
0,
0,
0,
0,
0,
0,
0,
0,
0,
0,
0,
0,
0,
0,
0,
0,
0,
0,
0,
0,
0,
0,
0,
0,
0,
0,
0,
0,
0,
0,
0,
0,
0,
0,
0,
0,
0,
0,
0,
0,
0,
0,
0,
0,
0,
0,
0,
0,
0,
0,
0,
0,
0,
0,
0,
0,
0,
0,
0,
0,
0,
0,
0,
0,
0,
0,
0,
0,
0,
0,
0,
0,
0,
0,
0,
0,
0,
0,
0,
0,
0,
0,
0,
0,
0,
0,
0,
0,
0,
0,
0,
0,
0,
0,
0,
0,
0,
0,
#ENDOFDATA   :