File: N132962/Quantification/15 keV/GMIIIA/GMIIIA K309[6][4].msa
#FORMAT      : EMSA/MAS Spectral Data File
#VERSION     : 1.0
#TITLE       : GMIIIA K309[6][all]
#DATE        : 22-SEP-2025
#TIME        : 15:27
#OWNER       : Unknown
#NPOINTS     : 4096
#NCOLUMNS    : 1
#XUNITS      : eV
#YUNITS      : counts
#DATATYPE    : Y
#XPERCHAN    : 9.99778
#OFFSET      : 1.69135
#BEAMKV      : 15
#SIGNALTYPE  : EDS
#ELEVANGLE   : 35
#AZIMANGLE   : 0
#LIVETIME    : 239.883
#REALTIME    : 255.469
#PROBECUR    : 1.21681
#TAUWIND     : 0
#TDEADLYR    : 0
#TACTLYR     : 0.045
#TALWIND     : 0.025
#CHOFFSET    : 0.0
#XLABEL      : Energy (eV)
#YLABEL      : Counts
#XPOSITION   : 12.60394
#YPOSITION   : 3.83887
#ZPOSITION   : 37.36299
#EDSDET      : SD
##SPECIMEN   : GMIIIA K309[6][all]
##D2STDCMP   : K309,(O:38.72),(Al:7.94),(Si:18.7),(Ca:10.72),(Fe:10.49),(Ba:13.43)
##DET_HASH   : 12273538-fd48-a23f-0a19-f1e6fa85caef
##CALIB_HASH : 6abaa72c-aa41-8738-0be9-f592914732f3
##WORKING    : 15.0 mm
##DET_NAME   : EDAX All
##DET_MODE   : MediumLE
#SPECTRUM    :
30,
29,
8,
27,
115,
447,
1253,
3105,
7487,
10870,
9078,
6689,
5830,
5993,
9052,
28420,
103191,
193755,
142211,
40443,
10323,
7356,
9838,
15524,
14969,
9158,
6271,
5216,
4255,
4029,
4088,
4396,
5072,
5324,
5583,
5612,
5174,
4850,
4718,
4773,
4892,
4994,
5076,
5188,
5320,
5569,
6448,
11903,
31151,
59207,
60145,
32780,
13252,
7185,
6709,
12870,
42553,
106144,
142180,
101451,
42777,
16209,
8350,
5527,
4158,
4027,
4024,
3824,
3586,
3617,
3458,
3457,
3475,
3648,
3808,
3897,
3770,
3598,
3519,
3416,
3347,
3279,
3240,
3307,
3330,
3199,
3204,
3189,
3267,
3161,
3189,
3124,
2996,
3148,
3052,
2966,
2935,
2995,
2987,
3046,
2997,
2936,
2898,
2880,
2910,
2858,
2792,
2884,
2850,
2785,
2635,
2688,
2635,
2601,
2631,
2628,
2814,
2752,
3171,
4217,
7997,
17389,
30543,
38307,
32737,
19007,
8516,
3814,
2681,
2536,
2915,
3607,
4966,
6433,
6565,
5638,
3992,
2657,
2255,
2121,
2003,
2068,
2139,
2074,
2348,
2936,
4670,
8269,
11886,
13461,
10851,
6942,
4007,
2387,
1964,
1821,
1886,
2078,
2821,
4336,
5898,
7014,
6545,
5166,
3894,
2962,
2410,
2035,
1952,
2097,
2506,
3194,
3326,
3042,
2462,
1895,
1621,
1541,
1433,
1465,
1517,
1607,
1712,
1907,
2088,
2053,
1853,
1511,
1397,
1343,
1383,
1430,
1530,
1514,
1506,
1384,
1324,
1253,
1263,
1216,
1314,
1147,
1129,
1113,
1112,
1119,
1153,
1290,
1462,
2097,
3497,
6208,
9277,
11223,
10633,
7870,
4712,
2590,
1484,
1118,
1037,
1070,
1072,
988,
951,
1036,
941,
981,
1010,
940,
983,
1168,
1448,
1741,
2026,
2124,
2123,
1682,
1386,
1081,
878,
822,
801,
799,
826,
807,
802,
812,
780,
805,
845,
796,
790,
737,
782,
733,
728,
763,
697,
741,
726,
704,
787,
717,
722,
703,
669,
674,
665,
684,
725,
687,
667,
658,
626,
609,
640,
668,
638,
635,
617,
606,
611,
642,
603,
626,
589,
583,
584,
576,
586,
605,
590,
568,
575,
523,
579,
556,
520,
511,
510,
533,
501,
517,
507,
497,
468,
504,
477,
500,
477,
488,
455,
499,
497,
434,
430,
428,
444,
440,
417,
436,
424,
489,
418,
399,
391,
385,
377,
391,
357,
386,
358,
365,
393,
389,
360,
372,
408,
359,
339,
366,
354,
324,
340,
317,
340,
339,
313,
313,
304,
322,
330,
309,
276,
296,
299,
310,
290,
287,
311,
284,
277,
259,
279,
270,
278,
260,
262,
260,
236,
263,
257,
222,
242,
271,
234,
198,
216,
214,
248,
230,
220,
229,
201,
203,
219,
204,
176,
202,
165,
195,
188,
173,
193,
174,
173,
178,
158,
186,
184,
159,
175,
186,
199,
139,
167,
145,
138,
158,
153,
150,
154,
141,
131,
136,
137,
119,
122,
123,
116,
104,
112,
97,
114,
110,
114,
114,
118,
108,
89,
100,
85,
100,
93,
87,
86,
87,
87,
77,
81,
79,
80,
89,
66,
72,
71,
69,
68,
57,
62,
59,
54,
57,
48,
61,
63,
52,
48,
63,
53,
50,
38,
50,
53,
49,
41,
46,
32,
39,
41,
37,
35,
35,
33,
21,
24,
30,
22,
18,
20,
22,
22,
21,
19,
15,
15,
12,
15,
12,
7,
5,
8,
8,
15,
7,
4,
2,
4,
2,
1,
3,
1,
1,
0,
0,
1,
0,
0,
0,
0,
1,
1,
0,
0,
0,
0,
1,
0,
0,
0,
0,
0,
1,
3,
0,
1,
0,
1,
1,
3,
0,
0,
0,
0,
0,
1,
2,
2,
0,
1,
1,
0,
0,
1,
1,
0,
0,
0,
0,
0,
0,
0,
2,
0,
0,
0,
0,
1,
0,
2,
0,
0,
0,
0,
0,
0,
1,
1,
0,
1,
0,
0,
0,
0,
0,
1,
0,
0,
1,
0,
1,
0,
0,
2,
0,
0,
0,
0,
0,
0,
0,
0,
0,
0,
0,
0,
0,
0,
0,
0,
0,
0,
1,
0,
0,
0,
0,
2,
0,
2,
0,
0,
0,
0,
0,
0,
0,
0,
0,
1,
0,
0,
0,
0,
0,
0,
0,
0,
0,
0,
0,
0,
0,
0,
0,
0,
0,
0,
1,
0,
0,
0,
0,
0,
0,
0,
0,
0,
0,
0,
0,
0,
0,
0,
0,
0,
0,
0,
0,
0,
0,
0,
1,
0,
0,
0,
0,
0,
0,
0,
0,
0,
1,
0,
0,
0,
0,
0,
0,
0,
0,
0,
0,
0,
0,
0,
0,
0,
0,
0,
0,
0,
0,
0,
0,
0,
0,
0,
0,
0,
0,
0,
0,
1,
0,
0,
0,
0,
0,
0,
0,
0,
0,
0,
0,
0,
0,
0,
0,
0,
0,
0,
0,
0,
0,
0,
0,
0,
0,
0,
0,
0,
0,
0,
0,
0,
0,
0,
0,
0,
0,
0,
0,
0,
0,
0,
0,
0,
0,
0,
0,
0,
0,
0,
0,
0,
0,
0,
0,
0,
0,
0,
0,
0,
0,
0,
0,
0,
1,
0,
0,
0,
0,
0,
0,
0,
0,
0,
0,
0,
0,
0,
0,
0,
0,
0,
0,
0,
0,
0,
0,
0,
0,
0,
0,
0,
0,
0,
0,
0,
0,
0,
0,
0,
0,
0,
0,
0,
0,
0,
0,
0,
0,
0,
0,
0,
0,
0,
0,
0,
0,
0,
0,
0,
0,
0,
0,
0,
0,
0,
0,
0,
0,
0,
0,
0,
0,
0,
0,
0,
0,
0,
0,
0,
0,
0,
0,
0,
0,
0,
0,
0,
0,
0,
0,
0,
0,
0,
0,
0,
0,
0,
0,
0,
0,
0,
0,
0,
0,
0,
0,
0,
0,
0,
0,
0,
0,
0,
0,
0,
0,
0,
0,
0,
0,
0,
0,
0,
0,
0,
0,
0,
0,
0,
0,
0,
0,
0,
0,
0,
0,
0,
0,
0,
0,
0,
0,
0,
0,
0,
0,
0,
0,
0,
0,
0,
0,
0,
0,
0,
0,
0,
0,
0,
0,
0,
0,
0,
0,
0,
0,
0,
0,
0,
0,
0,
0,
0,
0,
0,
0,
0,
0,
0,
0,
0,
0,
0,
0,
0,
0,
0,
0,
0,
0,
0,
0,
0,
0,
0,
0,
0,
0,
0,
0,
0,
0,
0,
0,
0,
0,
0,
0,
0,
0,
0,
0,
0,
0,
0,
0,
0,
0,
0,
0,
0,
0,
0,
0,
0,
0,
0,
0,
0,
0,
0,
0,
0,
0,
0,
0,
0,
0,
0,
0,
0,
0,
0,
0,
0,
0,
0,
0,
0,
0,
0,
0,
0,
0,
0,
0,
0,
0,
0,
0,
0,
0,
0,
0,
0,
0,
0,
0,
0,
0,
0,
0,
0,
0,
0,
0,
0,
0,
0,
0,
0,
0,
0,
0,
0,
0,
0,
0,
0,
0,
0,
0,
0,
0,
0,
0,
0,
0,
0,
0,
0,
0,
0,
0,
0,
0,
0,
0,
0,
0,
0,
0,
0,
0,
0,
0,
0,
0,
0,
0,
0,
0,
0,
0,
0,
0,
0,
0,
0,
0,
0,
0,
0,
0,
0,
0,
0,
0,
0,
0,
0,
0,
0,
0,
0,
0,
0,
0,
0,
0,
0,
0,
0,
0,
0,
0,
0,
0,
0,
0,
0,
0,
0,
0,
0,
0,
0,
0,
0,
0,
0,
0,
0,
0,
0,
0,
0,
0,
0,
0,
0,
0,
0,
0,
0,
0,
0,
0,
0,
0,
0,
0,
0,
0,
0,
0,
0,
0,
0,
0,
0,
0,
0,
0,
0,
0,
0,
0,
0,
0,
0,
0,
0,
0,
0,
0,
0,
0,
0,
0,
0,
0,
0,
0,
0,
0,
0,
0,
0,
0,
0,
0,
0,
0,
0,
0,
0,
0,
0,
0,
0,
0,
0,
0,
0,
0,
0,
0,
0,
0,
0,
0,
0,
0,
0,
0,
0,
0,
0,
0,
0,
0,
0,
0,
0,
0,
0,
0,
0,
0,
0,
0,
0,
0,
0,
0,
0,
0,
0,
0,
0,
0,
0,
0,
0,
0,
0,
0,
0,
0,
0,
0,
0,
0,
0,
0,
0,
0,
0,
0,
0,
0,
0,
0,
0,
0,
0,
0,
0,
0,
0,
0,
0,
0,
0,
0,
0,
0,
0,
0,
0,
0,
0,
0,
0,
0,
0,
0,
0,
0,
0,
0,
0,
0,
0,
0,
0,
0,
0,
0,
0,
0,
0,
0,
0,
0,
0,
0,
0,
0,
0,
0,
0,
0,
0,
0,
0,
0,
0,
0,
0,
0,
0,
0,
0,
0,
0,
0,
0,
0,
0,
0,
0,
0,
0,
0,
0,
0,
0,
0,
0,
0,
0,
0,
0,
0,
0,
0,
0,
0,
0,
0,
0,
0,
0,
0,
0,
0,
0,
0,
#ENDOFDATA   :