File: N132962/Quantification/15 keV/GMIIIA/GMIIIA K1229[8][4].msa
#FORMAT      : EMSA/MAS Spectral Data File
#VERSION     : 1.0
#TITLE       : GMIIIA K1229[8][all]
#DATE        : 22-SEP-2025
#TIME        : 22:52
#OWNER       : Unknown
#NPOINTS     : 4096
#NCOLUMNS    : 1
#XUNITS      : eV
#YUNITS      : counts
#DATATYPE    : Y
#XPERCHAN    : 9.99778
#OFFSET      : 1.69135
#BEAMKV      : 15
#SIGNALTYPE  : EDS
#ELEVANGLE   : 35
#AZIMANGLE   : 0
#LIVETIME    : 239.925
#REALTIME    : 255.985
#PROBECUR    : 1.21591
#TAUWIND     : 0
#TDEADLYR    : 0
#TACTLYR     : 0.045
#TALWIND     : 0.025
#CHOFFSET    : 0.0
#XLABEL      : Energy (eV)
#YLABEL      : Counts
#XPOSITION   : 4.02572
#YPOSITION   : 17.48544
#ZPOSITION   : 37.36299
#EDSDET      : SD
##SPECIMEN   : GMIIIA K1229[8][all]
##D2STDCMP   : K1229,(O:41.02),(Mg:1.77),(Al:9.34),(Si:22.0),(Ca:10.51),(Sr:7.46),(Ba:7.9)
##DET_HASH   : 12273538-fd48-a23f-0a19-f1e6fa85caef
##CALIB_HASH : 6abaa72c-aa41-8738-0be9-f592914732f3
##WORKING    : 15.0 mm
##DET_NAME   : EDAX All
##DET_MODE   : MediumLE
#SPECTRUM    :
33,
22,
19,
21,
107,
420,
1060,
2675,
6335,
9000,
7436,
5587,
4816,
5190,
7935,
25757,
95085,
179713,
130531,
36167,
6600,
3689,
3792,
3990,
4014,
4417,
5044,
4746,
4401,
4453,
4439,
4782,
5160,
5480,
5764,
5907,
5610,
5448,
5433,
5972,
9477,
16590,
18592,
12730,
7694,
6214,
7127,
13800,
39006,
75837,
76468,
41852,
16484,
9099,
8039,
15026,
51903,
130810,
181094,
140236,
76058,
41151,
23869,
13641,
8076,
5515,
4378,
3667,
3397,
3215,
3065,
3021,
3039,
3312,
3400,
3508,
3520,
3315,
3169,
3084,
3009,
2901,
2963,
2978,
2887,
2787,
2871,
2882,
2783,
2850,
2908,
2876,
2850,
2757,
2808,
2678,
2693,
2652,
2696,
2842,
2756,
2593,
2636,
2534,
2593,
2505,
2546,
2639,
2678,
2606,
2589,
2456,
2375,
2352,
2403,
2411,
2537,
2753,
2916,
3753,
7305,
16198,
28950,
36128,
30541,
17993,
7781,
3467,
2462,
2246,
2499,
3286,
4455,
5897,
6281,
5284,
3647,
2495,
2078,
1918,
1779,
1822,
1820,
1846,
1922,
2229,
3161,
5240,
7446,
8409,
7093,
4711,
2811,
1959,
1655,
1597,
1616,
1759,
2176,
3100,
3979,
4546,
4372,
3386,
2785,
2269,
1938,
1688,
1617,
1720,
2016,
2299,
2476,
2241,
1853,
1568,
1397,
1401,
1312,
1378,
1415,
1436,
1467,
1725,
1659,
1579,
1529,
1409,
1248,
1261,
1223,
1236,
1312,
1289,
1370,
1260,
1224,
1129,
1136,
1132,
1164,
1120,
1146,
1104,
1005,
994,
1019,
986,
1057,
1018,
972,
1087,
1026,
961,
1020,
979,
991,
966,
958,
939,
933,
909,
930,
901,
894,
857,
851,
855,
828,
905,
858,
870,
884,
849,
822,
805,
788,
832,
803,
802,
747,
736,
789,
746,
813,
786,
743,
712,
736,
775,
745,
782,
673,
732,
685,
724,
696,
678,
648,
717,
664,
653,
640,
620,
658,
639,
618,
606,
581,
610,
625,
597,
644,
618,
586,
593,
554,
530,
542,
564,
549,
567,
537,
560,
589,
559,
535,
528,
477,
505,
488,
489,
475,
445,
492,
532,
482,
450,
472,
465,
445,
501,
429,
480,
484,
475,
445,
445,
430,
447,
398,
444,
424,
415,
409,
402,
394,
393,
395,
437,
360,
382,
372,
395,
385,
368,
373,
357,
360,
355,
339,
332,
339,
323,
345,
327,
304,
314,
372,
313,
319,
304,
304,
297,
319,
292,
285,
306,
288,
266,
280,
275,
235,
273,
288,
263,
300,
234,
259,
231,
243,
265,
266,
255,
234,
241,
226,
238,
224,
230,
210,
202,
202,
200,
228,
224,
207,
196,
206,
230,
208,
176,
210,
204,
205,
188,
181,
180,
184,
154,
165,
160,
157,
156,
165,
139,
173,
125,
171,
149,
152,
145,
162,
127,
130,
135,
153,
132,
136,
126,
126,
159,
111,
116,
132,
103,
135,
135,
108,
111,
116,
108,
103,
104,
112,
97,
91,
94,
86,
103,
83,
79,
77,
88,
70,
91,
85,
82,
91,
88,
63,
65,
55,
61,
77,
50,
61,
59,
62,
66,
58,
50,
61,
59,
53,
58,
41,
52,
47,
38,
43,
37,
38,
41,
47,
33,
43,
37,
29,
21,
28,
26,
24,
27,
31,
28,
27,
18,
20,
12,
24,
13,
19,
15,
11,
15,
14,
14,
16,
10,
5,
13,
6,
6,
4,
3,
4,
2,
4,
1,
0,
2,
2,
2,
0,
2,
1,
0,
1,
1,
0,
0,
0,
0,
1,
0,
0,
3,
0,
0,
1,
1,
0,
1,
0,
0,
0,
0,
1,
0,
0,
0,
0,
0,
0,
0,
1,
0,
1,
0,
0,
0,
0,
0,
0,
0,
0,
0,
0,
0,
0,
0,
0,
0,
0,
0,
0,
0,
2,
0,
0,
1,
0,
0,
0,
0,
1,
0,
0,
0,
0,
0,
0,
0,
0,
0,
0,
0,
3,
0,
0,
0,
1,
0,
0,
0,
0,
0,
0,
0,
0,
0,
0,
0,
0,
0,
0,
0,
0,
0,
0,
0,
0,
0,
0,
0,
0,
1,
0,
0,
0,
1,
0,
0,
0,
0,
0,
0,
1,
0,
0,
0,
0,
0,
0,
0,
0,
0,
0,
0,
0,
0,
1,
0,
0,
0,
0,
1,
0,
0,
0,
0,
0,
0,
0,
0,
0,
0,
0,
0,
0,
0,
0,
0,
0,
0,
1,
0,
1,
0,
0,
0,
0,
0,
0,
0,
0,
0,
0,
0,
0,
0,
0,
0,
0,
0,
0,
1,
0,
0,
0,
1,
0,
1,
0,
0,
0,
0,
0,
0,
0,
0,
0,
0,
0,
1,
0,
0,
0,
0,
0,
0,
0,
0,
0,
0,
0,
0,
0,
0,
0,
0,
0,
0,
0,
0,
0,
0,
0,
0,
0,
0,
0,
0,
0,
0,
0,
0,
0,
0,
0,
0,
0,
0,
0,
0,
0,
0,
0,
0,
0,
0,
0,
0,
0,
0,
0,
0,
0,
0,
0,
0,
0,
0,
0,
0,
0,
0,
0,
0,
0,
0,
0,
0,
0,
0,
0,
0,
0,
0,
0,
0,
0,
0,
0,
0,
0,
0,
0,
0,
0,
0,
0,
0,
0,
0,
0,
0,
0,
0,
0,
0,
0,
0,
0,
0,
0,
0,
0,
0,
0,
0,
0,
0,
0,
0,
0,
0,
0,
0,
0,
0,
0,
0,
0,
0,
0,
0,
0,
0,
0,
0,
0,
0,
0,
0,
0,
0,
0,
0,
0,
0,
0,
0,
0,
0,
0,
0,
0,
0,
0,
0,
0,
0,
0,
0,
0,
0,
0,
0,
0,
0,
0,
0,
0,
0,
0,
0,
0,
0,
0,
0,
0,
0,
0,
0,
0,
0,
0,
0,
0,
0,
0,
0,
0,
0,
0,
0,
0,
0,
0,
0,
0,
0,
0,
0,
0,
0,
0,
0,
0,
0,
0,
0,
0,
0,
0,
0,
0,
0,
0,
0,
0,
0,
0,
0,
0,
0,
0,
0,
0,
0,
0,
0,
0,
0,
0,
0,
0,
0,
0,
0,
0,
0,
0,
0,
0,
0,
0,
0,
0,
0,
0,
0,
0,
0,
0,
0,
0,
0,
0,
0,
0,
0,
0,
0,
0,
0,
0,
0,
0,
0,
0,
0,
0,
0,
0,
0,
0,
0,
0,
0,
0,
0,
0,
0,
0,
0,
0,
0,
0,
0,
0,
0,
0,
0,
0,
0,
0,
0,
0,
0,
0,
0,
0,
0,
0,
0,
0,
0,
0,
0,
0,
0,
0,
0,
0,
0,
0,
0,
0,
0,
0,
0,
0,
0,
0,
0,
0,
0,
0,
0,
0,
0,
0,
0,
0,
0,
0,
0,
0,
0,
0,
0,
0,
0,
0,
0,
0,
0,
0,
0,
0,
0,
0,
0,
0,
0,
0,
0,
0,
0,
0,
0,
0,
0,
0,
0,
0,
0,
0,
0,
0,
0,
0,
0,
0,
0,
0,
0,
0,
0,
0,
0,
0,
0,
0,
0,
0,
0,
0,
0,
0,
0,
0,
0,
0,
0,
0,
0,
0,
0,
0,
0,
0,
0,
0,
0,
0,
0,
0,
0,
0,
0,
0,
0,
0,
0,
0,
0,
0,
0,
0,
0,
0,
0,
0,
0,
0,
0,
0,
0,
0,
0,
0,
0,
0,
0,
0,
0,
0,
0,
0,
0,
0,
0,
0,
0,
0,
0,
0,
0,
0,
0,
0,
0,
0,
0,
0,
0,
0,
0,
0,
0,
0,
0,
0,
0,
0,
0,
0,
0,
0,
0,
0,
0,
0,
0,
0,
0,
0,
0,
0,
0,
0,
0,
0,
0,
0,
0,
0,
0,
0,
0,
0,
0,
0,
0,
0,
0,
0,
0,
0,
0,
0,
0,
0,
0,
0,
0,
0,
0,
0,
0,
0,
0,
0,
0,
0,
0,
0,
0,
0,
0,
0,
0,
0,
0,
0,
0,
0,
0,
0,
0,
0,
0,
0,
0,
0,
0,
0,
0,
0,
0,
0,
0,
0,
0,
0,
0,
0,
0,
0,
0,
0,
0,
0,
0,
0,
0,
0,
0,
0,
0,
0,
0,
0,
0,
0,
0,
0,
0,
0,
0,
0,
0,
0,
0,
0,
0,
0,
0,
0,
0,
0,
0,
0,
0,
0,
0,
0,
0,
0,
0,
0,
0,
0,
0,
0,
0,
0,
0,
0,
0,
0,
0,
0,
0,
0,
0,
0,
0,
0,
0,
0,
0,
0,
0,
0,
0,
0,
0,
0,
0,
0,
0,
0,
0,
0,
0,
0,
0,
0,
0,
0,
0,
0,
0,
0,
0,
0,
0,
0,
0,
0,
0,
0,
0,
0,
0,
0,
0,
0,
0,
0,
0,
0,
0,
0,
0,
0,
0,
0,
0,
0,
0,
0,
0,
0,
0,
0,
0,
0,
0,
0,
0,
0,
0,
0,
0,
0,
0,
0,
0,
0,
0,
#ENDOFDATA   :