File: N132962/Quantification/15 keV/GMIIIA/GMIIIA K249[6][4].msa
#FORMAT      : EMSA/MAS Spectral Data File
#VERSION     : 1.0
#TITLE       : GMIIIA K249[6][all]
#DATE        : 22-SEP-2025
#TIME        : 15:11
#OWNER       : Unknown
#NPOINTS     : 4096
#NCOLUMNS    : 1
#XUNITS      : eV
#YUNITS      : counts
#DATATYPE    : Y
#XPERCHAN    : 9.99778
#OFFSET      : 1.69135
#BEAMKV      : 15
#SIGNALTYPE  : EDS
#ELEVANGLE   : 35
#AZIMANGLE   : 0
#LIVETIME    : 239.995
#REALTIME    : 258.985
#PROBECUR    : 1.21732
#TAUWIND     : 0
#TDEADLYR    : 0
#TACTLYR     : 0.045
#TALWIND     : 0.025
#CHOFFSET    : 0.0
#XLABEL      : Energy (eV)
#YLABEL      : Counts
#XPOSITION   : 9.13231
#YPOSITION   : 2.24187
#ZPOSITION   : 37.36299
#EDSDET      : SD
##SPECIMEN   : GMIIIA K249[6][all]
##D2STDCMP   : K249,(O:24.49),(Al:2.65),(Si:14.02),(Ba:8.96),(Ta:8.19),(Pb:39.45),(Bi:2.24)
##DET_HASH   : 12273538-fd48-a23f-0a19-f1e6fa85caef
##CALIB_HASH : 6abaa72c-aa41-8738-0be9-f592914732f3
##WORKING    : 15.0 mm
##DET_NAME   : EDAX All
##DET_MODE   : MediumLE
#SPECTRUM    :
26,
36,
6,
50,
194,
789,
2225,
5000,
10056,
12755,
8837,
6831,
6854,
7256,
9186,
21187,
63852,
116999,
85541,
27443,
10077,
7488,
7105,
7361,
7471,
7651,
7748,
7642,
7162,
7066,
7128,
7387,
7775,
8161,
7996,
8130,
8058,
7832,
7904,
7893,
8086,
8360,
8757,
9220,
10165,
10097,
9608,
11391,
18655,
29322,
29448,
19313,
11903,
9936,
11216,
21479,
57950,
121398,
152400,
110225,
52021,
24220,
14419,
9600,
7759,
7136,
7066,
6635,
6189,
6255,
6484,
6931,
7505,
8102,
9195,
12828,
25306,
50830,
73467,
72205,
59807,
55356,
47202,
29365,
15166,
8744,
7095,
7220,
8294,
7928,
6725,
5626,
4820,
4570,
4533,
4606,
4708,
4738,
4697,
4770,
4883,
5264,
5348,
5432,
5240,
4884,
4684,
4532,
4431,
4231,
4172,
4173,
4175,
4147,
4157,
4120,
4288,
4283,
4162,
4104,
4035,
4016,
3866,
3962,
3849,
4027,
3944,
3950,
3900,
3999,
4002,
3923,
4115,
4094,
3937,
3743,
3853,
3906,
3786,
3738,
3652,
3626,
3714,
3763,
3848,
4169,
5411,
8050,
10541,
11632,
10162,
7326,
4991,
3942,
3421,
3499,
3485,
3606,
4070,
5026,
6405,
6923,
6687,
5629,
4761,
4165,
3566,
3460,
3440,
3552,
3792,
4231,
4359,
4061,
3746,
3397,
3115,
3040,
2971,
2901,
2884,
2965,
3058,
3278,
3383,
3188,
3102,
2959,
2716,
2645,
2680,
2872,
2837,
2950,
2864,
2765,
2640,
2535,
2681,
2482,
2498,
2535,
2484,
2410,
2469,
2452,
2480,
2354,
2455,
2414,
2436,
2360,
2380,
2304,
2329,
2276,
2331,
2210,
2269,
2218,
2135,
2177,
2105,
2149,
2161,
2156,
2127,
2165,
2170,
1995,
2087,
2034,
2045,
2028,
2062,
1970,
2025,
2035,
2027,
2031,
1916,
1972,
1912,
1925,
1869,
1798,
1918,
1899,
1839,
1832,
1840,
1761,
1784,
1734,
1755,
1729,
1644,
1674,
1649,
1746,
1628,
1656,
1670,
1678,
1655,
1726,
1722,
1823,
2074,
2452,
2754,
3040,
2952,
2580,
2208,
1867,
1603,
1559,
1484,
1476,
1436,
1433,
1436,
1390,
1397,
1382,
1331,
1407,
1358,
1424,
1347,
1394,
1362,
1306,
1343,
1267,
1321,
1282,
1234,
1292,
1270,
1189,
1286,
1179,
1332,
1287,
1361,
1313,
1425,
1503,
1558,
1601,
1563,
1463,
1350,
1281,
1176,
1143,
1229,
1227,
1243,
1301,
1247,
1252,
1214,
1035,
1087,
1071,
979,
980,
968,
962,
967,
886,
1001,
949,
926,
882,
864,
917,
908,
919,
899,
843,
891,
880,
925,
993,
1162,
1314,
1476,
1515,
1448,
1353,
1156,
1025,
959,
844,
807,
825,
778,
811,
828,
760,
803,
748,
719,
665,
719,
649,
674,
674,
658,
607,
634,
707,
596,
650,
663,
565,
631,
559,
552,
567,
574,
569,
531,
546,
483,
531,
546,
500,
484,
535,
508,
489,
504,
464,
456,
485,
470,
414,
450,
452,
427,
459,
467,
407,
423,
409,
419,
391,
416,
400,
426,
403,
397,
457,
400,
454,
463,
432,
440,
441,
399,
352,
305,
301,
347,
298,
306,
294,
285,
286,
299,
285,
276,
270,
235,
206,
261,
204,
230,
222,
233,
237,
207,
223,
184,
197,
189,
184,
179,
196,
181,
177,
166,
154,
159,
135,
160,
139,
111,
152,
127,
152,
120,
121,
121,
109,
99,
87,
90,
117,
106,
89,
101,
68,
82,
87,
79,
75,
56,
57,
48,
50,
56,
47,
45,
53,
44,
33,
34,
29,
24,
21,
22,
21,
13,
12,
4,
8,
4,
6,
3,
4,
1,
6,
4,
4,
1,
1,
2,
1,
2,
2,
3,
2,
1,
0,
3,
2,
1,
0,
2,
2,
3,
2,
2,
2,
2,
4,
1,
2,
2,
0,
3,
1,
2,
1,
2,
1,
1,
1,
1,
0,
1,
2,
1,
2,
1,
0,
1,
1,
1,
2,
3,
1,
0,
0,
0,
2,
3,
1,
0,
0,
0,
0,
0,
5,
1,
1,
0,
2,
3,
4,
1,
0,
1,
0,
1,
1,
1,
0,
4,
2,
0,
2,
1,
2,
0,
0,
1,
4,
1,
2,
0,
3,
2,
1,
0,
2,
0,
2,
1,
0,
1,
1,
0,
2,
0,
1,
3,
0,
0,
0,
1,
2,
2,
0,
1,
0,
0,
0,
0,
0,
1,
0,
0,
0,
2,
0,
0,
0,
1,
1,
0,
0,
1,
1,
0,
1,
0,
3,
0,
1,
1,
0,
1,
0,
0,
0,
0,
1,
0,
1,
0,
1,
0,
0,
1,
0,
0,
1,
0,
0,
0,
3,
0,
0,
0,
1,
0,
0,
0,
0,
0,
0,
0,
1,
0,
1,
0,
0,
1,
0,
0,
0,
0,
0,
0,
0,
0,
0,
0,
0,
0,
0,
0,
0,
0,
0,
0,
1,
0,
1,
0,
0,
1,
0,
1,
0,
1,
0,
0,
0,
0,
0,
1,
0,
0,
0,
0,
1,
0,
0,
0,
0,
0,
0,
0,
0,
0,
0,
0,
0,
1,
0,
0,
0,
0,
0,
0,
1,
0,
0,
0,
0,
0,
1,
0,
0,
0,
0,
1,
0,
0,
0,
1,
0,
0,
0,
0,
0,
0,
2,
0,
0,
0,
0,
0,
0,
0,
0,
1,
0,
0,
0,
0,
0,
0,
0,
0,
0,
0,
0,
0,
0,
0,
0,
0,
0,
0,
0,
0,
0,
0,
0,
0,
0,
0,
0,
0,
0,
0,
0,
0,
0,
0,
0,
0,
0,
0,
0,
0,
0,
0,
0,
0,
0,
0,
0,
0,
0,
0,
0,
0,
0,
0,
0,
0,
0,
0,
0,
0,
0,
0,
0,
0,
0,
0,
1,
0,
0,
0,
0,
0,
0,
0,
0,
0,
0,
0,
0,
0,
0,
0,
0,
0,
0,
1,
0,
0,
0,
0,
0,
0,
0,
0,
0,
0,
0,
0,
0,
0,
0,
0,
0,
0,
0,
0,
0,
0,
0,
0,
0,
0,
0,
0,
0,
0,
0,
0,
0,
0,
0,
0,
0,
0,
0,
0,
0,
0,
0,
0,
0,
0,
0,
0,
0,
0,
0,
0,
0,
0,
0,
0,
0,
0,
0,
0,
0,
0,
0,
0,
0,
0,
0,
0,
0,
0,
0,
0,
0,
0,
0,
0,
0,
0,
0,
0,
0,
0,
0,
0,
0,
0,
0,
0,
0,
0,
0,
0,
0,
0,
0,
0,
0,
0,
0,
0,
0,
0,
0,
0,
0,
0,
0,
0,
0,
0,
0,
0,
0,
0,
0,
0,
0,
0,
0,
0,
0,
0,
0,
0,
0,
0,
0,
0,
0,
0,
0,
0,
0,
0,
0,
0,
0,
0,
0,
0,
0,
0,
0,
0,
0,
0,
0,
0,
0,
0,
0,
0,
0,
0,
0,
0,
0,
0,
0,
0,
0,
0,
0,
0,
0,
0,
0,
0,
0,
0,
0,
0,
0,
0,
0,
0,
0,
0,
0,
0,
0,
0,
0,
0,
0,
0,
0,
0,
0,
0,
0,
0,
0,
0,
0,
0,
0,
0,
0,
0,
0,
0,
0,
0,
0,
0,
0,
0,
0,
0,
0,
0,
0,
0,
0,
0,
0,
0,
0,
0,
0,
0,
0,
0,
0,
0,
0,
0,
0,
0,
0,
0,
0,
0,
0,
0,
0,
0,
0,
0,
0,
0,
0,
0,
0,
0,
0,
0,
0,
0,
0,
0,
0,
0,
0,
0,
0,
0,
0,
0,
0,
0,
0,
0,
0,
0,
0,
0,
0,
0,
0,
0,
0,
0,
0,
0,
0,
0,
0,
0,
0,
0,
0,
0,
0,
0,
0,
0,
0,
0,
0,
0,
0,
0,
0,
0,
0,
0,
0,
0,
0,
0,
0,
0,
0,
0,
0,
0,
0,
0,
0,
0,
0,
0,
0,
0,
0,
0,
0,
0,
0,
0,
0,
0,
0,
0,
0,
0,
0,
0,
0,
0,
0,
0,
0,
0,
0,
0,
0,
0,
0,
0,
0,
0,
0,
0,
0,
0,
0,
0,
0,
0,
0,
0,
0,
0,
0,
0,
0,
0,
0,
0,
0,
0,
0,
0,
0,
0,
0,
0,
0,
0,
0,
0,
0,
0,
0,
0,
0,
0,
0,
0,
0,
0,
0,
0,
0,
0,
0,
0,
0,
0,
0,
0,
0,
0,
0,
0,
0,
0,
0,
0,
0,
0,
0,
0,
0,
0,
0,
0,
0,
0,
0,
0,
0,
0,
0,
0,
0,
0,
0,
0,
0,
0,
0,
0,
0,
0,
0,
0,
0,
0,
0,
0,
0,
0,
0,
0,
0,
0,
0,
0,
0,
0,
0,
0,
0,
0,
0,
0,
0,
0,
0,
0,
0,
0,
0,
0,
0,
0,
0,
0,
0,
0,
0,
0,
0,
0,
0,
0,
0,
0,
0,
0,
0,
0,
0,
0,
0,
0,
0,
0,
0,
0,
0,
0,
0,
0,
0,
0,
0,
0,
0,
0,
0,
0,
0,
0,
0,
0,
0,
0,
0,
0,
0,
#ENDOFDATA   :