File: N132962/Quantification/15 keV/GMIIIA/GMIIIA K309[3][4].msa
#FORMAT      : EMSA/MAS Spectral Data File
#VERSION     : 1.0
#TITLE       : GMIIIA K309[3][all]
#DATE        : 22-SEP-2025
#TIME        : 15:23
#OWNER       : Unknown
#NPOINTS     : 4096
#NCOLUMNS    : 1
#XUNITS      : eV
#YUNITS      : counts
#DATATYPE    : Y
#XPERCHAN    : 9.99778
#OFFSET      : 1.69135
#BEAMKV      : 15
#SIGNALTYPE  : EDS
#ELEVANGLE   : 35
#AZIMANGLE   : 0
#LIVETIME    : 239.823
#REALTIME    : 255.338
#PROBECUR    : 1.21681
#TAUWIND     : 0
#TDEADLYR    : 0
#TACTLYR     : 0.045
#TALWIND     : 0.025
#CHOFFSET    : 0.0
#XLABEL      : Energy (eV)
#YLABEL      : Counts
#XPOSITION   : 12.50668
#YPOSITION   : 3.84334
#ZPOSITION   : 37.36299
#EDSDET      : SD
##SPECIMEN   : GMIIIA K309[3][all]
##D2STDCMP   : K309,(O:38.72),(Al:7.94),(Si:18.7),(Ca:10.72),(Fe:10.49),(Ba:13.43)
##DET_HASH   : 12273538-fd48-a23f-0a19-f1e6fa85caef
##CALIB_HASH : 6abaa72c-aa41-8738-0be9-f592914732f3
##WORKING    : 15.0 mm
##DET_NAME   : EDAX All
##DET_MODE   : MediumLE
#SPECTRUM    :
22,
36,
14,
18,
106,
434,
1372,
3448,
8827,
13101,
10045,
6936,
5864,
6205,
9054,
28452,
103096,
194101,
142959,
40889,
10566,
7352,
9745,
15715,
15168,
9101,
6358,
5193,
4298,
4040,
4016,
4404,
5031,
5336,
5731,
5759,
5126,
4693,
4755,
4851,
5020,
5024,
5206,
5169,
5163,
5590,
6397,
11578,
30753,
58734,
59698,
32727,
13171,
7186,
6723,
12918,
42324,
104206,
140572,
100651,
41845,
15659,
8199,
5289,
4303,
4103,
3962,
3865,
3649,
3646,
3542,
3497,
3370,
3637,
3742,
3823,
3934,
3643,
3502,
3391,
3309,
3186,
3290,
3324,
3315,
3271,
3228,
3312,
3274,
3203,
3251,
3040,
3146,
3026,
2977,
2935,
2909,
3006,
2827,
2931,
3041,
2878,
2932,
2855,
2749,
2753,
2736,
2828,
2908,
2788,
2608,
2613,
2670,
2527,
2651,
2678,
2792,
2806,
3040,
3887,
7863,
16963,
30181,
37780,
32034,
18655,
8289,
3797,
2500,
2587,
2876,
3513,
4868,
6197,
6614,
5501,
3797,
2687,
2193,
2051,
1980,
2011,
2008,
2075,
2288,
2865,
4614,
8001,
11784,
13301,
11193,
7155,
3869,
2505,
1884,
1856,
1849,
2153,
2860,
4150,
5924,
6912,
6344,
5097,
3703,
2896,
2373,
2005,
1922,
2134,
2537,
3101,
3354,
3065,
2411,
1874,
1625,
1470,
1463,
1412,
1499,
1533,
1747,
1906,
2029,
2066,
1875,
1511,
1376,
1304,
1376,
1398,
1480,
1581,
1420,
1414,
1314,
1337,
1289,
1216,
1249,
1200,
1155,
1182,
1129,
1161,
1185,
1131,
1335,
1990,
3506,
6136,
9353,
11066,
10445,
7706,
4786,
2671,
1515,
1168,
1066,
994,
949,
956,
958,
964,
987,
915,
948,
1029,
1019,
1129,
1318,
1665,
2012,
2130,
2077,
1659,
1392,
1083,
879,
918,
803,
840,
800,
822,
847,
790,
767,
861,
748,
732,
794,
727,
766,
727,
723,
750,
718,
718,
711,
739,
698,
704,
707,
661,
664,
703,
652,
662,
680,
690,
663,
699,
638,
607,
603,
623,
618,
601,
618,
610,
612,
610,
571,
552,
607,
578,
589,
555,
558,
569,
517,
583,
512,
512,
561,
533,
531,
521,
514,
518,
518,
477,
477,
516,
488,
467,
443,
439,
484,
445,
446,
444,
429,
423,
433,
389,
429,
414,
406,
376,
461,
389,
445,
427,
426,
393,
409,
415,
372,
356,
363,
382,
353,
379,
402,
346,
333,
354,
350,
307,
373,
354,
333,
364,
308,
315,
288,
297,
313,
304,
328,
293,
299,
300,
304,
335,
279,
307,
284,
303,
262,
303,
271,
244,
263,
267,
240,
240,
236,
247,
262,
244,
221,
222,
191,
226,
239,
235,
215,
201,
172,
231,
223,
216,
201,
214,
208,
216,
224,
167,
186,
182,
201,
147,
173,
160,
202,
173,
178,
175,
158,
163,
174,
160,
146,
153,
159,
148,
162,
131,
135,
147,
154,
116,
116,
128,
130,
112,
124,
119,
113,
105,
121,
110,
116,
110,
112,
105,
96,
103,
109,
84,
91,
82,
96,
88,
103,
75,
81,
85,
72,
75,
89,
67,
85,
62,
77,
73,
72,
64,
55,
62,
57,
52,
56,
50,
48,
53,
61,
63,
47,
34,
46,
42,
35,
43,
31,
31,
38,
31,
39,
31,
39,
34,
25,
31,
21,
29,
23,
24,
16,
20,
20,
26,
24,
21,
13,
12,
16,
4,
13,
8,
10,
6,
6,
4,
3,
1,
4,
3,
3,
0,
2,
0,
0,
1,
1,
2,
0,
2,
0,
0,
1,
0,
0,
1,
0,
1,
0,
0,
1,
0,
1,
1,
2,
3,
1,
1,
0,
0,
1,
0,
0,
0,
1,
1,
0,
1,
1,
2,
0,
1,
1,
0,
0,
0,
1,
0,
0,
0,
0,
0,
0,
0,
0,
0,
1,
0,
0,
0,
0,
0,
0,
0,
0,
0,
0,
1,
0,
1,
0,
0,
0,
0,
0,
0,
0,
0,
1,
0,
1,
1,
0,
2,
0,
1,
0,
0,
0,
1,
0,
0,
0,
0,
1,
0,
2,
0,
0,
0,
0,
1,
1,
0,
0,
0,
0,
0,
1,
0,
1,
0,
0,
0,
0,
0,
1,
1,
0,
1,
0,
0,
1,
0,
0,
0,
1,
0,
0,
0,
0,
0,
0,
0,
1,
0,
1,
1,
0,
0,
1,
0,
0,
0,
0,
1,
0,
0,
0,
0,
1,
0,
0,
0,
0,
0,
0,
1,
0,
0,
0,
0,
0,
0,
0,
0,
0,
0,
0,
0,
0,
0,
0,
0,
0,
0,
0,
0,
0,
0,
0,
0,
0,
0,
0,
0,
0,
0,
0,
0,
0,
0,
0,
0,
0,
0,
0,
0,
0,
0,
0,
0,
1,
0,
0,
0,
0,
0,
0,
0,
0,
0,
0,
0,
0,
0,
0,
0,
0,
0,
0,
0,
0,
0,
0,
0,
0,
0,
0,
0,
0,
0,
0,
0,
0,
0,
0,
0,
0,
0,
0,
0,
0,
0,
0,
0,
0,
0,
0,
0,
0,
0,
0,
0,
0,
0,
0,
0,
0,
0,
0,
0,
0,
0,
0,
0,
0,
0,
0,
0,
0,
0,
0,
0,
0,
0,
0,
0,
0,
0,
0,
0,
0,
0,
0,
0,
0,
0,
0,
0,
0,
0,
0,
0,
0,
0,
0,
0,
0,
0,
0,
0,
0,
0,
0,
0,
0,
0,
0,
0,
0,
0,
0,
0,
0,
0,
0,
0,
0,
0,
0,
0,
0,
0,
0,
0,
0,
0,
0,
0,
0,
0,
0,
0,
0,
0,
0,
0,
0,
0,
0,
0,
0,
0,
0,
0,
0,
0,
0,
0,
0,
0,
0,
0,
0,
0,
0,
0,
0,
0,
0,
0,
0,
0,
0,
0,
0,
0,
0,
0,
0,
0,
0,
0,
0,
0,
0,
0,
0,
0,
0,
0,
0,
0,
0,
0,
0,
0,
0,
0,
0,
0,
0,
0,
0,
0,
0,
0,
0,
0,
0,
0,
0,
0,
0,
0,
0,
0,
0,
0,
0,
0,
0,
0,
0,
0,
0,
0,
0,
0,
0,
0,
0,
0,
0,
0,
0,
0,
0,
0,
0,
0,
0,
0,
0,
0,
0,
0,
0,
0,
0,
0,
0,
0,
0,
0,
0,
0,
0,
0,
0,
0,
0,
0,
0,
0,
0,
0,
0,
0,
0,
0,
0,
0,
0,
0,
0,
0,
0,
0,
0,
0,
0,
0,
0,
0,
0,
0,
0,
0,
0,
0,
0,
0,
0,
0,
0,
0,
0,
0,
0,
0,
0,
0,
0,
0,
0,
0,
0,
0,
0,
0,
0,
0,
0,
0,
0,
0,
0,
0,
0,
0,
0,
0,
0,
0,
0,
0,
0,
0,
0,
0,
0,
0,
0,
0,
0,
0,
0,
0,
0,
0,
0,
0,
0,
0,
0,
0,
0,
0,
0,
0,
0,
0,
0,
0,
0,
0,
0,
0,
0,
0,
0,
0,
0,
0,
0,
0,
0,
0,
0,
0,
0,
0,
0,
0,
0,
0,
0,
0,
0,
0,
0,
0,
0,
0,
0,
0,
0,
0,
0,
0,
0,
0,
0,
0,
0,
0,
0,
0,
0,
0,
0,
0,
0,
0,
0,
0,
0,
0,
0,
0,
0,
0,
0,
0,
0,
0,
0,
0,
0,
0,
0,
0,
0,
0,
0,
0,
0,
0,
0,
0,
0,
0,
0,
0,
0,
0,
0,
0,
0,
0,
0,
0,
0,
0,
0,
0,
0,
0,
0,
0,
0,
0,
0,
0,
0,
0,
0,
0,
0,
0,
0,
0,
0,
0,
0,
0,
0,
0,
0,
0,
0,
0,
0,
0,
0,
0,
0,
0,
0,
0,
0,
0,
0,
0,
0,
0,
0,
0,
0,
0,
0,
0,
0,
0,
0,
0,
0,
0,
0,
0,
0,
0,
0,
0,
0,
0,
0,
0,
0,
0,
0,
0,
0,
0,
0,
0,
0,
0,
0,
0,
0,
0,
0,
0,
0,
0,
0,
0,
0,
0,
0,
0,
0,
0,
0,
0,
0,
0,
0,
0,
0,
0,
0,
0,
0,
0,
0,
0,
0,
0,
0,
0,
0,
0,
0,
0,
0,
0,
0,
0,
0,
0,
0,
0,
0,
0,
0,
0,
0,
0,
0,
0,
0,
0,
0,
0,
0,
0,
0,
0,
0,
0,
0,
0,
0,
0,
0,
0,
0,
0,
0,
0,
0,
0,
0,
0,
0,
0,
0,
0,
0,
0,
0,
0,
0,
0,
0,
0,
0,
0,
0,
0,
0,
0,
0,
0,
0,
0,
0,
0,
0,
0,
0,
0,
0,
0,
0,
0,
0,
0,
0,
0,
0,
0,
0,
0,
0,
0,
0,
0,
0,
0,
0,
0,
0,
0,
0,
0,
0,
0,
0,
0,
0,
0,
0,
0,
0,
0,
0,
0,
0,
0,
0,
0,
0,
0,
0,
0,
0,
0,
0,
0,
#ENDOFDATA   :