File: N132962/Quantification/15 keV/GMIIIA/GMIIIA K1012[4][4].msa
#FORMAT      : EMSA/MAS Spectral Data File
#VERSION     : 1.0
#TITLE       : GMIIIA K1012[4][all]
#DATE        : 22-SEP-2025
#TIME        : 21:25
#OWNER       : Unknown
#NPOINTS     : 4096
#NCOLUMNS    : 1
#XUNITS      : eV
#YUNITS      : counts
#DATATYPE    : Y
#XPERCHAN    : 9.99778
#OFFSET      : 1.69135
#BEAMKV      : 15
#SIGNALTYPE  : EDS
#ELEVANGLE   : 35
#AZIMANGLE   : 0
#LIVETIME    : 239.894
#REALTIME    : 256.561
#PROBECUR    : 1.21822
#TAUWIND     : 0
#TDEADLYR    : 0
#TACTLYR     : 0.045
#TALWIND     : 0.025
#CHOFFSET    : 0.0
#XLABEL      : Energy (eV)
#YLABEL      : Counts
#XPOSITION   : 6.9179
#YPOSITION   : 15.49222
#ZPOSITION   : 37.36299
#EDSDET      : SD
##SPECIMEN   : GMIIIA K1012[4][all]
##D2STDCMP   : K1012,(O:39.34),(Na:1.48),(Mg:9.05),(Al:7.94),(Si:18.7),(P:0.63),(K:1.66),(Ca:0.4),(Ga:1.49),(Se:0.71),(In:1.65),(Cs:1.89),(Ba:13.43),(Ce:1.63)
##DET_HASH   : 12273538-fd48-a23f-0a19-f1e6fa85caef
##CALIB_HASH : 6abaa72c-aa41-8738-0be9-f592914732f3
##WORKING    : 15.0 mm
##DET_NAME   : EDAX All
##DET_MODE   : MediumLE
#SPECTRUM    :
17,
20,
11,
12,
121,
428,
1136,
2950,
6499,
8138,
5798,
4916,
5723,
6769,
10939,
35091,
130052,
246175,
179490,
48706,
8815,
4704,
4685,
4705,
4716,
5330,
6019,
5590,
5058,
5288,
5592,
5797,
6798,
9826,
15388,
18284,
15353,
12736,
9716,
10323,
24631,
55603,
66374,
38974,
14046,
6478,
6097,
10716,
29334,
56710,
57058,
31144,
12611,
6904,
6277,
12485,
42631,
107406,
145015,
104011,
42499,
16100,
8325,
5089,
4021,
4235,
5636,
6622,
5776,
4232,
3484,
3464,
3317,
3359,
3552,
3711,
3678,
3451,
3307,
3154,
3041,
3061,
3054,
3046,
3039,
2981,
2987,
2867,
2957,
2959,
3074,
2876,
2929,
2819,
2789,
2838,
2924,
2850,
2843,
2815,
2893,
2812,
2805,
2717,
2788,
2768,
2951,
3682,
5683,
8925,
11272,
10426,
7297,
4410,
3348,
3234,
3625,
3579,
3526,
3561,
3581,
3383,
3750,
3957,
3683,
3133,
2631,
2349,
2224,
2316,
2403,
2528,
2667,
2480,
2368,
2122,
2089,
2001,
2042,
2035,
2339,
2906,
3577,
3830,
3670,
3568,
4570,
7354,
10697,
12036,
9995,
6589,
3994,
2861,
2694,
2438,
2351,
2431,
2990,
4395,
6496,
7459,
6952,
5495,
4116,
3008,
2549,
2069,
1874,
2037,
2333,
2877,
3286,
3080,
2661,
2380,
2141,
1986,
1692,
1613,
1597,
1475,
1628,
1872,
2008,
1962,
1928,
1741,
1546,
1443,
1373,
1410,
1428,
1469,
1372,
1369,
1240,
1265,
1199,
1233,
1214,
1195,
1190,
1149,
1138,
1124,
1063,
1110,
1035,
1048,
1027,
1061,
1089,
1110,
1044,
1094,
1042,
1020,
946,
980,
960,
953,
946,
900,
924,
929,
943,
881,
905,
895,
876,
860,
897,
909,
860,
796,
852,
804,
800,
795,
803,
795,
850,
865,
782,
807,
801,
783,
814,
800,
722,
769,
741,
722,
679,
693,
732,
697,
686,
722,
704,
720,
645,
631,
694,
660,
655,
669,
617,
656,
631,
610,
619,
626,
606,
595,
588,
626,
567,
558,
584,
594,
565,
543,
580,
553,
527,
579,
555,
521,
564,
539,
487,
489,
510,
518,
539,
478,
470,
485,
508,
490,
504,
519,
542,
652,
746,
738,
812,
730,
657,
568,
503,
445,
413,
390,
391,
415,
390,
433,
400,
408,
392,
390,
369,
406,
350,
383,
376,
406,
362,
391,
354,
402,
306,
338,
360,
354,
328,
352,
373,
376,
362,
356,
350,
314,
306,
288,
284,
280,
296,
279,
332,
280,
287,
259,
276,
280,
269,
289,
253,
253,
246,
246,
243,
250,
234,
250,
216,
237,
230,
250,
224,
249,
256,
252,
216,
242,
239,
215,
217,
223,
212,
211,
204,
201,
194,
187,
196,
185,
213,
164,
195,
180,
177,
160,
163,
168,
159,
156,
162,
158,
164,
152,
153,
144,
144,
147,
135,
124,
131,
145,
125,
146,
142,
126,
137,
112,
141,
106,
107,
109,
102,
113,
99,
102,
97,
95,
106,
95,
88,
81,
75,
97,
83,
79,
81,
103,
72,
70,
76,
81,
66,
67,
74,
70,
79,
65,
68,
63,
50,
46,
43,
57,
39,
46,
50,
48,
60,
41,
50,
39,
49,
49,
51,
34,
33,
37,
43,
29,
36,
30,
36,
40,
25,
23,
33,
23,
15,
22,
21,
16,
20,
17,
23,
15,
15,
17,
11,
13,
9,
10,
8,
3,
9,
5,
6,
6,
5,
1,
0,
0,
1,
1,
0,
0,
1,
1,
0,
1,
1,
0,
1,
0,
0,
0,
1,
2,
1,
0,
0,
0,
0,
0,
2,
0,
0,
0,
0,
0,
0,
2,
0,
1,
0,
0,
0,
0,
0,
0,
1,
0,
0,
0,
0,
0,
0,
1,
0,
0,
0,
0,
0,
1,
1,
1,
0,
0,
0,
0,
2,
1,
0,
0,
0,
0,
1,
0,
0,
0,
0,
1,
1,
0,
0,
0,
0,
0,
0,
1,
1,
1,
1,
1,
0,
0,
0,
0,
1,
0,
1,
0,
0,
0,
0,
0,
0,
0,
0,
1,
0,
0,
0,
0,
0,
0,
0,
0,
0,
0,
0,
0,
0,
0,
0,
0,
0,
0,
1,
0,
0,
0,
0,
0,
0,
1,
0,
0,
0,
0,
0,
0,
0,
0,
0,
0,
0,
0,
0,
0,
0,
1,
1,
0,
0,
0,
0,
0,
0,
0,
0,
0,
0,
0,
0,
0,
0,
0,
0,
0,
0,
0,
0,
0,
0,
0,
0,
0,
0,
0,
1,
0,
1,
0,
0,
0,
0,
0,
1,
0,
0,
0,
0,
0,
0,
0,
0,
0,
0,
1,
0,
0,
0,
0,
0,
0,
0,
0,
0,
0,
0,
1,
0,
0,
0,
0,
0,
0,
0,
0,
0,
0,
0,
0,
0,
0,
0,
0,
0,
0,
0,
0,
0,
0,
0,
0,
0,
0,
0,
0,
0,
0,
0,
0,
0,
0,
0,
0,
0,
0,
0,
0,
0,
0,
0,
0,
0,
0,
0,
0,
0,
0,
0,
0,
0,
0,
0,
0,
0,
0,
0,
0,
0,
0,
0,
0,
0,
0,
0,
0,
0,
0,
0,
0,
0,
0,
0,
0,
0,
0,
0,
0,
0,
0,
0,
0,
0,
0,
0,
0,
0,
0,
0,
0,
0,
0,
0,
0,
0,
0,
0,
0,
0,
0,
0,
0,
0,
0,
0,
0,
0,
0,
0,
0,
0,
0,
0,
0,
0,
0,
0,
0,
0,
0,
0,
0,
0,
0,
0,
0,
0,
0,
0,
0,
0,
0,
0,
0,
0,
0,
0,
0,
0,
0,
0,
0,
0,
0,
0,
0,
0,
0,
0,
0,
0,
0,
0,
0,
0,
0,
0,
0,
0,
0,
0,
0,
0,
0,
0,
0,
0,
0,
0,
0,
0,
0,
0,
0,
0,
0,
0,
0,
0,
0,
0,
0,
0,
0,
0,
0,
0,
0,
0,
0,
0,
0,
0,
0,
0,
0,
0,
0,
0,
0,
0,
0,
0,
0,
0,
0,
0,
0,
0,
0,
0,
0,
0,
0,
0,
0,
0,
0,
0,
0,
0,
0,
0,
0,
0,
0,
0,
0,
0,
0,
0,
0,
0,
0,
0,
0,
0,
0,
0,
0,
0,
0,
0,
0,
0,
0,
0,
0,
0,
0,
0,
0,
0,
0,
0,
0,
0,
0,
0,
0,
0,
0,
0,
0,
0,
0,
0,
0,
0,
0,
0,
0,
0,
0,
0,
0,
0,
0,
0,
0,
0,
0,
0,
0,
0,
0,
0,
0,
0,
0,
0,
0,
0,
0,
0,
0,
0,
0,
0,
0,
0,
0,
0,
0,
0,
0,
0,
0,
0,
0,
0,
0,
0,
0,
0,
0,
0,
0,
0,
0,
0,
0,
0,
0,
0,
0,
0,
0,
0,
0,
0,
0,
0,
0,
0,
0,
0,
0,
0,
0,
0,
0,
0,
0,
0,
0,
0,
0,
0,
0,
0,
0,
0,
0,
0,
0,
0,
0,
0,
0,
0,
0,
0,
0,
0,
0,
0,
0,
0,
0,
0,
0,
0,
0,
0,
0,
0,
0,
0,
0,
0,
0,
0,
0,
0,
0,
0,
0,
0,
0,
0,
0,
0,
0,
0,
0,
0,
0,
0,
0,
0,
0,
0,
0,
0,
0,
0,
0,
0,
0,
0,
0,
0,
0,
0,
0,
0,
0,
0,
0,
0,
0,
0,
0,
0,
0,
0,
0,
0,
0,
0,
0,
0,
0,
0,
0,
0,
0,
0,
0,
0,
0,
0,
0,
0,
0,
0,
0,
0,
0,
0,
0,
0,
0,
0,
0,
0,
0,
0,
0,
0,
0,
0,
0,
0,
0,
0,
0,
0,
0,
0,
0,
0,
0,
0,
0,
0,
0,
0,
0,
0,
0,
0,
0,
0,
0,
0,
0,
0,
0,
0,
0,
0,
0,
0,
0,
0,
0,
0,
0,
0,
0,
0,
0,
0,
0,
0,
0,
0,
0,
0,
0,
0,
0,
0,
0,
0,
0,
0,
0,
0,
0,
0,
0,
0,
0,
0,
0,
0,
0,
0,
0,
0,
0,
0,
0,
0,
0,
0,
0,
0,
0,
0,
0,
0,
0,
0,
0,
0,
0,
0,
0,
0,
0,
0,
0,
0,
0,
0,
0,
0,
0,
0,
0,
0,
0,
0,
0,
0,
0,
0,
0,
0,
0,
0,
0,
0,
0,
0,
0,
0,
0,
0,
0,
0,
0,
0,
0,
0,
0,
0,
0,
0,
0,
0,
0,
0,
0,
0,
0,
0,
0,
0,
0,
0,
0,
0,
0,
0,
0,
0,
0,
0,
0,
0,
0,
0,
0,
0,
0,
0,
0,
0,
0,
0,
0,
0,
0,
0,
0,
0,
0,
0,
0,
0,
0,
0,
0,
0,
0,
0,
0,
0,
0,
0,
0,
0,
0,
0,
0,
0,
0,
0,
0,
0,
0,
0,
0,
0,
0,
0,
0,
#ENDOFDATA   :