File: N132962/Quantification/15 keV/GMIIIA/GMIIIA K1008[0][4].msa
#FORMAT      : EMSA/MAS Spectral Data File
#VERSION     : 1.0
#TITLE       : GMIIIA K1008[0][all]
#DATE        : 22-SEP-2025
#TIME        : 21:41
#OWNER       : Unknown
#NPOINTS     : 4096
#NCOLUMNS    : 1
#XUNITS      : eV
#YUNITS      : counts
#DATATYPE    : Y
#XPERCHAN    : 9.99778
#OFFSET      : 1.69135
#BEAMKV      : 15
#SIGNALTYPE  : EDS
#ELEVANGLE   : 35
#AZIMANGLE   : 0
#LIVETIME    : 240.004
#REALTIME    : 256.524
#PROBECUR    : 1.21615
#TAUWIND     : 0
#TDEADLYR    : 0
#TACTLYR     : 0.045
#TALWIND     : 0.025
#CHOFFSET    : 0.0
#XLABEL      : Energy (eV)
#YLABEL      : Counts
#XPOSITION   : 11.40953
#YPOSITION   : 15.15429
#ZPOSITION   : 37.36299
#EDSDET      : SD
##SPECIMEN   : GMIIIA K1008[0][all]
##D2STDCMP   : K1008,(O:38.68),(Na:1.67),(Al:8.92),(Si:21.02),(Ca:6.75),(Rb:2.06),(Sr:10.05),(Zr:0.83),(Cs:2.12),(Ba:2.02),(Ho:1.96),(Tm:1.97),(Yb:1.98)
##DET_HASH   : 12273538-fd48-a23f-0a19-f1e6fa85caef
##CALIB_HASH : 6abaa72c-aa41-8738-0be9-f592914732f3
##WORKING    : 15.0 mm
##DET_NAME   : EDAX All
##DET_MODE   : MediumLE
#SPECTRUM    :
25,
39,
9,
28,
147,
420,
1099,
2704,
6168,
8623,
6608,
4924,
4852,
5305,
7952,
25315,
91059,
171694,
125114,
34076,
6093,
3695,
4134,
4346,
4287,
4472,
4538,
4779,
4809,
4946,
5311,
5586,
6334,
9745,
16056,
17429,
11441,
7211,
6448,
6621,
6411,
6171,
6310,
7211,
8761,
10301,
11575,
17703,
43987,
83258,
86179,
50517,
22620,
12185,
10178,
19060,
56993,
132947,
180425,
143279,
83876,
48873,
29121,
16918,
9706,
6323,
5294,
5106,
5163,
4762,
4361,
4018,
3725,
3662,
3706,
3770,
3599,
3449,
3323,
3131,
3096,
3112,
3108,
2951,
3069,
3019,
3019,
2902,
2962,
2935,
2878,
2939,
2980,
2925,
2846,
2823,
2855,
2873,
2897,
2908,
2782,
2880,
2745,
2743,
2759,
2755,
2790,
2748,
2858,
2758,
2732,
2595,
2631,
2545,
2624,
2604,
2803,
2715,
2855,
3500,
5823,
11390,
19541,
24137,
20398,
12311,
6141,
3278,
2498,
2450,
2491,
2953,
3684,
4518,
4703,
4117,
3126,
2477,
2135,
2145,
2548,
3034,
3642,
3820,
3536,
2998,
2639,
2872,
3369,
3625,
3392,
2831,
2714,
2561,
2734,
2667,
2298,
2155,
2148,
2226,
2441,
2548,
2344,
2339,
2286,
2176,
2018,
1783,
1669,
1638,
1700,
1789,
1878,
1860,
1744,
1707,
1586,
1635,
1557,
1513,
1499,
1467,
1539,
1561,
1601,
1543,
1490,
1411,
1343,
1345,
1291,
1345,
1280,
1331,
1348,
1328,
1300,
1263,
1283,
1243,
1247,
1201,
1196,
1169,
1238,
1138,
1179,
1180,
1117,
1147,
1207,
1208,
1169,
1201,
1145,
1112,
1099,
1040,
1056,
1102,
1178,
1274,
1431,
1545,
1659,
1476,
1352,
1093,
1042,
1052,
1027,
965,
954,
929,
962,
983,
1145,
1191,
1361,
1413,
1299,
1227,
1106,
1044,
1068,
1139,
1303,
1399,
1406,
1296,
1182,
1148,
1074,
919,
920,
869,
838,
823,
807,
785,
770,
810,
833,
805,
808,
832,
794,
855,
829,
861,
918,
869,
788,
738,
718,
745,
711,
746,
810,
796,
869,
860,
815,
744,
759,
608,
682,
656,
646,
638,
644,
695,
683,
628,
614,
624,
607,
542,
575,
542,
546,
522,
539,
496,
514,
468,
525,
505,
469,
485,
540,
502,
510,
525,
516,
491,
508,
472,
448,
447,
435,
494,
432,
475,
454,
496,
460,
446,
456,
415,
416,
399,
371,
401,
398,
382,
376,
390,
390,
367,
354,
375,
368,
371,
338,
366,
310,
315,
310,
299,
316,
351,
329,
314,
309,
326,
345,
313,
306,
305,
284,
287,
273,
283,
280,
267,
299,
270,
280,
252,
224,
251,
247,
244,
254,
233,
248,
219,
222,
243,
232,
231,
230,
222,
228,
209,
212,
176,
186,
216,
176,
219,
208,
182,
190,
175,
167,
193,
200,
150,
175,
193,
182,
151,
161,
167,
173,
150,
123,
142,
134,
139,
155,
127,
167,
144,
142,
129,
146,
124,
124,
116,
117,
109,
122,
122,
115,
109,
110,
111,
110,
78,
88,
86,
95,
74,
80,
77,
85,
86,
92,
72,
86,
82,
82,
77,
68,
77,
76,
77,
64,
62,
55,
58,
60,
56,
54,
59,
57,
59,
57,
63,
44,
50,
39,
61,
44,
37,
44,
27,
35,
49,
33,
40,
25,
29,
26,
25,
23,
30,
17,
26,
26,
18,
22,
16,
17,
14,
12,
19,
8,
10,
13,
8,
5,
12,
5,
1,
2,
1,
1,
2,
4,
0,
1,
0,
0,
1,
0,
2,
1,
0,
0,
0,
1,
2,
0,
0,
0,
0,
1,
2,
0,
0,
0,
2,
1,
1,
0,
0,
0,
0,
0,
0,
0,
1,
0,
2,
0,
2,
0,
1,
0,
0,
0,
0,
0,
0,
0,
0,
0,
0,
0,
0,
0,
0,
0,
0,
0,
0,
0,
1,
0,
0,
0,
0,
1,
1,
0,
0,
1,
0,
2,
0,
0,
0,
1,
0,
0,
0,
0,
0,
0,
0,
0,
0,
0,
1,
1,
0,
0,
0,
2,
0,
0,
0,
0,
0,
0,
1,
0,
0,
0,
2,
0,
0,
0,
0,
0,
0,
0,
0,
0,
1,
0,
0,
0,
0,
0,
0,
0,
0,
0,
0,
0,
0,
0,
0,
0,
0,
0,
1,
0,
0,
0,
0,
1,
0,
0,
0,
0,
0,
0,
0,
0,
0,
0,
0,
0,
0,
0,
0,
0,
0,
0,
0,
0,
0,
0,
0,
0,
0,
0,
0,
0,
0,
1,
0,
0,
0,
0,
0,
0,
0,
0,
0,
0,
0,
0,
0,
0,
0,
0,
0,
0,
0,
0,
0,
0,
0,
0,
0,
0,
0,
0,
0,
0,
0,
0,
0,
0,
0,
0,
0,
0,
0,
0,
0,
0,
0,
0,
0,
0,
0,
0,
0,
0,
0,
0,
0,
1,
0,
0,
0,
0,
0,
0,
0,
0,
0,
0,
0,
0,
0,
0,
0,
0,
0,
0,
0,
0,
0,
0,
0,
0,
0,
0,
0,
0,
1,
0,
0,
0,
0,
0,
0,
0,
0,
0,
0,
0,
0,
0,
0,
0,
0,
0,
0,
0,
0,
0,
0,
0,
0,
0,
0,
0,
0,
0,
0,
0,
0,
0,
0,
0,
0,
0,
0,
0,
0,
0,
0,
0,
0,
0,
0,
0,
0,
0,
0,
0,
0,
0,
0,
0,
0,
0,
0,
0,
0,
0,
0,
0,
0,
0,
0,
0,
0,
0,
0,
0,
0,
0,
0,
0,
0,
0,
0,
0,
0,
0,
0,
0,
0,
0,
0,
0,
0,
0,
0,
0,
0,
0,
0,
0,
0,
0,
0,
0,
0,
0,
0,
0,
0,
0,
0,
0,
0,
0,
0,
0,
0,
0,
0,
0,
0,
0,
0,
0,
0,
0,
0,
0,
0,
0,
0,
0,
0,
0,
0,
0,
0,
0,
0,
0,
0,
0,
0,
0,
0,
0,
0,
0,
0,
0,
0,
0,
0,
0,
0,
0,
0,
0,
0,
0,
0,
0,
0,
0,
0,
0,
0,
0,
0,
0,
0,
0,
0,
0,
0,
0,
0,
0,
0,
0,
0,
0,
0,
0,
0,
0,
0,
0,
0,
0,
0,
0,
0,
0,
0,
0,
0,
0,
0,
0,
0,
0,
0,
0,
0,
0,
0,
0,
0,
0,
0,
0,
0,
0,
0,
0,
0,
0,
0,
0,
0,
0,
0,
0,
0,
0,
0,
0,
0,
0,
0,
0,
0,
0,
0,
0,
0,
0,
0,
0,
0,
0,
0,
0,
0,
0,
0,
0,
0,
0,
0,
0,
0,
0,
0,
0,
0,
0,
0,
0,
0,
0,
0,
0,
0,
0,
0,
0,
0,
0,
0,
0,
0,
0,
0,
0,
0,
0,
0,
0,
0,
0,
0,
0,
0,
0,
0,
0,
0,
0,
0,
0,
0,
0,
0,
0,
0,
0,
0,
0,
0,
0,
0,
0,
0,
0,
0,
0,
0,
0,
0,
0,
0,
0,
0,
0,
0,
0,
0,
0,
0,
0,
0,
0,
0,
0,
0,
0,
0,
0,
0,
0,
0,
0,
0,
0,
0,
0,
0,
0,
0,
0,
0,
0,
0,
0,
0,
0,
0,
0,
0,
0,
0,
0,
0,
0,
0,
0,
0,
0,
0,
0,
0,
0,
0,
0,
0,
0,
0,
0,
0,
0,
0,
0,
0,
0,
0,
0,
0,
0,
0,
0,
0,
0,
0,
0,
0,
0,
0,
0,
0,
0,
0,
0,
0,
0,
0,
0,
0,
0,
0,
0,
0,
0,
0,
0,
0,
0,
0,
0,
0,
0,
0,
0,
0,
0,
0,
0,
0,
0,
0,
0,
0,
0,
0,
0,
0,
0,
0,
0,
0,
0,
0,
0,
0,
0,
0,
0,
0,
0,
0,
0,
0,
0,
0,
0,
0,
0,
0,
0,
0,
0,
0,
0,
0,
0,
0,
0,
0,
0,
0,
0,
0,
0,
0,
0,
0,
0,
0,
0,
0,
0,
0,
0,
0,
0,
0,
0,
0,
0,
0,
0,
0,
0,
0,
0,
0,
0,
0,
0,
0,
0,
0,
0,
0,
0,
0,
0,
0,
0,
0,
0,
0,
0,
0,
0,
0,
0,
0,
0,
0,
0,
0,
0,
0,
0,
0,
0,
0,
0,
0,
0,
0,
0,
0,
0,
0,
0,
0,
0,
0,
0,
0,
0,
0,
0,
0,
0,
0,
0,
0,
0,
0,
0,
0,
0,
0,
0,
0,
0,
0,
0,
0,
0,
0,
0,
0,
0,
0,
0,
0,
0,
0,
0,
0,
0,
0,
0,
0,
0,
0,
0,
0,
0,
0,
0,
0,
0,
0,
0,
0,
0,
0,
0,
0,
0,
0,
0,
0,
0,
0,
0,
0,
0,
0,
0,
0,
0,
0,
0,
0,
0,
0,
0,
0,
0,
0,
0,
0,
0,
0,
0,
0,
0,
0,
0,
0,
0,
0,
0,
0,
#ENDOFDATA   :