File: N132962/Quantification/15 keV/GMIIIA/GMIIIA K249[5][4].msa
#FORMAT      : EMSA/MAS Spectral Data File
#VERSION     : 1.0
#TITLE       : GMIIIA K249[5][all]
#DATE        : 22-SEP-2025
#TIME        : 15:09
#OWNER       : Unknown
#NPOINTS     : 4096
#NCOLUMNS    : 1
#XUNITS      : eV
#YUNITS      : counts
#DATATYPE    : Y
#XPERCHAN    : 9.99778
#OFFSET      : 1.69135
#BEAMKV      : 15
#SIGNALTYPE  : EDS
#ELEVANGLE   : 35
#AZIMANGLE   : 0
#LIVETIME    : 240.045
#REALTIME    : 259.044
#PROBECUR    : 1.21732
#TAUWIND     : 0
#TDEADLYR    : 0
#TACTLYR     : 0.045
#TALWIND     : 0.025
#CHOFFSET    : 0.0
#XLABEL      : Energy (eV)
#YLABEL      : Counts
#XPOSITION   : 9.11763
#YPOSITION   : 2.30568
#ZPOSITION   : 37.36299
#EDSDET      : SD
##SPECIMEN   : GMIIIA K249[5][all]
##D2STDCMP   : K249,(O:24.49),(Al:2.65),(Si:14.02),(Ba:8.96),(Ta:8.19),(Pb:39.45),(Bi:2.24)
##DET_HASH   : 12273538-fd48-a23f-0a19-f1e6fa85caef
##CALIB_HASH : 6abaa72c-aa41-8738-0be9-f592914732f3
##WORKING    : 15.0 mm
##DET_NAME   : EDAX All
##DET_MODE   : MediumLE
#SPECTRUM    :
21,
27,
11,
38,
202,
793,
2291,
5116,
10226,
12492,
9020,
6812,
6822,
7184,
9116,
20754,
64205,
116791,
85594,
27308,
10100,
7514,
6960,
7592,
7255,
7496,
7844,
7664,
7227,
7071,
6960,
7296,
7781,
7899,
8153,
8150,
8143,
7739,
7716,
7893,
8171,
8277,
8455,
9360,
10181,
10042,
9679,
11358,
18770,
29205,
29547,
19569,
11882,
10037,
11436,
21359,
58079,
120701,
153004,
110498,
51879,
24763,
14445,
9550,
7647,
7342,
6901,
6610,
6315,
6223,
6510,
6814,
7548,
7905,
9173,
12977,
25265,
51064,
73941,
71750,
60131,
55605,
47112,
29436,
14826,
8720,
7135,
7373,
8180,
8022,
6766,
5496,
4849,
4636,
4544,
4567,
4677,
4571,
4801,
4689,
4979,
5162,
5290,
5328,
5337,
4859,
4722,
4593,
4358,
4214,
4228,
4147,
4108,
4145,
4301,
4315,
4211,
4274,
4118,
4122,
3996,
3868,
4076,
3947,
3962,
3960,
3924,
3914,
3833,
3870,
3993,
4082,
4111,
4078,
3850,
3889,
3861,
3814,
3797,
3671,
3711,
3762,
3665,
3708,
3711,
4336,
5452,
7925,
10555,
11641,
10086,
7323,
5022,
3719,
3495,
3460,
3462,
3648,
4259,
5119,
6451,
7102,
6598,
5755,
4745,
4094,
3716,
3468,
3324,
3373,
3880,
4181,
4382,
4151,
3630,
3245,
3086,
2864,
2919,
2860,
2793,
2841,
3035,
3133,
3341,
3309,
3063,
2912,
2858,
2696,
2716,
2775,
2838,
2840,
2852,
2697,
2620,
2632,
2524,
2548,
2563,
2527,
2483,
2365,
2363,
2455,
2415,
2398,
2402,
2445,
2417,
2367,
2375,
2338,
2376,
2381,
2369,
2277,
2317,
2299,
2187,
2256,
2184,
2223,
2157,
2123,
2133,
2101,
2108,
2041,
2067,
1994,
2081,
1989,
2015,
2014,
2079,
2011,
2027,
1979,
1938,
1950,
1958,
1899,
1816,
1882,
1891,
1833,
1869,
1866,
1859,
1859,
1668,
1755,
1742,
1762,
1669,
1667,
1607,
1689,
1719,
1582,
1690,
1651,
1670,
1649,
1670,
1866,
2082,
2407,
2751,
3002,
2986,
2570,
2072,
1826,
1665,
1540,
1558,
1426,
1485,
1466,
1428,
1377,
1384,
1389,
1418,
1361,
1457,
1378,
1317,
1322,
1298,
1301,
1282,
1311,
1228,
1257,
1269,
1290,
1214,
1263,
1269,
1236,
1258,
1300,
1281,
1362,
1464,
1459,
1573,
1584,
1551,
1457,
1315,
1251,
1228,
1180,
1186,
1230,
1271,
1286,
1304,
1236,
1238,
1117,
1026,
1010,
1013,
1016,
1016,
977,
980,
978,
958,
955,
850,
945,
918,
862,
882,
832,
893,
900,
875,
886,
980,
1085,
1160,
1289,
1433,
1490,
1506,
1339,
1132,
1025,
887,
829,
835,
781,
826,
787,
827,
745,
800,
748,
690,
791,
698,
669,
682,
648,
629,
680,
633,
634,
679,
615,
610,
615,
605,
571,
559,
562,
539,
537,
560,
527,
602,
534,
555,
487,
527,
492,
510,
493,
470,
518,
466,
496,
476,
465,
442,
419,
443,
466,
434,
423,
415,
409,
404,
378,
399,
422,
380,
419,
386,
419,
424,
426,
463,
433,
427,
399,
365,
320,
331,
296,
299,
273,
335,
314,
299,
291,
284,
261,
253,
240,
232,
246,
251,
235,
221,
213,
228,
206,
226,
212,
203,
200,
210,
195,
180,
187,
207,
159,
164,
153,
150,
144,
133,
157,
157,
140,
131,
145,
139,
117,
95,
121,
104,
122,
113,
102,
94,
97,
86,
90,
89,
75,
70,
60,
64,
85,
56,
45,
49,
48,
43,
45,
34,
34,
36,
17,
34,
19,
20,
9,
17,
12,
4,
6,
5,
4,
4,
3,
3,
0,
5,
1,
1,
3,
3,
1,
5,
2,
2,
2,
2,
3,
1,
0,
2,
2,
3,
2,
3,
2,
1,
1,
2,
3,
1,
4,
0,
4,
0,
2,
1,
3,
6,
1,
2,
2,
2,
1,
2,
1,
1,
4,
2,
0,
2,
4,
1,
2,
0,
3,
1,
2,
1,
1,
0,
1,
1,
2,
1,
2,
0,
2,
1,
1,
1,
1,
3,
0,
0,
1,
3,
2,
1,
2,
0,
2,
1,
2,
0,
0,
1,
1,
1,
1,
1,
0,
2,
0,
1,
1,
2,
1,
1,
0,
2,
2,
0,
1,
1,
0,
0,
0,
0,
1,
0,
2,
2,
0,
0,
0,
0,
0,
2,
0,
0,
1,
0,
1,
1,
0,
1,
2,
0,
0,
1,
0,
0,
0,
0,
1,
1,
0,
0,
2,
0,
1,
1,
1,
1,
0,
1,
0,
0,
0,
0,
0,
0,
0,
0,
1,
0,
1,
0,
1,
0,
0,
0,
1,
1,
0,
0,
1,
0,
0,
0,
0,
0,
0,
0,
1,
0,
0,
0,
0,
0,
0,
1,
0,
0,
0,
0,
0,
0,
1,
0,
0,
0,
0,
0,
0,
0,
1,
1,
0,
0,
1,
0,
1,
0,
0,
0,
0,
0,
2,
0,
0,
0,
0,
1,
0,
0,
1,
1,
0,
0,
0,
0,
0,
0,
0,
0,
0,
0,
1,
0,
0,
0,
1,
0,
0,
0,
0,
0,
0,
0,
0,
0,
0,
0,
0,
0,
1,
0,
0,
0,
1,
0,
0,
0,
0,
0,
0,
0,
0,
0,
1,
0,
0,
0,
0,
0,
0,
0,
0,
0,
0,
0,
0,
1,
0,
0,
0,
0,
0,
0,
0,
0,
0,
0,
0,
0,
0,
0,
0,
0,
0,
0,
0,
0,
0,
0,
0,
0,
0,
0,
0,
0,
0,
0,
0,
0,
0,
0,
0,
0,
0,
0,
0,
0,
0,
0,
0,
0,
0,
0,
0,
0,
0,
0,
0,
0,
0,
0,
0,
0,
1,
0,
0,
0,
0,
0,
0,
0,
0,
0,
0,
0,
0,
0,
0,
0,
0,
0,
0,
0,
0,
0,
0,
0,
0,
0,
0,
0,
0,
0,
2,
0,
0,
0,
0,
0,
0,
0,
0,
0,
0,
0,
0,
0,
0,
0,
0,
0,
0,
0,
0,
0,
0,
0,
0,
0,
0,
0,
0,
0,
0,
0,
0,
0,
0,
0,
0,
0,
0,
1,
0,
0,
0,
0,
0,
0,
0,
0,
0,
0,
0,
0,
0,
0,
0,
0,
0,
0,
0,
0,
0,
0,
0,
0,
0,
0,
0,
0,
0,
0,
0,
0,
0,
0,
0,
0,
0,
0,
0,
0,
0,
0,
0,
0,
0,
0,
0,
0,
0,
0,
0,
0,
0,
0,
0,
0,
0,
0,
0,
0,
0,
0,
0,
0,
0,
0,
0,
0,
0,
0,
0,
0,
0,
0,
0,
0,
0,
0,
0,
0,
0,
0,
0,
0,
0,
0,
0,
0,
0,
0,
0,
0,
0,
0,
0,
0,
0,
0,
0,
0,
0,
0,
0,
0,
0,
0,
0,
0,
0,
0,
0,
0,
0,
0,
0,
0,
0,
0,
0,
0,
0,
0,
0,
0,
0,
0,
0,
0,
0,
0,
0,
0,
0,
0,
0,
0,
0,
0,
0,
0,
0,
0,
0,
0,
0,
0,
0,
0,
0,
0,
0,
0,
0,
0,
0,
0,
0,
0,
0,
0,
0,
0,
0,
0,
0,
0,
0,
0,
0,
0,
0,
0,
0,
0,
0,
0,
0,
0,
0,
0,
0,
0,
0,
0,
0,
0,
0,
0,
0,
0,
0,
0,
0,
0,
0,
0,
0,
0,
0,
0,
0,
0,
0,
0,
0,
0,
0,
0,
0,
0,
0,
0,
0,
0,
0,
0,
0,
0,
0,
0,
0,
0,
0,
0,
0,
0,
0,
0,
0,
0,
0,
0,
0,
0,
0,
0,
0,
0,
0,
0,
0,
0,
0,
0,
0,
0,
0,
0,
0,
0,
0,
0,
0,
0,
0,
0,
0,
0,
0,
0,
0,
0,
0,
0,
0,
0,
0,
0,
0,
0,
0,
0,
0,
0,
0,
0,
0,
0,
0,
0,
0,
0,
0,
0,
0,
0,
0,
0,
0,
0,
0,
0,
0,
0,
0,
0,
0,
0,
0,
0,
0,
0,
0,
0,
0,
0,
0,
0,
0,
0,
0,
0,
0,
0,
0,
0,
0,
0,
0,
0,
0,
0,
0,
0,
0,
0,
0,
0,
0,
0,
0,
0,
0,
0,
0,
0,
0,
0,
0,
0,
0,
0,
0,
0,
0,
0,
0,
0,
0,
0,
0,
0,
0,
0,
0,
0,
0,
0,
0,
0,
0,
0,
0,
0,
0,
0,
0,
0,
0,
0,
0,
0,
0,
0,
0,
0,
0,
0,
0,
0,
0,
0,
0,
0,
0,
0,
0,
0,
0,
0,
0,
0,
0,
0,
0,
0,
0,
0,
0,
0,
0,
0,
0,
0,
0,
0,
0,
0,
0,
0,
0,
0,
0,
0,
0,
0,
0,
0,
0,
0,
0,
0,
0,
0,
0,
0,
0,
0,
0,
0,
0,
0,
0,
0,
0,
0,
0,
0,
0,
0,
0,
0,
0,
0,
0,
0,
0,
0,
0,
0,
0,
0,
0,
0,
0,
0,
0,
0,
0,
0,
0,
0,
0,
#ENDOFDATA   :