File: N132962/Quantification/15 keV/GMIIIA/GMIIIA K1001[8][4].msa
#FORMAT      : EMSA/MAS Spectral Data File
#VERSION     : 1.0
#TITLE       : GMIIIA K1001[8][all]
#DATE        : 22-SEP-2025
#TIME        : 22:01
#OWNER       : Unknown
#NPOINTS     : 4096
#NCOLUMNS    : 1
#XUNITS      : eV
#YUNITS      : counts
#DATATYPE    : Y
#XPERCHAN    : 9.99778
#OFFSET      : 1.69135
#BEAMKV      : 15
#SIGNALTYPE  : EDS
#ELEVANGLE   : 35
#AZIMANGLE   : 0
#LIVETIME    : 239.947
#REALTIME    : 256.238
#PROBECUR    : 1.21595
#TAUWIND     : 0
#TDEADLYR    : 0
#TACTLYR     : 0.045
#TALWIND     : 0.025
#CHOFFSET    : 0.0
#XLABEL      : Energy (eV)
#YLABEL      : Counts
#XPOSITION   : 13.53344
#YPOSITION   : 15.08412
#ZPOSITION   : 37.36299
#EDSDET      : SD
##SPECIMEN   : GMIIIA K1001[8][all]
##D2STDCMP   : K1001,(O:39.47),(Na:1.67),(Mg:1.36),(Al:8.92),(Si:21.02),(K:1.87),(Ca:6.75),(Rb:2.06),(Sr:10.05),(Pr:1.92),(Nd:1.93),(Er:1.97),(Pb:1.04)
##DET_HASH   : 12273538-fd48-a23f-0a19-f1e6fa85caef
##CALIB_HASH : 6abaa72c-aa41-8738-0be9-f592914732f3
##WORKING    : 15.0 mm
##DET_NAME   : EDAX All
##DET_MODE   : MediumLE
#SPECTRUM    :
26,
30,
7,
36,
131,
408,
1183,
2995,
7245,
9608,
6647,
4700,
4459,
4939,
7613,
24614,
89438,
167769,
122152,
32612,
5839,
3453,
4143,
4537,
4681,
4390,
4363,
4539,
4810,
5195,
6101,
6988,
8007,
10628,
16032,
17017,
11124,
7256,
6279,
6499,
9398,
14774,
16496,
12060,
7951,
7708,
10133,
18020,
42415,
76309,
75733,
41307,
17096,
9776,
9397,
18654,
56769,
134581,
183535,
144832,
84216,
49580,
29302,
16754,
9486,
6027,
4530,
3779,
3298,
3097,
3094,
3216,
3190,
3429,
3460,
3571,
3852,
4247,
4437,
4317,
3987,
3884,
3636,
3375,
3033,
2892,
2909,
2904,
2969,
2931,
2885,
2791,
2865,
2852,
2730,
2841,
2705,
2744,
2840,
2891,
2737,
2682,
2741,
2667,
2640,
2666,
2969,
3224,
4322,
6609,
8618,
8739,
6355,
4134,
2896,
2675,
2756,
2926,
3177,
4053,
6390,
11808,
19444,
24082,
20476,
12268,
5836,
3059,
2310,
2230,
2297,
2696,
3444,
4369,
4595,
3960,
2983,
2327,
1991,
1882,
1978,
1819,
1872,
1804,
1809,
1831,
1853,
1885,
1779,
1869,
1783,
1896,
1757,
1713,
1683,
1735,
1656,
1690,
1540,
1638,
1576,
1609,
1598,
1710,
1625,
1947,
2329,
2882,
2925,
2610,
2180,
1934,
1895,
2169,
2337,
2225,
1998,
1682,
1453,
1468,
1528,
1781,
1906,
2016,
1903,
1672,
1585,
1513,
1469,
1632,
1737,
1814,
1700,
1554,
1557,
1535,
1400,
1348,
1321,
1205,
1220,
1213,
1284,
1273,
1298,
1251,
1250,
1143,
1146,
1161,
1184,
1165,
1146,
1081,
1052,
1012,
1092,
1043,
1020,
1113,
1119,
1059,
1026,
976,
958,
998,
968,
988,
1071,
1195,
1364,
1445,
1473,
1300,
1132,
1007,
910,
885,
844,
837,
837,
783,
878,
771,
776,
768,
789,
775,
792,
749,
773,
797,
774,
728,
773,
751,
769,
823,
868,
907,
830,
837,
860,
803,
751,
707,
719,
677,
660,
660,
730,
703,
660,
682,
665,
650,
642,
590,
614,
609,
558,
582,
584,
583,
547,
538,
541,
574,
525,
500,
551,
525,
532,
541,
473,
533,
525,
465,
465,
499,
544,
531,
492,
513,
527,
485,
489,
460,
457,
488,
430,
463,
456,
483,
423,
439,
425,
431,
420,
389,
391,
399,
418,
394,
404,
388,
382,
361,
362,
379,
352,
408,
330,
350,
341,
335,
323,
351,
350,
355,
358,
303,
333,
314,
301,
306,
306,
316,
323,
320,
332,
303,
287,
305,
268,
277,
258,
257,
284,
273,
263,
261,
240,
273,
250,
282,
255,
208,
239,
213,
223,
243,
247,
211,
202,
256,
224,
206,
246,
215,
191,
215,
198,
180,
195,
181,
164,
171,
184,
208,
169,
174,
172,
175,
156,
158,
170,
172,
153,
159,
135,
169,
147,
172,
162,
148,
147,
128,
129,
135,
138,
129,
123,
133,
112,
131,
118,
126,
111,
118,
111,
113,
90,
101,
118,
97,
102,
101,
91,
100,
83,
101,
85,
94,
93,
84,
77,
78,
84,
85,
87,
72,
68,
60,
71,
57,
52,
57,
54,
60,
45,
61,
67,
57,
46,
47,
59,
54,
37,
47,
34,
47,
41,
42,
31,
43,
40,
27,
40,
26,
33,
35,
32,
29,
25,
21,
31,
18,
22,
27,
17,
29,
27,
26,
11,
9,
12,
8,
12,
11,
9,
16,
4,
7,
3,
4,
3,
2,
2,
1,
0,
3,
0,
0,
2,
0,
0,
0,
1,
1,
0,
1,
0,
0,
0,
0,
1,
1,
0,
0,
0,
0,
1,
0,
1,
1,
2,
1,
2,
0,
0,
0,
0,
0,
0,
0,
0,
0,
1,
0,
0,
0,
0,
0,
0,
0,
0,
1,
0,
1,
0,
0,
0,
0,
0,
0,
0,
0,
0,
0,
0,
0,
0,
1,
0,
0,
0,
1,
0,
0,
0,
0,
0,
0,
0,
1,
1,
1,
0,
1,
0,
0,
0,
1,
1,
0,
0,
1,
0,
0,
0,
0,
0,
1,
0,
1,
1,
0,
0,
0,
0,
0,
0,
0,
0,
0,
0,
0,
1,
0,
0,
0,
1,
0,
0,
0,
1,
0,
0,
0,
0,
0,
0,
0,
0,
1,
0,
0,
0,
0,
0,
0,
0,
0,
0,
0,
0,
0,
0,
0,
0,
0,
1,
0,
0,
0,
0,
0,
0,
0,
0,
0,
0,
0,
0,
0,
0,
0,
0,
0,
0,
0,
0,
0,
0,
0,
0,
0,
0,
0,
0,
0,
0,
0,
0,
0,
0,
0,
0,
0,
0,
0,
0,
0,
0,
0,
0,
0,
0,
0,
0,
0,
0,
0,
0,
0,
0,
0,
0,
0,
0,
0,
0,
0,
1,
0,
0,
0,
0,
0,
0,
0,
0,
0,
0,
0,
0,
0,
0,
0,
0,
0,
0,
0,
0,
0,
0,
0,
0,
0,
0,
0,
0,
0,
0,
0,
0,
0,
0,
0,
0,
0,
0,
0,
0,
0,
0,
0,
0,
0,
0,
0,
0,
0,
0,
0,
0,
0,
0,
0,
0,
0,
0,
0,
0,
0,
0,
0,
0,
0,
0,
0,
0,
0,
0,
0,
0,
0,
0,
0,
0,
0,
0,
0,
0,
0,
0,
0,
0,
0,
0,
0,
0,
0,
0,
0,
0,
0,
0,
0,
0,
0,
0,
0,
0,
0,
0,
0,
0,
0,
0,
0,
0,
0,
0,
0,
0,
0,
0,
0,
0,
0,
0,
0,
0,
0,
0,
0,
0,
0,
0,
0,
0,
0,
0,
0,
0,
0,
0,
0,
0,
0,
0,
0,
0,
0,
0,
0,
0,
0,
0,
0,
0,
0,
0,
0,
0,
0,
0,
0,
0,
0,
0,
0,
0,
0,
0,
0,
0,
0,
0,
0,
0,
0,
0,
0,
0,
0,
0,
0,
0,
0,
0,
0,
0,
0,
0,
0,
0,
0,
0,
0,
0,
0,
0,
0,
0,
0,
0,
0,
0,
0,
0,
0,
0,
0,
0,
0,
0,
0,
0,
0,
0,
0,
0,
0,
0,
0,
0,
0,
0,
0,
0,
0,
0,
0,
0,
0,
0,
0,
0,
0,
0,
0,
0,
0,
0,
0,
0,
0,
0,
0,
0,
0,
0,
0,
0,
0,
0,
0,
0,
0,
0,
0,
0,
0,
0,
0,
0,
0,
0,
0,
0,
0,
0,
0,
0,
0,
0,
0,
0,
0,
0,
0,
0,
0,
0,
0,
0,
0,
0,
0,
0,
0,
0,
0,
0,
0,
0,
0,
0,
0,
0,
0,
0,
0,
0,
0,
0,
0,
0,
0,
0,
0,
0,
0,
0,
0,
0,
0,
0,
0,
0,
0,
0,
0,
0,
0,
0,
0,
0,
0,
0,
0,
0,
0,
0,
0,
0,
0,
0,
0,
0,
0,
0,
0,
0,
0,
0,
0,
0,
0,
0,
0,
0,
0,
0,
0,
0,
0,
0,
0,
0,
0,
0,
0,
0,
0,
0,
0,
0,
0,
0,
0,
0,
0,
0,
0,
0,
0,
0,
0,
0,
0,
0,
0,
0,
0,
0,
0,
0,
0,
0,
0,
0,
0,
0,
0,
0,
0,
0,
0,
0,
0,
0,
0,
0,
0,
0,
0,
0,
0,
0,
0,
0,
0,
0,
0,
0,
0,
0,
0,
0,
0,
0,
0,
0,
0,
0,
0,
0,
0,
0,
0,
0,
0,
0,
0,
0,
0,
0,
0,
0,
0,
0,
0,
0,
0,
0,
0,
0,
0,
0,
0,
0,
0,
0,
0,
0,
0,
0,
0,
0,
0,
0,
0,
0,
0,
0,
0,
0,
0,
0,
0,
0,
0,
0,
0,
0,
0,
0,
0,
0,
0,
0,
0,
0,
0,
0,
0,
0,
0,
0,
0,
0,
0,
0,
0,
0,
0,
0,
0,
0,
0,
0,
0,
0,
0,
0,
0,
0,
0,
0,
0,
0,
0,
0,
0,
0,
0,
0,
0,
0,
0,
0,
0,
0,
0,
0,
0,
0,
0,
0,
0,
0,
0,
0,
0,
0,
0,
0,
0,
0,
0,
0,
0,
0,
0,
0,
0,
0,
0,
0,
0,
0,
0,
0,
0,
0,
0,
0,
0,
0,
0,
0,
0,
0,
0,
0,
0,
0,
0,
0,
0,
0,
0,
0,
0,
0,
0,
0,
0,
0,
0,
0,
0,
0,
0,
0,
0,
0,
0,
0,
0,
0,
0,
0,
0,
0,
0,
0,
0,
0,
0,
0,
0,
0,
0,
0,
0,
0,
0,
0,
0,
0,
0,
0,
0,
0,
0,
0,
0,
0,
0,
0,
0,
0,
0,
0,
0,
0,
0,
0,
0,
0,
0,
0,
0,
0,
0,
0,
0,
0,
0,
0,
0,
0,
0,
0,
0,
0,
0,
0,
0,
0,
0,
0,
0,
0,
0,
0,
0,
0,
0,
0,
0,
0,
0,
0,
0,
0,
0,
0,
0,
0,
0,
#ENDOFDATA   :