File: N132962/Quantification/15 keV/GMIIIA/GMIIIA K326[0][4].msa
#FORMAT      : EMSA/MAS Spectral Data File
#VERSION     : 1.0
#TITLE       : GMIIIA K326[0][all]
#DATE        : 22-SEP-2025
#TIME        : 15:28
#OWNER       : Unknown
#NPOINTS     : 4096
#NCOLUMNS    : 1
#XUNITS      : eV
#YUNITS      : counts
#DATATYPE    : Y
#XPERCHAN    : 9.99778
#OFFSET      : 1.69135
#BEAMKV      : 15
#SIGNALTYPE  : EDS
#ELEVANGLE   : 35
#AZIMANGLE   : 0
#LIVETIME    : 239.889
#REALTIME    : 254.511
#PROBECUR    : 1.21681
#TAUWIND     : 0
#TDEADLYR    : 0
#TACTLYR     : 0.045
#TALWIND     : 0.025
#CHOFFSET    : 0.0
#XLABEL      : Energy (eV)
#YLABEL      : Counts
#XPOSITION   : 10.63196
#YPOSITION   : 3.75011
#ZPOSITION   : 37.36299
#EDSDET      : SD
##SPECIMEN   : GMIIIA K326[0][all]
##D2STDCMP   : K326,(B:9.32),(O:51.35),(Na:1.48),(Mg:18.15),(Si:13.98),(Ca:5.72)
##DET_HASH   : 12273538-fd48-a23f-0a19-f1e6fa85caef
##CALIB_HASH : 6abaa72c-aa41-8738-0be9-f592914732f3
##WORKING    : 15.0 mm
##DET_NAME   : EDAX All
##DET_MODE   : MediumLE
#SPECTRUM    :
26,
31,
5,
37,
159,
725,
1619,
2410,
5006,
7138,
5647,
4567,
4655,
5612,
10074,
38207,
146709,
278457,
202791,
52569,
6743,
3166,
4205,
4272,
3097,
2712,
2846,
2990,
3259,
3486,
3455,
3822,
4733,
7787,
13660,
14802,
9534,
5995,
6322,
13607,
49086,
120024,
144942,
81963,
24274,
6504,
3675,
3535,
3587,
3904,
3959,
3875,
3847,
3893,
4512,
9503,
33529,
83339,
112679,
80524,
33457,
12218,
6220,
3845,
2899,
2609,
2608,
2480,
2479,
2396,
2375,
2343,
2362,
2453,
2605,
2907,
2877,
2704,
2429,
2298,
2134,
2310,
2244,
2268,
2298,
2156,
2084,
2036,
2069,
2069,
2085,
1974,
1954,
2039,
1994,
1922,
1913,
1889,
2019,
2060,
2100,
1984,
1913,
1838,
1820,
1839,
1744,
1722,
1756,
1753,
1682,
1668,
1588,
1542,
1672,
1614,
1733,
1788,
1886,
2322,
4312,
9116,
16120,
20093,
17198,
10086,
4669,
2189,
1622,
1480,
1564,
1862,
2447,
3308,
3501,
3037,
2213,
1588,
1342,
1318,
1218,
1183,
1227,
1155,
1146,
1099,
1103,
1117,
1112,
1178,
1134,
1134,
1056,
1106,
1083,
1010,
989,
987,
998,
957,
1026,
999,
947,
997,
993,
966,
954,
894,
913,
894,
891,
849,
862,
869,
840,
824,
857,
803,
768,
890,
822,
840,
829,
830,
789,
766,
780,
745,
732,
722,
758,
734,
720,
760,
735,
723,
714,
676,
722,
696,
662,
711,
660,
669,
605,
664,
686,
632,
612,
637,
623,
623,
614,
568,
596,
613,
585,
617,
608,
572,
568,
548,
559,
548,
532,
508,
539,
545,
526,
515,
512,
514,
494,
480,
526,
508,
511,
447,
537,
453,
426,
456,
467,
488,
474,
429,
458,
440,
435,
436,
424,
418,
443,
432,
399,
408,
415,
445,
349,
408,
432,
384,
390,
398,
348,
389,
346,
403,
355,
397,
353,
362,
376,
368,
354,
349,
330,
339,
329,
323,
325,
299,
323,
340,
333,
316,
262,
287,
316,
279,
338,
325,
318,
290,
276,
277,
269,
262,
285,
272,
269,
274,
270,
260,
252,
254,
263,
252,
240,
249,
290,
251,
244,
232,
243,
254,
235,
243,
235,
213,
237,
199,
236,
216,
238,
187,
209,
225,
190,
196,
172,
212,
186,
187,
177,
186,
191,
178,
146,
148,
167,
169,
159,
174,
149,
159,
149,
175,
171,
167,
160,
143,
163,
161,
149,
161,
157,
150,
142,
145,
147,
143,
136,
143,
135,
130,
117,
118,
112,
124,
148,
113,
134,
114,
119,
141,
105,
100,
112,
102,
108,
111,
111,
121,
106,
97,
92,
86,
95,
85,
88,
71,
95,
84,
83,
97,
81,
83,
66,
81,
89,
84,
68,
56,
83,
73,
77,
69,
68,
67,
72,
74,
62,
71,
54,
58,
55,
57,
62,
54,
64,
38,
55,
49,
50,
46,
42,
54,
44,
58,
48,
47,
41,
39,
36,
38,
36,
38,
41,
34,
36,
32,
34,
41,
37,
45,
34,
32,
29,
30,
22,
20,
35,
27,
22,
25,
27,
18,
22,
25,
27,
16,
11,
19,
13,
22,
14,
15,
15,
11,
14,
11,
14,
17,
16,
8,
10,
13,
13,
13,
7,
8,
11,
7,
9,
5,
5,
5,
7,
6,
6,
6,
2,
2,
3,
6,
2,
3,
1,
1,
0,
0,
0,
0,
1,
1,
0,
0,
0,
0,
1,
0,
0,
0,
1,
0,
0,
0,
0,
0,
1,
0,
0,
0,
0,
0,
0,
2,
0,
0,
0,
0,
1,
0,
0,
0,
0,
0,
0,
0,
0,
1,
1,
2,
0,
0,
0,
0,
0,
0,
0,
0,
0,
0,
0,
0,
0,
0,
0,
0,
0,
0,
0,
0,
0,
0,
0,
0,
1,
0,
0,
0,
0,
0,
0,
0,
0,
0,
0,
0,
0,
0,
0,
0,
0,
0,
0,
0,
0,
0,
0,
1,
0,
0,
0,
0,
0,
0,
0,
0,
0,
0,
0,
0,
0,
0,
0,
0,
0,
0,
0,
0,
0,
0,
0,
0,
0,
0,
0,
0,
0,
0,
0,
0,
0,
1,
0,
0,
0,
0,
0,
0,
0,
0,
0,
0,
0,
1,
0,
0,
0,
0,
0,
0,
0,
0,
0,
0,
0,
0,
0,
0,
0,
0,
0,
0,
0,
0,
0,
0,
0,
0,
0,
0,
0,
0,
0,
0,
0,
0,
0,
0,
0,
0,
0,
0,
0,
0,
0,
0,
0,
0,
0,
0,
0,
0,
0,
0,
0,
0,
0,
0,
0,
0,
0,
0,
0,
0,
0,
0,
0,
0,
0,
0,
0,
0,
0,
0,
0,
0,
0,
0,
1,
0,
0,
0,
0,
0,
0,
0,
0,
0,
0,
0,
0,
0,
0,
0,
0,
0,
0,
0,
0,
0,
0,
0,
0,
0,
0,
0,
0,
0,
0,
0,
0,
0,
0,
0,
0,
0,
0,
0,
0,
0,
0,
0,
0,
0,
0,
0,
0,
0,
0,
0,
0,
0,
0,
0,
0,
0,
0,
0,
0,
0,
0,
0,
0,
0,
0,
0,
0,
0,
0,
0,
0,
0,
0,
0,
0,
0,
0,
0,
0,
0,
0,
0,
0,
0,
0,
0,
0,
0,
0,
0,
0,
0,
0,
0,
0,
0,
0,
0,
0,
0,
0,
0,
0,
0,
0,
0,
0,
0,
0,
0,
0,
0,
0,
0,
0,
0,
0,
0,
0,
0,
0,
0,
0,
0,
0,
0,
0,
0,
0,
0,
0,
0,
0,
0,
0,
0,
0,
0,
0,
0,
0,
0,
0,
0,
0,
0,
0,
0,
0,
0,
0,
0,
0,
0,
0,
0,
0,
0,
0,
0,
0,
0,
0,
0,
0,
0,
0,
0,
0,
0,
0,
0,
0,
0,
0,
0,
0,
0,
0,
0,
0,
0,
0,
0,
0,
0,
0,
0,
0,
0,
0,
0,
0,
0,
0,
0,
0,
0,
0,
0,
0,
0,
0,
0,
0,
0,
0,
0,
0,
0,
0,
0,
0,
0,
0,
0,
0,
0,
0,
0,
0,
0,
0,
0,
0,
0,
0,
0,
0,
0,
0,
0,
0,
0,
0,
0,
0,
0,
0,
0,
0,
0,
0,
0,
0,
0,
0,
0,
0,
0,
0,
0,
0,
0,
0,
0,
0,
0,
0,
0,
0,
0,
0,
0,
0,
0,
0,
0,
0,
0,
0,
0,
0,
0,
0,
0,
0,
0,
0,
0,
0,
0,
0,
0,
0,
0,
0,
0,
0,
0,
0,
0,
0,
0,
0,
0,
0,
0,
0,
0,
0,
0,
0,
0,
0,
0,
0,
0,
0,
0,
0,
0,
0,
0,
0,
0,
0,
0,
0,
0,
0,
0,
0,
0,
0,
0,
0,
0,
0,
0,
0,
0,
0,
0,
0,
0,
0,
0,
0,
0,
0,
0,
0,
0,
0,
0,
0,
0,
0,
0,
0,
0,
0,
0,
0,
0,
0,
0,
0,
0,
0,
0,
0,
0,
0,
0,
0,
0,
0,
0,
0,
0,
0,
0,
0,
0,
0,
0,
0,
0,
0,
0,
0,
0,
0,
0,
0,
0,
0,
0,
0,
0,
0,
0,
0,
0,
0,
0,
0,
0,
0,
0,
0,
0,
0,
0,
0,
0,
0,
0,
0,
0,
0,
0,
0,
0,
0,
0,
0,
0,
0,
0,
0,
0,
0,
0,
0,
0,
0,
0,
0,
0,
0,
0,
0,
0,
0,
0,
0,
0,
0,
0,
0,
0,
0,
0,
0,
0,
0,
0,
0,
0,
0,
0,
0,
0,
0,
0,
0,
0,
0,
0,
0,
0,
0,
0,
0,
0,
0,
0,
0,
0,
0,
0,
0,
0,
0,
0,
0,
0,
0,
0,
0,
0,
0,
0,
0,
0,
0,
0,
0,
0,
0,
0,
0,
0,
0,
0,
0,
0,
0,
0,
0,
0,
0,
0,
0,
0,
0,
0,
0,
0,
0,
0,
0,
0,
0,
0,
0,
0,
0,
0,
0,
0,
0,
0,
0,
0,
0,
0,
0,
0,
0,
0,
0,
0,
0,
0,
0,
0,
0,
0,
0,
0,
0,
0,
0,
0,
0,
0,
0,
0,
0,
0,
0,
0,
0,
0,
0,
0,
0,
0,
0,
0,
0,
0,
0,
0,
0,
0,
0,
0,
0,
0,
0,
0,
0,
0,
0,
0,
0,
0,
0,
0,
0,
0,
0,
0,
0,
0,
0,
0,
0,
0,
0,
0,
0,
0,
0,
0,
0,
0,
0,
0,
0,
0,
0,
0,
0,
0,
0,
0,
0,
0,
0,
0,
0,
0,
0,
0,
0,
0,
0,
0,
0,
0,
0,
0,
0,
0,
0,
0,
0,
0,
0,
0,
0,
0,
0,
0,
0,
0,
0,
0,
0,
0,
0,
0,
0,
0,
0,
0,
#ENDOFDATA   :