File: N132962/Quantification/15 keV/GMIIIA/GMIIIA K1132[0][4].msa
#FORMAT      : EMSA/MAS Spectral Data File
#VERSION     : 1.0
#TITLE       : GMIIIA K1132[0][all]
#DATE        : 22-SEP-2025
#TIME        : 22:22
#OWNER       : Unknown
#NPOINTS     : 4096
#NCOLUMNS    : 1
#XUNITS      : eV
#YUNITS      : counts
#DATATYPE    : Y
#XPERCHAN    : 9.99778
#OFFSET      : 1.69135
#BEAMKV      : 15
#SIGNALTYPE  : EDS
#ELEVANGLE   : 35
#AZIMANGLE   : 0
#LIVETIME    : 239.932
#REALTIME    : 255.343
#PROBECUR    : 1.21595
#TAUWIND     : 0
#TDEADLYR    : 0
#TACTLYR     : 0.045
#TALWIND     : 0.025
#CHOFFSET    : 0.0
#XLABEL      : Energy (eV)
#YLABEL      : Counts
#XPOSITION   : 8.25491
#YPOSITION   : 17.41329
#ZPOSITION   : 37.36299
#EDSDET      : SD
##SPECIMEN   : GMIIIA K1132[0][all]
##D2STDCMP   : K1132,(Li:2.32),(O:41.34),(Al:7.94),(Si:21.39),(Ca:10.72),(Cr:0.51),(Ni:1.18),(Mo:1.67),(Ba:13.43)
##DET_HASH   : 12273538-fd48-a23f-0a19-f1e6fa85caef
##CALIB_HASH : 6abaa72c-aa41-8738-0be9-f592914732f3
##WORKING    : 15.0 mm
##DET_NAME   : EDAX All
##DET_MODE   : MediumLE
#SPECTRUM    :
28,
22,
10,
22,
109,
416,
1194,
2992,
6865,
10054,
8409,
6287,
5456,
5618,
8652,
28326,
103962,
198237,
144361,
39495,
8141,
4305,
4290,
4336,
4433,
5206,
6024,
6390,
7099,
6529,
5168,
4821,
5211,
5469,
5756,
5711,
5440,
4967,
4826,
4831,
4877,
5070,
5255,
5122,
5369,
5430,
6530,
11783,
31989,
61486,
62699,
34088,
13584,
7088,
6707,
13964,
48061,
120676,
164492,
116051,
47819,
17208,
8714,
5285,
4218,
3788,
3866,
3664,
3585,
3453,
3436,
3388,
3344,
3717,
4389,
5700,
7062,
6970,
5806,
4988,
4795,
4254,
3736,
3489,
3277,
3187,
3114,
3105,
3042,
3080,
2852,
2886,
2963,
2872,
2853,
2770,
2685,
2810,
2790,
2708,
2786,
2765,
2654,
2655,
2650,
2623,
2604,
2586,
2755,
2600,
2524,
2455,
2400,
2380,
2444,
2509,
2616,
2714,
2861,
3827,
7418,
16501,
29403,
36592,
30921,
18442,
8038,
3565,
2460,
2304,
2650,
3385,
4809,
6021,
6299,
5360,
3595,
2479,
2091,
1911,
1956,
2042,
1945,
2027,
2164,
2729,
4502,
7719,
11493,
12894,
10583,
6867,
3727,
2248,
1780,
1655,
1640,
1905,
2664,
4017,
5812,
6687,
6178,
4825,
3721,
2856,
2192,
1853,
1779,
1959,
2424,
2992,
3229,
3008,
2360,
1840,
1588,
1468,
1727,
1862,
2091,
2156,
2094,
2062,
2007,
1999,
1719,
1464,
1342,
1236,
1298,
1398,
1432,
1485,
1412,
1419,
1276,
1197,
1307,
1164,
1171,
1137,
1142,
1043,
1020,
1039,
987,
977,
1072,
1001,
1017,
978,
1011,
1035,
1021,
964,
934,
926,
981,
962,
891,
907,
945,
905,
943,
856,
874,
913,
893,
872,
784,
846,
827,
826,
784,
830,
807,
832,
820,
802,
800,
823,
774,
826,
818,
851,
1021,
1197,
1302,
1386,
1395,
1126,
990,
772,
776,
717,
718,
651,
687,
688,
714,
672,
680,
628,
643,
579,
651,
679,
684,
668,
628,
602,
630,
637,
650,
680,
667,
644,
567,
585,
597,
556,
554,
579,
548,
560,
525,
500,
541,
524,
512,
570,
475,
477,
494,
524,
481,
467,
494,
419,
508,
481,
434,
515,
417,
437,
454,
426,
424,
466,
425,
476,
432,
400,
436,
429,
446,
366,
421,
380,
388,
409,
433,
396,
401,
392,
363,
370,
360,
367,
374,
375,
358,
360,
313,
348,
327,
345,
339,
314,
346,
314,
304,
330,
321,
311,
280,
299,
289,
287,
288,
292,
257,
300,
275,
290,
255,
243,
259,
259,
252,
242,
236,
251,
263,
241,
190,
219,
237,
234,
208,
229,
232,
243,
239,
195,
208,
204,
180,
198,
223,
188,
195,
208,
187,
191,
185,
175,
209,
176,
182,
173,
165,
176,
152,
144,
150,
164,
164,
153,
157,
138,
146,
148,
144,
149,
155,
115,
144,
118,
112,
128,
128,
111,
121,
123,
106,
102,
141,
124,
106,
104,
95,
110,
100,
107,
109,
105,
88,
107,
66,
93,
89,
78,
88,
89,
69,
78,
85,
87,
70,
68,
69,
75,
62,
63,
69,
65,
58,
63,
57,
62,
57,
60,
42,
47,
41,
54,
46,
50,
35,
52,
38,
33,
48,
35,
43,
38,
31,
29,
30,
29,
25,
31,
21,
37,
26,
18,
20,
19,
23,
16,
24,
16,
19,
28,
15,
20,
10,
12,
12,
9,
8,
10,
7,
6,
3,
1,
1,
4,
1,
1,
1,
1,
3,
1,
1,
0,
1,
2,
1,
1,
0,
1,
0,
0,
0,
2,
0,
2,
1,
0,
0,
2,
0,
1,
0,
0,
1,
0,
0,
0,
1,
0,
0,
1,
1,
0,
0,
0,
2,
1,
2,
0,
0,
0,
0,
1,
1,
0,
0,
1,
0,
1,
0,
0,
0,
0,
1,
0,
1,
0,
1,
1,
1,
0,
0,
0,
0,
1,
0,
0,
0,
0,
0,
0,
0,
0,
0,
1,
0,
0,
0,
1,
0,
0,
0,
0,
1,
0,
0,
0,
0,
0,
0,
0,
0,
1,
0,
0,
0,
0,
0,
1,
0,
0,
0,
0,
0,
0,
0,
0,
0,
0,
0,
1,
0,
1,
0,
0,
0,
0,
0,
0,
0,
0,
0,
0,
0,
0,
0,
0,
0,
0,
0,
0,
1,
0,
0,
0,
0,
0,
1,
0,
0,
0,
0,
0,
0,
0,
0,
0,
0,
1,
0,
0,
0,
0,
0,
0,
0,
0,
0,
0,
0,
0,
0,
0,
0,
0,
0,
0,
0,
0,
0,
0,
0,
0,
0,
0,
1,
0,
0,
0,
0,
0,
0,
0,
0,
0,
0,
0,
0,
0,
0,
0,
0,
0,
1,
0,
0,
0,
0,
0,
0,
0,
0,
0,
0,
0,
0,
0,
0,
0,
0,
0,
0,
0,
0,
0,
0,
0,
0,
0,
0,
0,
0,
0,
0,
0,
0,
0,
0,
0,
0,
0,
0,
0,
0,
0,
0,
0,
0,
0,
0,
0,
0,
0,
0,
0,
0,
0,
0,
0,
0,
0,
0,
0,
0,
0,
0,
0,
0,
0,
0,
0,
0,
0,
0,
0,
0,
0,
1,
0,
0,
0,
0,
0,
0,
0,
0,
0,
0,
0,
0,
0,
0,
0,
0,
0,
0,
0,
0,
0,
0,
0,
0,
0,
0,
0,
0,
0,
0,
0,
0,
0,
0,
0,
0,
0,
0,
0,
0,
0,
0,
0,
0,
0,
0,
0,
0,
0,
0,
0,
0,
0,
0,
0,
0,
0,
0,
0,
0,
0,
0,
0,
0,
0,
0,
0,
0,
0,
0,
0,
0,
0,
0,
0,
0,
0,
0,
0,
0,
0,
0,
0,
0,
0,
0,
0,
0,
0,
0,
0,
0,
0,
0,
0,
0,
0,
0,
0,
0,
0,
0,
0,
0,
0,
0,
0,
0,
0,
0,
0,
0,
0,
0,
0,
0,
0,
0,
0,
0,
0,
0,
0,
0,
0,
0,
0,
0,
0,
0,
0,
0,
0,
0,
0,
0,
0,
0,
0,
0,
0,
0,
0,
0,
0,
0,
0,
0,
0,
0,
0,
0,
0,
0,
0,
0,
0,
0,
0,
0,
0,
0,
0,
0,
0,
0,
0,
0,
0,
0,
0,
0,
0,
0,
0,
0,
0,
0,
0,
0,
0,
0,
0,
0,
0,
0,
0,
0,
0,
0,
0,
0,
0,
0,
0,
0,
0,
0,
0,
0,
0,
0,
0,
0,
0,
0,
0,
0,
0,
0,
0,
0,
0,
0,
0,
0,
0,
0,
0,
0,
0,
0,
0,
0,
0,
0,
0,
0,
0,
0,
0,
0,
0,
0,
0,
0,
0,
0,
0,
0,
0,
0,
0,
0,
0,
0,
0,
0,
0,
0,
0,
0,
0,
0,
0,
0,
0,
0,
0,
0,
0,
0,
0,
0,
0,
0,
0,
0,
0,
0,
0,
0,
0,
0,
0,
0,
0,
0,
0,
0,
0,
0,
0,
0,
0,
0,
0,
0,
0,
0,
0,
0,
0,
0,
0,
0,
0,
0,
0,
0,
0,
0,
0,
0,
0,
0,
0,
0,
0,
0,
0,
0,
0,
0,
0,
0,
0,
0,
0,
0,
0,
0,
0,
0,
0,
0,
0,
0,
0,
0,
0,
0,
0,
0,
0,
0,
0,
0,
0,
0,
0,
0,
0,
0,
0,
0,
0,
0,
0,
0,
0,
0,
0,
0,
0,
0,
0,
0,
0,
0,
0,
0,
0,
0,
0,
0,
0,
0,
0,
0,
0,
0,
0,
0,
0,
0,
0,
0,
0,
0,
0,
0,
0,
0,
0,
0,
0,
0,
0,
0,
0,
0,
0,
0,
0,
0,
0,
0,
0,
0,
0,
0,
0,
0,
0,
0,
0,
0,
0,
0,
0,
0,
0,
0,
0,
0,
0,
0,
0,
0,
0,
0,
0,
0,
0,
0,
0,
0,
0,
0,
0,
0,
0,
0,
0,
0,
0,
0,
0,
0,
0,
0,
0,
0,
0,
0,
0,
0,
0,
0,
0,
0,
0,
0,
0,
0,
0,
0,
0,
0,
0,
0,
0,
0,
0,
0,
0,
0,
0,
0,
0,
0,
0,
0,
0,
0,
0,
0,
0,
0,
0,
0,
0,
0,
0,
0,
0,
0,
0,
0,
0,
0,
0,
0,
0,
0,
0,
0,
0,
0,
0,
0,
0,
0,
0,
0,
0,
0,
0,
0,
0,
0,
0,
0,
0,
0,
0,
0,
0,
0,
0,
0,
0,
0,
0,
0,
0,
0,
0,
0,
0,
0,
0,
0,
0,
0,
0,
0,
0,
0,
0,
0,
0,
0,
0,
0,
0,
0,
0,
0,
0,
0,
0,
0,
0,
0,
0,
0,
0,
0,
0,
0,
0,
0,
0,
0,
0,
0,
0,
0,
0,
0,
0,
0,
0,
0,
0,
0,
0,
0,
0,
0,
0,
0,
0,
0,
0,
0,
0,
0,
0,
0,
0,
#ENDOFDATA   :