File: N132962/Quantification/15 keV/GMIIIA/GMIIIA K1235[4][4].msa
#FORMAT      : EMSA/MAS Spectral Data File
#VERSION     : 1.0
#TITLE       : GMIIIA K1235[4][all]
#DATE        : 22-SEP-2025
#TIME        : 23:19
#OWNER       : Unknown
#NPOINTS     : 4096
#NCOLUMNS    : 1
#XUNITS      : eV
#YUNITS      : counts
#DATATYPE    : Y
#XPERCHAN    : 9.99778
#OFFSET      : 1.69135
#BEAMKV      : 15
#SIGNALTYPE  : EDS
#ELEVANGLE   : 35
#AZIMANGLE   : 0
#LIVETIME    : 240.014
#REALTIME    : 255.9087
#PROBECUR    : 1.21388
#TAUWIND     : 0
#TDEADLYR    : 0
#TACTLYR     : 0.045
#TALWIND     : 0.025
#CHOFFSET    : 0.0
#XLABEL      : Energy (eV)
#YLABEL      : Counts
#XPOSITION   : 9.32632
#YPOSITION   : 18.97791
#ZPOSITION   : 37.36299
#EDSDET      : SD
##SPECIMEN   : GMIIIA K1235[4][all]
##D2STDCMP   : K1235,(O:39.17),(Al:8.86),(Si:21.16),(Ca:12.15),(Pd:1.74),(Ba:15.23),(Hf:1.7)
##DET_HASH   : 12273538-fd48-a23f-0a19-f1e6fa85caef
##CALIB_HASH : 6abaa72c-aa41-8738-0be9-f592914732f3
##WORKING    : 15.0 mm
##DET_NAME   : EDAX All
##DET_MODE   : MediumLE
#SPECTRUM    :
33,
27,
11,
24,
121,
448,
1181,
3020,
7263,
10781,
9112,
6527,
5442,
5761,
8385,
27194,
98105,
185297,
135068,
38473,
7940,
4367,
4015,
4136,
4458,
5182,
6002,
5610,
4696,
4336,
4361,
4736,
5393,
5939,
6654,
6807,
5765,
5210,
5046,
4968,
5197,
5349,
5639,
5820,
5873,
5791,
6990,
13093,
36182,
69419,
70686,
38278,
15406,
9187,
10202,
18576,
52686,
124345,
165543,
117600,
48818,
17659,
9141,
5709,
4310,
4104,
3942,
3770,
3530,
3521,
3519,
3476,
3472,
3487,
3713,
3907,
3962,
3820,
3553,
3459,
3294,
3224,
3279,
3209,
3224,
3225,
3214,
3321,
3185,
3054,
3215,
3097,
3048,
3075,
3097,
2897,
2868,
2859,
2854,
2814,
2928,
2823,
2944,
2816,
2875,
2768,
2769,
2834,
2795,
2929,
2736,
2743,
2587,
2501,
2611,
2708,
2802,
2873,
3106,
4298,
8313,
18718,
33573,
41892,
35760,
21042,
9057,
3950,
2716,
2586,
2890,
3807,
5368,
6859,
7102,
5895,
4196,
2734,
2171,
2082,
2131,
2018,
2032,
2111,
2335,
3002,
4945,
9032,
13096,
15029,
12226,
7795,
4255,
2487,
1865,
1875,
1851,
2123,
2921,
4694,
6587,
7711,
7193,
5593,
4154,
3105,
2516,
2126,
1940,
2199,
2656,
3359,
3544,
3166,
2594,
2026,
1575,
1472,
1535,
1483,
1527,
1577,
1780,
1994,
2195,
2220,
1931,
1670,
1366,
1298,
1377,
1486,
1545,
1579,
1521,
1463,
1327,
1253,
1292,
1254,
1176,
1159,
1134,
1121,
1103,
1104,
1120,
1170,
1126,
1150,
1035,
1045,
1099,
1094,
1126,
1070,
997,
1060,
990,
968,
1123,
967,
973,
969,
972,
966,
984,
927,
975,
974,
941,
920,
934,
871,
919,
867,
855,
881,
857,
851,
863,
891,
832,
828,
860,
857,
849,
830,
803,
863,
797,
788,
824,
789,
761,
774,
762,
772,
772,
813,
839,
932,
952,
984,
985,
863,
763,
758,
724,
689,
646,
670,
620,
700,
641,
611,
636,
640,
629,
617,
615,
608,
598,
617,
596,
583,
599,
582,
590,
545,
557,
537,
582,
545,
506,
560,
519,
581,
563,
577,
588,
602,
552,
556,
548,
522,
490,
505,
485,
483,
540,
529,
514,
506,
493,
484,
493,
475,
460,
457,
417,
432,
448,
420,
405,
413,
422,
432,
421,
425,
351,
406,
406,
389,
365,
385,
376,
341,
382,
370,
355,
379,
347,
358,
367,
334,
322,
322,
315,
318,
368,
311,
326,
307,
328,
285,
292,
323,
311,
291,
267,
290,
288,
303,
274,
257,
260,
265,
255,
233,
251,
286,
198,
244,
248,
208,
239,
220,
199,
197,
225,
239,
220,
206,
212,
229,
215,
205,
228,
232,
185,
210,
169,
196,
187,
191,
174,
181,
180,
190,
181,
169,
158,
147,
148,
161,
149,
143,
136,
140,
145,
139,
139,
128,
135,
139,
129,
126,
137,
129,
107,
129,
105,
106,
109,
113,
108,
92,
112,
90,
87,
90,
97,
118,
79,
92,
85,
74,
94,
73,
87,
83,
66,
79,
74,
65,
53,
74,
72,
70,
75,
49,
73,
70,
56,
59,
60,
53,
67,
49,
49,
46,
54,
50,
48,
47,
38,
50,
47,
34,
35,
32,
34,
31,
29,
27,
24,
29,
36,
25,
21,
23,
19,
15,
19,
22,
12,
10,
19,
19,
7,
13,
7,
10,
17,
3,
10,
3,
5,
1,
2,
1,
1,
0,
0,
0,
2,
1,
1,
0,
1,
3,
1,
0,
0,
1,
1,
0,
2,
1,
1,
1,
0,
0,
0,
1,
0,
1,
1,
1,
0,
0,
1,
1,
1,
0,
0,
2,
0,
1,
1,
0,
0,
1,
0,
0,
1,
0,
0,
0,
1,
0,
0,
1,
0,
0,
0,
0,
0,
0,
0,
0,
0,
0,
0,
1,
0,
2,
0,
0,
0,
1,
0,
1,
0,
1,
0,
1,
0,
0,
0,
0,
2,
0,
1,
0,
0,
1,
0,
0,
0,
0,
0,
0,
0,
0,
0,
1,
0,
0,
0,
0,
0,
0,
0,
0,
0,
0,
1,
0,
0,
0,
0,
0,
0,
0,
0,
0,
0,
0,
0,
0,
0,
0,
0,
0,
0,
0,
0,
0,
0,
0,
0,
0,
1,
0,
0,
0,
0,
0,
0,
1,
0,
0,
0,
0,
0,
0,
0,
0,
0,
0,
0,
0,
0,
0,
0,
0,
0,
0,
0,
0,
0,
0,
0,
0,
0,
0,
0,
0,
0,
0,
0,
0,
0,
0,
0,
0,
0,
0,
0,
0,
1,
0,
0,
1,
0,
0,
0,
0,
0,
0,
0,
0,
0,
0,
0,
0,
0,
0,
0,
2,
0,
0,
0,
0,
0,
0,
0,
0,
0,
0,
0,
0,
0,
0,
0,
0,
0,
0,
0,
0,
0,
0,
0,
0,
0,
0,
0,
0,
0,
0,
0,
0,
0,
0,
0,
0,
0,
0,
0,
0,
0,
0,
0,
0,
0,
0,
0,
0,
0,
0,
0,
0,
0,
0,
0,
0,
0,
0,
0,
0,
0,
0,
0,
0,
0,
0,
0,
0,
0,
0,
0,
0,
0,
0,
0,
0,
0,
0,
0,
0,
0,
0,
0,
0,
0,
0,
0,
0,
0,
0,
0,
0,
0,
0,
0,
0,
0,
0,
0,
0,
0,
0,
0,
0,
0,
0,
0,
0,
0,
0,
0,
0,
0,
0,
0,
0,
0,
0,
0,
0,
0,
0,
0,
0,
0,
0,
0,
0,
0,
0,
0,
0,
0,
0,
0,
0,
0,
0,
0,
0,
0,
0,
0,
0,
0,
0,
0,
0,
0,
0,
0,
0,
0,
0,
0,
0,
0,
0,
0,
0,
0,
0,
0,
0,
0,
0,
0,
0,
0,
0,
0,
0,
0,
0,
0,
0,
0,
0,
0,
0,
0,
0,
0,
0,
0,
0,
0,
0,
0,
0,
0,
0,
0,
0,
0,
0,
0,
0,
0,
0,
0,
0,
0,
0,
0,
0,
0,
0,
0,
0,
0,
0,
0,
0,
0,
0,
0,
0,
0,
0,
0,
0,
0,
0,
0,
0,
0,
0,
0,
0,
0,
0,
0,
0,
0,
0,
0,
0,
0,
0,
0,
0,
0,
0,
0,
0,
0,
0,
0,
0,
0,
0,
0,
0,
0,
0,
0,
0,
0,
0,
0,
0,
0,
0,
0,
0,
0,
0,
0,
0,
0,
0,
0,
0,
0,
0,
0,
0,
0,
0,
0,
0,
0,
0,
0,
0,
0,
0,
0,
0,
0,
0,
0,
0,
0,
0,
0,
0,
0,
0,
0,
0,
0,
0,
0,
0,
0,
0,
0,
0,
0,
0,
0,
0,
0,
0,
0,
0,
0,
0,
0,
0,
0,
0,
0,
0,
0,
0,
0,
0,
0,
0,
0,
0,
0,
0,
0,
0,
0,
0,
0,
0,
0,
0,
0,
0,
0,
0,
0,
0,
0,
0,
0,
0,
0,
0,
0,
0,
0,
0,
0,
0,
0,
0,
0,
0,
0,
0,
0,
0,
0,
0,
0,
0,
0,
0,
0,
0,
0,
0,
0,
0,
0,
0,
0,
0,
0,
0,
0,
0,
0,
0,
0,
0,
0,
0,
0,
0,
0,
0,
0,
0,
0,
0,
0,
0,
0,
0,
0,
0,
0,
0,
0,
0,
0,
0,
0,
0,
0,
0,
0,
0,
0,
0,
0,
0,
0,
0,
0,
0,
0,
0,
0,
0,
0,
0,
0,
0,
0,
0,
0,
0,
0,
0,
0,
0,
0,
0,
0,
0,
0,
0,
0,
0,
0,
0,
0,
0,
0,
0,
0,
0,
0,
0,
0,
0,
0,
0,
0,
0,
0,
0,
0,
0,
0,
0,
0,
0,
0,
0,
0,
0,
0,
0,
0,
0,
0,
0,
0,
0,
0,
0,
0,
0,
0,
0,
0,
0,
0,
0,
0,
0,
0,
0,
0,
0,
0,
0,
0,
0,
0,
0,
0,
0,
0,
0,
0,
0,
0,
0,
0,
0,
0,
0,
0,
0,
0,
0,
0,
0,
0,
0,
0,
0,
0,
0,
0,
0,
0,
0,
0,
0,
0,
0,
0,
0,
0,
0,
0,
0,
0,
0,
0,
0,
0,
0,
0,
0,
0,
0,
0,
0,
0,
0,
0,
0,
0,
0,
0,
0,
0,
0,
0,
0,
0,
0,
0,
0,
0,
0,
0,
0,
0,
0,
0,
0,
0,
0,
0,
0,
0,
0,
0,
0,
0,
0,
0,
0,
0,
0,
0,
0,
0,
0,
0,
0,
0,
0,
0,
0,
0,
0,
0,
0,
0,
0,
0,
0,
0,
0,
0,
0,
0,
0,
0,
0,
0,
0,
0,
0,
0,
0,
0,
0,
0,
0,
0,
0,
0,
0,
0,
0,
0,
0,
0,
0,
0,
0,
0,
0,
0,
0,
0,
0,
0,
0,
0,
0,
0,
0,
0,
0,
0,
0,
#ENDOFDATA   :