File: N132962/Quantification/15 keV/GMIIIA/GMIIIA K1008[4][4].msa
#FORMAT      : EMSA/MAS Spectral Data File
#VERSION     : 1.0
#TITLE       : GMIIIA K1008[4][all]
#DATE        : 22-SEP-2025
#TIME        : 21:46
#OWNER       : Unknown
#NPOINTS     : 4096
#NCOLUMNS    : 1
#XUNITS      : eV
#YUNITS      : counts
#DATATYPE    : Y
#XPERCHAN    : 9.99778
#OFFSET      : 1.69135
#BEAMKV      : 15
#SIGNALTYPE  : EDS
#ELEVANGLE   : 35
#AZIMANGLE   : 0
#LIVETIME    : 240.025
#REALTIME    : 256.549
#PROBECUR    : 1.21615
#TAUWIND     : 0
#TDEADLYR    : 0
#TACTLYR     : 0.045
#TALWIND     : 0.025
#CHOFFSET    : 0.0
#XLABEL      : Energy (eV)
#YLABEL      : Counts
#XPOSITION   : 11.41914
#YPOSITION   : 15.20386
#ZPOSITION   : 37.36299
#EDSDET      : SD
##SPECIMEN   : GMIIIA K1008[4][all]
##D2STDCMP   : K1008,(O:38.68),(Na:1.67),(Al:8.92),(Si:21.02),(Ca:6.75),(Rb:2.06),(Sr:10.05),(Zr:0.83),(Cs:2.12),(Ba:2.02),(Ho:1.96),(Tm:1.97),(Yb:1.98)
##DET_HASH   : 12273538-fd48-a23f-0a19-f1e6fa85caef
##CALIB_HASH : 6abaa72c-aa41-8738-0be9-f592914732f3
##WORKING    : 15.0 mm
##DET_NAME   : EDAX All
##DET_MODE   : MediumLE
#SPECTRUM    :
20,
24,
17,
21,
120,
453,
1125,
2680,
6107,
8671,
6540,
5053,
4820,
5344,
8140,
25167,
90956,
172001,
124960,
34265,
6171,
3723,
4121,
4321,
4337,
4414,
4583,
4828,
4935,
4875,
5406,
5523,
6418,
9668,
15990,
17399,
11543,
7311,
6516,
6550,
6337,
6319,
6421,
7044,
8339,
10371,
11347,
17757,
44198,
83010,
85473,
50440,
22477,
12425,
10129,
18929,
56842,
133206,
180592,
143518,
83904,
48778,
28835,
16573,
9615,
6460,
5188,
4918,
5032,
4616,
4163,
3928,
3794,
3747,
3703,
3599,
3562,
3485,
3297,
3108,
3176,
3054,
3008,
3128,
3104,
3110,
2971,
2965,
3010,
3014,
2952,
2886,
3030,
2911,
2851,
2762,
2912,
2905,
2882,
2868,
2913,
2780,
2721,
2701,
2816,
2727,
2774,
2905,
2767,
2812,
2672,
2626,
2581,
2632,
2621,
2623,
2750,
2797,
2878,
3522,
5875,
11344,
19543,
24312,
20511,
12455,
6018,
3342,
2509,
2321,
2611,
2852,
3689,
4605,
4750,
4120,
3182,
2571,
2236,
2193,
2467,
2990,
3718,
3945,
3434,
2951,
2655,
2830,
3373,
3638,
3347,
2754,
2597,
2605,
2793,
2620,
2374,
2164,
2067,
2251,
2406,
2503,
2480,
2400,
2199,
2102,
1973,
1775,
1740,
1631,
1729,
1828,
1856,
1727,
1648,
1612,
1602,
1619,
1528,
1519,
1426,
1496,
1449,
1542,
1607,
1527,
1533,
1421,
1339,
1385,
1301,
1322,
1339,
1411,
1289,
1313,
1344,
1234,
1272,
1210,
1344,
1210,
1146,
1219,
1215,
1152,
1160,
1167,
1169,
1203,
1116,
1225,
1147,
1163,
1088,
1126,
1129,
1026,
1132,
1114,
1184,
1252,
1355,
1605,
1645,
1536,
1294,
1156,
1060,
991,
1010,
943,
945,
903,
954,
987,
1037,
1262,
1391,
1465,
1337,
1203,
1133,
1088,
1059,
1150,
1282,
1371,
1359,
1356,
1131,
1102,
1025,
1011,
877,
810,
865,
837,
738,
784,
795,
799,
844,
844,
883,
821,
856,
832,
859,
851,
914,
909,
815,
793,
722,
754,
728,
776,
829,
830,
812,
832,
849,
815,
749,
707,
648,
617,
622,
645,
722,
685,
741,
579,
600,
575,
550,
587,
525,
577,
559,
539,
531,
545,
501,
487,
526,
465,
492,
481,
516,
509,
519,
512,
514,
516,
499,
460,
442,
455,
441,
450,
458,
485,
475,
457,
457,
423,
412,
412,
402,
405,
388,
397,
407,
384,
385,
424,
375,
336,
377,
337,
364,
334,
339,
339,
329,
334,
327,
310,
308,
348,
298,
293,
303,
291,
291,
312,
319,
305,
327,
297,
292,
282,
255,
252,
260,
250,
212,
263,
255,
237,
247,
268,
238,
219,
257,
221,
223,
227,
215,
224,
222,
238,
235,
213,
232,
203,
238,
192,
206,
199,
174,
198,
212,
183,
195,
178,
181,
164,
182,
170,
176,
170,
150,
148,
160,
151,
158,
144,
126,
159,
133,
147,
141,
119,
118,
133,
144,
121,
156,
126,
112,
112,
124,
131,
100,
100,
94,
105,
101,
118,
91,
100,
94,
92,
81,
61,
90,
97,
89,
73,
85,
72,
72,
75,
80,
58,
77,
68,
74,
63,
62,
65,
50,
64,
72,
50,
62,
49,
54,
45,
47,
47,
48,
50,
40,
48,
34,
39,
44,
39,
46,
35,
30,
27,
17,
23,
24,
13,
23,
25,
21,
13,
23,
11,
14,
16,
15,
17,
12,
9,
10,
11,
4,
4,
5,
3,
5,
0,
1,
1,
0,
2,
2,
2,
2,
0,
0,
0,
2,
1,
1,
0,
0,
1,
0,
0,
0,
1,
1,
1,
1,
0,
0,
0,
1,
1,
0,
2,
0,
0,
0,
1,
0,
0,
0,
0,
0,
0,
0,
0,
0,
0,
0,
0,
0,
0,
0,
0,
0,
0,
0,
0,
0,
1,
0,
0,
0,
0,
1,
0,
1,
0,
1,
0,
0,
0,
1,
2,
0,
0,
0,
1,
0,
0,
1,
0,
1,
0,
0,
0,
0,
0,
0,
0,
0,
0,
0,
0,
0,
0,
0,
0,
1,
0,
0,
0,
0,
0,
0,
0,
0,
0,
0,
0,
0,
0,
0,
0,
0,
0,
0,
2,
0,
0,
0,
0,
0,
0,
0,
0,
0,
0,
0,
0,
0,
0,
0,
0,
0,
0,
0,
0,
0,
0,
0,
0,
0,
0,
1,
0,
0,
0,
0,
0,
0,
0,
0,
0,
0,
0,
0,
0,
0,
0,
0,
0,
0,
0,
0,
0,
0,
0,
0,
1,
0,
2,
0,
0,
0,
0,
0,
0,
0,
0,
0,
0,
0,
0,
0,
0,
0,
0,
0,
0,
0,
0,
0,
0,
0,
0,
0,
0,
0,
0,
0,
0,
0,
0,
0,
0,
0,
0,
0,
0,
0,
0,
0,
0,
0,
0,
0,
0,
0,
0,
0,
0,
0,
0,
0,
0,
0,
0,
0,
0,
0,
0,
0,
0,
0,
0,
0,
0,
0,
0,
0,
0,
0,
0,
0,
0,
0,
0,
0,
0,
0,
0,
0,
0,
0,
0,
0,
0,
1,
0,
0,
0,
0,
0,
0,
0,
0,
0,
0,
0,
0,
0,
0,
0,
0,
0,
0,
0,
0,
0,
0,
0,
0,
0,
0,
0,
0,
0,
0,
0,
0,
0,
0,
0,
0,
0,
0,
0,
0,
0,
0,
0,
0,
0,
0,
0,
0,
0,
0,
0,
0,
0,
0,
0,
0,
0,
0,
0,
0,
0,
0,
0,
0,
0,
0,
0,
0,
0,
0,
0,
0,
0,
0,
0,
0,
0,
0,
0,
0,
0,
0,
0,
0,
0,
0,
0,
0,
0,
0,
0,
0,
0,
0,
0,
0,
0,
0,
0,
0,
0,
0,
0,
0,
0,
0,
0,
0,
0,
0,
0,
0,
0,
0,
0,
0,
0,
0,
0,
0,
0,
0,
0,
0,
0,
0,
0,
0,
0,
0,
0,
0,
0,
0,
0,
0,
0,
0,
0,
0,
0,
0,
0,
0,
0,
0,
0,
0,
0,
0,
0,
0,
0,
0,
0,
0,
0,
0,
0,
0,
0,
0,
0,
0,
0,
0,
0,
0,
0,
0,
0,
0,
0,
0,
0,
0,
0,
0,
0,
0,
0,
0,
0,
0,
0,
0,
0,
0,
0,
0,
0,
0,
0,
0,
0,
0,
0,
0,
0,
0,
0,
0,
0,
0,
0,
0,
0,
0,
0,
0,
0,
0,
0,
0,
0,
0,
0,
0,
0,
0,
0,
0,
0,
0,
0,
0,
0,
0,
0,
0,
0,
0,
0,
0,
0,
0,
0,
0,
0,
0,
0,
0,
0,
0,
0,
0,
0,
0,
0,
0,
0,
0,
0,
0,
0,
0,
0,
0,
0,
0,
0,
0,
0,
0,
0,
0,
0,
0,
0,
0,
0,
0,
0,
0,
0,
0,
0,
0,
0,
0,
0,
0,
0,
0,
0,
0,
0,
0,
0,
0,
0,
0,
0,
0,
0,
0,
0,
0,
0,
0,
0,
0,
0,
0,
0,
0,
0,
0,
0,
0,
0,
0,
0,
0,
0,
0,
0,
0,
0,
0,
0,
0,
0,
0,
0,
0,
0,
0,
0,
0,
0,
0,
0,
0,
0,
0,
0,
0,
0,
0,
0,
0,
0,
0,
0,
0,
0,
0,
0,
0,
0,
0,
0,
0,
0,
0,
0,
0,
0,
0,
0,
0,
0,
0,
0,
0,
0,
0,
0,
0,
0,
0,
0,
0,
0,
0,
0,
0,
0,
0,
0,
0,
0,
0,
0,
0,
0,
0,
0,
0,
0,
0,
0,
0,
0,
0,
0,
0,
0,
0,
0,
0,
0,
0,
0,
0,
0,
0,
0,
0,
0,
0,
0,
0,
0,
0,
0,
0,
0,
0,
0,
0,
0,
0,
0,
0,
0,
0,
0,
0,
0,
0,
0,
0,
0,
0,
0,
0,
0,
0,
0,
0,
0,
0,
0,
0,
0,
0,
0,
0,
0,
0,
0,
0,
0,
0,
0,
0,
0,
0,
0,
0,
0,
0,
0,
0,
0,
0,
0,
0,
0,
0,
0,
0,
0,
0,
0,
0,
0,
0,
0,
0,
0,
0,
0,
0,
0,
0,
0,
0,
0,
0,
0,
0,
0,
0,
0,
0,
0,
0,
0,
0,
0,
0,
0,
0,
0,
0,
0,
0,
0,
0,
0,
0,
0,
0,
0,
0,
0,
0,
0,
0,
0,
0,
0,
0,
0,
0,
0,
0,
0,
0,
0,
0,
0,
0,
0,
0,
0,
0,
0,
0,
0,
0,
0,
0,
0,
0,
0,
0,
0,
0,
0,
0,
0,
0,
0,
0,
0,
0,
0,
0,
0,
0,
0,
0,
0,
0,
0,
0,
0,
0,
0,
0,
0,
0,
0,
0,
0,
0,
0,
0,
0,
0,
0,
0,
0,
0,
0,
0,
0,
0,
0,
0,
0,
0,
0,
0,
0,
0,
0,
0,
0,
0,
0,
0,
0,
0,
0,
0,
0,
#ENDOFDATA   :