File: N132962/Quantification/15 keV/GMIIIA/GMIIIA K1236[1][4].msa
#FORMAT      : EMSA/MAS Spectral Data File
#VERSION     : 1.0
#TITLE       : GMIIIA K1236[1][all]
#DATE        : 22-SEP-2025
#TIME        : 23:05
#OWNER       : Unknown
#NPOINTS     : 4096
#NCOLUMNS    : 1
#XUNITS      : eV
#YUNITS      : counts
#DATATYPE    : Y
#XPERCHAN    : 9.99778
#OFFSET      : 1.69135
#BEAMKV      : 15
#SIGNALTYPE  : EDS
#ELEVANGLE   : 35
#AZIMANGLE   : 0
#LIVETIME    : 239.9036
#REALTIME    : 258.863
#PROBECUR    : 1.21388
#TAUWIND     : 0
#TDEADLYR    : 0
#TACTLYR     : 0.045
#TALWIND     : 0.025
#CHOFFSET    : 0.0
#XLABEL      : Energy (eV)
#YLABEL      : Counts
#XPOSITION   : 7.20446
#YPOSITION   : 18.97139
#ZPOSITION   : 37.36299
#EDSDET      : SD
##SPECIMEN   : GMIIIA K1236[1][all]
##D2STDCMP   : K1236,(O:21.27),(Sc:0.65),(Ge:40.95),(Pb:37.13)
##DET_HASH   : 12273538-fd48-a23f-0a19-f1e6fa85caef
##CALIB_HASH : 6abaa72c-aa41-8738-0be9-f592914732f3
##WORKING    : 15.0 mm
##DET_NAME   : EDAX All
##DET_MODE   : MediumLE
#SPECTRUM    :
28,
29,
13,
24,
169,
746,
1921,
4528,
9894,
11992,
8565,
6660,
6819,
7129,
8784,
18706,
55378,
100145,
73784,
23156,
8722,
7147,
7099,
7715,
7593,
7366,
7663,
7951,
8478,
8543,
8663,
9118,
9844,
13248,
18132,
20171,
18357,
26064,
75136,
170767,
210825,
137621,
53344,
17385,
8620,
6970,
6299,
6279,
6261,
6438,
6571,
6655,
6557,
6579,
6536,
6773,
7084,
7910,
8314,
9135,
10303,
10808,
9365,
7502,
6716,
6436,
6256,
6279,
6425,
6220,
6496,
6790,
7280,
7927,
8692,
12241,
24221,
48870,
70622,
68290,
54734,
49838,
42889,
26437,
12724,
7124,
6388,
7259,
8291,
8105,
6710,
5532,
4891,
4824,
4744,
4809,
4851,
4912,
5001,
4966,
5087,
5298,
5488,
5527,
5449,
5123,
4962,
4601,
4414,
4374,
4406,
4351,
4246,
4303,
4307,
4338,
4412,
4426,
4475,
4420,
4406,
4297,
4199,
4095,
4109,
4126,
3982,
3917,
4006,
3881,
3817,
3928,
3949,
4129,
4524,
5021,
5609,
5567,
4956,
4261,
3740,
3837,
3633,
3482,
3626,
3639,
3638,
3856,
3770,
3973,
3811,
3702,
3626,
3561,
3364,
3313,
3418,
3385,
3449,
3374,
3197,
3202,
3318,
3249,
3135,
3183,
3233,
3200,
3100,
3195,
3170,
3022,
3176,
3010,
3008,
2952,
2918,
2926,
2950,
2866,
2887,
2823,
3013,
2789,
2806,
2816,
2824,
2827,
2712,
2735,
2685,
2647,
2703,
2614,
2664,
2690,
2651,
2609,
2546,
2639,
2526,
2631,
2466,
2526,
2548,
2478,
2422,
2397,
2373,
2377,
2340,
2431,
2498,
2391,
2408,
2420,
2354,
2247,
2182,
2262,
2197,
2220,
2205,
2139,
2048,
2070,
2113,
2170,
2126,
2014,
2206,
2072,
1975,
2102,
2069,
2011,
2029,
2010,
1936,
1937,
1948,
2013,
2002,
1881,
1796,
1870,
1959,
1883,
1865,
1781,
1901,
1810,
1771,
1814,
1757,
1745,
1728,
1741,
1712,
1700,
1702,
1675,
1607,
1630,
1614,
1644,
1645,
1616,
1595,
1613,
1569,
1553,
1563,
1596,
1559,
1547,
1452,
1482,
1449,
1465,
1471,
1444,
1458,
1343,
1435,
1400,
1381,
1374,
1371,
1382,
1312,
1374,
1281,
1320,
1291,
1255,
1275,
1228,
1197,
1271,
1228,
1196,
1178,
1189,
1249,
1221,
1152,
1226,
1208,
1157,
1174,
1164,
1146,
1158,
1071,
1097,
1065,
1068,
1146,
1084,
1042,
1095,
1192,
1360,
1895,
2627,
4278,
5945,
7388,
8116,
7343,
5800,
4039,
2550,
1748,
1259,
954,
969,
931,
942,
877,
881,
889,
865,
876,
880,
994,
965,
1145,
1276,
1470,
1493,
1478,
1379,
1221,
1082,
928,
823,
812,
769,
850,
853,
1023,
1164,
1447,
1552,
1623,
1496,
1358,
1116,
870,
765,
674,
639,
625,
599,
598,
575,
548,
598,
580,
581,
529,
538,
588,
528,
564,
563,
551,
515,
532,
517,
516,
453,
496,
469,
467,
440,
469,
446,
438,
419,
435,
448,
448,
427,
434,
424,
361,
399,
388,
423,
384,
374,
367,
362,
374,
419,
418,
446,
445,
451,
440,
383,
380,
328,
283,
297,
297,
319,
314,
264,
283,
276,
280,
246,
263,
257,
228,
238,
211,
258,
209,
233,
208,
197,
203,
189,
207,
194,
169,
191,
180,
193,
164,
186,
162,
161,
156,
165,
161,
135,
140,
152,
105,
136,
126,
126,
115,
112,
119,
105,
118,
95,
99,
83,
88,
97,
68,
83,
71,
64,
68,
80,
53,
72,
37,
47,
46,
44,
39,
37,
31,
29,
25,
17,
24,
14,
10,
6,
7,
8,
4,
3,
3,
2,
4,
1,
0,
3,
5,
2,
3,
2,
1,
4,
3,
6,
4,
3,
1,
2,
3,
1,
3,
1,
2,
1,
1,
3,
3,
1,
3,
2,
2,
1,
2,
3,
1,
1,
1,
2,
4,
0,
2,
3,
1,
0,
3,
1,
0,
2,
0,
2,
0,
2,
1,
0,
2,
2,
1,
3,
1,
3,
1,
2,
2,
2,
0,
1,
2,
0,
1,
1,
1,
2,
0,
2,
1,
0,
0,
4,
1,
2,
2,
1,
3,
1,
0,
2,
2,
1,
0,
0,
0,
1,
2,
0,
0,
0,
1,
0,
2,
2,
0,
1,
2,
0,
3,
0,
0,
3,
2,
0,
3,
1,
1,
4,
1,
1,
3,
1,
0,
0,
1,
1,
0,
0,
0,
0,
0,
1,
1,
0,
3,
1,
2,
1,
1,
1,
1,
0,
0,
1,
0,
0,
2,
0,
1,
0,
1,
0,
1,
0,
1,
0,
1,
4,
3,
3,
3,
0,
1,
0,
1,
0,
0,
0,
0,
2,
1,
0,
0,
0,
0,
1,
0,
1,
1,
2,
2,
1,
1,
0,
0,
0,
0,
0,
1,
0,
1,
1,
0,
0,
0,
0,
0,
0,
0,
1,
1,
0,
0,
1,
0,
0,
0,
0,
0,
0,
0,
0,
0,
0,
1,
0,
0,
0,
0,
1,
0,
0,
0,
0,
0,
0,
0,
0,
0,
0,
0,
1,
0,
0,
0,
0,
0,
0,
0,
1,
1,
1,
0,
0,
0,
0,
1,
0,
1,
0,
1,
0,
0,
0,
1,
0,
0,
0,
0,
0,
0,
0,
0,
0,
0,
0,
0,
0,
0,
0,
0,
0,
0,
0,
0,
1,
0,
0,
0,
0,
0,
0,
0,
1,
0,
0,
1,
0,
0,
0,
0,
0,
0,
0,
0,
0,
0,
0,
0,
0,
1,
0,
0,
0,
0,
0,
0,
0,
0,
0,
0,
0,
0,
0,
0,
0,
0,
0,
0,
0,
0,
0,
0,
0,
0,
0,
0,
0,
0,
0,
0,
0,
0,
0,
0,
0,
0,
0,
0,
0,
0,
0,
0,
0,
0,
0,
0,
0,
0,
0,
0,
0,
0,
0,
0,
0,
0,
0,
0,
0,
0,
0,
0,
0,
0,
0,
0,
0,
0,
0,
0,
0,
0,
0,
0,
0,
0,
0,
0,
0,
0,
0,
0,
0,
0,
0,
0,
0,
0,
0,
0,
0,
0,
0,
0,
0,
0,
0,
0,
0,
0,
0,
0,
0,
0,
0,
0,
0,
0,
0,
0,
0,
0,
0,
0,
0,
0,
0,
0,
0,
0,
0,
0,
0,
0,
0,
0,
0,
0,
0,
0,
0,
0,
0,
0,
0,
0,
0,
0,
0,
0,
0,
0,
0,
0,
0,
0,
0,
0,
0,
0,
0,
0,
0,
0,
0,
0,
0,
0,
0,
0,
0,
0,
0,
0,
0,
0,
0,
0,
0,
0,
0,
0,
0,
0,
0,
0,
0,
0,
0,
0,
0,
0,
0,
0,
0,
0,
0,
0,
0,
0,
0,
0,
0,
0,
0,
0,
0,
0,
0,
0,
0,
0,
0,
0,
0,
0,
0,
0,
0,
0,
0,
0,
0,
0,
0,
0,
0,
0,
0,
0,
0,
0,
0,
0,
0,
0,
0,
0,
0,
0,
0,
0,
0,
0,
0,
0,
0,
0,
0,
0,
0,
0,
0,
0,
0,
0,
0,
0,
0,
0,
0,
0,
0,
0,
0,
0,
0,
0,
0,
0,
0,
0,
0,
0,
0,
0,
0,
0,
0,
0,
0,
0,
0,
0,
0,
0,
0,
0,
0,
0,
0,
0,
0,
0,
0,
0,
0,
0,
0,
0,
0,
0,
0,
0,
0,
0,
0,
0,
0,
0,
0,
0,
0,
0,
0,
0,
0,
0,
0,
0,
0,
0,
0,
0,
0,
0,
0,
0,
0,
0,
0,
0,
0,
0,
0,
0,
0,
0,
0,
0,
0,
0,
0,
0,
0,
0,
0,
0,
0,
0,
0,
0,
0,
0,
0,
0,
0,
0,
0,
0,
0,
0,
0,
0,
0,
0,
0,
0,
0,
0,
0,
0,
0,
0,
0,
0,
0,
0,
0,
0,
0,
0,
0,
0,
0,
0,
0,
0,
0,
0,
0,
0,
0,
0,
0,
0,
0,
0,
0,
0,
0,
0,
0,
0,
0,
0,
0,
0,
0,
0,
0,
0,
0,
0,
0,
0,
0,
0,
0,
0,
0,
0,
0,
0,
0,
0,
0,
0,
0,
0,
0,
0,
0,
0,
0,
0,
0,
0,
0,
0,
0,
0,
0,
0,
0,
0,
0,
0,
0,
0,
0,
0,
0,
0,
0,
0,
0,
0,
0,
0,
0,
0,
0,
0,
0,
0,
0,
0,
0,
0,
0,
0,
0,
0,
0,
0,
0,
0,
0,
0,
0,
0,
0,
0,
0,
0,
0,
0,
0,
0,
0,
0,
0,
0,
0,
0,
0,
0,
0,
0,
0,
0,
0,
0,
0,
0,
0,
0,
0,
0,
0,
0,
0,
0,
0,
0,
0,
0,
0,
0,
0,
0,
0,
0,
0,
0,
0,
0,
0,
0,
0,
0,
0,
0,
0,
0,
0,
0,
0,
0,
0,
0,
0,
0,
0,
0,
0,
0,
0,
0,
0,
0,
0,
0,
0,
0,
0,
0,
0,
0,
0,
0,
0,
0,
0,
0,
0,
0,
0,
0,
0,
0,
0,
0,
0,
#ENDOFDATA   :