File: N132962/Quantification/15 keV/GMIIIA/GMIIIA K1235[0][4].msa
#FORMAT      : EMSA/MAS Spectral Data File
#VERSION     : 1.0
#TITLE       : GMIIIA K1235[0][all]
#DATE        : 22-SEP-2025
#TIME        : 23:14
#OWNER       : Unknown
#NPOINTS     : 4096
#NCOLUMNS    : 1
#XUNITS      : eV
#YUNITS      : counts
#DATATYPE    : Y
#XPERCHAN    : 9.99778
#OFFSET      : 1.69135
#BEAMKV      : 15
#SIGNALTYPE  : EDS
#ELEVANGLE   : 35
#AZIMANGLE   : 0
#LIVETIME    : 240.062
#REALTIME    : 255.9718
#PROBECUR    : 1.21388
#TAUWIND     : 0
#TDEADLYR    : 0
#TACTLYR     : 0.045
#TALWIND     : 0.025
#CHOFFSET    : 0.0
#XLABEL      : Energy (eV)
#YLABEL      : Counts
#XPOSITION   : 9.24282
#YPOSITION   : 18.96644
#ZPOSITION   : 37.36299
#EDSDET      : SD
##SPECIMEN   : GMIIIA K1235[0][all]
##D2STDCMP   : K1235,(O:39.17),(Al:8.86),(Si:21.16),(Ca:12.15),(Pd:1.74),(Ba:15.23),(Hf:1.7)
##DET_HASH   : 12273538-fd48-a23f-0a19-f1e6fa85caef
##CALIB_HASH : 6abaa72c-aa41-8738-0be9-f592914732f3
##WORKING    : 15.0 mm
##DET_NAME   : EDAX All
##DET_MODE   : MediumLE
#SPECTRUM    :
25,
30,
11,
25,
105,
395,
1195,
3067,
7320,
10864,
9148,
6623,
5496,
5692,
8664,
27191,
98293,
184884,
135256,
38388,
7997,
4487,
4147,
4155,
4436,
5256,
6028,
5598,
4778,
4401,
4464,
4789,
5567,
6065,
6551,
6322,
5678,
5257,
4995,
4947,
5099,
5307,
5575,
5801,
5703,
5997,
6997,
13124,
36189,
70084,
70665,
38516,
15109,
8923,
10195,
18509,
53249,
124778,
166342,
118113,
48914,
18182,
9134,
5685,
4274,
4001,
3863,
3836,
3677,
3418,
3465,
3433,
3514,
3568,
3737,
3778,
3893,
3610,
3551,
3374,
3266,
3325,
3147,
3202,
3252,
3072,
3163,
3172,
3120,
3160,
3234,
3106,
3128,
3064,
2943,
3014,
2931,
2924,
2864,
2829,
2939,
2912,
2924,
2787,
2821,
2789,
2770,
2901,
2795,
2772,
2728,
2703,
2598,
2584,
2661,
2749,
2733,
2791,
3129,
4229,
8470,
18569,
33509,
42484,
35772,
20725,
9052,
4046,
2685,
2540,
2947,
3758,
5263,
6797,
7243,
5794,
4178,
2704,
2237,
2080,
2018,
2032,
2105,
2041,
2366,
3028,
4901,
8940,
13108,
14872,
12262,
7774,
4225,
2465,
1947,
1800,
1919,
2061,
2973,
4577,
6626,
7684,
7283,
5441,
4128,
3096,
2516,
2085,
2001,
2124,
2704,
3366,
3676,
3401,
2620,
2049,
1614,
1557,
1476,
1508,
1520,
1512,
1698,
1963,
2192,
2170,
1973,
1687,
1365,
1295,
1385,
1426,
1588,
1579,
1569,
1430,
1450,
1278,
1266,
1259,
1190,
1214,
1156,
1242,
1133,
1140,
1113,
1114,
1179,
1091,
1093,
1086,
1077,
1171,
1109,
1009,
1048,
984,
986,
992,
1011,
1028,
991,
939,
965,
980,
972,
1002,
941,
919,
922,
941,
881,
909,
883,
890,
883,
893,
863,
910,
859,
861,
887,
799,
888,
797,
833,
866,
865,
750,
843,
787,
758,
743,
762,
772,
759,
698,
752,
782,
793,
902,
947,
952,
957,
832,
780,
811,
699,
700,
659,
678,
686,
659,
682,
618,
642,
697,
614,
610,
590,
617,
649,
606,
577,
620,
577,
637,
577,
553,
531,
536,
609,
540,
559,
574,
580,
614,
582,
539,
635,
590,
573,
574,
579,
519,
491,
509,
501,
495,
466,
529,
501,
517,
485,
513,
401,
464,
434,
421,
462,
411,
410,
408,
404,
393,
387,
422,
418,
382,
407,
405,
345,
381,
387,
367,
334,
355,
342,
343,
355,
335,
366,
297,
376,
344,
337,
334,
327,
361,
332,
334,
316,
317,
329,
316,
318,
302,
257,
302,
313,
296,
264,
256,
295,
286,
285,
282,
259,
269,
249,
255,
231,
258,
225,
217,
238,
208,
251,
218,
219,
232,
218,
215,
209,
203,
195,
188,
218,
188,
190,
190,
185,
211,
193,
186,
167,
166,
178,
180,
173,
180,
145,
176,
169,
161,
142,
163,
142,
151,
147,
128,
142,
158,
142,
140,
131,
103,
125,
121,
114,
102,
134,
99,
108,
108,
109,
95,
109,
87,
93,
103,
106,
84,
92,
76,
94,
96,
88,
76,
80,
80,
74,
82,
80,
92,
66,
85,
58,
68,
66,
49,
48,
60,
52,
59,
48,
79,
49,
45,
54,
57,
54,
47,
48,
54,
37,
43,
26,
28,
55,
32,
28,
35,
26,
33,
33,
33,
27,
21,
24,
19,
27,
21,
19,
14,
14,
16,
12,
13,
14,
9,
8,
9,
5,
5,
7,
5,
3,
3,
1,
1,
1,
1,
0,
0,
1,
0,
3,
0,
2,
1,
2,
1,
0,
2,
0,
0,
0,
1,
0,
0,
2,
1,
0,
1,
3,
0,
0,
0,
1,
1,
1,
0,
1,
0,
0,
2,
0,
1,
0,
0,
1,
0,
0,
0,
0,
1,
0,
0,
0,
0,
0,
0,
0,
1,
0,
0,
0,
0,
0,
1,
0,
0,
0,
1,
0,
0,
0,
0,
0,
0,
0,
0,
0,
0,
0,
0,
1,
2,
0,
0,
0,
1,
1,
1,
0,
0,
0,
0,
0,
1,
0,
0,
0,
0,
0,
0,
0,
0,
0,
1,
0,
0,
0,
0,
0,
0,
0,
0,
0,
0,
0,
0,
0,
0,
0,
0,
0,
0,
0,
0,
0,
0,
0,
0,
1,
1,
0,
0,
0,
0,
0,
0,
0,
0,
0,
0,
0,
0,
0,
0,
0,
0,
0,
0,
0,
0,
0,
0,
0,
0,
0,
0,
0,
0,
0,
0,
0,
0,
0,
0,
0,
0,
0,
0,
1,
0,
0,
0,
0,
0,
0,
0,
0,
1,
0,
0,
1,
0,
0,
0,
0,
0,
0,
0,
0,
0,
0,
0,
0,
0,
0,
0,
0,
0,
0,
0,
0,
0,
0,
0,
0,
0,
0,
0,
0,
0,
0,
0,
0,
0,
0,
0,
0,
0,
0,
0,
0,
0,
0,
0,
0,
0,
0,
0,
0,
0,
0,
0,
0,
0,
0,
0,
0,
0,
0,
0,
0,
0,
0,
0,
0,
0,
0,
0,
0,
1,
0,
0,
0,
0,
0,
0,
0,
0,
0,
0,
0,
0,
0,
0,
0,
0,
0,
0,
0,
0,
0,
0,
0,
0,
0,
0,
0,
0,
0,
0,
0,
0,
0,
0,
0,
0,
0,
0,
0,
0,
0,
0,
0,
0,
0,
0,
0,
0,
0,
0,
0,
0,
0,
0,
0,
0,
0,
0,
0,
0,
0,
0,
0,
0,
0,
0,
0,
0,
0,
0,
0,
0,
0,
0,
0,
0,
0,
0,
0,
0,
0,
0,
0,
0,
0,
0,
0,
0,
0,
0,
0,
0,
0,
0,
0,
0,
0,
0,
0,
0,
0,
0,
0,
0,
0,
0,
0,
0,
0,
0,
0,
0,
0,
0,
0,
0,
0,
0,
0,
0,
0,
0,
0,
0,
0,
0,
0,
0,
0,
0,
0,
0,
0,
0,
0,
0,
0,
0,
0,
0,
0,
0,
0,
0,
0,
0,
0,
0,
0,
0,
0,
0,
0,
0,
0,
0,
0,
0,
0,
0,
0,
0,
0,
0,
0,
0,
0,
0,
0,
0,
0,
0,
0,
0,
0,
0,
0,
0,
0,
0,
0,
0,
0,
0,
0,
0,
0,
0,
0,
0,
0,
0,
0,
0,
0,
0,
0,
0,
0,
0,
0,
0,
0,
0,
0,
0,
0,
0,
0,
0,
0,
0,
0,
0,
0,
0,
0,
0,
0,
0,
0,
0,
0,
0,
0,
0,
0,
0,
0,
0,
0,
0,
0,
0,
0,
0,
0,
0,
0,
0,
0,
0,
0,
0,
0,
0,
0,
0,
0,
0,
0,
0,
0,
0,
0,
0,
0,
0,
0,
0,
0,
0,
0,
0,
0,
0,
0,
0,
0,
0,
0,
0,
0,
0,
0,
0,
0,
0,
0,
0,
0,
0,
0,
0,
0,
0,
0,
0,
0,
0,
0,
0,
0,
0,
0,
0,
0,
0,
0,
0,
0,
0,
0,
0,
0,
0,
0,
0,
0,
0,
0,
0,
0,
0,
0,
0,
0,
0,
0,
0,
0,
0,
0,
0,
0,
0,
0,
0,
0,
0,
0,
0,
0,
0,
0,
0,
0,
0,
0,
0,
0,
0,
0,
0,
0,
0,
0,
0,
0,
0,
0,
0,
0,
0,
0,
0,
0,
0,
0,
0,
0,
0,
0,
0,
0,
0,
0,
0,
0,
0,
0,
0,
0,
0,
0,
0,
0,
0,
0,
0,
0,
0,
0,
0,
0,
0,
0,
0,
0,
0,
0,
0,
0,
0,
0,
0,
0,
0,
0,
0,
0,
0,
0,
0,
0,
0,
0,
0,
0,
0,
0,
0,
0,
0,
0,
0,
0,
0,
0,
0,
0,
0,
0,
0,
0,
0,
0,
0,
0,
0,
0,
0,
0,
0,
0,
0,
0,
0,
0,
0,
0,
0,
0,
0,
0,
0,
0,
0,
0,
0,
0,
0,
0,
0,
0,
0,
0,
0,
0,
0,
0,
0,
0,
0,
0,
0,
0,
0,
0,
0,
0,
0,
0,
0,
0,
0,
0,
0,
0,
0,
0,
0,
0,
0,
0,
0,
0,
0,
0,
0,
0,
0,
0,
0,
0,
0,
0,
0,
0,
0,
0,
0,
0,
0,
0,
0,
0,
0,
0,
0,
0,
0,
0,
0,
0,
0,
0,
0,
0,
0,
0,
0,
0,
0,
0,
0,
0,
0,
0,
0,
0,
0,
0,
0,
0,
0,
0,
0,
0,
0,
0,
0,
0,
0,
0,
0,
0,
0,
0,
0,
0,
0,
0,
0,
0,
0,
0,
0,
0,
0,
0,
0,
0,
0,
0,
0,
0,
0,
0,
0,
0,
0,
0,
0,
0,
0,
0,
0,
0,
0,
0,
0,
0,
0,
0,
0,
0,
0,
0,
0,
0,
0,
0,
0,
0,
0,
0,
0,
0,
0,
0,
0,
0,
0,
0,
0,
0,
0,
0,
0,
0,
0,
0,
0,
0,
0,
0,
0,
#ENDOFDATA   :