File: N132962/Quantification/15 keV/GMIIIA/GMIIIA K1070[1][4].msa
#FORMAT      : EMSA/MAS Spectral Data File
#VERSION     : 1.0
#TITLE       : GMIIIA K1070[1][all]
#DATE        : 22-SEP-2025
#TIME        : 21:01
#OWNER       : Unknown
#NPOINTS     : 4096
#NCOLUMNS    : 1
#XUNITS      : eV
#YUNITS      : counts
#DATATYPE    : Y
#XPERCHAN    : 9.99778
#OFFSET      : 1.69135
#BEAMKV      : 15
#SIGNALTYPE  : EDS
#ELEVANGLE   : 35
#AZIMANGLE   : 0
#LIVETIME    : 239.981
#REALTIME    : 256.1714
#PROBECUR    : 1.21822
#TAUWIND     : 0
#TDEADLYR    : 0
#TACTLYR     : 0.045
#TALWIND     : 0.025
#CHOFFSET    : 0.0
#XLABEL      : Energy (eV)
#YLABEL      : Counts
#XPOSITION   : 2.37638
#YPOSITION   : 15.64359
#ZPOSITION   : 37.36299
#EDSDET      : SD
##SPECIMEN   : GMIIIA K1070[1][all]
##D2STDCMP   : K1070,(O:34.31),(Mg:7.54),(Si:18.7),(Ca:8.93),(Zn:10.04),(Ba:11.2),(Pb:9.28)
##DET_HASH   : 12273538-fd48-a23f-0a19-f1e6fa85caef
##CALIB_HASH : 6abaa72c-aa41-8738-0be9-f592914732f3
##WORKING    : 15.0 mm
##DET_NAME   : EDAX All
##DET_MODE   : MediumLE
#SPECTRUM    :
24,
28,
7,
26,
116,
473,
1293,
3245,
7434,
10779,
8860,
6615,
5818,
5965,
8632,
25175,
87649,
165953,
120582,
34668,
8234,
5373,
4939,
5180,
5246,
5828,
6567,
6448,
6681,
7623,
7854,
8823,
17151,
36407,
45207,
29268,
12603,
7084,
6409,
8452,
20224,
44545,
53307,
31920,
12096,
6066,
5360,
5470,
5516,
5713,
5934,
5894,
5821,
6106,
6792,
13318,
43789,
108417,
146159,
104832,
44661,
17658,
9737,
6172,
4692,
4471,
4242,
4098,
4043,
3942,
4090,
4156,
4108,
4305,
4670,
5589,
8035,
13458,
18191,
17521,
14537,
13446,
11662,
8198,
5346,
4011,
3873,
4070,
4307,
4222,
4013,
3571,
3420,
3406,
3281,
3405,
3208,
3389,
3341,
3410,
3368,
3360,
3544,
3419,
3264,
3306,
3158,
3055,
3007,
3023,
3052,
2903,
2810,
2920,
2908,
2980,
3000,
3172,
3318,
4018,
6925,
14887,
25970,
32467,
27233,
16416,
7583,
3870,
2837,
2844,
3070,
3645,
4746,
5917,
6143,
5372,
3892,
2870,
2464,
2477,
2333,
2256,
2289,
2413,
2543,
3029,
4592,
7613,
10596,
11744,
9980,
6643,
3900,
2574,
2301,
2034,
2125,
2293,
2978,
4182,
5640,
6455,
6038,
4829,
3721,
2938,
2588,
2298,
2173,
2302,
2582,
3236,
3282,
3091,
2563,
2049,
1856,
1719,
1709,
1705,
1786,
1845,
1964,
2136,
2268,
2136,
2122,
1815,
1648,
1576,
1620,
1669,
1762,
1747,
1761,
1655,
1555,
1468,
1529,
1504,
1453,
1479,
1439,
1372,
1332,
1374,
1409,
1315,
1359,
1309,
1370,
1374,
1343,
1335,
1346,
1298,
1327,
1294,
1206,
1211,
1177,
1173,
1182,
1186,
1150,
1194,
1148,
1153,
1119,
1121,
1161,
1067,
1116,
1100,
1116,
1113,
1046,
1053,
1017,
1045,
1058,
1038,
1034,
1049,
999,
1061,
933,
985,
951,
964,
970,
964,
952,
940,
910,
927,
914,
899,
901,
915,
885,
875,
889,
842,
947,
879,
888,
854,
848,
874,
864,
817,
776,
810,
815,
736,
761,
815,
784,
782,
811,
807,
932,
1119,
1647,
2477,
3277,
3975,
3910,
3346,
2596,
1628,
1118,
872,
723,
693,
719,
673,
638,
642,
691,
667,
641,
598,
610,
632,
635,
635,
630,
587,
612,
591,
590,
598,
618,
693,
733,
886,
918,
964,
923,
835,
699,
645,
552,
513,
504,
502,
474,
479,
503,
522,
426,
478,
478,
489,
462,
467,
431,
441,
448,
404,
411,
407,
459,
442,
464,
443,
470,
458,
545,
537,
477,
487,
465,
421,
394,
358,
369,
358,
354,
331,
379,
368,
342,
338,
347,
346,
331,
328,
312,
289,
303,
297,
335,
266,
302,
279,
254,
284,
262,
286,
278,
237,
253,
263,
260,
244,
230,
253,
234,
222,
221,
238,
200,
237,
189,
196,
201,
212,
212,
202,
205,
229,
227,
187,
200,
188,
180,
179,
177,
179,
172,
172,
162,
147,
184,
167,
165,
173,
184,
200,
193,
161,
158,
154,
140,
139,
125,
134,
131,
128,
106,
121,
124,
111,
133,
100,
106,
111,
96,
97,
95,
107,
87,
108,
110,
96,
101,
102,
92,
77,
84,
70,
77,
65,
64,
56,
72,
58,
67,
40,
70,
69,
63,
52,
55,
58,
43,
52,
38,
43,
42,
46,
39,
38,
42,
35,
35,
45,
30,
38,
19,
22,
23,
22,
20,
15,
10,
14,
5,
16,
13,
10,
13,
9,
10,
6,
7,
5,
3,
1,
2,
0,
2,
1,
2,
0,
0,
1,
1,
0,
0,
0,
0,
1,
0,
0,
1,
1,
0,
0,
0,
0,
2,
2,
0,
1,
2,
1,
0,
1,
0,
0,
1,
1,
0,
0,
0,
0,
0,
0,
1,
1,
1,
0,
0,
0,
2,
0,
2,
0,
0,
0,
1,
3,
0,
0,
0,
0,
0,
1,
1,
0,
0,
0,
1,
0,
0,
0,
0,
0,
1,
0,
0,
0,
0,
1,
0,
1,
3,
0,
0,
0,
1,
0,
0,
1,
0,
0,
1,
0,
1,
0,
0,
1,
2,
0,
0,
0,
0,
1,
0,
1,
0,
1,
0,
0,
0,
1,
0,
1,
0,
0,
0,
0,
0,
0,
0,
0,
0,
0,
0,
1,
0,
0,
0,
0,
0,
1,
0,
0,
0,
1,
0,
0,
0,
0,
0,
0,
2,
0,
0,
0,
0,
0,
1,
0,
0,
0,
0,
0,
0,
0,
0,
0,
0,
0,
0,
0,
1,
0,
0,
0,
0,
0,
0,
0,
0,
0,
0,
1,
0,
0,
0,
0,
0,
1,
0,
0,
0,
0,
0,
0,
0,
0,
0,
0,
0,
0,
0,
0,
0,
0,
0,
0,
0,
0,
0,
0,
0,
0,
0,
0,
0,
0,
0,
0,
1,
1,
0,
0,
0,
0,
0,
0,
1,
0,
0,
0,
0,
0,
0,
0,
0,
0,
0,
0,
0,
0,
0,
0,
0,
0,
0,
0,
1,
0,
0,
0,
0,
0,
0,
0,
0,
0,
0,
0,
0,
0,
0,
0,
0,
0,
0,
0,
0,
0,
0,
0,
0,
0,
0,
0,
0,
0,
0,
0,
0,
0,
0,
0,
0,
0,
0,
0,
0,
0,
0,
0,
0,
1,
0,
0,
0,
0,
0,
0,
0,
0,
0,
0,
0,
0,
0,
0,
0,
0,
0,
0,
0,
0,
0,
0,
1,
0,
0,
0,
0,
0,
0,
0,
0,
0,
0,
0,
0,
0,
0,
0,
0,
0,
0,
0,
0,
0,
0,
0,
0,
0,
0,
0,
0,
0,
0,
0,
0,
0,
0,
0,
0,
0,
0,
0,
0,
0,
0,
0,
0,
0,
0,
0,
0,
0,
0,
0,
0,
0,
0,
0,
0,
0,
0,
0,
0,
0,
0,
0,
0,
0,
0,
0,
0,
0,
0,
0,
0,
0,
0,
0,
0,
0,
0,
0,
0,
0,
0,
0,
0,
0,
0,
0,
0,
0,
0,
0,
0,
0,
0,
0,
0,
0,
0,
0,
0,
0,
0,
0,
0,
0,
0,
0,
0,
0,
0,
0,
0,
0,
0,
0,
0,
0,
0,
0,
0,
0,
0,
0,
0,
0,
0,
0,
0,
0,
0,
0,
0,
0,
0,
0,
0,
0,
0,
0,
0,
0,
0,
0,
0,
0,
0,
0,
0,
0,
0,
0,
0,
0,
0,
0,
0,
0,
0,
0,
0,
0,
0,
0,
0,
0,
0,
0,
0,
0,
0,
0,
0,
0,
0,
0,
0,
0,
0,
0,
0,
0,
0,
0,
0,
0,
0,
0,
0,
0,
0,
0,
0,
0,
0,
0,
0,
0,
0,
0,
0,
0,
0,
0,
0,
0,
0,
0,
0,
0,
0,
0,
0,
0,
0,
0,
0,
0,
0,
0,
0,
0,
0,
0,
0,
0,
0,
0,
0,
0,
0,
0,
0,
0,
0,
0,
0,
0,
0,
0,
0,
0,
0,
0,
0,
0,
0,
0,
0,
0,
0,
0,
0,
0,
0,
0,
0,
0,
0,
0,
0,
0,
0,
0,
0,
0,
0,
0,
0,
0,
0,
0,
0,
0,
0,
0,
0,
0,
0,
0,
0,
0,
0,
0,
0,
0,
0,
0,
0,
0,
0,
0,
0,
0,
0,
0,
0,
0,
0,
0,
0,
0,
0,
0,
0,
0,
0,
0,
0,
0,
0,
0,
0,
0,
0,
0,
0,
0,
0,
0,
0,
0,
0,
0,
0,
0,
0,
0,
0,
0,
0,
0,
0,
0,
0,
0,
0,
0,
0,
0,
0,
0,
0,
0,
0,
0,
0,
0,
0,
0,
0,
0,
0,
0,
0,
0,
0,
0,
0,
0,
0,
0,
0,
0,
0,
0,
0,
0,
0,
0,
0,
0,
0,
0,
0,
0,
0,
0,
0,
0,
0,
0,
0,
0,
0,
0,
0,
0,
0,
0,
0,
0,
0,
0,
0,
0,
0,
0,
0,
0,
0,
0,
0,
0,
0,
0,
0,
0,
0,
0,
0,
0,
0,
0,
0,
0,
0,
0,
0,
0,
0,
0,
0,
0,
0,
0,
0,
0,
0,
0,
0,
0,
0,
0,
0,
0,
0,
0,
0,
0,
0,
0,
0,
0,
0,
0,
0,
0,
0,
0,
0,
0,
0,
0,
0,
0,
0,
0,
0,
0,
0,
0,
0,
0,
0,
0,
0,
0,
0,
0,
0,
0,
0,
0,
0,
0,
0,
0,
0,
0,
0,
0,
0,
0,
0,
0,
0,
0,
0,
0,
0,
0,
0,
0,
0,
0,
0,
0,
0,
0,
0,
0,
0,
0,
0,
0,
0,
0,
0,
0,
0,
0,
0,
0,
0,
0,
0,
0,
0,
0,
0,
0,
0,
0,
0,
0,
0,
0,
0,
0,
0,
0,
0,
0,
0,
0,
0,
0,
0,
0,
0,
0,
0,
0,
0,
0,
0,
0,
0,
0,
0,
0,
0,
0,
0,
0,
0,
0,
0,
0,
0,
0,
#ENDOFDATA   :