File: N132962/Quantification/15 keV/GMIIIA/GMIIIA K1080[0][4].msa
#FORMAT      : EMSA/MAS Spectral Data File
#VERSION     : 1.0
#TITLE       : GMIIIA K1080[0][all]
#DATE        : 22-SEP-2025
#TIME        : 20:49
#OWNER       : Unknown
#NPOINTS     : 4096
#NCOLUMNS    : 1
#XUNITS      : eV
#YUNITS      : counts
#DATATYPE    : Y
#XPERCHAN    : 9.99778
#OFFSET      : 1.69135
#BEAMKV      : 15
#SIGNALTYPE  : EDS
#ELEVANGLE   : 35
#AZIMANGLE   : 0
#LIVETIME    : 239.941
#REALTIME    : 255.336
#PROBECUR    : 1.2178
#TAUWIND     : 0
#TDEADLYR    : 0
#TACTLYR     : 0.045
#TALWIND     : 0.025
#CHOFFSET    : 0.0
#XLABEL      : Energy (eV)
#YLABEL      : Counts
#XPOSITION   : 0.4078
#YPOSITION   : 15.7569
#ZPOSITION   : 37.36299
#EDSDET      : SD
##SPECIMEN   : GMIIIA K1080[0][all]
##D2STDCMP   : K1080,(Li:2.79),(B:0.62),(O:41.65),(Mg:1.21),(Al:7.94),(Si:18.7),(Ca:10.72),(Ti:1.2),(Sr:12.68),(Zr:0.74),(Lu:1.76)
##DET_HASH   : 12273538-fd48-a23f-0a19-f1e6fa85caef
##CALIB_HASH : 6abaa72c-aa41-8738-0be9-f592914732f3
##WORKING    : 15.0 mm
##DET_NAME   : EDAX All
##DET_MODE   : MediumLE
#SPECTRUM    :
21,
21,
10,
27,
143,
402,
1106,
2609,
5960,
8734,
7060,
5254,
4675,
5040,
7681,
23733,
85703,
162061,
118245,
31875,
5297,
3012,
3549,
3755,
3559,
3561,
3743,
3954,
4252,
4360,
4317,
4641,
4759,
4915,
5288,
5452,
5321,
5379,
5514,
6188,
8950,
13881,
15699,
11163,
7272,
6389,
7088,
13312,
35938,
69098,
71351,
40410,
20377,
14836,
12717,
16797,
48241,
118425,
166677,
138423,
90275,
57692,
35099,
20336,
11215,
7137,
5462,
4999,
4940,
4533,
4103,
3895,
3577,
3424,
3569,
3390,
3316,
3175,
2976,
2944,
2831,
2765,
2770,
2814,
2774,
2771,
2766,
2738,
2679,
2723,
2661,
2674,
2619,
2482,
2596,
2548,
2498,
2625,
2531,
2584,
2514,
2428,
2456,
2495,
2445,
2443,
2482,
2490,
2465,
2444,
2483,
2436,
2261,
2272,
2243,
2335,
2613,
2450,
2749,
3744,
7409,
16305,
29153,
36625,
31159,
17784,
7826,
3448,
2333,
2121,
2295,
2998,
4127,
5686,
5933,
5038,
3544,
2431,
1887,
1765,
1789,
1691,
1709,
1698,
1627,
1592,
1742,
1954,
2562,
3481,
4117,
3984,
3094,
2195,
1717,
1558,
1469,
1534,
1511,
1441,
1467,
1534,
1587,
1636,
1728,
1715,
1602,
1438,
1393,
1291,
1328,
1340,
1327,
1275,
1317,
1262,
1271,
1293,
1237,
1259,
1346,
1227,
1293,
1206,
1197,
1182,
1131,
1164,
1135,
1103,
1119,
1077,
1148,
1117,
1057,
1051,
1052,
1082,
1079,
1050,
1100,
1030,
959,
1025,
987,
1010,
959,
969,
948,
960,
960,
939,
950,
954,
896,
928,
900,
871,
910,
930,
892,
878,
842,
893,
903,
810,
853,
812,
867,
752,
849,
753,
824,
766,
789,
758,
793,
734,
731,
698,
769,
747,
710,
684,
715,
718,
766,
679,
683,
710,
735,
724,
818,
904,
942,
922,
920,
889,
749,
713,
614,
630,
596,
579,
564,
617,
607,
564,
613,
552,
568,
548,
587,
560,
593,
554,
551,
527,
504,
530,
507,
491,
537,
505,
524,
530,
541,
495,
507,
564,
571,
596,
522,
513,
520,
480,
444,
461,
455,
462,
497,
472,
496,
524,
456,
409,
444,
391,
440,
417,
384,
360,
370,
353,
377,
350,
354,
375,
393,
384,
355,
363,
366,
344,
333,
331,
349,
336,
343,
326,
322,
324,
309,
320,
314,
349,
308,
343,
337,
306,
337,
287,
286,
286,
313,
269,
248,
254,
274,
281,
249,
242,
262,
234,
253,
251,
254,
257,
193,
228,
253,
227,
234,
213,
190,
222,
222,
235,
219,
195,
211,
200,
214,
228,
181,
192,
204,
201,
169,
189,
182,
167,
162,
176,
179,
179,
166,
160,
151,
176,
164,
148,
153,
149,
140,
144,
152,
140,
127,
109,
130,
131,
145,
128,
120,
133,
124,
124,
119,
126,
110,
126,
112,
101,
109,
125,
130,
77,
104,
111,
94,
107,
108,
106,
109,
97,
96,
90,
89,
98,
78,
72,
71,
81,
70,
79,
80,
72,
50,
72,
63,
69,
66,
59,
73,
71,
45,
64,
58,
55,
50,
66,
53,
47,
49,
50,
34,
42,
50,
42,
46,
30,
43,
34,
39,
41,
27,
24,
41,
18,
24,
23,
13,
35,
18,
21,
25,
16,
16,
21,
14,
24,
22,
15,
20,
14,
15,
9,
12,
9,
7,
11,
6,
3,
8,
5,
7,
5,
0,
1,
0,
0,
0,
3,
0,
2,
1,
0,
0,
0,
1,
0,
1,
0,
1,
0,
1,
0,
0,
1,
1,
0,
1,
0,
0,
0,
1,
0,
0,
0,
1,
0,
0,
0,
0,
0,
0,
0,
0,
1,
2,
0,
0,
0,
0,
0,
0,
0,
0,
0,
0,
1,
0,
0,
0,
1,
0,
1,
0,
0,
0,
0,
0,
0,
0,
1,
0,
2,
0,
2,
0,
0,
1,
0,
0,
0,
0,
0,
0,
0,
0,
1,
0,
0,
0,
0,
0,
1,
0,
0,
0,
0,
0,
0,
0,
0,
1,
1,
0,
0,
0,
0,
0,
0,
1,
0,
0,
0,
0,
1,
0,
1,
0,
0,
0,
0,
0,
0,
0,
0,
0,
0,
0,
0,
0,
0,
0,
0,
0,
0,
0,
0,
0,
0,
1,
0,
0,
1,
0,
0,
0,
0,
0,
0,
0,
0,
0,
0,
0,
0,
1,
0,
0,
0,
0,
0,
0,
0,
0,
0,
0,
0,
0,
0,
0,
0,
0,
0,
0,
0,
0,
0,
0,
0,
1,
0,
0,
0,
0,
0,
0,
0,
0,
0,
0,
0,
0,
0,
0,
0,
0,
0,
0,
0,
0,
0,
0,
0,
0,
0,
0,
0,
0,
0,
0,
0,
0,
0,
0,
0,
1,
0,
0,
0,
0,
0,
0,
0,
0,
0,
0,
0,
0,
0,
0,
0,
0,
0,
0,
0,
0,
0,
0,
0,
0,
0,
0,
0,
0,
0,
0,
0,
0,
0,
0,
0,
0,
0,
0,
0,
0,
0,
0,
0,
0,
0,
0,
0,
0,
0,
0,
0,
0,
0,
0,
0,
0,
0,
0,
0,
0,
0,
0,
0,
0,
0,
0,
0,
0,
0,
0,
0,
0,
0,
0,
0,
0,
0,
0,
0,
0,
0,
0,
0,
0,
0,
0,
0,
0,
0,
0,
0,
0,
0,
0,
0,
0,
0,
0,
0,
0,
0,
0,
0,
0,
0,
0,
0,
0,
0,
0,
0,
0,
0,
0,
0,
0,
0,
0,
0,
0,
0,
0,
0,
0,
0,
0,
0,
0,
0,
0,
0,
0,
0,
0,
0,
0,
0,
0,
0,
0,
0,
0,
0,
0,
0,
0,
0,
0,
0,
0,
0,
0,
0,
0,
0,
0,
0,
0,
0,
0,
0,
0,
0,
0,
0,
0,
0,
0,
0,
0,
0,
0,
0,
0,
0,
0,
0,
0,
0,
0,
0,
0,
0,
0,
0,
0,
0,
0,
0,
0,
0,
0,
0,
0,
0,
0,
0,
0,
0,
0,
0,
0,
0,
0,
0,
0,
0,
0,
0,
0,
0,
0,
0,
0,
0,
0,
0,
0,
0,
0,
0,
0,
0,
0,
0,
0,
0,
0,
0,
0,
0,
0,
0,
0,
0,
0,
0,
0,
0,
0,
0,
0,
0,
0,
0,
0,
0,
0,
0,
0,
0,
0,
0,
0,
0,
0,
0,
0,
0,
0,
0,
0,
0,
0,
0,
0,
0,
0,
0,
0,
0,
0,
0,
0,
0,
0,
0,
0,
0,
0,
0,
0,
0,
0,
0,
0,
0,
0,
0,
0,
0,
0,
0,
0,
0,
0,
0,
0,
0,
0,
0,
0,
0,
0,
0,
0,
0,
0,
0,
0,
0,
0,
0,
0,
0,
0,
0,
0,
0,
0,
0,
0,
0,
0,
0,
0,
0,
0,
0,
0,
0,
0,
0,
0,
0,
0,
0,
0,
0,
0,
0,
0,
0,
0,
0,
0,
0,
0,
0,
0,
0,
0,
0,
0,
0,
0,
0,
0,
0,
0,
0,
0,
0,
0,
0,
0,
0,
0,
0,
0,
0,
0,
0,
0,
0,
0,
0,
0,
0,
0,
0,
0,
0,
0,
0,
0,
0,
0,
0,
0,
0,
0,
0,
0,
0,
0,
0,
0,
0,
0,
0,
0,
0,
0,
0,
0,
0,
0,
0,
0,
0,
0,
0,
0,
0,
0,
0,
0,
0,
0,
0,
0,
0,
0,
0,
0,
0,
0,
0,
0,
0,
0,
0,
0,
0,
0,
0,
0,
0,
0,
0,
0,
0,
0,
0,
0,
0,
0,
0,
0,
0,
0,
0,
0,
0,
0,
0,
0,
0,
0,
0,
0,
0,
0,
0,
0,
0,
0,
0,
0,
0,
0,
0,
0,
0,
0,
0,
0,
0,
0,
0,
0,
0,
0,
0,
0,
0,
0,
0,
0,
0,
0,
0,
0,
0,
0,
0,
0,
0,
0,
0,
0,
0,
0,
0,
0,
0,
0,
0,
0,
0,
0,
0,
0,
0,
0,
0,
0,
0,
0,
0,
0,
0,
0,
0,
0,
0,
0,
0,
0,
0,
0,
0,
0,
0,
0,
0,
0,
0,
0,
0,
0,
0,
0,
0,
0,
0,
0,
0,
0,
0,
0,
0,
0,
0,
0,
0,
0,
0,
0,
0,
0,
0,
0,
0,
0,
0,
0,
0,
0,
0,
0,
0,
0,
0,
0,
0,
0,
0,
0,
0,
0,
0,
0,
0,
0,
0,
0,
0,
0,
0,
0,
0,
0,
0,
0,
0,
0,
0,
0,
0,
0,
0,
0,
0,
0,
0,
0,
0,
0,
0,
0,
0,
0,
0,
0,
0,
0,
0,
0,
0,
0,
0,
0,
0,
0,
0,
0,
0,
0,
0,
0,
0,
0,
0,
0,
0,
0,
0,
0,
0,
0,
0,
0,
0,
0,
0,
0,
0,
0,
0,
0,
0,
0,
0,
#ENDOFDATA   :