File: N132962/Quantification/15 keV/GMIIIA/GMIIIA K1235[6][4].msa
#FORMAT      : EMSA/MAS Spectral Data File
#VERSION     : 1.0
#TITLE       : GMIIIA K1235[6][all]
#DATE        : 22-SEP-2025
#TIME        : 23:21
#OWNER       : Unknown
#NPOINTS     : 4096
#NCOLUMNS    : 1
#XUNITS      : eV
#YUNITS      : counts
#DATATYPE    : Y
#XPERCHAN    : 9.99778
#OFFSET      : 1.69135
#BEAMKV      : 15
#SIGNALTYPE  : EDS
#ELEVANGLE   : 35
#AZIMANGLE   : 0
#LIVETIME    : 240.015
#REALTIME    : 255.916
#PROBECUR    : 1.21388
#TAUWIND     : 0
#TDEADLYR    : 0
#TACTLYR     : 0.045
#TALWIND     : 0.025
#CHOFFSET    : 0.0
#XLABEL      : Energy (eV)
#YLABEL      : Counts
#XPOSITION   : 9.24178
#YPOSITION   : 19.02388
#ZPOSITION   : 37.36299
#EDSDET      : SD
##SPECIMEN   : GMIIIA K1235[6][all]
##D2STDCMP   : K1235,(O:39.17),(Al:8.86),(Si:21.16),(Ca:12.15),(Pd:1.74),(Ba:15.23),(Hf:1.7)
##DET_HASH   : 12273538-fd48-a23f-0a19-f1e6fa85caef
##CALIB_HASH : 6abaa72c-aa41-8738-0be9-f592914732f3
##WORKING    : 15.0 mm
##DET_NAME   : EDAX All
##DET_MODE   : MediumLE
#SPECTRUM    :
23,
26,
16,
26,
98,
431,
1192,
3118,
7698,
11266,
9246,
6749,
5518,
5726,
8583,
26706,
98004,
185203,
135483,
38079,
8140,
4515,
4208,
4142,
4308,
5231,
6123,
5550,
4645,
4481,
4457,
4745,
5488,
5850,
6203,
6061,
5575,
5037,
5098,
4950,
5241,
5397,
5741,
5864,
5897,
5976,
6857,
13134,
36308,
69757,
70950,
38531,
15189,
9011,
10192,
18672,
52937,
124269,
167173,
118305,
48612,
17718,
9191,
5709,
4316,
4129,
3860,
3526,
3641,
3448,
3475,
3537,
3445,
3516,
3812,
3859,
3821,
3623,
3489,
3314,
3222,
3332,
3222,
3134,
3111,
3220,
3186,
3274,
3152,
3066,
3149,
3159,
3083,
3050,
3020,
3010,
2864,
2956,
2935,
2937,
2947,
2922,
2832,
2766,
2861,
2836,
2769,
2900,
2849,
2721,
2654,
2595,
2559,
2598,
2593,
2779,
2769,
2978,
3182,
4277,
8330,
18831,
33765,
42225,
36034,
20667,
9173,
4027,
2651,
2582,
2937,
3747,
5375,
6836,
7120,
5919,
4011,
2740,
2239,
2015,
1967,
2061,
2147,
2084,
2340,
2978,
5032,
8800,
13163,
14882,
12286,
7840,
4179,
2428,
1951,
1745,
1913,
2094,
2987,
4594,
6623,
7717,
7156,
5611,
4064,
3145,
2592,
2118,
1947,
2166,
2637,
3353,
3660,
3310,
2632,
1994,
1630,
1518,
1502,
1472,
1551,
1544,
1695,
2049,
2174,
2174,
1922,
1612,
1488,
1432,
1376,
1369,
1503,
1568,
1645,
1450,
1325,
1286,
1266,
1262,
1244,
1220,
1143,
1169,
1173,
1188,
1161,
1143,
1113,
1063,
1112,
1081,
1113,
1133,
1109,
1111,
1088,
1007,
1038,
1062,
988,
1011,
971,
971,
929,
981,
920,
978,
909,
931,
906,
889,
884,
986,
879,
898,
889,
828,
906,
884,
854,
829,
841,
827,
829,
824,
857,
839,
855,
826,
820,
771,
782,
714,
753,
760,
731,
712,
768,
771,
884,
918,
953,
973,
952,
879,
708,
733,
733,
699,
720,
653,
695,
744,
676,
667,
641,
650,
679,
608,
589,
573,
588,
594,
593,
579,
565,
568,
603,
557,
586,
577,
585,
523,
564,
566,
532,
522,
570,
596,
597,
574,
611,
543,
570,
519,
509,
493,
481,
501,
488,
503,
538,
516,
467,
482,
449,
455,
421,
427,
402,
416,
391,
427,
394,
429,
423,
399,
401,
383,
359,
403,
369,
363,
380,
341,
418,
401,
343,
342,
350,
304,
361,
335,
356,
339,
358,
336,
350,
310,
319,
323,
368,
301,
324,
323,
323,
289,
321,
322,
320,
290,
259,
273,
271,
278,
295,
294,
248,
249,
231,
231,
262,
214,
253,
253,
230,
235,
223,
255,
238,
241,
231,
227,
214,
213,
231,
193,
174,
184,
200,
172,
187,
204,
186,
199,
159,
172,
167,
151,
188,
166,
170,
176,
167,
146,
165,
158,
155,
160,
145,
152,
134,
137,
124,
132,
139,
137,
127,
109,
131,
109,
113,
132,
113,
102,
110,
114,
101,
122,
87,
92,
106,
107,
98,
105,
86,
104,
91,
81,
95,
72,
69,
77,
73,
67,
78,
69,
85,
61,
74,
68,
67,
62,
50,
57,
50,
57,
53,
52,
47,
44,
52,
36,
42,
47,
43,
46,
29,
36,
42,
46,
45,
27,
36,
23,
32,
25,
17,
23,
23,
19,
10,
17,
7,
20,
23,
11,
10,
14,
10,
8,
13,
8,
5,
4,
4,
3,
4,
3,
1,
0,
0,
1,
0,
1,
1,
1,
1,
0,
1,
0,
0,
1,
1,
1,
1,
1,
1,
1,
0,
2,
0,
0,
0,
0,
0,
0,
0,
1,
0,
0,
0,
0,
1,
0,
0,
0,
0,
0,
1,
0,
1,
0,
0,
0,
0,
0,
0,
1,
0,
0,
0,
1,
0,
1,
0,
2,
0,
0,
0,
1,
0,
0,
0,
1,
0,
0,
0,
1,
1,
0,
0,
0,
0,
0,
1,
0,
1,
0,
0,
0,
1,
0,
0,
0,
0,
0,
0,
1,
0,
0,
0,
2,
0,
1,
0,
0,
0,
0,
0,
0,
0,
0,
0,
0,
0,
1,
0,
0,
0,
0,
0,
0,
0,
0,
0,
0,
0,
0,
0,
1,
0,
0,
0,
0,
0,
0,
0,
0,
0,
0,
0,
0,
0,
0,
0,
1,
0,
0,
0,
0,
0,
0,
1,
1,
0,
0,
0,
0,
0,
0,
0,
0,
0,
0,
0,
0,
0,
0,
0,
0,
0,
0,
0,
0,
0,
0,
0,
0,
0,
0,
0,
0,
0,
0,
0,
0,
0,
0,
0,
0,
0,
0,
0,
0,
0,
1,
0,
0,
0,
0,
0,
0,
0,
0,
0,
0,
0,
0,
0,
0,
0,
0,
0,
0,
0,
0,
0,
0,
0,
0,
0,
0,
0,
0,
0,
0,
0,
1,
0,
0,
0,
0,
0,
0,
0,
0,
0,
0,
0,
0,
0,
0,
0,
0,
0,
0,
0,
0,
0,
0,
0,
0,
0,
0,
0,
0,
0,
0,
0,
0,
0,
0,
0,
0,
0,
0,
0,
0,
0,
0,
0,
0,
0,
0,
0,
0,
0,
0,
0,
0,
0,
0,
0,
0,
0,
0,
0,
0,
0,
0,
0,
0,
0,
0,
0,
0,
0,
0,
0,
0,
0,
0,
0,
0,
0,
0,
0,
0,
0,
0,
0,
0,
0,
0,
0,
0,
0,
0,
0,
0,
0,
0,
0,
0,
0,
0,
0,
0,
0,
0,
0,
0,
0,
0,
0,
0,
0,
0,
0,
0,
0,
0,
0,
0,
0,
0,
0,
0,
0,
0,
0,
0,
0,
0,
0,
0,
0,
0,
0,
0,
0,
0,
0,
0,
0,
0,
0,
0,
0,
0,
0,
0,
0,
0,
0,
0,
0,
0,
0,
0,
0,
0,
0,
0,
0,
0,
0,
0,
0,
0,
0,
0,
0,
0,
0,
0,
0,
0,
0,
0,
0,
0,
0,
0,
0,
0,
0,
0,
0,
0,
0,
0,
0,
0,
0,
0,
0,
0,
0,
0,
0,
0,
0,
0,
0,
0,
0,
0,
0,
0,
0,
0,
0,
0,
0,
0,
0,
0,
0,
0,
0,
0,
0,
0,
0,
0,
0,
0,
0,
0,
0,
0,
0,
0,
0,
0,
0,
0,
0,
0,
0,
0,
0,
0,
0,
0,
0,
0,
0,
0,
0,
0,
0,
0,
0,
0,
0,
0,
0,
0,
0,
0,
0,
0,
0,
0,
0,
0,
0,
0,
0,
0,
0,
0,
0,
0,
0,
0,
0,
0,
0,
0,
0,
0,
0,
0,
0,
0,
0,
0,
0,
0,
0,
0,
0,
0,
0,
0,
0,
0,
0,
0,
0,
0,
0,
0,
0,
0,
0,
0,
0,
0,
0,
0,
0,
0,
0,
0,
0,
0,
0,
0,
0,
0,
0,
0,
0,
0,
0,
0,
0,
0,
0,
0,
0,
0,
0,
0,
0,
0,
0,
0,
0,
0,
0,
0,
0,
0,
0,
0,
0,
0,
0,
0,
0,
0,
0,
0,
0,
0,
0,
0,
0,
0,
0,
0,
0,
0,
0,
0,
0,
0,
0,
0,
0,
0,
0,
0,
0,
0,
0,
0,
0,
0,
0,
0,
0,
0,
0,
0,
0,
0,
0,
0,
0,
0,
0,
0,
0,
0,
0,
0,
0,
0,
0,
0,
0,
0,
0,
0,
0,
0,
0,
0,
0,
0,
0,
0,
0,
0,
0,
0,
0,
0,
0,
0,
0,
0,
0,
0,
0,
0,
0,
0,
0,
0,
0,
0,
0,
0,
0,
0,
0,
0,
0,
0,
0,
0,
0,
0,
0,
0,
0,
0,
0,
0,
0,
0,
0,
0,
0,
0,
0,
0,
0,
0,
0,
0,
0,
0,
0,
0,
0,
0,
0,
0,
0,
0,
0,
0,
0,
0,
0,
0,
0,
0,
0,
0,
0,
0,
0,
0,
0,
0,
0,
0,
0,
0,
0,
0,
0,
0,
0,
0,
0,
0,
0,
0,
0,
0,
0,
0,
0,
0,
0,
0,
0,
0,
0,
0,
0,
0,
0,
0,
0,
0,
0,
0,
0,
0,
0,
0,
0,
0,
0,
0,
0,
0,
0,
0,
0,
0,
0,
0,
0,
0,
0,
0,
0,
0,
0,
0,
0,
0,
0,
0,
0,
0,
0,
0,
0,
0,
0,
0,
0,
0,
0,
0,
0,
0,
0,
0,
0,
0,
0,
0,
0,
0,
0,
0,
0,
0,
0,
0,
0,
0,
0,
0,
0,
0,
0,
0,
0,
0,
0,
0,
0,
0,
0,
0,
0,
0,
0,
0,
0,
0,
0,
0,
0,
0,
0,
0,
0,
0,
0,
0,
0,
0,
0,
0,
0,
0,
0,
0,
0,
0,
0,
0,
0,
0,
0,
0,
0,
0,
0,
0,
0,
0,
0,
0,
0,
0,
0,
0,
0,
0,
0,
0,
0,
0,
0,
0,
0,
0,
#ENDOFDATA   :