File: N132962/Quantification/15 keV/GMIIIA/GMIIIA K1008[6][4].msa
#FORMAT      : EMSA/MAS Spectral Data File
#VERSION     : 1.0
#TITLE       : GMIIIA K1008[6][all]
#DATE        : 22-SEP-2025
#TIME        : 21:48
#OWNER       : Unknown
#NPOINTS     : 4096
#NCOLUMNS    : 1
#XUNITS      : eV
#YUNITS      : counts
#DATATYPE    : Y
#XPERCHAN    : 9.99778
#OFFSET      : 1.69135
#BEAMKV      : 15
#SIGNALTYPE  : EDS
#ELEVANGLE   : 35
#AZIMANGLE   : 0
#LIVETIME    : 239.976
#REALTIME    : 256.485
#PROBECUR    : 1.21615
#TAUWIND     : 0
#TDEADLYR    : 0
#TACTLYR     : 0.045
#TALWIND     : 0.025
#CHOFFSET    : 0.0
#XLABEL      : Energy (eV)
#YLABEL      : Counts
#XPOSITION   : 11.37831
#YPOSITION   : 15.07611
#ZPOSITION   : 37.36299
#EDSDET      : SD
##SPECIMEN   : GMIIIA K1008[6][all]
##D2STDCMP   : K1008,(O:38.68),(Na:1.67),(Al:8.92),(Si:21.02),(Ca:6.75),(Rb:2.06),(Sr:10.05),(Zr:0.83),(Cs:2.12),(Ba:2.02),(Ho:1.96),(Tm:1.97),(Yb:1.98)
##DET_HASH   : 12273538-fd48-a23f-0a19-f1e6fa85caef
##CALIB_HASH : 6abaa72c-aa41-8738-0be9-f592914732f3
##WORKING    : 15.0 mm
##DET_NAME   : EDAX All
##DET_MODE   : MediumLE
#SPECTRUM    :
27,
33,
15,
31,
145,
448,
1151,
2762,
6428,
8718,
6796,
4991,
4776,
5294,
8149,
25141,
90951,
171765,
124535,
34181,
6044,
3712,
4030,
4385,
4365,
4466,
4804,
4759,
4854,
4992,
5212,
5654,
6374,
9697,
16288,
17482,
11443,
7097,
6653,
6554,
6495,
6068,
6253,
6984,
8414,
10372,
11408,
17950,
44456,
83265,
85914,
50336,
22480,
12113,
10290,
18993,
57255,
133237,
180241,
143288,
83201,
48830,
28842,
16725,
9546,
6308,
5144,
4979,
5133,
4727,
4156,
3993,
3922,
3758,
3720,
3716,
3577,
3542,
3223,
3120,
3135,
3018,
3040,
3082,
3071,
3116,
3037,
3026,
2969,
2976,
2949,
2961,
3007,
2934,
2879,
3009,
2850,
2787,
2905,
2850,
2793,
2923,
2718,
2833,
2794,
2780,
2677,
2828,
2839,
2772,
2661,
2753,
2597,
2612,
2623,
2681,
2701,
2808,
2979,
3488,
5839,
11384,
19526,
24377,
20860,
12419,
6045,
3153,
2477,
2447,
2460,
2902,
3762,
4494,
4841,
4166,
3195,
2496,
2208,
2229,
2370,
3080,
3681,
3918,
3592,
3045,
2675,
2871,
3428,
3630,
3278,
2937,
2590,
2597,
2677,
2592,
2385,
2143,
2094,
2187,
2494,
2494,
2530,
2378,
2199,
2097,
1922,
1803,
1787,
1680,
1755,
1872,
1894,
1825,
1679,
1652,
1607,
1568,
1581,
1470,
1435,
1511,
1476,
1570,
1561,
1550,
1494,
1533,
1369,
1376,
1329,
1370,
1401,
1325,
1325,
1245,
1316,
1228,
1292,
1235,
1241,
1192,
1183,
1244,
1158,
1175,
1184,
1210,
1179,
1141,
1138,
1182,
1133,
1152,
1111,
1090,
1161,
1108,
1092,
1089,
1197,
1255,
1458,
1593,
1631,
1498,
1252,
1133,
1089,
932,
921,
871,
948,
923,
991,
983,
1099,
1270,
1381,
1387,
1384,
1273,
1191,
1015,
1122,
1211,
1336,
1375,
1312,
1277,
1213,
1149,
1057,
981,
877,
856,
861,
788,
769,
717,
780,
814,
777,
779,
849,
784,
813,
893,
840,
919,
916,
815,
840,
752,
777,
741,
677,
794,
788,
808,
853,
874,
794,
799,
699,
677,
674,
671,
632,
630,
620,
720,
665,
664,
602,
623,
609,
597,
529,
543,
533,
519,
564,
518,
554,
528,
515,
521,
449,
479,
501,
484,
491,
507,
542,
513,
516,
469,
436,
462,
459,
435,
416,
458,
463,
442,
475,
417,
454,
415,
442,
431,
385,
370,
350,
407,
422,
391,
380,
382,
351,
347,
361,
344,
354,
328,
323,
337,
349,
332,
279,
303,
297,
296,
300,
319,
300,
311,
282,
263,
274,
282,
276,
279,
272,
316,
271,
255,
259,
264,
257,
233,
254,
246,
247,
226,
253,
239,
201,
233,
235,
214,
250,
209,
240,
207,
191,
201,
244,
217,
182,
178,
178,
208,
162,
170,
196,
177,
196,
165,
165,
182,
150,
202,
148,
155,
155,
172,
131,
146,
156,
137,
138,
145,
139,
142,
133,
125,
144,
126,
119,
126,
152,
129,
110,
120,
138,
103,
97,
99,
106,
95,
95,
96,
84,
100,
97,
97,
91,
82,
98,
89,
75,
92,
73,
70,
83,
65,
72,
77,
79,
65,
57,
60,
46,
47,
58,
60,
67,
52,
45,
55,
50,
35,
59,
36,
26,
45,
39,
42,
33,
40,
33,
35,
34,
33,
27,
24,
28,
25,
14,
21,
30,
13,
16,
14,
15,
17,
16,
16,
11,
12,
9,
3,
7,
7,
3,
9,
5,
3,
3,
0,
1,
1,
1,
1,
1,
1,
0,
1,
0,
0,
1,
1,
2,
0,
0,
1,
1,
0,
1,
0,
0,
1,
0,
0,
0,
0,
1,
0,
0,
0,
1,
0,
1,
0,
0,
1,
1,
1,
0,
1,
0,
1,
0,
1,
0,
1,
0,
0,
0,
0,
0,
0,
0,
0,
0,
0,
0,
0,
0,
0,
0,
1,
0,
0,
0,
1,
0,
0,
1,
0,
0,
0,
0,
0,
1,
1,
0,
0,
0,
0,
0,
1,
0,
0,
0,
0,
2,
0,
0,
0,
0,
0,
0,
0,
0,
0,
0,
0,
0,
0,
0,
0,
0,
0,
0,
0,
0,
0,
0,
1,
0,
0,
0,
0,
0,
0,
0,
1,
0,
0,
0,
0,
0,
0,
0,
0,
0,
0,
0,
0,
0,
0,
0,
0,
0,
0,
0,
0,
0,
0,
0,
0,
0,
0,
0,
0,
0,
0,
0,
0,
0,
1,
0,
0,
0,
1,
0,
0,
0,
0,
1,
0,
0,
0,
0,
0,
0,
0,
0,
0,
0,
0,
0,
0,
0,
0,
0,
1,
0,
0,
0,
0,
0,
0,
0,
0,
0,
0,
0,
0,
0,
0,
0,
0,
0,
0,
0,
0,
0,
0,
0,
0,
0,
0,
0,
0,
0,
0,
0,
0,
0,
0,
0,
0,
0,
0,
0,
0,
0,
0,
0,
0,
0,
0,
0,
0,
0,
0,
0,
0,
0,
0,
0,
0,
0,
0,
0,
0,
0,
0,
0,
0,
0,
0,
0,
0,
1,
0,
0,
0,
0,
0,
0,
0,
0,
0,
0,
0,
0,
0,
0,
0,
0,
0,
0,
0,
0,
0,
0,
0,
0,
0,
0,
0,
0,
0,
0,
0,
0,
0,
0,
0,
0,
0,
0,
0,
0,
0,
0,
0,
0,
0,
0,
0,
0,
0,
0,
0,
0,
0,
0,
0,
0,
0,
0,
0,
0,
0,
0,
0,
0,
0,
0,
0,
0,
0,
0,
0,
0,
0,
0,
0,
0,
0,
0,
0,
0,
0,
0,
0,
0,
0,
0,
0,
0,
0,
0,
0,
0,
0,
0,
0,
0,
0,
0,
0,
0,
0,
0,
0,
0,
0,
0,
0,
0,
0,
0,
0,
0,
0,
0,
0,
0,
0,
0,
0,
0,
0,
0,
0,
0,
0,
0,
0,
0,
0,
0,
0,
0,
0,
0,
0,
0,
0,
0,
0,
0,
0,
0,
0,
0,
0,
0,
0,
0,
0,
0,
0,
0,
0,
0,
0,
0,
0,
0,
0,
0,
0,
0,
0,
0,
0,
0,
0,
0,
0,
0,
0,
0,
0,
0,
0,
0,
0,
0,
0,
0,
0,
0,
0,
0,
0,
0,
0,
0,
0,
0,
0,
0,
0,
0,
0,
0,
0,
0,
0,
0,
0,
0,
0,
0,
0,
0,
0,
0,
0,
0,
0,
0,
0,
0,
0,
0,
0,
0,
0,
0,
0,
0,
0,
0,
0,
0,
0,
0,
0,
0,
0,
0,
0,
0,
0,
0,
0,
0,
0,
0,
0,
0,
0,
0,
0,
0,
0,
0,
0,
0,
0,
0,
0,
0,
0,
0,
0,
0,
0,
0,
0,
0,
0,
0,
0,
0,
0,
0,
0,
0,
0,
0,
0,
0,
0,
0,
0,
0,
0,
0,
0,
0,
0,
0,
0,
0,
0,
0,
0,
0,
0,
0,
0,
0,
0,
0,
0,
0,
0,
0,
0,
0,
0,
0,
0,
0,
0,
0,
0,
0,
0,
0,
0,
0,
0,
0,
0,
0,
0,
0,
0,
0,
0,
0,
0,
0,
0,
0,
0,
0,
0,
0,
0,
0,
0,
0,
0,
0,
0,
0,
0,
0,
0,
0,
0,
0,
0,
0,
0,
0,
0,
0,
0,
0,
0,
0,
0,
0,
0,
0,
0,
0,
0,
0,
0,
0,
0,
0,
0,
0,
0,
0,
0,
0,
0,
0,
0,
0,
0,
0,
0,
0,
0,
0,
0,
0,
0,
0,
0,
0,
0,
0,
0,
0,
0,
0,
0,
0,
0,
0,
0,
0,
0,
0,
0,
0,
0,
0,
0,
0,
0,
0,
0,
0,
0,
0,
0,
0,
0,
0,
0,
0,
0,
0,
0,
0,
0,
0,
0,
0,
0,
0,
0,
0,
0,
0,
0,
0,
0,
0,
0,
0,
0,
0,
0,
0,
0,
0,
0,
0,
0,
0,
0,
0,
0,
0,
0,
0,
0,
0,
0,
0,
0,
0,
0,
0,
0,
0,
0,
0,
0,
0,
0,
0,
0,
0,
0,
0,
0,
0,
0,
0,
0,
0,
0,
0,
0,
0,
0,
0,
0,
0,
0,
0,
0,
0,
0,
0,
0,
0,
0,
0,
0,
0,
0,
0,
0,
0,
0,
0,
0,
0,
0,
0,
0,
0,
0,
0,
0,
0,
0,
0,
0,
0,
0,
0,
0,
0,
0,
0,
0,
0,
0,
0,
0,
0,
0,
0,
0,
0,
0,
0,
0,
0,
0,
0,
0,
0,
0,
0,
0,
0,
0,
0,
0,
0,
0,
0,
0,
0,
0,
0,
0,
0,
0,
0,
0,
0,
0,
0,
0,
0,
0,
0,
0,
0,
0,
0,
0,
0,
0,
0,
0,
0,
0,
0,
0,
0,
0,
0,
0,
0,
0,
0,
0,
0,
0,
0,
0,
0,
0,
0,
0,
0,
0,
0,
0,
0,
0,
0,
0,
0,
0,
0,
0,
0,
0,
#ENDOFDATA   :