File: N132962/Quantification/15 keV/GMIIIA/GMIIIA K1010[6][4].msa
#FORMAT      : EMSA/MAS Spectral Data File
#VERSION     : 1.0
#TITLE       : GMIIIA K1010[6][all]
#DATE        : 22-SEP-2025
#TIME        : 21:38
#OWNER       : Unknown
#NPOINTS     : 4096
#NCOLUMNS    : 1
#XUNITS      : eV
#YUNITS      : counts
#DATATYPE    : Y
#XPERCHAN    : 9.99778
#OFFSET      : 1.69135
#BEAMKV      : 15
#SIGNALTYPE  : EDS
#ELEVANGLE   : 35
#AZIMANGLE   : 0
#LIVETIME    : 239.996
#REALTIME    : 256.229
#PROBECUR    : 1.21615
#TAUWIND     : 0
#TDEADLYR    : 0
#TACTLYR     : 0.045
#TALWIND     : 0.025
#CHOFFSET    : 0.0
#XLABEL      : Energy (eV)
#YLABEL      : Counts
#XPOSITION   : 8.89533
#YPOSITION   : 15.47443
#ZPOSITION   : 37.36299
#EDSDET      : SD
##SPECIMEN   : GMIIIA K1010[6][all]
##D2STDCMP   : K1010,(O:38.96),(Al:8.92),(Si:21.02),(K:1.87),(Ca:6.75),(Ge:1.56),(Rb:2.06),(Sr:10.05),(Te:0.9),(Cs:2.12),(La:1.92),(Eu:1.94),(Gd:1.95)
##DET_HASH   : 12273538-fd48-a23f-0a19-f1e6fa85caef
##CALIB_HASH : 6abaa72c-aa41-8738-0be9-f592914732f3
##WORKING    : 15.0 mm
##DET_NAME   : EDAX All
##DET_MODE   : MediumLE
#SPECTRUM    :
25,
23,
10,
43,
103,
401,
1154,
2723,
6523,
8733,
6398,
4901,
4627,
5220,
7822,
24653,
90370,
171373,
123560,
33663,
5923,
3753,
4030,
4152,
4092,
4129,
4464,
5053,
5601,
5934,
5813,
5625,
5671,
5803,
6556,
6709,
6926,
8289,
11001,
14513,
15408,
11811,
8082,
6609,
6391,
6641,
7588,
14177,
38734,
74121,
75353,
41838,
16955,
9777,
9376,
18277,
56459,
134056,
182349,
144431,
84576,
49116,
29122,
17081,
9584,
6207,
4607,
3971,
3407,
3235,
3118,
3213,
3291,
3465,
3558,
3763,
3643,
3590,
3294,
3141,
3087,
3054,
3025,
3087,
3079,
2940,
2998,
2979,
2920,
2925,
2881,
2875,
2853,
2824,
2836,
2845,
2918,
2815,
2876,
2931,
2849,
2819,
2808,
2730,
2683,
2884,
2932,
3305,
4509,
6824,
8968,
9131,
6575,
4124,
3016,
2753,
2852,
2854,
3331,
4055,
6564,
12014,
19957,
24393,
20719,
12795,
6629,
3656,
2666,
2366,
2473,
2765,
3598,
4590,
5029,
4455,
3389,
2543,
2327,
2217,
2438,
3030,
3744,
3895,
3438,
2766,
2211,
1885,
1913,
1926,
2005,
2149,
2686,
3268,
3650,
4024,
3309,
2757,
2166,
1871,
1766,
1723,
1750,
1811,
1977,
1996,
2035,
2164,
2246,
2110,
2004,
1857,
1735,
1658,
1659,
1611,
1604,
1617,
1707,
1682,
1658,
1615,
1587,
1525,
1458,
1434,
1390,
1353,
1297,
1336,
1395,
1554,
1685,
1986,
2192,
2219,
2031,
1703,
1554,
1590,
1768,
1973,
2039,
1877,
1558,
1338,
1217,
1174,
1166,
1047,
1085,
1174,
1237,
1366,
1385,
1483,
1448,
1289,
1243,
1123,
1105,
1188,
1237,
1294,
1376,
1277,
1244,
1226,
1195,
1136,
1052,
983,
935,
927,
958,
1002,
1039,
1002,
995,
913,
917,
876,
824,
833,
835,
858,
823,
792,
865,
929,
808,
856,
792,
765,
795,
791,
778,
799,
789,
811,
770,
804,
733,
687,
714,
703,
740,
644,
671,
685,
696,
665,
708,
613,
643,
644,
640,
649,
566,
633,
600,
595,
560,
595,
602,
574,
589,
562,
556,
560,
588,
563,
528,
570,
552,
521,
508,
542,
518,
537,
495,
483,
499,
495,
488,
466,
504,
496,
463,
490,
456,
475,
456,
472,
454,
433,
398,
451,
461,
440,
416,
413,
435,
392,
430,
427,
505,
602,
590,
614,
555,
564,
480,
430,
380,
353,
372,
377,
357,
372,
366,
383,
346,
334,
341,
295,
348,
318,
292,
322,
310,
295,
323,
322,
245,
295,
262,
275,
269,
295,
270,
284,
260,
254,
308,
281,
277,
332,
258,
274,
243,
247,
222,
228,
222,
253,
238,
230,
197,
225,
234,
211,
191,
206,
190,
220,
199,
198,
196,
189,
185,
181,
159,
179,
173,
175,
161,
164,
156,
153,
184,
154,
158,
154,
179,
162,
143,
139,
130,
126,
140,
143,
135,
128,
124,
147,
112,
133,
116,
118,
120,
114,
122,
85,
102,
105,
104,
113,
103,
119,
84,
88,
106,
100,
107,
94,
93,
78,
71,
85,
95,
76,
69,
65,
65,
69,
80,
67,
75,
75,
60,
75,
65,
55,
71,
48,
57,
57,
45,
45,
50,
48,
49,
40,
43,
42,
43,
43,
44,
33,
34,
29,
32,
41,
27,
24,
35,
26,
27,
16,
22,
28,
19,
16,
15,
21,
16,
22,
18,
8,
13,
14,
9,
9,
8,
8,
6,
2,
2,
3,
1,
0,
0,
0,
0,
1,
1,
1,
0,
1,
1,
0,
0,
0,
0,
1,
0,
1,
0,
0,
0,
0,
2,
0,
0,
0,
5,
0,
1,
0,
1,
0,
0,
0,
1,
0,
0,
0,
0,
1,
2,
0,
2,
0,
1,
0,
0,
0,
0,
0,
0,
0,
1,
0,
1,
1,
0,
1,
1,
0,
0,
0,
0,
0,
0,
0,
0,
1,
0,
1,
1,
0,
1,
1,
0,
0,
0,
1,
1,
0,
1,
0,
0,
0,
1,
1,
0,
0,
0,
1,
0,
0,
0,
0,
0,
1,
0,
2,
0,
0,
1,
0,
0,
0,
0,
0,
0,
0,
0,
0,
0,
1,
0,
0,
0,
0,
0,
0,
0,
0,
0,
0,
1,
0,
0,
0,
1,
1,
0,
0,
1,
0,
0,
0,
0,
0,
0,
0,
0,
0,
0,
0,
0,
0,
0,
0,
1,
0,
0,
2,
0,
0,
0,
0,
0,
0,
0,
0,
0,
0,
0,
0,
0,
1,
0,
0,
0,
0,
0,
0,
0,
0,
0,
0,
0,
0,
0,
0,
0,
0,
0,
0,
0,
0,
0,
0,
0,
0,
0,
0,
0,
0,
0,
0,
0,
1,
0,
0,
0,
1,
0,
0,
0,
0,
0,
0,
0,
0,
0,
0,
0,
0,
1,
0,
0,
0,
0,
0,
0,
0,
0,
0,
0,
0,
0,
0,
0,
0,
0,
0,
0,
0,
0,
0,
0,
0,
0,
0,
0,
0,
0,
0,
0,
0,
0,
0,
0,
1,
0,
0,
0,
0,
0,
0,
0,
0,
0,
0,
0,
0,
0,
0,
0,
0,
0,
0,
0,
0,
0,
0,
0,
0,
0,
0,
0,
0,
0,
0,
0,
0,
0,
0,
0,
0,
0,
0,
0,
0,
0,
0,
0,
0,
0,
0,
0,
0,
0,
0,
0,
0,
0,
0,
0,
0,
0,
0,
0,
0,
0,
0,
0,
0,
0,
0,
0,
0,
0,
0,
0,
0,
0,
0,
0,
0,
0,
0,
0,
0,
0,
0,
0,
0,
0,
0,
0,
0,
0,
0,
0,
0,
0,
0,
0,
0,
0,
0,
0,
0,
0,
0,
0,
0,
0,
0,
0,
0,
0,
0,
0,
0,
0,
0,
0,
0,
0,
0,
0,
0,
0,
0,
0,
0,
0,
0,
0,
0,
0,
0,
0,
0,
0,
0,
0,
0,
0,
0,
0,
0,
0,
0,
0,
0,
0,
0,
0,
0,
0,
0,
0,
0,
0,
0,
0,
0,
0,
0,
0,
0,
0,
0,
0,
0,
0,
0,
0,
0,
0,
0,
0,
0,
0,
0,
0,
0,
0,
0,
0,
0,
0,
0,
0,
0,
0,
0,
0,
0,
0,
0,
0,
0,
0,
0,
0,
0,
0,
0,
0,
0,
0,
0,
0,
0,
0,
0,
0,
0,
0,
0,
0,
0,
0,
0,
0,
0,
0,
0,
0,
0,
0,
0,
0,
0,
0,
0,
0,
0,
0,
0,
0,
0,
0,
0,
0,
0,
0,
0,
0,
0,
0,
0,
0,
0,
0,
0,
0,
0,
0,
0,
0,
0,
0,
0,
0,
0,
0,
0,
0,
0,
0,
0,
0,
0,
0,
0,
0,
0,
0,
0,
0,
0,
0,
0,
0,
0,
0,
0,
0,
0,
0,
0,
0,
0,
0,
0,
0,
0,
0,
0,
0,
0,
0,
0,
0,
0,
0,
0,
0,
0,
0,
0,
0,
0,
0,
0,
0,
0,
0,
0,
0,
0,
0,
0,
0,
0,
0,
0,
0,
0,
0,
0,
0,
0,
0,
0,
0,
0,
0,
0,
0,
0,
0,
0,
0,
0,
0,
0,
0,
0,
0,
0,
0,
0,
0,
0,
0,
0,
0,
0,
0,
0,
0,
0,
0,
0,
0,
0,
0,
0,
0,
0,
0,
0,
0,
0,
0,
0,
0,
0,
0,
0,
0,
0,
0,
0,
0,
0,
0,
0,
0,
0,
0,
0,
0,
0,
0,
0,
0,
0,
0,
0,
0,
0,
0,
0,
0,
0,
0,
0,
0,
0,
0,
0,
0,
0,
0,
0,
0,
0,
0,
0,
0,
0,
0,
0,
0,
0,
0,
0,
0,
0,
0,
0,
0,
0,
0,
0,
0,
0,
0,
0,
0,
0,
0,
0,
0,
0,
0,
0,
0,
0,
0,
0,
0,
0,
0,
0,
0,
0,
0,
0,
0,
0,
0,
0,
0,
0,
0,
0,
0,
0,
0,
0,
0,
0,
0,
0,
0,
0,
0,
0,
0,
0,
0,
0,
0,
0,
0,
0,
0,
0,
0,
0,
0,
0,
0,
0,
0,
0,
0,
0,
0,
0,
0,
0,
0,
0,
0,
0,
0,
0,
0,
0,
0,
0,
0,
0,
0,
0,
0,
0,
0,
0,
0,
0,
0,
0,
0,
0,
0,
0,
0,
0,
0,
0,
0,
0,
0,
0,
0,
0,
0,
0,
0,
0,
0,
0,
0,
0,
0,
0,
0,
0,
0,
0,
0,
0,
0,
0,
0,
0,
0,
0,
0,
0,
0,
0,
0,
0,
0,
0,
0,
0,
0,
0,
0,
0,
0,
0,
0,
0,
0,
0,
0,
0,
0,
0,
0,
0,
0,
0,
0,
0,
0,
0,
0,
0,
0,
0,
0,
0,
0,
0,
0,
0,
0,
0,
0,
0,
0,
0,
0,
0,
0,
0,
0,
0,
0,
0,
0,
0,
0,
0,
0,
0,
0,
0,
#ENDOFDATA   :