File: N132962/Quantification/15 keV/GMIIIA/GMIIIA K1008[1][4].msa
#FORMAT      : EMSA/MAS Spectral Data File
#VERSION     : 1.0
#TITLE       : GMIIIA K1008[1][all]
#DATE        : 22-SEP-2025
#TIME        : 21:42
#OWNER       : Unknown
#NPOINTS     : 4096
#NCOLUMNS    : 1
#XUNITS      : eV
#YUNITS      : counts
#DATATYPE    : Y
#XPERCHAN    : 9.99778
#OFFSET      : 1.69135
#BEAMKV      : 15
#SIGNALTYPE  : EDS
#ELEVANGLE   : 35
#AZIMANGLE   : 0
#LIVETIME    : 239.962
#REALTIME    : 256.486
#PROBECUR    : 1.21615
#TAUWIND     : 0
#TDEADLYR    : 0
#TACTLYR     : 0.045
#TALWIND     : 0.025
#CHOFFSET    : 0.0
#XLABEL      : Energy (eV)
#YLABEL      : Counts
#XPOSITION   : 11.40584
#YPOSITION   : 15.06884
#ZPOSITION   : 37.36299
#EDSDET      : SD
##SPECIMEN   : GMIIIA K1008[1][all]
##D2STDCMP   : K1008,(O:38.68),(Na:1.67),(Al:8.92),(Si:21.02),(Ca:6.75),(Rb:2.06),(Sr:10.05),(Zr:0.83),(Cs:2.12),(Ba:2.02),(Ho:1.96),(Tm:1.97),(Yb:1.98)
##DET_HASH   : 12273538-fd48-a23f-0a19-f1e6fa85caef
##CALIB_HASH : 6abaa72c-aa41-8738-0be9-f592914732f3
##WORKING    : 15.0 mm
##DET_NAME   : EDAX All
##DET_MODE   : MediumLE
#SPECTRUM    :
35,
25,
8,
35,
136,
415,
1169,
2775,
6356,
8637,
6609,
4955,
4735,
5202,
8107,
25154,
91038,
171211,
124876,
33774,
6196,
3625,
4144,
4383,
4469,
4533,
4646,
4757,
4813,
5077,
5250,
5598,
6359,
9830,
16257,
17668,
11318,
7348,
6678,
6569,
6513,
6230,
6302,
7004,
8630,
10505,
11403,
17913,
44259,
82692,
85667,
50187,
22563,
12177,
10324,
18820,
57289,
132938,
180894,
143464,
84009,
48918,
29227,
16736,
9703,
6371,
5143,
4903,
5076,
4774,
4152,
4047,
3767,
3672,
3765,
3704,
3569,
3417,
3251,
3150,
3079,
3046,
3020,
3130,
3022,
3025,
3005,
2968,
2908,
2933,
2935,
3054,
2980,
2882,
2891,
2925,
2807,
2948,
2865,
2812,
2852,
2775,
2819,
2651,
2748,
2734,
2813,
2738,
2873,
2747,
2647,
2698,
2544,
2604,
2636,
2693,
2750,
2771,
2907,
3481,
5839,
11335,
19705,
24134,
20812,
12562,
6135,
3309,
2514,
2415,
2505,
2858,
3630,
4490,
4849,
4181,
3224,
2515,
2180,
2199,
2547,
2956,
3608,
3716,
3402,
2895,
2623,
2776,
3402,
3550,
3248,
2882,
2690,
2566,
2662,
2662,
2412,
2125,
2113,
2260,
2426,
2480,
2450,
2385,
2204,
2076,
1921,
1773,
1658,
1580,
1709,
1801,
1875,
1767,
1747,
1698,
1644,
1585,
1540,
1540,
1487,
1502,
1503,
1584,
1559,
1548,
1476,
1366,
1270,
1349,
1384,
1259,
1368,
1378,
1327,
1328,
1360,
1330,
1264,
1295,
1287,
1187,
1202,
1129,
1138,
1088,
1178,
1206,
1158,
1188,
1148,
1113,
1136,
1148,
1124,
1078,
1105,
1117,
1098,
1082,
1159,
1249,
1444,
1600,
1644,
1493,
1343,
1194,
1056,
1066,
978,
905,
912,
985,
902,
996,
1035,
1209,
1358,
1450,
1389,
1255,
1069,
1052,
1057,
1182,
1247,
1367,
1443,
1301,
1269,
1119,
1086,
929,
871,
862,
860,
800,
820,
714,
759,
744,
831,
827,
877,
825,
798,
830,
817,
914,
791,
841,
778,
788,
774,
756,
709,
753,
798,
775,
806,
848,
786,
745,
755,
636,
658,
628,
613,
676,
651,
662,
654,
644,
643,
618,
609,
532,
542,
524,
516,
520,
580,
538,
497,
512,
535,
534,
525,
508,
475,
511,
479,
469,
479,
512,
475,
467,
442,
427,
457,
425,
438,
425,
443,
464,
453,
433,
454,
420,
404,
390,
354,
383,
391,
394,
408,
402,
405,
380,
372,
362,
361,
363,
349,
333,
336,
336,
355,
337,
320,
314,
315,
313,
325,
328,
299,
302,
317,
285,
277,
287,
277,
261,
247,
259,
263,
293,
265,
268,
275,
231,
239,
234,
242,
238,
243,
212,
251,
217,
236,
238,
231,
222,
235,
201,
200,
204,
205,
203,
178,
173,
219,
185,
189,
158,
192,
181,
190,
171,
172,
173,
180,
197,
164,
188,
139,
149,
132,
145,
162,
123,
142,
143,
127,
134,
137,
129,
135,
129,
103,
129,
110,
114,
122,
106,
113,
107,
114,
92,
93,
88,
103,
109,
90,
96,
83,
90,
89,
79,
93,
81,
72,
84,
79,
75,
57,
59,
72,
77,
55,
72,
69,
82,
56,
67,
63,
58,
45,
55,
45,
55,
42,
47,
38,
39,
46,
31,
39,
39,
38,
35,
37,
23,
28,
31,
25,
20,
32,
21,
23,
23,
24,
14,
16,
21,
13,
15,
14,
17,
22,
16,
9,
6,
9,
5,
5,
6,
2,
2,
1,
1,
0,
5,
1,
1,
0,
0,
0,
0,
0,
0,
0,
0,
1,
0,
0,
1,
1,
0,
1,
0,
0,
0,
1,
0,
3,
0,
0,
0,
0,
0,
0,
1,
1,
0,
2,
0,
0,
0,
0,
0,
0,
0,
0,
0,
0,
0,
1,
0,
0,
0,
2,
0,
0,
0,
1,
0,
0,
1,
2,
0,
0,
1,
1,
0,
0,
0,
0,
0,
1,
0,
0,
0,
0,
1,
1,
1,
1,
0,
0,
0,
1,
0,
0,
0,
0,
0,
0,
0,
0,
0,
1,
0,
1,
0,
0,
0,
0,
0,
0,
0,
0,
0,
1,
0,
0,
0,
0,
0,
0,
0,
0,
1,
0,
0,
0,
0,
0,
0,
1,
0,
0,
0,
0,
0,
1,
0,
0,
0,
0,
0,
1,
0,
1,
0,
0,
0,
0,
0,
0,
0,
0,
0,
0,
0,
0,
0,
0,
1,
0,
0,
0,
0,
0,
0,
0,
0,
1,
0,
0,
0,
0,
0,
0,
0,
0,
0,
0,
0,
0,
0,
0,
0,
0,
0,
0,
0,
0,
0,
0,
0,
0,
0,
1,
0,
0,
0,
0,
0,
0,
0,
0,
0,
0,
0,
0,
0,
0,
0,
0,
0,
0,
0,
0,
0,
0,
0,
0,
0,
0,
0,
0,
0,
0,
0,
0,
0,
0,
0,
0,
0,
1,
0,
0,
0,
0,
0,
0,
0,
0,
0,
0,
0,
0,
0,
0,
0,
0,
0,
0,
0,
0,
0,
0,
0,
0,
0,
0,
0,
0,
0,
0,
0,
0,
0,
0,
0,
0,
0,
0,
0,
0,
0,
0,
0,
0,
0,
0,
0,
0,
0,
0,
1,
0,
0,
0,
0,
0,
0,
0,
0,
0,
0,
0,
0,
0,
0,
0,
0,
0,
0,
0,
0,
0,
0,
0,
0,
0,
0,
0,
0,
0,
0,
0,
0,
0,
0,
0,
0,
0,
0,
0,
0,
0,
0,
0,
0,
0,
0,
0,
0,
0,
0,
0,
0,
0,
0,
0,
0,
0,
0,
0,
0,
0,
0,
0,
0,
0,
0,
0,
0,
0,
0,
0,
0,
0,
0,
0,
0,
0,
0,
0,
0,
0,
0,
0,
0,
0,
0,
0,
0,
0,
0,
0,
0,
0,
0,
0,
0,
0,
0,
0,
0,
0,
0,
0,
0,
0,
0,
0,
0,
0,
0,
0,
0,
0,
0,
0,
0,
0,
0,
0,
0,
0,
0,
0,
0,
0,
0,
0,
0,
0,
0,
0,
0,
0,
0,
0,
0,
0,
0,
0,
0,
0,
0,
0,
0,
0,
0,
0,
0,
0,
0,
0,
0,
0,
0,
0,
0,
0,
0,
0,
0,
0,
0,
0,
0,
0,
0,
0,
0,
0,
0,
0,
0,
0,
0,
0,
0,
0,
0,
0,
0,
0,
0,
0,
0,
0,
0,
0,
0,
0,
0,
0,
0,
0,
0,
0,
0,
0,
0,
0,
0,
0,
0,
0,
0,
0,
0,
0,
0,
0,
0,
0,
0,
0,
0,
0,
0,
0,
0,
0,
0,
0,
0,
0,
0,
0,
0,
0,
0,
0,
0,
0,
0,
0,
0,
0,
0,
0,
0,
0,
0,
0,
0,
0,
0,
0,
0,
0,
0,
0,
0,
0,
0,
0,
0,
0,
0,
0,
0,
0,
0,
0,
0,
0,
0,
0,
0,
0,
0,
0,
0,
0,
0,
0,
0,
0,
0,
0,
0,
0,
0,
0,
0,
0,
0,
0,
0,
0,
0,
0,
0,
0,
0,
0,
0,
0,
0,
0,
0,
0,
0,
0,
0,
0,
0,
0,
0,
0,
0,
0,
0,
0,
0,
0,
0,
0,
0,
0,
0,
0,
0,
0,
0,
0,
0,
0,
0,
0,
0,
0,
0,
0,
0,
0,
0,
0,
0,
0,
0,
0,
0,
0,
0,
0,
0,
0,
0,
0,
0,
0,
0,
0,
0,
0,
0,
0,
0,
0,
0,
0,
0,
0,
0,
0,
0,
0,
0,
0,
0,
0,
0,
0,
0,
0,
0,
0,
0,
0,
0,
0,
0,
0,
0,
0,
0,
0,
0,
0,
0,
0,
0,
0,
0,
0,
0,
0,
0,
0,
0,
0,
0,
0,
0,
0,
0,
0,
0,
0,
0,
0,
0,
0,
0,
0,
0,
0,
0,
0,
0,
0,
0,
0,
0,
0,
0,
0,
0,
0,
0,
0,
0,
0,
0,
0,
0,
0,
0,
0,
0,
0,
0,
0,
0,
0,
0,
0,
0,
0,
0,
0,
0,
0,
0,
0,
0,
0,
0,
0,
0,
0,
0,
0,
0,
0,
0,
0,
0,
0,
0,
0,
0,
0,
0,
0,
0,
0,
0,
0,
0,
0,
0,
0,
0,
0,
0,
0,
0,
0,
0,
0,
0,
0,
0,
0,
0,
0,
0,
0,
0,
0,
0,
0,
0,
0,
0,
0,
0,
0,
0,
0,
0,
0,
0,
0,
0,
0,
0,
0,
0,
0,
0,
0,
0,
0,
0,
0,
0,
0,
0,
0,
0,
0,
0,
0,
0,
0,
0,
0,
0,
0,
0,
0,
0,
0,
0,
0,
0,
0,
0,
0,
0,
0,
0,
0,
0,
0,
0,
0,
0,
0,
0,
0,
0,
0,
0,
0,
0,
0,
0,
0,
0,
0,
0,
0,
0,
0,
0,
0,
0,
0,
0,
0,
0,
0,
0,
0,
0,
0,
0,
0,
0,
0,
0,
#ENDOFDATA   :