File: N132962/Quantification/15 keV/GMIIIA/GMIIIA K1070[7][4].msa
#FORMAT      : EMSA/MAS Spectral Data File
#VERSION     : 1.0
#TITLE       : GMIIIA K1070[7][all]
#DATE        : 22-SEP-2025
#TIME        : 21:08
#OWNER       : Unknown
#NPOINTS     : 4096
#NCOLUMNS    : 1
#XUNITS      : eV
#YUNITS      : counts
#DATATYPE    : Y
#XPERCHAN    : 9.99778
#OFFSET      : 1.69135
#BEAMKV      : 15
#SIGNALTYPE  : EDS
#ELEVANGLE   : 35
#AZIMANGLE   : 0
#LIVETIME    : 239.982
#REALTIME    : 256.1653
#PROBECUR    : 1.21822
#TAUWIND     : 0
#TDEADLYR    : 0
#TACTLYR     : 0.045
#TALWIND     : 0.025
#CHOFFSET    : 0.0
#XLABEL      : Energy (eV)
#YLABEL      : Counts
#XPOSITION   : 2.44658
#YPOSITION   : 15.70602
#ZPOSITION   : 37.36299
#EDSDET      : SD
##SPECIMEN   : GMIIIA K1070[7][all]
##D2STDCMP   : K1070,(O:34.31),(Mg:7.54),(Si:18.7),(Ca:8.93),(Zn:10.04),(Ba:11.2),(Pb:9.28)
##DET_HASH   : 12273538-fd48-a23f-0a19-f1e6fa85caef
##CALIB_HASH : 6abaa72c-aa41-8738-0be9-f592914732f3
##WORKING    : 15.0 mm
##DET_NAME   : EDAX All
##DET_MODE   : MediumLE
#SPECTRUM    :
24,
19,
15,
17,
125,
453,
1278,
3245,
7719,
10808,
8949,
6445,
5702,
5887,
8640,
25197,
88854,
165706,
121127,
34718,
8314,
5105,
4995,
5096,
5244,
5888,
6517,
6433,
6601,
7498,
7891,
8982,
17246,
36171,
44799,
29326,
13041,
7040,
6267,
8515,
19995,
44687,
52756,
31242,
12216,
6209,
5357,
5336,
5440,
5769,
6064,
6078,
5903,
5907,
6671,
13047,
43964,
108425,
146461,
104110,
44743,
17572,
9563,
6223,
4671,
4361,
4307,
4139,
3969,
3949,
3998,
4188,
4074,
4425,
4741,
5548,
8262,
13590,
17833,
17684,
14637,
13524,
11843,
8211,
5305,
3991,
3851,
4110,
4224,
4273,
3986,
3611,
3630,
3419,
3441,
3402,
3401,
3279,
3186,
3366,
3415,
3476,
3295,
3528,
3348,
3283,
3241,
3092,
2984,
2883,
2950,
2884,
2884,
2932,
2951,
2995,
3010,
3111,
3294,
4078,
7152,
14798,
26087,
31918,
27505,
16349,
7696,
3868,
2813,
2837,
3022,
3718,
4780,
5943,
6236,
5265,
3854,
2911,
2492,
2386,
2344,
2370,
2314,
2461,
2541,
3010,
4440,
7442,
10623,
11768,
10050,
6656,
3929,
2637,
2232,
2106,
2148,
2335,
2986,
4324,
5676,
6320,
5879,
4792,
3850,
3019,
2498,
2271,
2176,
2241,
2695,
3099,
3508,
3122,
2599,
2093,
1846,
1752,
1691,
1711,
1724,
1769,
2007,
2039,
2327,
2209,
2095,
1758,
1682,
1573,
1607,
1604,
1690,
1766,
1775,
1669,
1571,
1582,
1510,
1485,
1456,
1433,
1412,
1369,
1346,
1335,
1381,
1390,
1368,
1305,
1368,
1344,
1316,
1328,
1368,
1232,
1238,
1252,
1263,
1229,
1146,
1233,
1283,
1187,
1173,
1135,
1170,
1153,
1174,
1186,
1120,
1149,
1117,
1125,
1117,
1107,
1091,
998,
1104,
1040,
1052,
1000,
1063,
1073,
1033,
1032,
996,
1024,
994,
1052,
957,
987,
993,
952,
941,
921,
971,
898,
923,
864,
876,
883,
922,
883,
882,
858,
826,
863,
795,
842,
787,
818,
783,
810,
837,
858,
774,
810,
743,
778,
762,
850,
906,
1092,
1710,
2362,
3104,
3877,
3919,
3387,
2485,
1658,
1162,
857,
768,
734,
622,
668,
617,
667,
664,
663,
601,
668,
634,
644,
631,
624,
591,
621,
581,
586,
594,
642,
609,
756,
778,
876,
977,
958,
940,
772,
747,
622,
577,
540,
466,
487,
477,
465,
506,
446,
466,
436,
478,
454,
465,
476,
413,
468,
418,
447,
420,
410,
464,
431,
425,
425,
436,
485,
521,
537,
536,
442,
421,
447,
390,
373,
410,
335,
346,
360,
376,
332,
350,
351,
328,
324,
336,
347,
297,
301,
316,
312,
329,
307,
279,
292,
270,
296,
270,
295,
261,
262,
297,
295,
289,
261,
244,
252,
247,
236,
226,
229,
199,
237,
228,
220,
207,
235,
205,
203,
207,
191,
209,
186,
217,
205,
219,
182,
166,
170,
185,
156,
165,
159,
177,
155,
193,
186,
166,
175,
149,
152,
160,
144,
163,
137,
108,
139,
128,
138,
137,
117,
117,
112,
114,
106,
99,
100,
112,
116,
110,
111,
82,
101,
87,
97,
100,
92,
98,
78,
67,
72,
84,
72,
79,
85,
71,
65,
56,
56,
67,
55,
51,
55,
56,
52,
44,
58,
51,
55,
37,
49,
44,
35,
46,
41,
29,
25,
25,
39,
30,
33,
38,
23,
16,
19,
12,
21,
15,
18,
12,
9,
10,
4,
9,
7,
5,
6,
4,
2,
0,
3,
1,
0,
2,
0,
1,
2,
3,
2,
1,
1,
0,
0,
0,
0,
2,
1,
1,
1,
0,
1,
1,
1,
1,
0,
0,
1,
0,
1,
0,
1,
0,
1,
0,
0,
1,
0,
0,
0,
0,
0,
1,
2,
0,
0,
0,
0,
0,
0,
0,
0,
0,
0,
0,
0,
0,
1,
2,
1,
1,
0,
1,
0,
1,
0,
0,
0,
0,
2,
1,
3,
0,
1,
0,
1,
2,
1,
1,
0,
2,
1,
0,
0,
0,
0,
0,
0,
2,
0,
0,
0,
1,
0,
1,
0,
1,
0,
0,
0,
0,
1,
0,
0,
0,
1,
1,
0,
0,
1,
0,
0,
0,
1,
0,
1,
0,
0,
0,
0,
0,
0,
1,
0,
0,
0,
0,
0,
0,
1,
0,
0,
0,
0,
0,
0,
0,
0,
0,
0,
0,
0,
0,
0,
0,
0,
0,
0,
0,
0,
0,
0,
0,
0,
0,
0,
0,
0,
0,
0,
1,
1,
0,
0,
0,
0,
0,
0,
0,
0,
0,
0,
0,
0,
0,
0,
0,
0,
0,
0,
0,
2,
1,
0,
1,
0,
0,
0,
0,
0,
0,
0,
0,
0,
0,
0,
0,
0,
0,
0,
0,
0,
0,
0,
0,
0,
0,
0,
0,
0,
0,
0,
0,
0,
0,
0,
0,
0,
1,
0,
0,
0,
0,
0,
0,
0,
0,
0,
0,
0,
0,
0,
0,
0,
0,
0,
0,
0,
0,
0,
0,
0,
0,
0,
0,
0,
0,
0,
0,
0,
0,
0,
0,
0,
0,
0,
0,
0,
0,
0,
0,
0,
0,
0,
0,
0,
1,
0,
0,
0,
0,
0,
0,
0,
0,
0,
0,
0,
0,
0,
0,
0,
0,
0,
0,
0,
0,
0,
0,
0,
0,
0,
0,
0,
0,
0,
0,
0,
0,
0,
0,
0,
0,
0,
0,
0,
0,
0,
0,
0,
0,
0,
0,
0,
0,
0,
0,
0,
0,
1,
0,
0,
0,
0,
0,
0,
0,
0,
0,
0,
0,
0,
0,
0,
0,
0,
0,
0,
0,
0,
0,
0,
0,
0,
0,
0,
0,
0,
0,
0,
0,
0,
0,
0,
0,
0,
0,
0,
0,
0,
0,
0,
0,
0,
0,
0,
0,
0,
0,
0,
0,
0,
0,
0,
0,
0,
0,
0,
0,
0,
0,
0,
0,
0,
0,
0,
0,
0,
0,
0,
0,
0,
0,
0,
0,
0,
0,
0,
0,
0,
0,
0,
0,
0,
0,
0,
0,
0,
0,
0,
0,
0,
0,
0,
0,
0,
0,
0,
0,
0,
0,
0,
0,
0,
0,
0,
0,
0,
0,
0,
0,
0,
0,
0,
0,
0,
0,
0,
0,
0,
0,
0,
0,
0,
0,
0,
0,
0,
0,
0,
0,
0,
0,
0,
0,
0,
0,
0,
0,
0,
0,
0,
0,
0,
0,
0,
0,
0,
0,
0,
0,
0,
0,
0,
0,
0,
0,
0,
0,
0,
0,
0,
0,
0,
0,
0,
0,
0,
0,
0,
0,
0,
0,
0,
0,
0,
0,
0,
0,
0,
0,
0,
0,
0,
0,
0,
0,
0,
0,
0,
0,
0,
0,
0,
0,
0,
0,
0,
0,
0,
0,
0,
0,
0,
0,
0,
0,
0,
0,
0,
0,
0,
0,
0,
0,
0,
0,
0,
0,
0,
0,
0,
0,
0,
0,
0,
0,
0,
0,
0,
0,
0,
0,
0,
0,
0,
0,
0,
0,
0,
0,
0,
0,
0,
0,
0,
0,
0,
0,
0,
0,
0,
0,
0,
0,
0,
0,
0,
0,
0,
0,
0,
0,
0,
0,
0,
0,
0,
0,
0,
0,
0,
0,
0,
0,
0,
0,
0,
0,
0,
0,
0,
0,
0,
0,
0,
0,
0,
0,
0,
0,
0,
0,
0,
0,
0,
0,
0,
0,
0,
0,
0,
0,
0,
0,
0,
0,
0,
0,
0,
0,
0,
0,
0,
0,
0,
0,
0,
0,
0,
0,
0,
0,
0,
0,
0,
0,
0,
0,
0,
0,
0,
0,
0,
0,
0,
0,
0,
0,
0,
0,
0,
0,
0,
0,
0,
0,
0,
0,
0,
0,
0,
0,
0,
0,
0,
0,
0,
0,
0,
0,
0,
0,
0,
0,
0,
0,
0,
0,
0,
0,
0,
0,
0,
0,
0,
0,
0,
0,
0,
0,
0,
0,
0,
0,
0,
0,
0,
0,
0,
0,
0,
0,
0,
0,
0,
0,
0,
0,
0,
0,
0,
0,
0,
0,
0,
0,
0,
0,
0,
0,
0,
0,
0,
0,
0,
0,
0,
0,
0,
0,
0,
0,
0,
0,
0,
0,
0,
0,
0,
0,
0,
0,
0,
0,
0,
0,
0,
0,
0,
0,
0,
0,
0,
0,
0,
0,
0,
0,
0,
0,
0,
0,
0,
0,
0,
0,
0,
0,
0,
0,
0,
0,
0,
0,
0,
0,
0,
0,
0,
0,
0,
0,
0,
0,
0,
0,
0,
0,
0,
0,
0,
0,
0,
0,
0,
0,
0,
0,
0,
0,
0,
0,
0,
0,
0,
0,
0,
0,
0,
0,
0,
0,
0,
0,
0,
0,
0,
0,
0,
0,
0,
0,
0,
0,
0,
0,
0,
0,
0,
0,
0,
0,
0,
0,
0,
0,
0,
0,
0,
0,
0,
0,
0,
0,
0,
0,
0,
0,
0,
0,
0,
0,
0,
#ENDOFDATA   :