File: N132962/Quantification/15 keV/GMIIIA/GMIIIA K1234[1][4].msa
#FORMAT      : EMSA/MAS Spectral Data File
#VERSION     : 1.0
#TITLE       : GMIIIA K1234[1][all]
#DATE        : 22-SEP-2025
#TIME        : 22:55
#OWNER       : Unknown
#NPOINTS     : 4096
#NCOLUMNS    : 1
#XUNITS      : eV
#YUNITS      : counts
#DATATYPE    : Y
#XPERCHAN    : 9.99778
#OFFSET      : 1.69135
#BEAMKV      : 15
#SIGNALTYPE  : EDS
#ELEVANGLE   : 35
#AZIMANGLE   : 0
#LIVETIME    : 239.834
#REALTIME    : 255.727
#PROBECUR    : 1.21591
#TAUWIND     : 0
#TDEADLYR    : 0
#TACTLYR     : 0.045
#TALWIND     : 0.025
#CHOFFSET    : 0.0
#XLABEL      : Energy (eV)
#YLABEL      : Counts
#XPOSITION   : 2.03167
#YPOSITION   : 17.7802
#ZPOSITION   : 37.36299
#EDSDET      : SD
##SPECIMEN   : GMIIIA K1234[1][all]
##D2STDCMP   : K1234,(O:39.85),(Al:9.15),(Si:21.56),(Ca:12.36),(Ba:15.49),(W:1.59)
##DET_HASH   : 12273538-fd48-a23f-0a19-f1e6fa85caef
##CALIB_HASH : 6abaa72c-aa41-8738-0be9-f592914732f3
##WORKING    : 15.0 mm
##DET_NAME   : EDAX All
##DET_MODE   : MediumLE
#SPECTRUM    :
18,
19,
7,
25,
109,
404,
1148,
3013,
7253,
10631,
9103,
6691,
5661,
5583,
8558,
26570,
97496,
185074,
135102,
37809,
8049,
4483,
4360,
4287,
4400,
5269,
5969,
5547,
4690,
4364,
4303,
4853,
5489,
5953,
6326,
6018,
5537,
5142,
5001,
5162,
5138,
5445,
5382,
5561,
5803,
6094,
7142,
12990,
36595,
70184,
71559,
38610,
15160,
7641,
7013,
14247,
49381,
123213,
168345,
121967,
52649,
20684,
10723,
6178,
4395,
3940,
3965,
3808,
3647,
3469,
3269,
3330,
3365,
3472,
3697,
3920,
3845,
3689,
3386,
3295,
3351,
3205,
3206,
3148,
3156,
3242,
3147,
3122,
3055,
3188,
3134,
3182,
3039,
2953,
3016,
2906,
2838,
2872,
2877,
2806,
2887,
2767,
2898,
2853,
2811,
2787,
2776,
2713,
2838,
2749,
2761,
2631,
2581,
2663,
2630,
2703,
2767,
2852,
3164,
4289,
8575,
19024,
34021,
42953,
36207,
21024,
9219,
3958,
2628,
2533,
2976,
3910,
5191,
6924,
7347,
5991,
4179,
2747,
2220,
2082,
1983,
2008,
2099,
2166,
2358,
2952,
5001,
8787,
13104,
14855,
12286,
7816,
4134,
2430,
1980,
1802,
1818,
2148,
2941,
4615,
6660,
7699,
7091,
5432,
4138,
3085,
2496,
2103,
1884,
2213,
2725,
3382,
3601,
3262,
2572,
2012,
1590,
1461,
1446,
1488,
1473,
1588,
1818,
1928,
2154,
2091,
1875,
1592,
1440,
1340,
1414,
1510,
1503,
1570,
1549,
1430,
1312,
1288,
1313,
1338,
1288,
1200,
1170,
1157,
1077,
1149,
1115,
1111,
1115,
1048,
1176,
1043,
1079,
1101,
1039,
1064,
1060,
1104,
1037,
991,
997,
984,
991,
970,
1024,
1015,
945,
908,
966,
885,
898,
942,
898,
941,
927,
871,
881,
871,
901,
913,
889,
843,
824,
780,
867,
889,
814,
846,
830,
745,
786,
776,
772,
790,
763,
778,
750,
698,
748,
724,
728,
720,
776,
746,
689,
674,
630,
705,
687,
685,
642,
670,
675,
672,
702,
652,
710,
744,
777,
779,
814,
806,
696,
734,
598,
593,
575,
591,
583,
552,
584,
568,
601,
524,
536,
552,
543,
529,
531,
540,
527,
525,
509,
502,
511,
490,
473,
470,
435,
470,
482,
481,
457,
465,
435,
454,
440,
445,
444,
475,
472,
448,
495,
479,
433,
416,
473,
435,
442,
392,
409,
448,
386,
437,
378,
384,
386,
365,
345,
367,
342,
345,
366,
386,
329,
324,
325,
306,
281,
324,
315,
314,
310,
319,
297,
317,
320,
293,
266,
305,
300,
271,
251,
316,
283,
260,
275,
255,
278,
275,
252,
231,
238,
249,
248,
239,
261,
220,
232,
220,
209,
224,
203,
185,
220,
192,
208,
225,
205,
191,
173,
172,
185,
197,
189,
165,
197,
173,
164,
171,
163,
199,
168,
172,
144,
155,
154,
149,
144,
134,
134,
136,
123,
132,
155,
135,
132,
126,
118,
123,
111,
111,
127,
141,
112,
113,
120,
97,
112,
93,
97,
107,
96,
88,
81,
90,
88,
94,
91,
99,
83,
85,
85,
70,
69,
68,
72,
78,
67,
66,
71,
60,
46,
76,
55,
64,
57,
38,
39,
47,
39,
46,
46,
40,
50,
45,
38,
26,
43,
34,
42,
32,
30,
42,
29,
18,
26,
31,
27,
34,
20,
19,
17,
18,
20,
16,
10,
8,
15,
6,
9,
14,
14,
8,
11,
4,
5,
5,
4,
0,
2,
3,
2,
0,
1,
1,
0,
2,
2,
0,
1,
2,
1,
2,
0,
0,
2,
0,
0,
0,
0,
0,
0,
0,
1,
0,
0,
1,
0,
0,
0,
0,
0,
0,
1,
0,
2,
0,
0,
0,
0,
4,
0,
0,
0,
0,
0,
0,
0,
1,
0,
0,
0,
0,
1,
0,
0,
0,
1,
0,
1,
0,
0,
1,
2,
0,
0,
0,
0,
0,
1,
0,
0,
0,
2,
0,
0,
0,
1,
0,
0,
0,
0,
0,
0,
1,
0,
0,
0,
1,
0,
0,
0,
0,
0,
0,
0,
0,
0,
0,
0,
0,
0,
0,
0,
0,
0,
0,
0,
0,
0,
0,
0,
0,
1,
0,
0,
0,
0,
0,
0,
0,
1,
0,
0,
0,
0,
1,
0,
0,
0,
1,
0,
0,
0,
0,
0,
0,
0,
0,
0,
0,
0,
0,
1,
0,
0,
0,
0,
0,
0,
0,
0,
0,
0,
0,
0,
0,
0,
0,
0,
0,
0,
0,
0,
0,
0,
0,
0,
0,
0,
0,
0,
0,
0,
0,
0,
0,
0,
0,
1,
0,
0,
0,
0,
0,
0,
0,
0,
0,
0,
0,
0,
0,
0,
0,
0,
0,
0,
0,
0,
0,
1,
0,
0,
0,
1,
0,
0,
0,
0,
0,
0,
0,
0,
0,
0,
0,
0,
0,
0,
0,
0,
0,
0,
0,
1,
0,
0,
0,
0,
0,
0,
0,
0,
0,
0,
0,
0,
0,
0,
0,
0,
0,
0,
0,
0,
0,
0,
0,
0,
0,
0,
0,
0,
0,
0,
0,
0,
0,
0,
0,
0,
0,
0,
0,
0,
0,
0,
0,
0,
0,
0,
0,
0,
0,
0,
0,
0,
0,
0,
0,
0,
0,
0,
0,
0,
0,
0,
0,
0,
0,
0,
0,
0,
0,
0,
0,
0,
0,
0,
0,
0,
0,
0,
0,
0,
0,
0,
0,
0,
0,
0,
0,
0,
0,
0,
0,
0,
0,
0,
0,
0,
0,
0,
0,
0,
0,
0,
0,
0,
0,
0,
0,
0,
0,
0,
0,
0,
0,
0,
0,
0,
0,
0,
0,
0,
0,
0,
0,
0,
0,
0,
0,
0,
0,
0,
0,
0,
0,
0,
0,
0,
0,
0,
0,
0,
0,
0,
0,
0,
0,
0,
0,
0,
0,
0,
0,
0,
0,
0,
0,
0,
0,
0,
0,
0,
0,
0,
0,
0,
0,
0,
0,
0,
0,
0,
0,
0,
0,
0,
0,
0,
0,
0,
0,
0,
0,
0,
0,
0,
0,
0,
0,
0,
0,
0,
0,
0,
0,
0,
0,
0,
0,
0,
0,
0,
0,
0,
0,
0,
0,
0,
0,
0,
0,
0,
0,
0,
0,
0,
0,
0,
0,
0,
0,
0,
0,
0,
0,
0,
0,
0,
0,
0,
0,
0,
0,
0,
0,
0,
0,
0,
0,
0,
0,
0,
0,
0,
0,
0,
1,
0,
0,
0,
0,
0,
0,
0,
0,
0,
0,
0,
0,
0,
0,
0,
0,
0,
0,
0,
0,
0,
0,
0,
0,
0,
0,
0,
0,
0,
0,
0,
0,
0,
0,
0,
0,
0,
0,
0,
0,
0,
0,
0,
0,
0,
0,
0,
0,
0,
0,
0,
0,
0,
0,
0,
0,
0,
0,
0,
0,
0,
0,
0,
0,
0,
0,
0,
0,
0,
0,
0,
0,
0,
0,
0,
0,
0,
0,
0,
0,
0,
0,
0,
0,
0,
0,
0,
0,
0,
0,
0,
0,
0,
0,
0,
0,
0,
0,
0,
0,
0,
0,
0,
0,
0,
0,
0,
0,
0,
0,
0,
0,
0,
0,
0,
0,
0,
0,
0,
0,
0,
0,
0,
0,
0,
0,
0,
0,
0,
0,
0,
0,
0,
0,
0,
0,
0,
0,
0,
0,
0,
0,
0,
0,
0,
0,
0,
0,
0,
0,
0,
0,
0,
0,
0,
0,
0,
0,
0,
0,
0,
0,
0,
0,
0,
0,
0,
0,
0,
0,
0,
0,
0,
0,
0,
0,
0,
0,
0,
0,
0,
0,
0,
0,
0,
0,
0,
0,
0,
0,
0,
0,
0,
0,
0,
0,
0,
0,
0,
0,
0,
0,
0,
0,
0,
0,
0,
0,
0,
0,
0,
0,
0,
0,
0,
0,
0,
0,
0,
0,
0,
0,
0,
0,
0,
0,
0,
0,
0,
0,
0,
0,
0,
0,
0,
0,
0,
0,
0,
0,
0,
0,
0,
0,
0,
0,
0,
0,
0,
0,
0,
0,
0,
0,
0,
0,
0,
0,
0,
0,
0,
0,
0,
0,
0,
0,
0,
0,
0,
0,
0,
0,
0,
0,
0,
0,
0,
0,
0,
0,
0,
0,
0,
0,
0,
0,
0,
0,
0,
0,
0,
0,
0,
0,
0,
0,
0,
0,
0,
0,
0,
0,
0,
0,
0,
0,
0,
0,
0,
0,
0,
0,
0,
0,
0,
0,
0,
0,
0,
0,
0,
0,
0,
0,
0,
0,
0,
0,
0,
0,
0,
0,
0,
0,
0,
0,
0,
0,
0,
0,
0,
0,
0,
0,
0,
0,
0,
0,
0,
0,
0,
0,
0,
0,
0,
0,
0,
0,
0,
0,
0,
0,
0,
0,
0,
0,
0,
0,
0,
0,
0,
0,
0,
0,
0,
0,
0,
0,
0,
0,
0,
0,
0,
0,
0,
0,
0,
0,
0,
0,
0,
0,
0,
0,
#ENDOFDATA   :