File: N132962/Quantification/15 keV/GMIIIA/GMIIIA K240[4][4].msa
#FORMAT      : EMSA/MAS Spectral Data File
#VERSION     : 1.0
#TITLE       : GMIIIA K240[4][all]
#DATE        : 22-SEP-2025
#TIME        : 15:16
#OWNER       : Unknown
#NPOINTS     : 4096
#NCOLUMNS    : 1
#XUNITS      : eV
#YUNITS      : counts
#DATATYPE    : Y
#XPERCHAN    : 9.99778
#OFFSET      : 1.69135
#BEAMKV      : 15
#SIGNALTYPE  : EDS
#ELEVANGLE   : 35
#AZIMANGLE   : 0
#LIVETIME    : 239.955
#REALTIME    : 256.037
#PROBECUR    : 1.21681
#TAUWIND     : 0
#TDEADLYR    : 0
#TACTLYR     : 0.045
#TALWIND     : 0.025
#CHOFFSET    : 0.0
#XLABEL      : Energy (eV)
#YLABEL      : Counts
#XPOSITION   : 11.36031
#YPOSITION   : 1.6868
#ZPOSITION   : 37.36299
#EDSDET      : SD
##SPECIMEN   : GMIIIA K240[4][all]
##D2STDCMP   : K240,(O:34.0),(Mg:3.02),(Si:18.7),(Ti:6.0),(Zn:4.02),(Zr:7.4),(Ba:26.87)
##DET_HASH   : 12273538-fd48-a23f-0a19-f1e6fa85caef
##CALIB_HASH : 6abaa72c-aa41-8738-0be9-f592914732f3
##WORKING    : 15.0 mm
##DET_NAME   : EDAX All
##DET_MODE   : MediumLE
#SPECTRUM    :
36,
37,
13,
26,
168,
648,
1578,
3472,
7576,
9486,
7254,
6566,
8659,
10533,
13846,
31546,
98594,
181182,
132011,
39875,
11252,
6385,
5152,
5066,
5681,
7457,
8710,
7406,
5990,
5848,
6031,
6656,
10501,
17184,
20064,
14718,
8380,
6053,
5646,
6466,
10730,
19881,
23059,
15149,
8084,
5867,
5506,
5576,
5947,
6183,
6226,
6204,
6180,
6369,
7581,
14071,
44390,
107976,
144957,
104154,
44483,
17395,
9821,
6634,
5401,
6050,
9561,
16154,
21014,
19109,
14984,
12524,
9802,
7275,
5849,
5225,
4714,
4234,
4161,
3889,
3910,
3870,
3854,
4083,
4016,
3909,
3956,
3772,
3833,
3898,
3809,
3988,
3911,
3719,
3615,
3655,
3475,
3528,
3640,
3620,
3593,
3535,
3540,
3457,
3476,
3428,
3295,
3286,
3266,
3286,
3335,
3214,
3182,
3274,
3187,
3135,
3141,
3112,
3026,
3043,
2921,
2869,
2964,
2960,
2943,
2984,
2856,
2829,
2916,
2964,
3238,
3605,
3631,
3357,
3168,
2888,
2708,
2655,
2667,
2596,
2648,
2602,
2731,
2909,
3410,
4782,
8924,
17492,
28920,
36763,
35045,
26124,
14832,
7407,
3871,
2754,
2647,
3098,
4733,
7740,
11517,
13674,
13002,
10628,
8582,
6585,
4813,
3709,
3068,
3256,
4067,
5391,
5864,
5163,
4050,
2861,
2168,
1980,
1905,
1820,
1925,
2056,
2448,
2792,
3200,
3244,
2634,
2301,
1963,
1816,
1800,
1921,
2070,
2206,
2196,
1998,
1795,
1679,
1653,
1562,
1628,
1569,
1489,
1450,
1417,
1488,
1431,
1580,
1453,
1450,
1413,
1392,
1411,
1377,
1494,
1457,
1323,
1333,
1303,
1324,
1343,
1300,
1274,
1313,
1274,
1326,
1193,
1293,
1232,
1245,
1187,
1175,
1223,
1197,
1200,
1184,
1214,
1143,
1162,
1230,
1136,
1146,
1055,
1141,
1109,
1076,
1094,
1062,
1095,
1064,
1098,
1074,
1013,
973,
1010,
1059,
983,
1038,
919,
989,
1016,
1034,
940,
961,
960,
910,
926,
967,
854,
859,
883,
946,
855,
858,
840,
841,
818,
854,
833,
854,
827,
860,
886,
983,
1162,
1481,
1802,
2020,
2037,
1812,
1454,
1144,
948,
787,
710,
727,
738,
730,
727,
740,
724,
652,
686,
734,
732,
640,
675,
678,
694,
685,
645,
674,
592,
624,
640,
718,
717,
740,
773,
779,
699,
719,
635,
635,
582,
576,
577,
568,
584,
552,
533,
538,
520,
518,
483,
485,
546,
485,
493,
488,
445,
508,
481,
458,
484,
435,
447,
459,
451,
495,
432,
444,
417,
428,
426,
394,
444,
375,
387,
400,
410,
392,
371,
408,
390,
359,
365,
375,
355,
353,
344,
351,
326,
335,
345,
313,
324,
320,
288,
311,
274,
335,
278,
289,
283,
275,
288,
291,
271,
229,
263,
252,
274,
219,
216,
270,
249,
237,
219,
221,
244,
233,
221,
233,
208,
213,
219,
234,
187,
195,
193,
207,
208,
195,
197,
196,
202,
162,
166,
175,
186,
194,
156,
180,
138,
127,
142,
137,
139,
142,
150,
154,
148,
140,
118,
133,
114,
139,
144,
106,
117,
112,
111,
104,
107,
101,
94,
92,
82,
89,
100,
87,
89,
70,
90,
82,
72,
92,
79,
66,
66,
72,
59,
44,
58,
56,
62,
39,
52,
49,
55,
43,
51,
42,
40,
47,
43,
45,
27,
43,
28,
28,
27,
34,
18,
30,
22,
18,
19,
16,
16,
10,
21,
18,
13,
12,
9,
8,
4,
4,
3,
1,
1,
0,
2,
3,
1,
2,
2,
1,
2,
0,
1,
2,
0,
1,
1,
2,
2,
1,
0,
0,
1,
1,
2,
2,
0,
0,
0,
0,
1,
1,
0,
1,
0,
2,
1,
0,
1,
0,
0,
0,
0,
0,
2,
0,
1,
2,
1,
1,
0,
0,
0,
0,
0,
0,
0,
1,
0,
0,
2,
0,
1,
0,
0,
0,
0,
0,
0,
1,
0,
1,
0,
0,
0,
0,
2,
2,
0,
0,
0,
0,
2,
0,
0,
0,
0,
0,
0,
1,
0,
0,
0,
0,
0,
0,
1,
0,
0,
1,
0,
1,
0,
1,
1,
0,
0,
0,
0,
0,
0,
1,
0,
0,
1,
0,
2,
0,
0,
0,
0,
0,
0,
0,
0,
0,
0,
0,
0,
0,
0,
0,
0,
1,
1,
0,
0,
1,
0,
0,
0,
1,
0,
0,
0,
0,
0,
0,
0,
0,
0,
0,
0,
0,
0,
0,
0,
0,
0,
0,
0,
0,
0,
0,
0,
1,
0,
0,
0,
0,
0,
1,
0,
0,
0,
0,
0,
0,
0,
0,
0,
0,
0,
0,
0,
0,
0,
0,
0,
0,
0,
0,
0,
0,
0,
0,
0,
0,
0,
0,
0,
0,
0,
0,
0,
0,
0,
0,
0,
0,
0,
0,
0,
0,
0,
0,
0,
0,
0,
0,
0,
0,
0,
0,
0,
0,
0,
0,
0,
0,
0,
0,
0,
0,
0,
0,
0,
0,
0,
0,
0,
0,
0,
0,
0,
0,
0,
0,
0,
0,
0,
0,
0,
0,
0,
0,
0,
0,
1,
0,
0,
0,
0,
0,
0,
0,
0,
0,
1,
0,
0,
0,
0,
0,
0,
0,
0,
0,
0,
0,
0,
0,
0,
0,
0,
0,
0,
0,
0,
0,
0,
0,
0,
0,
0,
0,
0,
0,
0,
0,
0,
0,
0,
0,
0,
0,
0,
0,
0,
0,
0,
0,
0,
0,
0,
0,
0,
0,
0,
0,
0,
0,
0,
0,
0,
0,
0,
0,
0,
0,
0,
0,
0,
0,
0,
0,
0,
0,
0,
0,
0,
0,
0,
0,
0,
0,
0,
0,
0,
0,
0,
0,
0,
0,
0,
0,
0,
0,
0,
0,
0,
0,
0,
0,
0,
0,
0,
0,
0,
0,
0,
0,
0,
0,
0,
0,
0,
0,
0,
0,
0,
0,
0,
0,
0,
0,
0,
0,
0,
0,
0,
0,
0,
0,
0,
0,
0,
0,
0,
0,
0,
0,
0,
0,
0,
0,
0,
0,
0,
0,
0,
0,
0,
0,
0,
0,
0,
0,
0,
0,
0,
0,
0,
0,
0,
0,
0,
0,
0,
0,
0,
0,
0,
0,
0,
0,
0,
0,
0,
0,
0,
0,
0,
0,
0,
0,
0,
0,
0,
0,
0,
0,
0,
0,
0,
0,
0,
0,
0,
0,
0,
0,
0,
0,
0,
0,
0,
0,
0,
0,
0,
0,
0,
0,
0,
0,
0,
0,
0,
0,
0,
0,
0,
0,
0,
0,
0,
0,
0,
0,
0,
0,
0,
0,
0,
0,
0,
0,
0,
0,
0,
0,
0,
0,
0,
0,
0,
0,
0,
0,
0,
0,
0,
0,
0,
0,
0,
0,
0,
0,
0,
0,
0,
0,
0,
0,
0,
0,
0,
0,
0,
0,
0,
0,
0,
0,
0,
0,
0,
0,
0,
0,
0,
0,
0,
0,
0,
0,
0,
0,
0,
0,
0,
0,
0,
0,
0,
0,
0,
0,
0,
0,
0,
0,
0,
0,
0,
0,
0,
0,
0,
0,
0,
0,
0,
0,
0,
0,
0,
0,
0,
0,
0,
0,
0,
0,
0,
0,
0,
0,
0,
0,
0,
0,
0,
0,
0,
0,
0,
0,
0,
0,
0,
0,
0,
0,
0,
0,
0,
0,
0,
0,
0,
0,
0,
0,
0,
0,
0,
0,
0,
0,
0,
0,
0,
0,
0,
0,
0,
0,
0,
0,
0,
0,
0,
0,
0,
0,
0,
0,
0,
0,
0,
0,
0,
0,
0,
0,
0,
0,
0,
0,
0,
0,
0,
0,
0,
0,
0,
0,
0,
0,
0,
0,
0,
0,
0,
0,
0,
0,
0,
0,
0,
0,
0,
0,
0,
0,
0,
0,
0,
0,
0,
0,
0,
0,
0,
0,
0,
0,
0,
0,
0,
0,
0,
0,
0,
0,
0,
0,
0,
0,
0,
0,
0,
0,
0,
0,
0,
0,
0,
0,
0,
0,
0,
0,
0,
0,
0,
0,
0,
0,
0,
0,
0,
0,
0,
0,
0,
0,
0,
0,
0,
0,
0,
0,
0,
0,
0,
0,
0,
0,
0,
0,
0,
0,
0,
0,
0,
0,
0,
0,
0,
0,
0,
0,
0,
0,
0,
0,
0,
0,
0,
0,
0,
0,
0,
0,
0,
0,
0,
0,
0,
0,
0,
0,
0,
0,
0,
0,
0,
0,
0,
0,
0,
0,
0,
0,
0,
0,
0,
0,
0,
0,
0,
0,
0,
0,
0,
0,
0,
0,
0,
0,
0,
0,
0,
0,
0,
0,
0,
0,
0,
0,
0,
0,
0,
0,
0,
0,
0,
0,
0,
0,
0,
0,
0,
0,
0,
0,
0,
0,
0,
0,
0,
0,
0,
0,
0,
0,
0,
0,
0,
0,
0,
0,
0,
0,
0,
0,
0,
0,
0,
0,
0,
0,
0,
0,
0,
0,
0,
0,
0,
0,
0,
0,
#ENDOFDATA   :