File: N132962/Quantification/15 keV/GMIIIA/GMIIIA K366[0][4].msa
#FORMAT      : EMSA/MAS Spectral Data File
#VERSION     : 1.0
#TITLE       : GMIIIA K366[0][all]
#DATE        : 22-SEP-2025
#TIME        : 15:36
#OWNER       : Unknown
#NPOINTS     : 4096
#NCOLUMNS    : 1
#XUNITS      : eV
#YUNITS      : counts
#DATATYPE    : Y
#XPERCHAN    : 9.99778
#OFFSET      : 1.69135
#BEAMKV      : 15
#SIGNALTYPE  : EDS
#ELEVANGLE   : 35
#AZIMANGLE   : 0
#LIVETIME    : 240.012
#REALTIME    : 260.386
#PROBECUR    : 1.21681
#TAUWIND     : 0
#TDEADLYR    : 0
#TACTLYR     : 0.045
#TALWIND     : 0.025
#CHOFFSET    : 0.0
#XLABEL      : Energy (eV)
#YLABEL      : Counts
#XPOSITION   : 8.38481
#YPOSITION   : 4.16745
#ZPOSITION   : 37.36299
#EDSDET      : SD
##SPECIMEN   : GMIIIA K366[0][all]
##D2STDCMP   : K366,(O:20.43),(Si:13.45),(Pb:66.12)
##DET_HASH   : 12273538-fd48-a23f-0a19-f1e6fa85caef
##CALIB_HASH : 6abaa72c-aa41-8738-0be9-f592914732f3
##WORKING    : 15.0 mm
##DET_NAME   : EDAX All
##DET_MODE   : MediumLE
#SPECTRUM    :
26,
38,
7,
54,
220,
988,
2722,
5902,
11585,
14350,
10064,
7310,
7055,
7139,
8661,
17391,
50119,
88962,
65785,
21936,
9550,
8118,
8240,
8846,
8071,
7216,
6903,
7398,
7734,
7748,
7719,
7936,
7983,
8184,
8441,
8628,
8629,
8649,
8933,
8991,
9267,
9257,
9401,
9389,
9379,
9516,
9835,
9864,
10001,
10250,
10414,
10207,
10168,
10123,
11079,
16783,
44128,
100435,
134379,
99471,
50525,
28155,
18580,
11640,
8942,
8060,
7754,
7561,
7603,
7560,
7937,
8636,
9634,
10521,
12508,
19179,
42190,
90043,
132098,
128181,
101260,
92647,
78495,
46600,
20042,
9233,
7328,
8763,
10662,
10246,
8048,
5918,
5035,
4759,
4787,
5021,
5085,
5271,
5392,
5304,
5442,
6001,
6188,
6271,
6199,
5658,
5142,
4899,
4564,
4585,
4474,
4391,
4459,
4281,
4627,
4565,
4624,
4551,
4609,
4592,
4369,
4245,
4368,
4297,
4361,
4330,
4349,
4183,
4158,
4146,
4156,
4120,
4023,
4140,
4138,
4186,
4189,
4240,
4126,
4074,
4105,
4140,
4030,
4015,
3956,
3858,
3872,
3887,
4067,
4030,
4165,
4065,
3940,
3839,
3848,
3801,
3789,
3798,
3736,
3814,
3732,
3734,
3776,
3604,
3603,
3592,
3593,
3591,
3567,
3492,
3426,
3381,
3423,
3345,
3429,
3304,
3339,
3276,
3371,
3348,
3241,
3194,
3199,
3192,
3254,
3217,
3174,
3122,
3160,
3064,
3061,
3114,
3094,
2992,
3046,
2978,
2984,
2910,
2843,
2919,
2835,
2934,
2822,
2891,
2856,
2781,
2791,
2786,
2721,
2791,
2807,
2662,
2793,
2808,
2844,
2695,
2633,
2721,
2632,
2592,
2481,
2542,
2528,
2462,
2521,
2452,
2380,
2465,
2488,
2479,
2327,
2408,
2424,
2375,
2381,
2356,
2269,
2351,
2305,
2222,
2256,
2298,
2205,
2179,
2197,
2240,
2266,
2208,
2247,
2194,
2167,
2087,
2091,
2172,
1992,
2036,
1978,
1992,
2021,
2046,
1920,
1927,
1949,
1938,
1930,
1921,
1888,
1910,
1871,
1870,
1821,
1878,
1800,
1747,
1819,
1792,
1755,
1765,
1752,
1748,
1747,
1749,
1752,
1714,
1719,
1645,
1622,
1629,
1607,
1536,
1601,
1581,
1586,
1529,
1611,
1578,
1543,
1547,
1505,
1447,
1493,
1513,
1485,
1495,
1478,
1433,
1508,
1499,
1419,
1432,
1399,
1363,
1352,
1286,
1321,
1304,
1303,
1310,
1267,
1296,
1302,
1240,
1245,
1209,
1192,
1205,
1223,
1205,
1149,
1156,
1141,
1173,
1212,
1074,
1092,
1101,
1071,
1170,
1133,
1096,
1075,
1034,
1028,
1041,
1082,
1119,
1181,
1361,
1622,
1888,
2175,
2303,
2195,
2036,
1676,
1324,
1188,
1003,
975,
964,
921,
899,
833,
813,
847,
850,
839,
807,
843,
807,
757,
802,
813,
792,
766,
751,
737,
737,
722,
717,
688,
723,
657,
651,
714,
712,
664,
672,
626,
638,
638,
623,
620,
642,
582,
613,
581,
579,
618,
600,
563,
538,
617,
543,
564,
538,
536,
540,
538,
471,
506,
466,
500,
503,
485,
505,
519,
549,
584,
635,
607,
610,
536,
555,
490,
427,
384,
402,
421,
341,
341,
371,
377,
377,
327,
361,
309,
312,
338,
315,
294,
278,
265,
274,
280,
275,
264,
267,
219,
221,
246,
244,
244,
203,
224,
205,
217,
188,
181,
215,
175,
214,
192,
207,
174,
159,
152,
148,
143,
147,
145,
135,
123,
131,
125,
123,
112,
95,
73,
85,
79,
97,
91,
75,
77,
84,
68,
53,
55,
58,
45,
42,
37,
43,
26,
27,
20,
16,
16,
10,
8,
12,
5,
6,
10,
3,
2,
4,
5,
6,
2,
4,
6,
2,
5,
2,
4,
2,
3,
1,
3,
6,
3,
7,
3,
0,
2,
4,
1,
1,
1,
0,
3,
1,
6,
3,
2,
1,
0,
1,
1,
1,
1,
1,
2,
0,
2,
2,
1,
1,
4,
1,
3,
3,
1,
0,
2,
2,
1,
2,
3,
1,
0,
4,
3,
2,
0,
1,
0,
3,
2,
1,
1,
2,
0,
0,
1,
0,
2,
2,
1,
1,
0,
2,
0,
1,
3,
1,
3,
1,
1,
0,
1,
0,
0,
0,
2,
0,
2,
2,
0,
1,
1,
2,
1,
3,
1,
2,
0,
1,
2,
0,
1,
1,
1,
2,
1,
2,
0,
0,
0,
0,
0,
1,
0,
0,
1,
1,
0,
0,
0,
1,
1,
1,
1,
0,
1,
1,
0,
0,
0,
1,
4,
1,
1,
0,
1,
0,
3,
0,
1,
0,
0,
0,
0,
0,
1,
1,
0,
3,
0,
0,
1,
1,
0,
1,
0,
0,
0,
0,
1,
0,
0,
0,
0,
0,
1,
1,
0,
0,
0,
0,
0,
0,
1,
0,
0,
0,
0,
0,
0,
0,
0,
1,
0,
1,
1,
0,
0,
1,
1,
1,
0,
0,
0,
1,
1,
0,
0,
0,
0,
0,
1,
0,
0,
1,
0,
1,
0,
0,
0,
0,
0,
0,
0,
0,
0,
0,
0,
0,
0,
0,
1,
0,
0,
1,
0,
0,
0,
0,
0,
0,
0,
0,
0,
0,
1,
0,
0,
0,
0,
0,
0,
0,
0,
0,
0,
0,
0,
0,
0,
0,
0,
0,
0,
1,
0,
1,
0,
0,
0,
0,
0,
0,
0,
0,
0,
0,
0,
0,
0,
0,
0,
0,
0,
1,
0,
0,
0,
0,
1,
0,
0,
0,
0,
0,
0,
0,
1,
0,
0,
0,
0,
0,
0,
0,
0,
0,
0,
0,
0,
0,
0,
0,
0,
0,
0,
1,
0,
0,
0,
0,
0,
0,
0,
0,
0,
0,
0,
0,
0,
0,
0,
0,
0,
0,
0,
0,
0,
0,
0,
0,
0,
0,
0,
0,
0,
0,
0,
0,
0,
0,
0,
0,
0,
0,
0,
0,
0,
0,
0,
0,
0,
0,
0,
0,
0,
0,
0,
0,
0,
0,
0,
0,
0,
0,
0,
0,
0,
0,
0,
0,
0,
0,
0,
0,
0,
0,
0,
0,
1,
0,
0,
0,
0,
0,
0,
0,
0,
0,
0,
0,
0,
0,
0,
0,
0,
0,
0,
0,
0,
0,
0,
0,
0,
0,
0,
0,
0,
0,
0,
0,
0,
0,
0,
0,
0,
0,
0,
0,
0,
0,
0,
0,
0,
0,
0,
0,
0,
0,
0,
0,
0,
0,
0,
0,
0,
0,
0,
0,
0,
0,
0,
0,
0,
0,
0,
0,
0,
0,
0,
0,
0,
0,
0,
0,
0,
0,
0,
0,
0,
0,
0,
0,
0,
0,
0,
0,
0,
0,
0,
0,
0,
0,
0,
0,
0,
0,
0,
0,
0,
0,
0,
0,
0,
0,
0,
0,
0,
0,
0,
0,
0,
0,
0,
0,
0,
0,
0,
0,
0,
0,
0,
0,
0,
0,
0,
0,
0,
0,
0,
0,
0,
0,
0,
0,
0,
0,
0,
0,
0,
0,
0,
0,
0,
0,
0,
0,
0,
0,
0,
0,
0,
0,
0,
0,
0,
0,
0,
0,
0,
0,
0,
0,
0,
0,
0,
0,
0,
0,
0,
0,
0,
0,
0,
0,
0,
0,
0,
0,
0,
0,
0,
0,
0,
0,
0,
0,
0,
0,
0,
0,
0,
0,
0,
0,
0,
0,
0,
0,
0,
0,
0,
0,
0,
0,
0,
0,
0,
0,
0,
0,
0,
0,
0,
0,
0,
0,
0,
0,
0,
0,
0,
0,
0,
0,
0,
0,
0,
0,
0,
0,
0,
0,
0,
0,
0,
0,
0,
0,
0,
0,
0,
0,
0,
0,
0,
0,
0,
0,
0,
0,
0,
0,
0,
0,
0,
0,
0,
0,
0,
0,
0,
0,
0,
0,
0,
0,
0,
0,
0,
0,
0,
0,
0,
0,
0,
0,
0,
0,
0,
0,
0,
0,
0,
0,
0,
0,
0,
0,
0,
0,
0,
0,
0,
0,
0,
0,
0,
0,
0,
0,
0,
0,
0,
0,
0,
0,
0,
0,
0,
0,
0,
0,
0,
0,
0,
0,
0,
0,
0,
0,
0,
0,
0,
0,
0,
0,
0,
0,
0,
0,
0,
0,
0,
0,
0,
0,
0,
0,
0,
0,
0,
0,
0,
0,
0,
0,
0,
0,
0,
0,
0,
0,
0,
0,
0,
0,
0,
0,
0,
0,
0,
0,
0,
0,
0,
0,
0,
0,
0,
0,
0,
0,
0,
0,
0,
0,
0,
0,
0,
0,
0,
0,
0,
0,
0,
0,
0,
0,
0,
0,
0,
0,
0,
0,
0,
0,
0,
0,
0,
0,
0,
0,
0,
0,
0,
0,
0,
0,
0,
0,
0,
0,
0,
0,
0,
0,
0,
0,
0,
0,
0,
0,
0,
0,
0,
0,
0,
0,
0,
0,
0,
0,
0,
0,
0,
0,
0,
0,
0,
0,
0,
0,
0,
0,
0,
0,
0,
0,
0,
0,
0,
0,
0,
0,
0,
0,
0,
0,
0,
0,
0,
0,
0,
0,
0,
0,
0,
0,
0,
0,
0,
0,
0,
0,
#ENDOFDATA   :