File: N132962/Quantification/15 keV/GMIIIA/GMIIIA K1053[8][4].msa
#FORMAT      : EMSA/MAS Spectral Data File
#VERSION     : 1.0
#TITLE       : GMIIIA K1053[8][all]
#DATE        : 22-SEP-2025
#TIME        : 21:19
#OWNER       : Unknown
#NPOINTS     : 4096
#NCOLUMNS    : 1
#XUNITS      : eV
#YUNITS      : counts
#DATATYPE    : Y
#XPERCHAN    : 9.99778
#OFFSET      : 1.69135
#BEAMKV      : 15
#SIGNALTYPE  : EDS
#ELEVANGLE   : 35
#AZIMANGLE   : 0
#LIVETIME    : 239.765
#REALTIME    : 260.9096
#PROBECUR    : 1.21822
#TAUWIND     : 0
#TDEADLYR    : 0
#TACTLYR     : 0.045
#TALWIND     : 0.025
#CHOFFSET    : 0.0
#XLABEL      : Energy (eV)
#YLABEL      : Counts
#XPOSITION   : 4.53662
#YPOSITION   : 15.33644
#ZPOSITION   : 37.36299
#EDSDET      : SD
##SPECIMEN   : GMIIIA K1053[8][all]
##D2STDCMP   : K1053,(O:16.13),(F:0.39),(Si:9.35),(Cl:0.64),(Br:1.09),(I:1.37),(Pb:71.02)
##DET_HASH   : 12273538-fd48-a23f-0a19-f1e6fa85caef
##CALIB_HASH : 6abaa72c-aa41-8738-0be9-f592914732f3
##WORKING    : 15.0 mm
##DET_NAME   : EDAX All
##DET_MODE   : MediumLE
#SPECTRUM    :
31,
27,
15,
54,
317,
1204,
3239,
6716,
13330,
15999,
10896,
7829,
7269,
7524,
8550,
15653,
41607,
72513,
53490,
19631,
10295,
9692,
10732,
10869,
9175,
7722,
7441,
7825,
8152,
8297,
8311,
8486,
8670,
8841,
9036,
9143,
9312,
9359,
9344,
9549,
9588,
9860,
9869,
10123,
10486,
10286,
10470,
11054,
12807,
15320,
15570,
14161,
12195,
11235,
11319,
15218,
34136,
74110,
99006,
75079,
41233,
26544,
18756,
12325,
9574,
8802,
8379,
8343,
8267,
8444,
8772,
9392,
10558,
11622,
13715,
21122,
47285,
101306,
148095,
141468,
113102,
102353,
87233,
52372,
21989,
10462,
9817,
12489,
14235,
12734,
9389,
6755,
5734,
5565,
5370,
5543,
5517,
5688,
5737,
5724,
5927,
6351,
6842,
6938,
6803,
6117,
5568,
5326,
5149,
4888,
4858,
4916,
4824,
4666,
4914,
4864,
4822,
4873,
4930,
4616,
4651,
4657,
4696,
4776,
4681,
4852,
4641,
4603,
4736,
4999,
5527,
5771,
5848,
5283,
4867,
4626,
4554,
4567,
4740,
4807,
5156,
5039,
4872,
4760,
4558,
4400,
4231,
4205,
4365,
4670,
4662,
4538,
4471,
4341,
4088,
4131,
4121,
4210,
4188,
4160,
4166,
4152,
4070,
3980,
3969,
3988,
3927,
3977,
3952,
3918,
3938,
3834,
3708,
3727,
3704,
3635,
3623,
3589,
3483,
3598,
3590,
3451,
3506,
3491,
3529,
3494,
3385,
3334,
3307,
3334,
3379,
3379,
3360,
3492,
3278,
3197,
3285,
3283,
3219,
3267,
3167,
3252,
3144,
3193,
3131,
3079,
3084,
3033,
3088,
2955,
3048,
3120,
3051,
3196,
3051,
2912,
2823,
2946,
2814,
2865,
2834,
2799,
2737,
2725,
2721,
2737,
2744,
2708,
2582,
2732,
2662,
2608,
2573,
2531,
2594,
2537,
2544,
2519,
2544,
2491,
2545,
2499,
2391,
2450,
2441,
2402,
2403,
2483,
2242,
2327,
2335,
2449,
2240,
2272,
2259,
2303,
2204,
2136,
2199,
2291,
2174,
2145,
2118,
2084,
2128,
2070,
2105,
2044,
2091,
2027,
2136,
1998,
1977,
2064,
1956,
2015,
2002,
1993,
1987,
1878,
1850,
1795,
1893,
1830,
1849,
1799,
1739,
1827,
1762,
1813,
1774,
1833,
1688,
1762,
1706,
1703,
1726,
1715,
1649,
1593,
1596,
1624,
1632,
1688,
1704,
1715,
1625,
1619,
1527,
1557,
1617,
1544,
1556,
1471,
1450,
1465,
1481,
1420,
1426,
1481,
1408,
1354,
1393,
1370,
1366,
1368,
1389,
1292,
1349,
1309,
1284,
1297,
1235,
1310,
1304,
1242,
1214,
1223,
1192,
1196,
1225,
1203,
1235,
1225,
1214,
1218,
1393,
1606,
1752,
2156,
2551,
2576,
2551,
2332,
1948,
1564,
1332,
1108,
1047,
984,
1034,
987,
977,
1001,
945,
975,
940,
909,
926,
863,
889,
853,
900,
847,
851,
829,
868,
809,
784,
794,
726,
786,
828,
767,
770,
783,
729,
722,
769,
741,
684,
686,
713,
709,
716,
753,
712,
709,
615,
723,
642,
619,
600,
642,
634,
609,
637,
561,
567,
566,
526,
552,
529,
569,
536,
543,
598,
620,
653,
725,
758,
727,
650,
556,
568,
469,
465,
478,
413,
424,
436,
413,
411,
439,
397,
403,
371,
358,
357,
328,
313,
316,
340,
331,
298,
297,
295,
292,
280,
281,
258,
253,
218,
253,
231,
241,
243,
187,
214,
237,
230,
215,
201,
177,
167,
187,
181,
183,
144,
162,
153,
136,
144,
128,
142,
138,
123,
121,
134,
111,
117,
118,
111,
89,
77,
71,
55,
59,
76,
67,
57,
41,
53,
43,
37,
32,
18,
24,
12,
10,
11,
6,
3,
6,
5,
5,
2,
6,
7,
4,
4,
4,
4,
0,
4,
1,
6,
4,
0,
1,
3,
3,
5,
2,
5,
0,
4,
5,
3,
5,
4,
1,
2,
2,
3,
3,
4,
3,
5,
1,
4,
1,
1,
4,
2,
2,
2,
1,
1,
1,
2,
0,
2,
1,
3,
2,
4,
0,
5,
0,
5,
1,
3,
3,
1,
2,
4,
1,
1,
4,
0,
2,
2,
2,
3,
0,
2,
1,
3,
2,
0,
0,
1,
0,
3,
3,
3,
1,
1,
0,
1,
1,
2,
1,
2,
3,
0,
3,
1,
3,
0,
0,
1,
0,
2,
3,
1,
0,
0,
2,
0,
2,
1,
1,
0,
2,
0,
2,
3,
1,
1,
0,
2,
2,
0,
1,
0,
1,
2,
4,
3,
1,
0,
0,
0,
0,
1,
0,
2,
0,
0,
0,
0,
0,
1,
2,
2,
1,
1,
0,
2,
0,
1,
0,
0,
1,
0,
1,
1,
0,
0,
1,
0,
0,
2,
0,
2,
0,
2,
0,
0,
1,
1,
1,
0,
0,
2,
1,
2,
0,
1,
1,
0,
2,
0,
0,
1,
0,
1,
0,
0,
2,
2,
1,
0,
0,
0,
1,
0,
1,
0,
2,
0,
0,
0,
1,
1,
1,
0,
1,
0,
0,
1,
0,
0,
0,
1,
0,
0,
0,
1,
0,
0,
0,
0,
0,
0,
1,
0,
0,
0,
0,
1,
0,
0,
2,
1,
0,
0,
0,
0,
0,
0,
2,
0,
0,
0,
0,
0,
0,
0,
1,
0,
1,
1,
0,
0,
0,
0,
0,
0,
1,
0,
0,
0,
0,
1,
0,
0,
0,
0,
0,
1,
0,
0,
0,
0,
0,
0,
0,
0,
0,
0,
1,
0,
0,
0,
0,
0,
0,
0,
1,
0,
1,
0,
0,
0,
0,
0,
0,
0,
0,
0,
0,
0,
0,
0,
0,
0,
0,
0,
0,
0,
0,
0,
0,
0,
0,
0,
0,
0,
0,
0,
0,
0,
0,
0,
0,
0,
0,
0,
0,
0,
0,
0,
0,
0,
0,
0,
1,
1,
0,
0,
0,
0,
0,
0,
0,
0,
0,
0,
0,
0,
0,
0,
0,
0,
0,
0,
0,
0,
0,
0,
0,
0,
0,
0,
0,
0,
0,
0,
0,
0,
0,
0,
0,
0,
0,
0,
0,
0,
0,
0,
0,
0,
0,
0,
0,
0,
0,
0,
0,
0,
0,
0,
0,
0,
0,
0,
0,
0,
1,
0,
0,
0,
0,
0,
0,
0,
0,
0,
0,
0,
0,
0,
0,
0,
0,
0,
0,
0,
0,
0,
0,
0,
0,
0,
0,
0,
0,
0,
0,
0,
0,
0,
0,
0,
0,
0,
0,
0,
0,
0,
0,
0,
0,
0,
0,
0,
0,
0,
0,
0,
0,
0,
0,
0,
0,
0,
0,
0,
0,
0,
0,
0,
0,
0,
0,
0,
0,
0,
0,
0,
0,
0,
0,
0,
0,
0,
0,
0,
0,
0,
0,
0,
0,
0,
0,
0,
0,
0,
0,
0,
0,
0,
0,
0,
0,
0,
0,
0,
0,
0,
0,
0,
0,
0,
0,
0,
0,
0,
0,
0,
0,
0,
0,
0,
0,
0,
0,
0,
0,
0,
0,
0,
0,
0,
0,
0,
0,
0,
0,
0,
0,
0,
0,
0,
0,
0,
0,
0,
0,
0,
0,
0,
0,
0,
0,
0,
0,
0,
0,
0,
0,
0,
0,
0,
0,
0,
0,
0,
0,
0,
0,
0,
0,
0,
0,
0,
0,
0,
0,
0,
0,
0,
0,
0,
0,
0,
0,
0,
0,
0,
0,
0,
0,
0,
0,
0,
0,
0,
0,
0,
0,
0,
0,
0,
0,
0,
0,
0,
0,
0,
0,
0,
0,
0,
0,
0,
0,
0,
0,
0,
0,
0,
0,
0,
0,
0,
0,
0,
0,
0,
0,
0,
0,
0,
0,
0,
0,
0,
0,
0,
0,
0,
0,
0,
0,
0,
0,
0,
0,
0,
0,
0,
0,
0,
0,
0,
0,
0,
0,
0,
0,
0,
0,
0,
0,
0,
0,
0,
0,
0,
0,
0,
0,
0,
0,
0,
0,
0,
0,
0,
0,
0,
0,
0,
0,
0,
0,
0,
0,
0,
0,
0,
0,
0,
0,
0,
0,
0,
0,
0,
0,
0,
0,
0,
0,
0,
0,
0,
0,
0,
0,
0,
0,
0,
0,
0,
0,
0,
0,
0,
0,
0,
0,
0,
0,
0,
0,
0,
0,
0,
0,
0,
0,
0,
0,
0,
0,
0,
0,
0,
0,
0,
0,
0,
0,
0,
0,
0,
0,
0,
0,
0,
0,
0,
0,
0,
0,
0,
0,
0,
0,
0,
0,
0,
0,
0,
0,
0,
0,
0,
0,
0,
0,
0,
0,
0,
0,
0,
0,
0,
0,
0,
0,
0,
0,
0,
0,
0,
0,
0,
0,
0,
0,
0,
0,
0,
0,
0,
0,
0,
0,
0,
0,
0,
0,
0,
0,
0,
0,
0,
0,
0,
0,
0,
0,
0,
0,
0,
0,
0,
0,
0,
0,
0,
0,
0,
0,
0,
0,
0,
0,
0,
0,
0,
0,
0,
0,
0,
0,
0,
0,
0,
0,
0,
0,
0,
0,
0,
0,
0,
0,
0,
0,
0,
0,
0,
0,
0,
0,
0,
0,
0,
0,
0,
0,
0,
0,
0,
0,
0,
0,
0,
0,
#ENDOFDATA   :