File: N132962/Quantification/15 keV/GMIIIA/GMIIIA K1080[8][4].msa
#FORMAT      : EMSA/MAS Spectral Data File
#VERSION     : 1.0
#TITLE       : GMIIIA K1080[8][all]
#DATE        : 22-SEP-2025
#TIME        : 20:58
#OWNER       : Unknown
#NPOINTS     : 4096
#NCOLUMNS    : 1
#XUNITS      : eV
#YUNITS      : counts
#DATATYPE    : Y
#XPERCHAN    : 9.99778
#OFFSET      : 1.69135
#BEAMKV      : 15
#SIGNALTYPE  : EDS
#ELEVANGLE   : 35
#AZIMANGLE   : 0
#LIVETIME    : 239.942
#REALTIME    : 255.334
#PROBECUR    : 1.21822
#TAUWIND     : 0
#TDEADLYR    : 0
#TACTLYR     : 0.045
#TALWIND     : 0.025
#CHOFFSET    : 0.0
#XLABEL      : Energy (eV)
#YLABEL      : Counts
#XPOSITION   : 0.4074
#YPOSITION   : 15.72887
#ZPOSITION   : 37.36299
#EDSDET      : SD
##SPECIMEN   : GMIIIA K1080[8][all]
##D2STDCMP   : K1080,(Li:2.79),(B:0.62),(O:41.65),(Mg:1.21),(Al:7.94),(Si:18.7),(Ca:10.72),(Ti:1.2),(Sr:12.68),(Zr:0.74),(Lu:1.76)
##DET_HASH   : 12273538-fd48-a23f-0a19-f1e6fa85caef
##CALIB_HASH : 6abaa72c-aa41-8738-0be9-f592914732f3
##WORKING    : 15.0 mm
##DET_NAME   : EDAX All
##DET_MODE   : MediumLE
#SPECTRUM    :
34,
23,
7,
28,
126,
429,
1124,
2619,
5987,
8729,
7209,
5166,
4664,
5060,
7654,
23445,
85734,
162231,
118415,
31230,
5111,
3042,
3518,
3853,
3450,
3431,
3703,
3919,
4110,
4246,
4454,
4461,
4764,
4975,
5425,
5599,
5326,
5322,
5571,
6299,
8991,
13895,
15612,
11493,
7297,
6248,
6947,
13213,
36082,
69501,
70995,
40414,
20255,
14763,
12598,
16993,
48243,
118120,
165810,
139184,
90058,
58035,
35347,
20169,
11341,
7136,
5444,
5109,
4984,
4552,
4054,
3932,
3658,
3404,
3390,
3485,
3290,
3210,
2999,
2882,
2837,
2878,
2645,
2734,
2767,
2753,
2774,
2747,
2646,
2716,
2613,
2698,
2653,
2643,
2546,
2496,
2573,
2500,
2555,
2552,
2517,
2563,
2521,
2441,
2391,
2452,
2465,
2471,
2542,
2429,
2321,
2299,
2300,
2203,
2295,
2292,
2376,
2656,
2815,
3760,
7301,
16178,
28961,
36389,
31104,
18040,
7926,
3438,
2280,
2152,
2281,
2983,
4199,
5565,
6131,
5015,
3496,
2405,
1950,
1771,
1768,
1755,
1725,
1640,
1648,
1668,
1717,
1933,
2548,
3509,
4116,
3928,
3138,
2207,
1682,
1503,
1444,
1421,
1375,
1485,
1485,
1483,
1591,
1653,
1680,
1714,
1637,
1384,
1432,
1434,
1353,
1299,
1332,
1281,
1250,
1293,
1283,
1289,
1237,
1319,
1259,
1204,
1241,
1204,
1243,
1180,
1161,
1144,
1111,
1149,
1209,
1169,
1080,
1020,
1116,
1043,
995,
1080,
1121,
1070,
1027,
942,
1032,
968,
974,
983,
904,
972,
918,
955,
957,
948,
977,
966,
924,
948,
891,
869,
886,
826,
860,
900,
813,
831,
817,
837,
804,
859,
787,
835,
809,
760,
773,
806,
773,
766,
757,
772,
793,
741,
689,
702,
729,
706,
746,
680,
699,
700,
710,
686,
696,
782,
771,
871,
962,
975,
886,
844,
753,
664,
650,
611,
629,
621,
598,
610,
585,
647,
534,
573,
570,
574,
583,
579,
546,
557,
587,
539,
531,
536,
551,
505,
527,
499,
502,
533,
569,
519,
534,
586,
616,
582,
541,
520,
531,
477,
432,
491,
487,
501,
500,
509,
467,
475,
438,
446,
421,
404,
423,
397,
391,
366,
367,
410,
364,
381,
364,
340,
392,
341,
390,
372,
341,
337,
345,
348,
309,
327,
343,
326,
320,
324,
361,
332,
328,
329,
308,
312,
333,
306,
302,
305,
273,
277,
261,
277,
275,
265,
261,
282,
262,
256,
273,
245,
274,
234,
278,
253,
227,
229,
244,
217,
236,
231,
205,
230,
222,
206,
217,
211,
214,
238,
192,
190,
168,
211,
185,
197,
200,
190,
177,
178,
191,
167,
181,
158,
156,
150,
180,
173,
151,
177,
168,
145,
149,
133,
149,
131,
132,
151,
154,
137,
159,
149,
149,
132,
135,
134,
113,
111,
109,
114,
110,
121,
114,
104,
100,
109,
98,
117,
80,
89,
87,
100,
94,
68,
79,
91,
79,
74,
79,
92,
79,
69,
71,
60,
78,
59,
71,
76,
77,
82,
60,
60,
61,
55,
53,
48,
46,
53,
44,
49,
51,
36,
46,
36,
51,
43,
39,
32,
33,
28,
35,
34,
37,
32,
28,
35,
33,
28,
23,
25,
30,
25,
34,
17,
27,
19,
23,
16,
15,
19,
18,
19,
9,
15,
7,
8,
8,
11,
6,
3,
8,
6,
7,
3,
4,
1,
3,
4,
4,
0,
1,
0,
0,
0,
0,
0,
2,
1,
0,
1,
1,
0,
0,
1,
0,
0,
0,
0,
0,
0,
0,
0,
1,
1,
0,
1,
0,
0,
0,
0,
0,
0,
0,
0,
1,
1,
1,
0,
0,
0,
1,
0,
0,
0,
0,
1,
0,
0,
1,
0,
0,
0,
0,
0,
0,
0,
0,
0,
0,
1,
0,
1,
0,
0,
0,
0,
0,
0,
0,
0,
1,
0,
0,
0,
0,
0,
0,
0,
0,
0,
0,
0,
0,
0,
0,
0,
0,
1,
1,
1,
0,
0,
0,
0,
0,
0,
0,
0,
0,
0,
1,
0,
0,
0,
0,
1,
0,
0,
0,
0,
0,
0,
1,
0,
0,
0,
0,
0,
0,
0,
0,
0,
0,
1,
0,
0,
0,
0,
0,
1,
0,
0,
0,
0,
0,
0,
0,
0,
0,
0,
0,
0,
0,
0,
0,
0,
0,
0,
0,
0,
0,
0,
0,
0,
0,
0,
0,
0,
0,
0,
0,
0,
0,
1,
0,
0,
0,
0,
0,
0,
0,
0,
0,
0,
0,
0,
0,
0,
0,
0,
0,
0,
0,
0,
0,
0,
0,
0,
0,
0,
0,
0,
0,
1,
0,
0,
0,
0,
0,
0,
0,
0,
0,
0,
0,
0,
0,
0,
0,
0,
0,
0,
0,
0,
0,
0,
0,
0,
0,
0,
0,
0,
0,
0,
0,
0,
0,
0,
0,
0,
0,
0,
0,
0,
0,
0,
0,
0,
0,
0,
0,
0,
0,
0,
0,
0,
0,
0,
0,
0,
0,
0,
0,
0,
0,
0,
1,
0,
0,
0,
0,
0,
0,
0,
0,
0,
0,
0,
0,
0,
0,
0,
0,
0,
0,
0,
0,
0,
0,
0,
0,
0,
0,
0,
0,
0,
0,
0,
0,
0,
0,
0,
0,
0,
0,
0,
0,
0,
0,
0,
0,
0,
0,
0,
0,
0,
0,
0,
0,
0,
0,
0,
0,
0,
0,
0,
0,
0,
0,
0,
0,
0,
0,
0,
0,
0,
0,
0,
0,
0,
0,
0,
0,
0,
0,
0,
0,
0,
0,
0,
0,
0,
0,
0,
0,
0,
0,
0,
0,
0,
0,
0,
0,
0,
0,
0,
0,
0,
0,
0,
0,
0,
0,
0,
0,
0,
0,
0,
0,
0,
0,
0,
0,
0,
0,
0,
0,
0,
0,
0,
0,
0,
0,
0,
0,
0,
0,
0,
0,
0,
0,
0,
0,
0,
0,
0,
0,
0,
0,
0,
0,
0,
0,
0,
0,
0,
0,
0,
0,
0,
0,
0,
0,
0,
0,
0,
0,
0,
0,
0,
0,
0,
0,
0,
0,
0,
0,
0,
0,
0,
0,
0,
0,
0,
0,
0,
0,
0,
0,
0,
0,
0,
0,
0,
0,
0,
0,
0,
0,
0,
0,
0,
0,
0,
0,
0,
0,
0,
0,
0,
0,
0,
0,
0,
0,
0,
0,
0,
0,
0,
0,
0,
0,
0,
0,
0,
0,
0,
0,
0,
0,
0,
0,
0,
0,
0,
0,
0,
0,
0,
0,
0,
0,
0,
0,
0,
0,
0,
0,
0,
0,
0,
0,
0,
0,
0,
0,
0,
0,
0,
0,
0,
0,
0,
0,
0,
0,
0,
0,
0,
0,
0,
0,
0,
0,
0,
0,
0,
0,
0,
0,
0,
0,
0,
0,
0,
0,
0,
0,
0,
0,
0,
0,
0,
0,
0,
0,
0,
0,
0,
0,
0,
0,
0,
0,
0,
0,
0,
0,
0,
0,
0,
0,
0,
0,
0,
0,
0,
0,
0,
0,
0,
0,
0,
0,
0,
0,
0,
0,
0,
0,
0,
0,
0,
0,
0,
0,
0,
0,
0,
0,
0,
0,
0,
0,
0,
0,
0,
0,
0,
0,
0,
0,
0,
0,
0,
0,
0,
0,
0,
0,
0,
0,
0,
0,
0,
0,
0,
0,
0,
0,
0,
0,
0,
0,
0,
0,
0,
0,
0,
0,
0,
0,
0,
0,
0,
0,
0,
0,
0,
0,
0,
0,
0,
0,
0,
0,
0,
0,
0,
0,
0,
0,
0,
0,
0,
0,
0,
0,
0,
0,
0,
0,
0,
0,
0,
0,
0,
0,
0,
0,
0,
0,
0,
0,
0,
0,
0,
0,
0,
0,
0,
0,
0,
0,
0,
0,
0,
0,
0,
0,
0,
0,
0,
0,
0,
0,
0,
0,
0,
0,
0,
0,
0,
0,
0,
0,
0,
0,
0,
0,
0,
0,
0,
0,
0,
0,
0,
0,
0,
0,
0,
0,
0,
0,
0,
0,
0,
0,
0,
0,
0,
0,
0,
0,
0,
0,
0,
0,
0,
0,
0,
0,
0,
0,
0,
0,
0,
0,
0,
0,
0,
0,
0,
0,
0,
0,
0,
0,
0,
0,
0,
0,
0,
0,
0,
0,
0,
0,
0,
0,
0,
0,
0,
0,
0,
0,
0,
0,
0,
0,
0,
0,
0,
0,
0,
0,
0,
0,
0,
0,
0,
0,
0,
0,
0,
0,
0,
0,
0,
0,
0,
0,
0,
0,
0,
0,
0,
0,
0,
0,
0,
0,
0,
0,
0,
0,
0,
0,
0,
0,
0,
0,
0,
0,
0,
0,
0,
0,
0,
0,
0,
0,
0,
0,
0,
0,
0,
0,
0,
0,
0,
0,
0,
0,
0,
0,
0,
0,
0,
0,
0,
0,
0,
0,
0,
0,
0,
0,
0,
0,
0,
0,
0,
#ENDOFDATA   :