File: N132962/Quantification/15 keV/GMIIIA/GMIIIA K1229[4][4].msa
#FORMAT      : EMSA/MAS Spectral Data File
#VERSION     : 1.0
#TITLE       : GMIIIA K1229[4][all]
#DATE        : 22-SEP-2025
#TIME        : 22:48
#OWNER       : Unknown
#NPOINTS     : 4096
#NCOLUMNS    : 1
#XUNITS      : eV
#YUNITS      : counts
#DATATYPE    : Y
#XPERCHAN    : 9.99778
#OFFSET      : 1.69135
#BEAMKV      : 15
#SIGNALTYPE  : EDS
#ELEVANGLE   : 35
#AZIMANGLE   : 0
#LIVETIME    : 239.914
#REALTIME    : 255.98
#PROBECUR    : 1.21591
#TAUWIND     : 0
#TDEADLYR    : 0
#TACTLYR     : 0.045
#TALWIND     : 0.025
#CHOFFSET    : 0.0
#XLABEL      : Energy (eV)
#YLABEL      : Counts
#XPOSITION   : 4.002
#YPOSITION   : 17.40276
#ZPOSITION   : 37.36299
#EDSDET      : SD
##SPECIMEN   : GMIIIA K1229[4][all]
##D2STDCMP   : K1229,(O:41.02),(Mg:1.77),(Al:9.34),(Si:22.0),(Ca:10.51),(Sr:7.46),(Ba:7.9)
##DET_HASH   : 12273538-fd48-a23f-0a19-f1e6fa85caef
##CALIB_HASH : 6abaa72c-aa41-8738-0be9-f592914732f3
##WORKING    : 15.0 mm
##DET_NAME   : EDAX All
##DET_MODE   : MediumLE
#SPECTRUM    :
18,
24,
11,
24,
102,
404,
1140,
2710,
6243,
9084,
7478,
5640,
5057,
5153,
7820,
25323,
94107,
180041,
131088,
35297,
6589,
3711,
3820,
3906,
3977,
4454,
5020,
4955,
4466,
4434,
4501,
4626,
5274,
5483,
5925,
5995,
5491,
5291,
5300,
6147,
9423,
16290,
18859,
12894,
7747,
6203,
7161,
13550,
39087,
75651,
77134,
41678,
16521,
8858,
7975,
15150,
52386,
131153,
181453,
140032,
75907,
41347,
23818,
13530,
8072,
5736,
4319,
3677,
3369,
3267,
2952,
3204,
3179,
3279,
3497,
3554,
3490,
3214,
3285,
2992,
2961,
2920,
2860,
3016,
2904,
2852,
2785,
2812,
2968,
2870,
2857,
2927,
2870,
2803,
2746,
2743,
2623,
2655,
2736,
2769,
2756,
2622,
2597,
2589,
2642,
2588,
2656,
2731,
2623,
2580,
2538,
2518,
2539,
2366,
2457,
2391,
2638,
2720,
2862,
3744,
7480,
16323,
28556,
36099,
30800,
17979,
7896,
3554,
2408,
2341,
2473,
3270,
4447,
5806,
6225,
5227,
3536,
2465,
2078,
1828,
1927,
1839,
1878,
1935,
1897,
2305,
3376,
5275,
7289,
8187,
7006,
4724,
2953,
1934,
1732,
1565,
1660,
1770,
2217,
3098,
4041,
4620,
4384,
3491,
2747,
2316,
1834,
1729,
1607,
1761,
1984,
2361,
2439,
2246,
1983,
1678,
1481,
1314,
1336,
1304,
1336,
1388,
1561,
1625,
1729,
1686,
1539,
1396,
1285,
1132,
1232,
1298,
1245,
1338,
1284,
1310,
1202,
1091,
1171,
1117,
1095,
1046,
1060,
1042,
1088,
1082,
1029,
1124,
1030,
1000,
1030,
1006,
989,
1006,
972,
998,
1044,
971,
907,
947,
956,
864,
884,
950,
914,
911,
885,
828,
857,
861,
808,
877,
846,
815,
772,
819,
787,
794,
810,
763,
790,
762,
718,
739,
734,
766,
707,
735,
724,
741,
769,
735,
664,
649,
708,
694,
689,
714,
682,
613,
656,
673,
661,
626,
658,
660,
667,
608,
603,
601,
604,
546,
591,
575,
604,
558,
614,
584,
551,
587,
568,
533,
551,
520,
534,
536,
575,
514,
488,
518,
518,
518,
530,
500,
529,
442,
487,
523,
451,
450,
466,
464,
467,
492,
438,
465,
459,
421,
439,
442,
439,
450,
401,
366,
407,
385,
372,
428,
392,
376,
393,
401,
405,
395,
347,
383,
402,
342,
396,
351,
326,
360,
350,
374,
344,
333,
317,
357,
344,
320,
299,
323,
328,
312,
283,
282,
320,
318,
283,
287,
296,
274,
274,
264,
293,
269,
242,
267,
283,
247,
263,
247,
238,
246,
220,
264,
222,
214,
247,
222,
237,
202,
232,
238,
222,
215,
217,
201,
220,
218,
213,
183,
196,
174,
193,
171,
184,
185,
161,
174,
182,
151,
163,
174,
164,
165,
166,
145,
144,
156,
128,
154,
133,
125,
140,
132,
131,
138,
123,
121,
143,
121,
110,
116,
121,
118,
113,
112,
125,
116,
111,
106,
99,
106,
98,
93,
94,
88,
91,
90,
84,
95,
84,
61,
83,
76,
74,
81,
84,
69,
74,
76,
57,
67,
67,
50,
55,
49,
58,
58,
55,
71,
52,
50,
57,
55,
50,
57,
52,
48,
48,
45,
39,
41,
49,
32,
36,
41,
38,
34,
42,
29,
17,
39,
19,
21,
15,
29,
13,
22,
27,
21,
20,
17,
10,
12,
11,
14,
14,
12,
10,
10,
7,
7,
5,
4,
6,
4,
2,
3,
0,
0,
1,
0,
2,
2,
1,
1,
0,
0,
0,
0,
1,
1,
1,
0,
2,
0,
1,
1,
1,
0,
0,
0,
1,
0,
0,
0,
0,
0,
1,
0,
0,
0,
0,
1,
0,
0,
0,
0,
1,
0,
0,
0,
1,
2,
0,
0,
0,
3,
0,
0,
0,
0,
0,
0,
0,
0,
1,
0,
0,
0,
1,
0,
0,
0,
0,
2,
0,
0,
0,
1,
0,
0,
0,
0,
0,
0,
0,
0,
0,
0,
0,
0,
0,
0,
0,
0,
0,
0,
0,
0,
0,
0,
0,
0,
0,
0,
0,
0,
0,
0,
0,
0,
0,
0,
0,
1,
0,
0,
1,
0,
0,
0,
0,
0,
0,
0,
0,
0,
0,
0,
0,
0,
0,
0,
0,
0,
0,
0,
0,
0,
0,
0,
0,
0,
0,
0,
0,
0,
0,
0,
0,
0,
0,
0,
0,
0,
0,
0,
0,
0,
0,
0,
0,
0,
0,
0,
0,
0,
0,
0,
0,
0,
0,
0,
0,
0,
0,
0,
0,
0,
0,
0,
0,
0,
0,
0,
0,
0,
0,
0,
0,
0,
0,
0,
0,
0,
0,
0,
0,
0,
0,
0,
0,
0,
0,
0,
0,
0,
0,
0,
0,
0,
0,
0,
0,
0,
0,
0,
0,
0,
0,
0,
0,
0,
0,
0,
0,
0,
0,
0,
0,
0,
0,
0,
0,
0,
0,
0,
0,
0,
0,
0,
0,
0,
0,
0,
0,
0,
0,
0,
0,
0,
0,
0,
0,
0,
0,
0,
0,
0,
0,
0,
0,
0,
0,
0,
0,
0,
0,
0,
0,
0,
0,
0,
0,
0,
0,
0,
0,
0,
0,
0,
0,
0,
0,
0,
0,
0,
0,
0,
0,
0,
0,
0,
0,
0,
0,
0,
0,
0,
0,
0,
0,
0,
0,
0,
0,
0,
0,
0,
0,
0,
0,
0,
0,
0,
0,
0,
0,
0,
0,
0,
0,
0,
0,
0,
0,
0,
0,
0,
0,
0,
0,
0,
0,
0,
0,
0,
0,
0,
0,
0,
0,
0,
0,
0,
0,
0,
0,
0,
0,
0,
0,
0,
0,
0,
0,
0,
0,
0,
0,
0,
0,
0,
0,
0,
0,
0,
0,
0,
0,
0,
0,
0,
0,
0,
0,
0,
0,
0,
0,
0,
0,
0,
0,
0,
0,
0,
0,
0,
0,
0,
0,
0,
0,
0,
0,
0,
0,
0,
0,
0,
0,
0,
0,
0,
0,
0,
0,
0,
0,
0,
0,
0,
0,
0,
0,
0,
0,
0,
0,
0,
0,
0,
0,
0,
0,
0,
0,
0,
0,
0,
0,
0,
0,
0,
0,
0,
0,
0,
0,
0,
0,
0,
0,
0,
0,
0,
0,
0,
0,
0,
0,
0,
0,
0,
0,
0,
0,
0,
0,
0,
0,
0,
0,
0,
0,
0,
0,
0,
0,
0,
0,
0,
0,
0,
0,
0,
0,
0,
0,
0,
0,
0,
0,
0,
0,
0,
0,
0,
0,
0,
0,
0,
0,
0,
0,
0,
0,
0,
0,
0,
0,
0,
0,
0,
0,
0,
0,
0,
0,
0,
0,
0,
0,
0,
0,
0,
0,
0,
0,
0,
0,
0,
0,
0,
0,
0,
0,
0,
0,
0,
0,
0,
0,
0,
0,
0,
0,
0,
0,
0,
0,
0,
0,
0,
0,
0,
0,
0,
0,
0,
0,
0,
0,
0,
0,
0,
0,
0,
0,
0,
0,
0,
0,
0,
0,
0,
0,
0,
0,
0,
0,
0,
0,
0,
0,
0,
0,
0,
0,
0,
0,
0,
0,
0,
0,
0,
0,
0,
0,
0,
0,
0,
0,
0,
0,
0,
0,
0,
0,
0,
0,
0,
0,
0,
0,
0,
0,
0,
0,
0,
0,
0,
0,
0,
0,
0,
0,
0,
0,
0,
0,
0,
0,
0,
0,
0,
0,
0,
0,
0,
0,
0,
0,
0,
0,
0,
0,
0,
0,
0,
0,
0,
0,
0,
0,
0,
0,
0,
0,
0,
0,
0,
0,
0,
0,
0,
0,
0,
0,
0,
0,
0,
0,
0,
0,
0,
0,
0,
0,
0,
0,
0,
0,
0,
0,
0,
0,
0,
0,
0,
0,
0,
0,
0,
0,
0,
0,
0,
0,
0,
0,
0,
0,
0,
0,
0,
0,
0,
0,
0,
0,
0,
0,
0,
0,
0,
0,
0,
0,
0,
0,
0,
0,
0,
0,
0,
0,
0,
0,
0,
0,
0,
0,
0,
0,
0,
0,
0,
0,
0,
0,
0,
0,
0,
0,
0,
0,
0,
0,
0,
0,
0,
0,
0,
0,
0,
0,
0,
0,
0,
0,
0,
0,
0,
0,
0,
0,
0,
0,
0,
0,
0,
0,
0,
0,
0,
0,
0,
0,
0,
0,
0,
0,
0,
0,
0,
0,
0,
0,
0,
0,
0,
0,
0,
0,
0,
0,
0,
0,
0,
0,
0,
0,
0,
0,
0,
0,
0,
0,
0,
0,
0,
0,
0,
0,
0,
0,
0,
0,
0,
0,
0,
0,
0,
0,
0,
0,
0,
0,
0,
0,
0,
0,
0,
0,
0,
0,
0,
0,
0,
0,
0,
0,
0,
0,
0,
0,
0,
0,
0,
0,
0,
0,
0,
0,
0,
0,
0,
0,
0,
0,
0,
0,
0,
0,
0,
0,
0,
0,
0,
0,
0,
0,
0,
0,
0,
0,
0,
0,
0,
0,
0,
#ENDOFDATA   :