File: N132962/Quantification/15 keV/GMIIIA/GMIIIA K253[2][4].msa
#FORMAT      : EMSA/MAS Spectral Data File
#VERSION     : 1.0
#TITLE       : GMIIIA K253[2][all]
#DATE        : 22-SEP-2025
#TIME        : 14:42
#OWNER       : Unknown
#NPOINTS     : 4096
#NCOLUMNS    : 1
#XUNITS      : eV
#YUNITS      : counts
#DATATYPE    : Y
#XPERCHAN    : 9.99778
#OFFSET      : 1.69135
#BEAMKV      : 15
#SIGNALTYPE  : EDS
#ELEVANGLE   : 35
#AZIMANGLE   : 0
#LIVETIME    : 239.8805
#REALTIME    : 257.014
#PROBECUR    : 1.21983
#TAUWIND     : 0
#TDEADLYR    : 0
#TACTLYR     : 0.045
#TALWIND     : 0.025
#CHOFFSET    : 0.0
#XLABEL      : Energy (eV)
#YLABEL      : Counts
#XPOSITION   : 2.58879
#YPOSITION   : 2.34207
#ZPOSITION   : 37.36299
#EDSDET      : SD
##SPECIMEN   : GMIIIA K253[2][all]
##D2STDCMP   : K253,(O:31.64),(Si:18.7),(Mn:6.32),(Co:1.97),(Cu:2.0),(Zn:8.03),(Ba:31.35)
##DET_HASH   : 12273538-fd48-a23f-0a19-f1e6fa85caef
##CALIB_HASH : 6abaa72c-aa41-8738-0be9-f592914732f3
##WORKING    : 15.0 mm
##DET_NAME   : EDAX All
##DET_MODE   : MediumLE
#SPECTRUM    :
25,
24,
16,
30,
129,
570,
1554,
3762,
7790,
9728,
7340,
6388,
7104,
8411,
12368,
34962,
119944,
224003,
164708,
51703,
18870,
15765,
11891,
8075,
8239,
11640,
13896,
10669,
7894,
7935,
10797,
14268,
18236,
28390,
33093,
22130,
10339,
6046,
5224,
4785,
4776,
4784,
5065,
5146,
5138,
5232,
5366,
5503,
5784,
6078,
6237,
6216,
6014,
6338,
7175,
13289,
42735,
104277,
140540,
100383,
42304,
16613,
9024,
5999,
4784,
4380,
4276,
4435,
4293,
4330,
4403,
4372,
4472,
4577,
4607,
4833,
4704,
4721,
4456,
4376,
4251,
4295,
4285,
4251,
4213,
4161,
4253,
4153,
4114,
4217,
4256,
4276,
4212,
4128,
3991,
3848,
3819,
3809,
3748,
3820,
3858,
3845,
3721,
3743,
3712,
3733,
3646,
3623,
3494,
3508,
3620,
3514,
3425,
3471,
3489,
3517,
3389,
3446,
3236,
3287,
3278,
3307,
3201,
3169,
3170,
3046,
3124,
2977,
3176,
3177,
3561,
3913,
4121,
3894,
3531,
3179,
2839,
2945,
2838,
2728,
2864,
2935,
2885,
3267,
3677,
5273,
10027,
18631,
28772,
31944,
26454,
16182,
7992,
4075,
2848,
2729,
2885,
3458,
5293,
9053,
13564,
16056,
14861,
11284,
7935,
5646,
4337,
3512,
3181,
3586,
4660,
6259,
6854,
6222,
4545,
3303,
2552,
2136,
2046,
1976,
2021,
2297,
2655,
3414,
3708,
3722,
3130,
2642,
2192,
1964,
2031,
2272,
2842,
3878,
5575,
7879,
9710,
9393,
7720,
5003,
3068,
2261,
1703,
1613,
1641,
1572,
1600,
1555,
1519,
1594,
1538,
1603,
1702,
1916,
2078,
2308,
2438,
2404,
2081,
1799,
1645,
1459,
1458,
1369,
1388,
1364,
1435,
1664,
1869,
2371,
2723,
2825,
2602,
2063,
1736,
1435,
1294,
1218,
1211,
1239,
1199,
1230,
1198,
1220,
1164,
1153,
1220,
1221,
1224,
1175,
1236,
1192,
1197,
1249,
1268,
1322,
1331,
1167,
1156,
1109,
1086,
1056,
1061,
1059,
1208,
1452,
1622,
1949,
1977,
1929,
1677,
1275,
1128,
1027,
980,
897,
880,
922,
879,
916,
946,
933,
1011,
1230,
1675,
2266,
3001,
3552,
3674,
3067,
2342,
1635,
1210,
960,
942,
918,
1012,
921,
847,
860,
834,
802,
761,
727,
788,
778,
734,
690,
700,
665,
713,
677,
680,
737,
732,
756,
864,
939,
1018,
1024,
1039,
861,
771,
744,
648,
564,
615,
575,
598,
589,
556,
556,
566,
572,
601,
517,
576,
524,
528,
489,
547,
500,
506,
514,
553,
522,
544,
506,
516,
510,
477,
455,
440,
478,
435,
476,
449,
442,
444,
460,
448,
394,
417,
424,
382,
441,
414,
394,
398,
372,
390,
383,
374,
382,
360,
381,
366,
365,
381,
360,
324,
371,
321,
353,
305,
318,
322,
304,
322,
310,
324,
276,
316,
269,
305,
298,
286,
270,
280,
270,
251,
265,
272,
234,
232,
271,
253,
248,
252,
239,
214,
232,
215,
228,
191,
213,
200,
196,
190,
209,
191,
168,
188,
168,
183,
175,
199,
184,
172,
157,
153,
139,
168,
164,
153,
154,
134,
145,
127,
163,
132,
132,
149,
139,
124,
134,
131,
112,
119,
105,
104,
92,
95,
98,
92,
98,
90,
82,
81,
79,
81,
91,
74,
85,
84,
78,
57,
59,
73,
68,
56,
65,
53,
48,
41,
54,
51,
42,
44,
44,
40,
37,
35,
27,
31,
36,
30,
16,
23,
23,
16,
15,
20,
12,
13,
13,
6,
4,
7,
7,
2,
3,
2,
4,
1,
3,
4,
0,
3,
0,
0,
0,
1,
1,
1,
1,
2,
2,
0,
0,
1,
0,
0,
2,
1,
0,
2,
0,
1,
2,
1,
4,
1,
1,
3,
1,
1,
0,
1,
0,
0,
1,
2,
3,
1,
0,
1,
1,
1,
0,
0,
1,
1,
0,
0,
0,
0,
2,
0,
0,
2,
0,
1,
0,
1,
0,
1,
0,
0,
1,
1,
0,
1,
3,
0,
2,
0,
0,
0,
1,
0,
2,
2,
1,
0,
0,
1,
0,
0,
0,
1,
0,
0,
1,
1,
1,
0,
2,
0,
0,
1,
1,
2,
0,
2,
1,
1,
0,
0,
0,
0,
1,
1,
0,
0,
0,
0,
3,
0,
0,
0,
0,
0,
0,
0,
0,
1,
0,
0,
0,
0,
0,
0,
0,
0,
0,
0,
0,
0,
0,
1,
1,
0,
2,
0,
0,
0,
0,
0,
1,
1,
0,
1,
0,
0,
0,
0,
0,
0,
0,
0,
0,
0,
0,
2,
0,
0,
0,
0,
0,
0,
0,
0,
0,
0,
0,
0,
0,
0,
1,
0,
0,
1,
0,
1,
0,
0,
0,
0,
0,
0,
0,
0,
0,
0,
0,
0,
0,
1,
0,
0,
0,
0,
0,
0,
0,
0,
0,
0,
0,
0,
0,
0,
0,
0,
0,
0,
1,
0,
0,
0,
0,
0,
0,
0,
0,
0,
0,
0,
0,
0,
0,
0,
0,
0,
0,
0,
0,
0,
0,
0,
0,
0,
0,
0,
0,
0,
0,
0,
0,
0,
0,
0,
0,
0,
0,
0,
0,
0,
0,
0,
0,
0,
0,
0,
0,
0,
0,
0,
0,
0,
1,
0,
0,
0,
0,
0,
0,
0,
1,
0,
0,
0,
0,
0,
0,
0,
0,
0,
0,
0,
0,
0,
0,
0,
0,
0,
0,
0,
0,
0,
0,
0,
0,
0,
0,
0,
0,
0,
0,
0,
0,
0,
0,
0,
0,
0,
0,
0,
0,
0,
0,
0,
0,
0,
1,
0,
0,
0,
0,
0,
0,
0,
0,
0,
0,
0,
0,
0,
0,
0,
0,
0,
0,
1,
0,
0,
0,
0,
0,
0,
0,
0,
0,
0,
0,
0,
0,
0,
0,
0,
0,
0,
0,
0,
0,
0,
0,
0,
0,
0,
0,
0,
0,
0,
0,
0,
0,
0,
0,
0,
0,
0,
0,
0,
0,
0,
0,
0,
0,
0,
0,
0,
0,
0,
0,
0,
0,
0,
0,
0,
0,
0,
0,
0,
0,
0,
0,
0,
0,
0,
0,
0,
0,
0,
0,
0,
0,
0,
0,
0,
0,
0,
0,
0,
0,
0,
0,
0,
0,
0,
0,
0,
0,
0,
0,
0,
0,
0,
0,
0,
0,
0,
0,
0,
0,
0,
0,
0,
0,
0,
0,
0,
0,
0,
0,
0,
0,
0,
0,
0,
0,
0,
0,
0,
0,
0,
0,
0,
0,
0,
0,
0,
0,
0,
0,
0,
0,
0,
0,
0,
0,
0,
0,
0,
0,
0,
0,
0,
0,
0,
0,
0,
0,
0,
0,
0,
0,
0,
0,
0,
0,
0,
0,
0,
0,
0,
0,
0,
0,
0,
0,
0,
0,
0,
0,
0,
0,
0,
0,
0,
0,
0,
0,
0,
0,
0,
0,
0,
0,
0,
0,
0,
0,
0,
0,
0,
0,
0,
0,
0,
0,
0,
0,
0,
0,
0,
0,
0,
0,
0,
0,
0,
0,
0,
0,
0,
0,
0,
0,
0,
0,
0,
0,
0,
0,
0,
0,
0,
0,
0,
0,
0,
0,
0,
0,
0,
0,
0,
0,
0,
0,
0,
0,
0,
0,
0,
0,
0,
0,
0,
0,
0,
0,
0,
0,
0,
0,
0,
0,
0,
0,
0,
0,
0,
0,
0,
0,
0,
0,
0,
0,
0,
0,
0,
0,
0,
0,
0,
0,
0,
0,
0,
0,
0,
0,
0,
0,
0,
0,
0,
0,
0,
0,
0,
0,
0,
0,
0,
0,
0,
0,
0,
0,
0,
0,
0,
0,
0,
0,
0,
0,
0,
0,
0,
0,
0,
0,
0,
0,
0,
0,
0,
0,
0,
0,
0,
0,
0,
0,
0,
0,
0,
0,
0,
0,
0,
0,
0,
0,
0,
0,
0,
0,
0,
0,
0,
0,
0,
0,
0,
0,
0,
0,
0,
0,
0,
0,
0,
0,
0,
0,
0,
0,
0,
0,
0,
0,
0,
0,
0,
0,
0,
0,
0,
0,
0,
0,
0,
0,
0,
0,
0,
0,
0,
0,
0,
0,
0,
0,
0,
0,
0,
0,
0,
0,
0,
0,
0,
0,
0,
0,
0,
0,
0,
0,
0,
0,
0,
0,
0,
0,
0,
0,
0,
0,
0,
0,
0,
0,
0,
0,
0,
0,
0,
0,
0,
0,
0,
0,
0,
0,
0,
0,
0,
0,
0,
0,
0,
0,
0,
0,
0,
0,
0,
0,
0,
0,
0,
0,
0,
0,
0,
0,
0,
0,
0,
0,
0,
0,
0,
0,
0,
0,
0,
0,
0,
0,
0,
0,
0,
0,
0,
0,
0,
0,
0,
0,
0,
0,
0,
0,
0,
0,
0,
0,
0,
0,
0,
0,
0,
0,
0,
0,
0,
0,
0,
0,
0,
0,
0,
0,
0,
0,
0,
0,
0,
0,
0,
0,
0,
0,
0,
0,
0,
0,
0,
0,
0,
0,
0,
0,
0,
0,
0,
0,
#ENDOFDATA   :