File: N132962/Quantification/15 keV/GMIIIA/GMIIIA K1070[0][4].msa
#FORMAT      : EMSA/MAS Spectral Data File
#VERSION     : 1.0
#TITLE       : GMIIIA K1070[0][all]
#DATE        : 22-SEP-2025
#TIME        : 21:00
#OWNER       : Unknown
#NPOINTS     : 4096
#NCOLUMNS    : 1
#XUNITS      : eV
#YUNITS      : counts
#DATATYPE    : Y
#XPERCHAN    : 9.99778
#OFFSET      : 1.69135
#BEAMKV      : 15
#SIGNALTYPE  : EDS
#ELEVANGLE   : 35
#AZIMANGLE   : 0
#LIVETIME    : 240.043
#REALTIME    : 256.224
#PROBECUR    : 1.21822
#TAUWIND     : 0
#TDEADLYR    : 0
#TACTLYR     : 0.045
#TALWIND     : 0.025
#CHOFFSET    : 0.0
#XLABEL      : Energy (eV)
#YLABEL      : Counts
#XPOSITION   : 2.35718
#YPOSITION   : 15.70945
#ZPOSITION   : 37.36299
#EDSDET      : SD
##SPECIMEN   : GMIIIA K1070[0][all]
##D2STDCMP   : K1070,(O:34.31),(Mg:7.54),(Si:18.7),(Ca:8.93),(Zn:10.04),(Ba:11.2),(Pb:9.28)
##DET_HASH   : 12273538-fd48-a23f-0a19-f1e6fa85caef
##CALIB_HASH : 6abaa72c-aa41-8738-0be9-f592914732f3
##WORKING    : 15.0 mm
##DET_NAME   : EDAX All
##DET_MODE   : MediumLE
#SPECTRUM    :
21,
27,
10,
23,
121,
455,
1273,
3233,
7520,
10886,
8854,
6547,
5582,
5930,
8499,
25216,
88093,
165764,
121309,
34397,
8033,
5180,
4794,
5097,
5199,
6080,
6534,
6560,
6616,
7440,
7833,
8786,
17297,
35991,
45050,
29323,
12672,
7192,
6258,
8531,
20399,
44403,
52597,
31683,
12108,
6279,
5224,
5263,
5468,
5597,
5952,
5899,
5919,
6087,
6815,
13193,
44023,
108502,
146737,
104517,
44152,
17468,
9588,
6239,
4736,
4501,
4160,
4124,
4002,
4019,
3966,
4081,
4292,
4434,
4748,
5626,
8178,
13524,
18434,
17638,
14819,
13534,
11924,
8290,
5279,
4035,
3921,
3905,
4225,
4302,
3897,
3620,
3475,
3395,
3427,
3290,
3405,
3252,
3345,
3451,
3329,
3331,
3432,
3413,
3337,
3230,
3180,
3000,
2997,
3050,
2935,
2862,
2945,
2857,
2908,
3027,
3037,
2983,
3326,
4084,
7201,
14900,
25645,
32011,
27420,
16328,
7489,
3929,
2859,
2809,
3057,
3706,
4917,
5886,
6296,
5241,
3860,
2851,
2506,
2394,
2382,
2304,
2375,
2380,
2514,
3156,
4606,
7373,
10665,
11829,
9988,
6618,
3865,
2582,
2150,
2105,
2191,
2375,
2896,
4196,
5636,
6343,
5996,
4860,
3678,
2995,
2430,
2259,
2166,
2396,
2666,
3148,
3398,
3253,
2621,
2149,
1849,
1809,
1738,
1708,
1768,
1845,
1935,
2089,
2208,
2229,
2076,
1811,
1631,
1633,
1637,
1703,
1721,
1763,
1755,
1638,
1512,
1502,
1467,
1493,
1465,
1404,
1434,
1392,
1400,
1371,
1385,
1334,
1306,
1367,
1354,
1349,
1380,
1298,
1340,
1340,
1276,
1281,
1297,
1201,
1174,
1124,
1157,
1157,
1136,
1176,
1160,
1184,
1137,
1142,
1218,
1159,
1082,
1099,
1092,
1117,
1048,
1100,
1050,
1066,
1065,
1028,
1038,
1058,
989,
971,
1045,
998,
1044,
1009,
1009,
948,
1021,
955,
935,
904,
847,
921,
873,
919,
895,
836,
888,
830,
831,
819,
822,
855,
826,
849,
854,
850,
826,
791,
815,
802,
806,
761,
763,
763,
739,
782,
866,
1107,
1569,
2361,
3298,
3950,
3990,
3385,
2461,
1610,
1140,
825,
736,
744,
656,
670,
664,
628,
682,
604,
635,
652,
649,
631,
616,
598,
610,
596,
595,
605,
588,
586,
599,
694,
740,
869,
976,
1010,
919,
796,
722,
602,
531,
578,
481,
495,
464,
488,
507,
494,
483,
464,
483,
491,
465,
437,
427,
394,
449,
425,
431,
435,
407,
432,
449,
430,
462,
484,
552,
523,
501,
517,
451,
426,
380,
397,
362,
359,
358,
366,
338,
383,
363,
308,
347,
340,
309,
314,
332,
325,
288,
329,
294,
289,
282,
306,
291,
298,
298,
299,
269,
260,
280,
249,
275,
257,
219,
256,
266,
213,
230,
224,
224,
227,
219,
234,
253,
209,
203,
213,
207,
208,
211,
185,
196,
190,
194,
207,
177,
178,
202,
183,
182,
170,
183,
159,
190,
198,
196,
159,
164,
176,
171,
157,
142,
134,
126,
147,
108,
115,
114,
105,
125,
119,
117,
114,
109,
96,
98,
106,
95,
116,
86,
96,
97,
89,
97,
88,
77,
69,
84,
68,
80,
67,
75,
69,
47,
75,
64,
68,
70,
62,
59,
54,
56,
60,
48,
44,
42,
52,
45,
45,
41,
35,
24,
24,
32,
24,
32,
31,
17,
24,
26,
27,
10,
18,
18,
17,
18,
10,
7,
15,
9,
13,
7,
6,
1,
2,
4,
2,
1,
0,
1,
0,
1,
1,
1,
1,
1,
1,
1,
0,
1,
1,
0,
0,
1,
1,
1,
1,
1,
2,
0,
0,
1,
0,
2,
1,
0,
1,
0,
0,
1,
0,
0,
0,
1,
1,
1,
1,
0,
0,
0,
1,
0,
0,
0,
0,
0,
0,
0,
0,
1,
0,
0,
2,
1,
0,
0,
1,
1,
0,
0,
0,
0,
0,
1,
0,
0,
0,
1,
2,
0,
1,
0,
1,
0,
1,
1,
0,
1,
0,
0,
2,
0,
2,
0,
1,
0,
1,
0,
0,
0,
0,
0,
1,
1,
0,
0,
0,
0,
2,
0,
0,
0,
0,
0,
0,
0,
0,
0,
0,
0,
0,
1,
0,
1,
0,
0,
0,
0,
0,
0,
1,
1,
0,
0,
0,
0,
0,
1,
1,
0,
0,
0,
0,
0,
0,
0,
0,
0,
0,
0,
0,
0,
1,
0,
0,
0,
0,
0,
0,
0,
0,
0,
0,
0,
0,
1,
0,
0,
0,
0,
0,
0,
0,
1,
0,
0,
0,
0,
0,
1,
0,
0,
0,
0,
0,
0,
1,
0,
0,
0,
0,
0,
0,
0,
0,
0,
0,
0,
0,
0,
0,
0,
0,
0,
0,
0,
0,
0,
0,
0,
0,
0,
0,
0,
0,
0,
0,
0,
0,
0,
0,
0,
0,
0,
0,
0,
0,
0,
0,
0,
0,
0,
0,
0,
0,
0,
0,
0,
0,
0,
0,
0,
0,
0,
0,
0,
0,
0,
0,
0,
0,
0,
0,
0,
0,
0,
0,
0,
0,
0,
0,
0,
0,
0,
0,
0,
0,
0,
0,
0,
0,
0,
0,
0,
0,
0,
0,
0,
0,
0,
0,
0,
0,
0,
0,
0,
0,
0,
0,
0,
0,
0,
0,
0,
0,
0,
0,
0,
0,
0,
0,
0,
0,
0,
0,
0,
0,
0,
0,
0,
0,
0,
0,
0,
0,
0,
0,
0,
0,
0,
0,
0,
0,
0,
0,
0,
0,
0,
0,
0,
0,
0,
0,
0,
0,
0,
0,
0,
0,
0,
0,
0,
0,
0,
0,
0,
0,
0,
0,
0,
0,
0,
0,
0,
0,
0,
0,
0,
0,
0,
0,
0,
0,
0,
0,
0,
0,
0,
0,
0,
0,
0,
0,
0,
0,
0,
0,
0,
0,
0,
0,
0,
0,
0,
0,
0,
0,
0,
0,
0,
0,
0,
0,
0,
0,
0,
0,
0,
0,
0,
0,
0,
0,
0,
0,
0,
0,
0,
0,
0,
0,
0,
0,
0,
0,
0,
0,
0,
0,
0,
0,
0,
0,
0,
0,
0,
0,
0,
0,
0,
0,
0,
0,
0,
0,
0,
0,
0,
0,
0,
0,
0,
0,
0,
0,
0,
0,
0,
0,
0,
0,
0,
0,
0,
0,
0,
0,
0,
0,
0,
0,
0,
0,
0,
0,
0,
0,
0,
0,
0,
0,
0,
0,
0,
0,
0,
0,
0,
0,
0,
0,
0,
0,
0,
0,
0,
0,
0,
0,
0,
0,
0,
0,
0,
0,
0,
0,
0,
0,
0,
0,
0,
0,
0,
0,
0,
0,
0,
0,
0,
0,
0,
0,
0,
0,
0,
0,
0,
0,
0,
0,
0,
0,
0,
0,
0,
0,
0,
0,
0,
0,
0,
0,
0,
0,
0,
0,
0,
0,
0,
0,
0,
0,
0,
0,
0,
0,
0,
0,
0,
0,
0,
0,
0,
0,
0,
0,
0,
0,
0,
0,
0,
0,
0,
0,
0,
0,
0,
0,
0,
0,
0,
0,
0,
0,
0,
0,
0,
0,
0,
0,
0,
0,
0,
0,
0,
0,
0,
0,
0,
0,
0,
0,
0,
0,
0,
0,
0,
0,
0,
0,
0,
0,
0,
0,
0,
0,
0,
0,
0,
0,
0,
0,
0,
0,
0,
0,
0,
0,
0,
0,
0,
0,
0,
0,
0,
0,
0,
0,
0,
0,
0,
0,
0,
0,
0,
0,
0,
0,
0,
0,
0,
0,
0,
0,
0,
0,
0,
0,
0,
0,
0,
0,
0,
0,
0,
0,
0,
0,
0,
0,
0,
0,
0,
0,
0,
0,
0,
0,
0,
0,
0,
0,
0,
0,
0,
0,
0,
0,
0,
0,
0,
0,
0,
0,
0,
0,
0,
0,
0,
0,
0,
0,
0,
0,
0,
0,
0,
0,
0,
0,
0,
0,
0,
0,
0,
0,
0,
0,
0,
0,
0,
0,
0,
0,
0,
0,
0,
0,
0,
0,
0,
0,
0,
0,
0,
0,
0,
0,
0,
0,
0,
0,
0,
0,
0,
0,
0,
0,
0,
0,
0,
0,
0,
0,
0,
0,
0,
0,
0,
0,
0,
0,
0,
0,
0,
0,
0,
0,
0,
0,
0,
0,
0,
0,
0,
0,
0,
0,
0,
0,
0,
0,
0,
0,
0,
0,
0,
0,
0,
0,
0,
0,
0,
0,
0,
0,
0,
0,
0,
0,
0,
0,
0,
0,
0,
0,
0,
0,
0,
0,
0,
0,
0,
0,
0,
0,
0,
0,
0,
0,
0,
0,
0,
0,
0,
0,
0,
0,
0,
0,
0,
0,
0,
0,
0,
0,
0,
0,
0,
0,
0,
0,
0,
0,
0,
0,
0,
0,
0,
0,
0,
0,
0,
0,
0,
0,
0,
0,
0,
0,
0,
0,
0,
0,
0,
0,
0,
0,
0,
0,
0,
0,
0,
0,
0,
0,
0,
0,
0,
0,
#ENDOFDATA   :