File: N132962/Quantification/15 keV/GMIIIA/GMIIIA K1001[2][4].msa
#FORMAT      : EMSA/MAS Spectral Data File
#VERSION     : 1.0
#TITLE       : GMIIIA K1001[2][all]
#DATE        : 22-SEP-2025
#TIME        : 21:54
#OWNER       : Unknown
#NPOINTS     : 4096
#NCOLUMNS    : 1
#XUNITS      : eV
#YUNITS      : counts
#DATATYPE    : Y
#XPERCHAN    : 9.99778
#OFFSET      : 1.69135
#BEAMKV      : 15
#SIGNALTYPE  : EDS
#ELEVANGLE   : 35
#AZIMANGLE   : 0
#LIVETIME    : 239.944
#REALTIME    : 256.225
#PROBECUR    : 1.21615
#TAUWIND     : 0
#TDEADLYR    : 0
#TACTLYR     : 0.045
#TALWIND     : 0.025
#CHOFFSET    : 0.0
#XLABEL      : Energy (eV)
#YLABEL      : Counts
#XPOSITION   : 13.5069
#YPOSITION   : 15.02466
#ZPOSITION   : 37.36299
#EDSDET      : SD
##SPECIMEN   : GMIIIA K1001[2][all]
##D2STDCMP   : K1001,(O:39.47),(Na:1.67),(Mg:1.36),(Al:8.92),(Si:21.02),(K:1.87),(Ca:6.75),(Rb:2.06),(Sr:10.05),(Pr:1.92),(Nd:1.93),(Er:1.97),(Pb:1.04)
##DET_HASH   : 12273538-fd48-a23f-0a19-f1e6fa85caef
##CALIB_HASH : 6abaa72c-aa41-8738-0be9-f592914732f3
##WORKING    : 15.0 mm
##DET_NAME   : EDAX All
##DET_MODE   : MediumLE
#SPECTRUM    :
28,
20,
10,
26,
147,
406,
1130,
2995,
7386,
9619,
6795,
4752,
4642,
4907,
7549,
24709,
89176,
167653,
122153,
32825,
5721,
3416,
4066,
4537,
4547,
4264,
4367,
4471,
4784,
5295,
5846,
7053,
7997,
10682,
15977,
17077,
11140,
7069,
6203,
6617,
9321,
14821,
16555,
12118,
7974,
7625,
10187,
18208,
42396,
76213,
76238,
41279,
17149,
9821,
9311,
18694,
56970,
134378,
182385,
144638,
84552,
49171,
29023,
16453,
9414,
6017,
4571,
3703,
3369,
3230,
3196,
3074,
3179,
3265,
3605,
3654,
3822,
4291,
4573,
4369,
3890,
3946,
3721,
3410,
3053,
2908,
2921,
3015,
2968,
2883,
2997,
2690,
2810,
2741,
2796,
2651,
2766,
2808,
2716,
2738,
2703,
2691,
2653,
2663,
2687,
2708,
2829,
3250,
4318,
6553,
8757,
8696,
6504,
4109,
2924,
2662,
2633,
2913,
3201,
4057,
6344,
11955,
19459,
23829,
20076,
12081,
5860,
3110,
2376,
2170,
2295,
2670,
3384,
4446,
4589,
4015,
2990,
2365,
2029,
1824,
1870,
1834,
1809,
1762,
1833,
1803,
1786,
1760,
1791,
1802,
1742,
1831,
1774,
1735,
1774,
1725,
1725,
1606,
1617,
1505,
1572,
1571,
1548,
1608,
1700,
1961,
2395,
2813,
2982,
2569,
2237,
1866,
1938,
2211,
2346,
2239,
1968,
1612,
1476,
1398,
1563,
1641,
1910,
2006,
1875,
1750,
1622,
1549,
1574,
1595,
1618,
1643,
1623,
1568,
1609,
1411,
1525,
1325,
1218,
1157,
1174,
1242,
1275,
1279,
1258,
1202,
1150,
1130,
1093,
1099,
1143,
1175,
1155,
1109,
1079,
1040,
963,
1025,
1079,
1060,
1097,
1048,
961,
988,
925,
934,
965,
1014,
1133,
1201,
1384,
1501,
1456,
1310,
1101,
949,
880,
844,
833,
832,
858,
826,
738,
759,
808,
842,
725,
795,
786,
776,
715,
728,
753,
735,
759,
718,
795,
802,
837,
909,
903,
878,
859,
780,
745,
721,
731,
665,
673,
717,
760,
707,
669,
716,
682,
666,
606,
636,
622,
640,
604,
575,
571,
546,
552,
602,
532,
553,
517,
525,
540,
529,
464,
520,
539,
508,
493,
482,
482,
503,
462,
493,
496,
483,
509,
448,
427,
397,
495,
454,
457,
450,
472,
457,
425,
417,
434,
434,
451,
407,
389,
421,
388,
411,
368,
361,
381,
351,
394,
388,
412,
367,
364,
405,
340,
345,
334,
304,
318,
332,
354,
352,
334,
320,
315,
311,
322,
347,
286,
320,
299,
295,
282,
284,
308,
295,
283,
272,
281,
265,
279,
253,
258,
252,
238,
247,
247,
252,
244,
245,
244,
249,
220,
229,
196,
214,
243,
218,
186,
184,
197,
228,
216,
206,
181,
185,
180,
211,
166,
186,
169,
179,
183,
181,
168,
163,
168,
145,
148,
146,
178,
170,
153,
158,
139,
147,
137,
131,
143,
128,
129,
119,
154,
134,
136,
144,
109,
111,
106,
118,
126,
88,
103,
108,
109,
103,
98,
101,
89,
113,
93,
78,
104,
79,
73,
97,
69,
82,
89,
63,
84,
72,
76,
69,
71,
83,
66,
76,
62,
56,
51,
54,
59,
62,
57,
59,
59,
38,
46,
44,
56,
51,
42,
48,
44,
44,
33,
39,
32,
31,
38,
31,
39,
31,
28,
28,
27,
25,
21,
13,
15,
27,
12,
22,
24,
18,
12,
16,
12,
11,
10,
8,
11,
5,
8,
8,
9,
5,
2,
4,
0,
0,
2,
2,
2,
0,
1,
1,
1,
1,
0,
2,
2,
0,
0,
1,
0,
1,
1,
0,
0,
0,
0,
0,
0,
0,
0,
1,
0,
1,
0,
0,
1,
1,
0,
1,
0,
0,
1,
0,
0,
0,
0,
0,
0,
1,
0,
0,
1,
0,
1,
0,
1,
0,
1,
1,
1,
0,
1,
0,
0,
0,
0,
0,
1,
1,
1,
0,
0,
0,
1,
0,
0,
0,
0,
0,
0,
0,
0,
0,
0,
0,
0,
0,
0,
0,
0,
0,
0,
0,
0,
0,
1,
0,
0,
0,
0,
0,
0,
0,
1,
0,
0,
0,
0,
0,
0,
0,
0,
0,
0,
0,
0,
1,
0,
1,
1,
0,
0,
0,
0,
0,
0,
0,
0,
1,
1,
0,
0,
0,
0,
0,
0,
0,
0,
0,
0,
1,
0,
0,
0,
0,
0,
0,
1,
0,
0,
1,
0,
0,
0,
0,
0,
0,
0,
0,
1,
0,
0,
0,
1,
0,
0,
0,
0,
0,
0,
0,
0,
0,
0,
0,
0,
0,
0,
0,
0,
0,
0,
0,
0,
0,
0,
0,
0,
0,
0,
0,
0,
0,
0,
0,
0,
0,
0,
0,
0,
0,
0,
0,
0,
0,
0,
0,
0,
0,
0,
0,
0,
0,
0,
0,
1,
0,
0,
0,
0,
0,
0,
0,
0,
0,
0,
0,
0,
0,
0,
0,
0,
0,
0,
0,
0,
0,
0,
0,
0,
0,
0,
0,
0,
0,
0,
0,
0,
0,
0,
0,
0,
0,
0,
0,
0,
0,
0,
0,
0,
0,
0,
0,
0,
0,
0,
0,
0,
0,
0,
0,
0,
0,
0,
0,
0,
0,
0,
0,
0,
0,
0,
0,
0,
0,
0,
0,
0,
0,
0,
0,
0,
0,
0,
0,
0,
0,
0,
0,
0,
0,
0,
0,
0,
0,
0,
0,
0,
0,
0,
0,
0,
0,
0,
0,
0,
0,
0,
0,
0,
0,
0,
0,
0,
0,
0,
0,
0,
0,
0,
0,
0,
0,
0,
0,
0,
0,
0,
0,
0,
0,
0,
0,
0,
0,
0,
0,
0,
0,
0,
0,
0,
0,
0,
0,
0,
0,
0,
0,
0,
0,
0,
0,
0,
0,
0,
0,
0,
0,
0,
0,
0,
0,
0,
0,
0,
0,
0,
0,
0,
0,
0,
0,
0,
0,
0,
0,
0,
0,
0,
0,
0,
0,
0,
0,
0,
0,
0,
0,
0,
0,
0,
0,
0,
0,
0,
0,
0,
0,
0,
0,
0,
0,
0,
0,
0,
0,
0,
0,
0,
0,
0,
0,
0,
0,
0,
0,
0,
0,
0,
0,
0,
0,
0,
0,
0,
0,
0,
0,
0,
0,
0,
0,
0,
0,
0,
0,
0,
0,
0,
0,
0,
0,
0,
0,
0,
0,
0,
0,
0,
0,
0,
0,
0,
0,
0,
0,
0,
0,
0,
0,
0,
0,
0,
0,
0,
0,
0,
0,
0,
0,
0,
0,
0,
0,
0,
0,
0,
0,
0,
0,
0,
0,
0,
0,
0,
0,
0,
0,
0,
0,
0,
0,
0,
0,
0,
0,
0,
0,
0,
0,
0,
0,
0,
0,
0,
0,
0,
0,
0,
0,
0,
0,
0,
0,
0,
0,
0,
0,
0,
0,
0,
0,
0,
0,
0,
0,
0,
0,
0,
0,
0,
0,
0,
0,
0,
0,
0,
0,
0,
0,
0,
0,
0,
0,
0,
0,
0,
0,
0,
0,
0,
0,
0,
0,
0,
0,
0,
0,
0,
0,
0,
0,
0,
0,
0,
0,
0,
0,
0,
0,
0,
0,
0,
0,
0,
0,
0,
0,
0,
0,
0,
0,
0,
0,
0,
0,
0,
0,
0,
0,
0,
0,
0,
0,
0,
0,
0,
0,
0,
0,
0,
0,
0,
0,
0,
0,
0,
0,
0,
0,
0,
0,
0,
0,
0,
0,
0,
0,
0,
0,
0,
0,
0,
0,
0,
0,
0,
0,
0,
0,
0,
0,
0,
0,
0,
0,
0,
0,
0,
0,
0,
0,
0,
0,
0,
0,
0,
0,
0,
0,
0,
0,
0,
0,
0,
0,
0,
0,
0,
0,
0,
0,
0,
0,
0,
0,
0,
0,
0,
0,
0,
0,
0,
0,
0,
0,
0,
0,
0,
0,
0,
0,
0,
0,
0,
0,
0,
0,
0,
0,
0,
0,
0,
0,
0,
0,
0,
0,
0,
0,
0,
0,
0,
0,
0,
0,
0,
0,
0,
0,
0,
0,
0,
0,
0,
0,
0,
0,
0,
0,
0,
0,
0,
0,
0,
0,
0,
0,
0,
0,
0,
0,
0,
0,
0,
0,
0,
0,
0,
0,
0,
0,
0,
0,
0,
0,
0,
0,
0,
0,
0,
0,
0,
0,
0,
0,
0,
0,
0,
0,
0,
0,
0,
0,
0,
0,
0,
0,
0,
0,
0,
0,
0,
0,
0,
0,
0,
0,
0,
0,
0,
0,
0,
0,
0,
0,
0,
0,
0,
0,
0,
0,
0,
0,
0,
0,
0,
0,
0,
0,
0,
0,
0,
0,
0,
0,
0,
0,
0,
0,
0,
0,
0,
0,
0,
0,
0,
0,
0,
0,
0,
0,
0,
0,
0,
0,
0,
0,
0,
0,
0,
0,
0,
0,
0,
0,
0,
0,
0,
0,
0,
0,
0,
0,
0,
0,
0,
0,
0,
0,
0,
0,
0,
0,
0,
0,
0,
0,
#ENDOFDATA   :