File: N132962/Quantification/15 keV/GMIIIA/GMIIIA K1229[2][4].msa
#FORMAT      : EMSA/MAS Spectral Data File
#VERSION     : 1.0
#TITLE       : GMIIIA K1229[2][all]
#DATE        : 22-SEP-2025
#TIME        : 22:45
#OWNER       : Unknown
#NPOINTS     : 4096
#NCOLUMNS    : 1
#XUNITS      : eV
#YUNITS      : counts
#DATATYPE    : Y
#XPERCHAN    : 9.99778
#OFFSET      : 1.69135
#BEAMKV      : 15
#SIGNALTYPE  : EDS
#ELEVANGLE   : 35
#AZIMANGLE   : 0
#LIVETIME    : 239.924
#REALTIME    : 255.985
#PROBECUR    : 1.21591
#TAUWIND     : 0
#TDEADLYR    : 0
#TACTLYR     : 0.045
#TALWIND     : 0.025
#CHOFFSET    : 0.0
#XLABEL      : Energy (eV)
#YLABEL      : Counts
#XPOSITION   : 3.98336
#YPOSITION   : 17.43686
#ZPOSITION   : 37.36299
#EDSDET      : SD
##SPECIMEN   : GMIIIA K1229[2][all]
##D2STDCMP   : K1229,(O:41.02),(Mg:1.77),(Al:9.34),(Si:22.0),(Ca:10.51),(Sr:7.46),(Ba:7.9)
##DET_HASH   : 12273538-fd48-a23f-0a19-f1e6fa85caef
##CALIB_HASH : 6abaa72c-aa41-8738-0be9-f592914732f3
##WORKING    : 15.0 mm
##DET_NAME   : EDAX All
##DET_MODE   : MediumLE
#SPECTRUM    :
25,
18,
13,
17,
120,
440,
1047,
2699,
6456,
9394,
7507,
5602,
4761,
5169,
8079,
25729,
94765,
179617,
130500,
35290,
6698,
3732,
3807,
3911,
3923,
4720,
5013,
4841,
4526,
4384,
4579,
4683,
5117,
5523,
5974,
5937,
5534,
5306,
5458,
6175,
9560,
16262,
18611,
12939,
7645,
6310,
7139,
13550,
39255,
75935,
76609,
41816,
16548,
8881,
7974,
15426,
51943,
130868,
182308,
140211,
75866,
41249,
24141,
13709,
8075,
5548,
4270,
3632,
3376,
3227,
3169,
3130,
3129,
3315,
3360,
3590,
3579,
3280,
3165,
3051,
2964,
2928,
2947,
2837,
2861,
2800,
2959,
2826,
2917,
2822,
2853,
2904,
2778,
2768,
2723,
2728,
2583,
2736,
2652,
2672,
2737,
2632,
2601,
2642,
2602,
2509,
2590,
2545,
2568,
2588,
2481,
2494,
2338,
2362,
2481,
2515,
2634,
2676,
2848,
3825,
7293,
16107,
29051,
36174,
30599,
17692,
7976,
3518,
2419,
2328,
2534,
3318,
4615,
5963,
6053,
5208,
3678,
2473,
2056,
1847,
1881,
1872,
1777,
1872,
1884,
2380,
3367,
5291,
7500,
8206,
6853,
4671,
2871,
2013,
1663,
1671,
1677,
1788,
2258,
2944,
3970,
4559,
4282,
3516,
2820,
2179,
1931,
1714,
1634,
1724,
2017,
2299,
2434,
2236,
1929,
1590,
1462,
1371,
1324,
1322,
1370,
1373,
1547,
1659,
1730,
1642,
1548,
1378,
1235,
1210,
1224,
1228,
1268,
1390,
1375,
1294,
1207,
1167,
1134,
1094,
1040,
1045,
1110,
996,
1030,
998,
1018,
1071,
1045,
1018,
960,
1005,
1001,
982,
1039,
1000,
929,
959,
971,
998,
896,
906,
901,
888,
836,
854,
900,
894,
858,
886,
870,
818,
896,
811,
783,
806,
845,
861,
769,
764,
784,
764,
782,
703,
773,
742,
689,
762,
736,
724,
726,
701,
720,
724,
681,
669,
671,
628,
646,
722,
679,
649,
612,
586,
598,
645,
682,
626,
566,
624,
597,
584,
569,
604,
602,
596,
523,
576,
556,
541,
516,
571,
563,
512,
550,
574,
505,
475,
537,
485,
530,
496,
521,
521,
491,
479,
464,
482,
497,
459,
486,
501,
419,
435,
475,
457,
425,
452,
400,
421,
428,
439,
446,
405,
418,
419,
412,
449,
414,
375,
377,
386,
358,
368,
374,
371,
362,
360,
349,
360,
335,
340,
343,
331,
330,
318,
325,
320,
373,
320,
307,
330,
272,
291,
312,
287,
325,
284,
249,
285,
297,
278,
269,
262,
276,
280,
258,
281,
265,
247,
226,
264,
235,
258,
250,
230,
235,
218,
226,
207,
246,
245,
236,
203,
226,
214,
196,
214,
182,
185,
209,
206,
197,
182,
185,
192,
196,
178,
189,
171,
181,
165,
136,
149,
168,
160,
145,
133,
145,
143,
156,
142,
138,
131,
137,
131,
113,
137,
139,
135,
111,
121,
111,
127,
118,
112,
126,
114,
104,
118,
105,
100,
102,
122,
100,
109,
103,
83,
79,
94,
93,
76,
109,
90,
72,
88,
92,
58,
70,
65,
79,
61,
70,
63,
55,
53,
72,
70,
79,
39,
57,
59,
50,
55,
52,
43,
55,
43,
47,
45,
48,
43,
42,
29,
40,
35,
28,
30,
30,
30,
42,
25,
39,
35,
23,
24,
18,
26,
26,
20,
23,
25,
18,
9,
16,
18,
10,
8,
5,
12,
10,
7,
8,
7,
5,
4,
8,
4,
4,
2,
4,
2,
1,
1,
0,
0,
1,
0,
0,
0,
0,
1,
1,
1,
0,
0,
0,
0,
0,
0,
3,
1,
0,
0,
0,
0,
0,
0,
0,
1,
0,
0,
1,
1,
0,
0,
2,
0,
0,
0,
0,
1,
0,
0,
0,
1,
2,
0,
0,
0,
0,
0,
0,
0,
2,
1,
0,
0,
0,
0,
0,
0,
0,
0,
1,
0,
0,
0,
0,
1,
0,
0,
1,
0,
1,
0,
0,
0,
0,
0,
0,
1,
0,
2,
0,
0,
0,
1,
0,
0,
0,
1,
0,
1,
0,
0,
0,
0,
0,
0,
0,
0,
0,
0,
1,
0,
0,
0,
0,
0,
0,
0,
0,
0,
0,
0,
1,
0,
0,
0,
0,
0,
0,
0,
0,
0,
0,
1,
0,
0,
0,
0,
0,
0,
0,
0,
0,
0,
0,
0,
0,
0,
0,
0,
0,
0,
0,
0,
0,
0,
0,
0,
0,
0,
0,
0,
0,
0,
0,
0,
0,
0,
0,
0,
0,
0,
0,
0,
0,
0,
0,
0,
0,
0,
0,
0,
0,
0,
0,
0,
0,
0,
0,
0,
0,
0,
0,
0,
0,
0,
0,
0,
0,
0,
0,
0,
0,
0,
0,
0,
0,
0,
0,
0,
0,
0,
0,
0,
0,
0,
0,
0,
0,
0,
0,
0,
0,
0,
0,
0,
0,
0,
0,
0,
0,
0,
0,
0,
0,
0,
0,
0,
0,
0,
0,
0,
0,
0,
0,
0,
0,
0,
0,
0,
0,
0,
0,
0,
0,
0,
0,
0,
0,
0,
0,
0,
0,
0,
0,
0,
0,
0,
0,
0,
0,
0,
0,
0,
0,
0,
0,
0,
0,
0,
0,
0,
0,
0,
0,
0,
0,
0,
0,
0,
0,
0,
0,
0,
0,
0,
0,
0,
0,
0,
0,
0,
0,
0,
0,
0,
0,
0,
0,
0,
0,
0,
0,
0,
0,
0,
0,
0,
0,
0,
0,
0,
0,
0,
0,
0,
0,
0,
0,
0,
0,
0,
0,
0,
0,
0,
0,
0,
0,
0,
0,
0,
0,
0,
0,
0,
0,
0,
0,
0,
0,
0,
0,
0,
0,
0,
0,
0,
0,
0,
0,
0,
0,
0,
0,
0,
0,
0,
0,
0,
0,
0,
0,
0,
0,
0,
0,
0,
0,
0,
0,
0,
0,
0,
0,
0,
0,
0,
0,
0,
0,
0,
0,
0,
0,
0,
0,
0,
0,
0,
0,
0,
0,
0,
0,
0,
0,
0,
0,
0,
0,
0,
0,
0,
0,
0,
0,
0,
0,
0,
0,
0,
0,
0,
0,
0,
0,
0,
0,
0,
0,
0,
0,
0,
0,
0,
0,
0,
0,
0,
0,
0,
0,
0,
0,
0,
0,
0,
0,
0,
0,
0,
0,
0,
0,
0,
0,
0,
0,
0,
0,
0,
0,
0,
0,
0,
0,
0,
0,
0,
0,
0,
0,
0,
0,
0,
0,
0,
0,
0,
0,
0,
0,
0,
0,
0,
0,
0,
0,
0,
0,
0,
0,
0,
0,
0,
0,
0,
0,
0,
0,
0,
0,
0,
0,
0,
0,
0,
0,
0,
0,
0,
0,
0,
0,
0,
0,
0,
0,
0,
0,
0,
0,
0,
0,
0,
0,
0,
0,
0,
0,
0,
0,
0,
0,
0,
0,
0,
0,
0,
0,
0,
0,
0,
0,
0,
0,
0,
0,
0,
0,
0,
0,
0,
0,
0,
0,
0,
0,
0,
0,
0,
0,
0,
0,
0,
0,
0,
0,
0,
0,
0,
0,
0,
0,
0,
0,
0,
0,
0,
0,
0,
0,
0,
0,
0,
0,
0,
0,
0,
0,
0,
0,
0,
0,
0,
0,
0,
0,
0,
0,
0,
0,
0,
0,
0,
0,
0,
0,
0,
0,
0,
0,
0,
0,
0,
0,
0,
0,
0,
0,
0,
0,
0,
0,
0,
0,
0,
0,
0,
0,
0,
0,
0,
0,
0,
0,
0,
0,
0,
0,
0,
0,
0,
0,
0,
0,
0,
0,
0,
0,
0,
0,
0,
0,
0,
0,
0,
0,
0,
0,
0,
0,
0,
0,
0,
0,
0,
0,
0,
0,
0,
0,
0,
0,
0,
0,
0,
0,
0,
0,
0,
0,
0,
0,
0,
0,
0,
0,
0,
0,
0,
0,
0,
0,
0,
0,
0,
0,
0,
0,
0,
0,
0,
0,
0,
0,
0,
0,
0,
0,
0,
0,
0,
0,
0,
0,
0,
0,
0,
0,
0,
0,
0,
0,
0,
0,
0,
0,
0,
0,
0,
0,
0,
0,
0,
0,
0,
0,
0,
0,
0,
0,
0,
0,
0,
0,
0,
0,
0,
0,
0,
0,
0,
0,
0,
0,
0,
0,
0,
0,
0,
0,
0,
0,
0,
0,
0,
0,
0,
0,
0,
0,
0,
0,
0,
0,
0,
0,
0,
0,
0,
0,
0,
0,
0,
0,
0,
0,
0,
0,
0,
0,
0,
0,
0,
0,
0,
0,
0,
0,
0,
0,
0,
0,
0,
0,
0,
0,
0,
0,
0,
0,
0,
0,
0,
0,
0,
0,
0,
0,
0,
0,
0,
0,
0,
0,
0,
0,
0,
0,
0,
0,
0,
0,
0,
0,
0,
0,
0,
0,
0,
0,
0,
0,
0,
0,
0,
0,
0,
0,
0,
0,
0,
0,
0,
0,
0,
0,
0,
0,
0,
0,
0,
0,
0,
0,
0,
0,
0,
0,
0,
#ENDOFDATA   :