File: N132962/Quantification/15 keV/GMIIIA/GMIIIA K309[0][4].msa
#FORMAT      : EMSA/MAS Spectral Data File
#VERSION     : 1.0
#TITLE       : GMIIIA K309[0][all]
#DATE        : 22-SEP-2025
#TIME        : 15:20
#OWNER       : Unknown
#NPOINTS     : 4096
#NCOLUMNS    : 1
#XUNITS      : eV
#YUNITS      : counts
#DATATYPE    : Y
#XPERCHAN    : 9.99778
#OFFSET      : 1.69135
#BEAMKV      : 15
#SIGNALTYPE  : EDS
#ELEVANGLE   : 35
#AZIMANGLE   : 0
#LIVETIME    : 239.916
#REALTIME    : 255.533
#PROBECUR    : 1.21681
#TAUWIND     : 0
#TDEADLYR    : 0
#TACTLYR     : 0.045
#TALWIND     : 0.025
#CHOFFSET    : 0.0
#XLABEL      : Energy (eV)
#YLABEL      : Counts
#XPOSITION   : 12.5488
#YPOSITION   : 3.83497
#ZPOSITION   : 37.36299
#EDSDET      : SD
##SPECIMEN   : GMIIIA K309[0][all]
##D2STDCMP   : K309,(O:38.72),(Al:7.94),(Si:18.7),(Ca:10.72),(Fe:10.49),(Ba:13.43)
##DET_HASH   : 12273538-fd48-a23f-0a19-f1e6fa85caef
##CALIB_HASH : 6abaa72c-aa41-8738-0be9-f592914732f3
##WORKING    : 15.0 mm
##DET_NAME   : EDAX All
##DET_MODE   : MediumLE
#SPECTRUM    :
19,
34,
11,
31,
103,
448,
1213,
3090,
7349,
10633,
9168,
6864,
5884,
6101,
9049,
28424,
103500,
194259,
142567,
40673,
10376,
7456,
9786,
15441,
15170,
9373,
6335,
5153,
4368,
3929,
4042,
4260,
4825,
5270,
5785,
5717,
5173,
4897,
4780,
4804,
4778,
5070,
5150,
5192,
5295,
5654,
6513,
11755,
31446,
59229,
60842,
33217,
13509,
7424,
6739,
12757,
42986,
105473,
143414,
101430,
42444,
16040,
8407,
5341,
4186,
4117,
3911,
3837,
3623,
3605,
3440,
3486,
3495,
3588,
3734,
3958,
3909,
3736,
3610,
3422,
3521,
3417,
3420,
3279,
3188,
3301,
3180,
3262,
3105,
3202,
3107,
3216,
3117,
3151,
3037,
3022,
3033,
2997,
3010,
2986,
2926,
2926,
2861,
2933,
2822,
2867,
2783,
2840,
2805,
2829,
2777,
2698,
2641,
2710,
2577,
2677,
2776,
2887,
3146,
4072,
7939,
17054,
30548,
38217,
32670,
19073,
8544,
3906,
2559,
2518,
2810,
3741,
5014,
6397,
6665,
5601,
3875,
2753,
2172,
2109,
2061,
2107,
2083,
2087,
2331,
2887,
4609,
7909,
11817,
13318,
10957,
7225,
3933,
2508,
2006,
1892,
1902,
2137,
2865,
4196,
6058,
6958,
6679,
5177,
3786,
3003,
2393,
2035,
1961,
2082,
2569,
3144,
3424,
3252,
2547,
1969,
1762,
1538,
1468,
1479,
1562,
1526,
1757,
1973,
2115,
2028,
1848,
1595,
1367,
1385,
1369,
1448,
1575,
1521,
1478,
1456,
1364,
1267,
1327,
1271,
1202,
1161,
1238,
1144,
1150,
1139,
1152,
1202,
1413,
2005,
3538,
6117,
9416,
11289,
10461,
7946,
4820,
2474,
1585,
1130,
1015,
1039,
983,
974,
985,
1015,
1008,
957,
978,
972,
1073,
1120,
1362,
1684,
2039,
2196,
2117,
1696,
1411,
1119,
864,
902,
885,
830,
845,
812,
810,
807,
768,
801,
843,
753,
776,
758,
775,
747,
776,
762,
796,
702,
731,
780,
732,
690,
677,
707,
692,
706,
664,
698,
678,
727,
626,
654,
657,
608,
646,
648,
586,
576,
614,
649,
591,
586,
613,
592,
609,
605,
625,
578,
563,
598,
566,
541,
543,
529,
577,
545,
560,
553,
518,
522,
503,
491,
480,
457,
504,
476,
481,
456,
475,
453,
454,
461,
447,
434,
468,
417,
440,
432,
454,
451,
391,
431,
432,
395,
406,
421,
400,
403,
414,
368,
366,
394,
360,
373,
385,
377,
383,
343,
373,
351,
330,
348,
363,
367,
337,
316,
313,
334,
340,
343,
272,
320,
292,
299,
318,
295,
276,
292,
307,
296,
269,
267,
303,
276,
276,
260,
268,
235,
260,
243,
273,
253,
248,
213,
233,
250,
224,
225,
204,
209,
232,
214,
212,
223,
231,
231,
213,
205,
209,
202,
174,
204,
206,
173,
164,
152,
172,
146,
156,
145,
166,
171,
167,
130,
159,
145,
147,
142,
137,
135,
147,
147,
149,
138,
128,
104,
132,
132,
111,
112,
118,
105,
96,
107,
95,
112,
119,
104,
121,
75,
93,
100,
85,
89,
91,
82,
78,
78,
62,
79,
59,
75,
66,
86,
85,
47,
71,
83,
85,
51,
63,
65,
60,
60,
46,
43,
49,
62,
44,
48,
54,
44,
33,
46,
45,
43,
43,
34,
38,
33,
36,
38,
23,
34,
28,
24,
14,
25,
31,
24,
17,
18,
22,
11,
17,
15,
10,
17,
17,
13,
8,
8,
7,
11,
3,
3,
2,
3,
2,
1,
0,
1,
0,
2,
2,
2,
0,
0,
4,
0,
0,
1,
2,
0,
0,
1,
2,
0,
0,
1,
0,
2,
0,
0,
0,
0,
1,
0,
1,
0,
0,
0,
0,
2,
0,
0,
0,
0,
0,
0,
0,
0,
0,
1,
0,
0,
1,
0,
0,
1,
0,
0,
0,
0,
1,
0,
1,
0,
0,
0,
0,
0,
0,
1,
2,
2,
0,
1,
1,
0,
0,
0,
1,
1,
0,
0,
0,
0,
0,
0,
1,
0,
0,
0,
0,
0,
0,
0,
0,
0,
0,
0,
0,
1,
1,
0,
0,
0,
1,
0,
0,
0,
0,
1,
0,
0,
0,
0,
1,
0,
0,
0,
1,
0,
0,
0,
1,
0,
0,
0,
0,
0,
0,
0,
1,
0,
0,
0,
0,
0,
1,
0,
0,
1,
0,
0,
0,
0,
0,
0,
1,
0,
0,
0,
0,
0,
1,
0,
1,
0,
0,
0,
0,
0,
0,
0,
0,
0,
0,
0,
0,
0,
0,
0,
0,
1,
0,
0,
0,
0,
0,
0,
0,
0,
0,
0,
0,
0,
0,
0,
1,
0,
0,
0,
0,
0,
1,
0,
0,
0,
0,
0,
0,
0,
0,
0,
0,
0,
0,
0,
0,
0,
0,
0,
0,
0,
0,
0,
0,
0,
0,
0,
0,
0,
0,
0,
0,
0,
0,
0,
0,
0,
0,
0,
0,
0,
0,
0,
0,
0,
0,
0,
0,
0,
0,
0,
0,
0,
0,
0,
0,
0,
0,
0,
0,
0,
0,
0,
0,
0,
0,
0,
0,
0,
0,
0,
0,
0,
0,
0,
0,
0,
0,
0,
0,
0,
0,
0,
0,
0,
0,
0,
0,
0,
0,
0,
0,
0,
0,
0,
0,
0,
0,
0,
0,
0,
0,
0,
0,
0,
0,
0,
0,
0,
0,
0,
0,
0,
0,
0,
0,
0,
0,
0,
0,
0,
0,
0,
0,
0,
0,
0,
0,
0,
0,
0,
0,
0,
0,
0,
0,
0,
0,
0,
0,
0,
0,
0,
0,
0,
0,
0,
0,
0,
0,
0,
0,
0,
0,
0,
0,
0,
0,
0,
0,
0,
0,
0,
0,
0,
0,
0,
0,
0,
0,
0,
0,
0,
0,
0,
0,
0,
0,
0,
0,
0,
0,
0,
0,
0,
0,
0,
0,
0,
0,
0,
0,
0,
0,
0,
0,
0,
0,
0,
0,
0,
0,
0,
0,
0,
0,
0,
0,
0,
0,
0,
0,
0,
0,
0,
0,
0,
0,
0,
0,
0,
0,
0,
0,
0,
0,
0,
0,
0,
0,
0,
0,
0,
0,
0,
0,
0,
0,
0,
0,
0,
0,
0,
0,
0,
0,
0,
0,
0,
0,
0,
0,
0,
0,
0,
0,
0,
0,
0,
0,
0,
0,
0,
0,
0,
0,
0,
0,
0,
0,
0,
0,
0,
0,
0,
0,
0,
0,
0,
0,
0,
0,
0,
0,
0,
0,
0,
0,
0,
0,
0,
0,
0,
0,
0,
0,
0,
0,
0,
0,
0,
0,
0,
0,
0,
0,
0,
0,
0,
0,
0,
0,
0,
0,
0,
0,
0,
0,
0,
0,
0,
0,
0,
0,
0,
0,
0,
0,
0,
0,
0,
0,
0,
0,
0,
0,
0,
0,
0,
0,
0,
0,
0,
0,
0,
0,
0,
0,
0,
0,
0,
0,
0,
0,
0,
0,
0,
0,
0,
0,
0,
0,
0,
0,
0,
0,
0,
0,
0,
0,
0,
0,
0,
0,
0,
0,
0,
0,
0,
0,
0,
0,
0,
0,
0,
0,
0,
0,
0,
0,
0,
0,
0,
0,
0,
0,
0,
0,
0,
0,
0,
0,
0,
0,
0,
0,
0,
0,
0,
0,
0,
0,
0,
0,
0,
0,
0,
0,
0,
0,
0,
0,
0,
0,
0,
0,
0,
0,
0,
0,
0,
0,
0,
0,
0,
0,
0,
0,
0,
0,
0,
0,
0,
0,
0,
0,
0,
0,
0,
0,
0,
0,
0,
0,
0,
0,
0,
0,
0,
0,
0,
0,
0,
0,
0,
0,
0,
0,
0,
0,
0,
0,
0,
0,
0,
0,
0,
0,
0,
0,
0,
0,
0,
0,
0,
0,
0,
0,
0,
0,
0,
0,
0,
0,
0,
0,
0,
0,
0,
0,
0,
0,
0,
0,
0,
0,
0,
0,
0,
0,
0,
0,
0,
0,
0,
0,
0,
0,
0,
0,
0,
0,
0,
0,
0,
0,
0,
0,
0,
0,
0,
0,
0,
0,
0,
0,
0,
0,
0,
0,
0,
0,
0,
0,
0,
0,
0,
0,
0,
0,
0,
0,
0,
0,
0,
0,
0,
0,
0,
0,
0,
0,
0,
0,
0,
0,
0,
0,
0,
0,
0,
0,
0,
0,
0,
0,
0,
0,
0,
0,
0,
0,
0,
0,
0,
0,
0,
0,
0,
0,
0,
0,
0,
0,
0,
0,
0,
0,
0,
0,
0,
0,
0,
0,
0,
0,
0,
0,
0,
0,
0,
0,
0,
0,
0,
0,
0,
0,
0,
0,
0,
0,
0,
0,
0,
0,
0,
0,
0,
0,
0,
0,
0,
0,
0,
0,
0,
0,
0,
0,
0,
0,
0,
0,
0,
0,
0,
0,
0,
0,
0,
0,
0,
0,
0,
0,
0,
0,
0,
0,
0,
0,
0,
0,
0,
0,
0,
0,
0,
0,
0,
0,
0,
0,
0,
0,
0,
0,
0,
#ENDOFDATA   :