File: N132962/Quantification/15 keV/GMIIIA/GMIIIA K253[1][4].msa
#FORMAT      : EMSA/MAS Spectral Data File
#VERSION     : 1.0
#TITLE       : GMIIIA K253[1][all]
#DATE        : 22-SEP-2025
#TIME        : 14:41
#OWNER       : Unknown
#NPOINTS     : 4096
#NCOLUMNS    : 1
#XUNITS      : eV
#YUNITS      : counts
#DATATYPE    : Y
#XPERCHAN    : 9.99778
#OFFSET      : 1.69135
#BEAMKV      : 15
#SIGNALTYPE  : EDS
#ELEVANGLE   : 35
#AZIMANGLE   : 0
#LIVETIME    : 239.864
#REALTIME    : 256.997
#PROBECUR    : 1.21983
#TAUWIND     : 0
#TDEADLYR    : 0
#TACTLYR     : 0.045
#TALWIND     : 0.025
#CHOFFSET    : 0.0
#XLABEL      : Energy (eV)
#YLABEL      : Counts
#XPOSITION   : 2.53598
#YPOSITION   : 2.23977
#ZPOSITION   : 37.36299
#EDSDET      : SD
##SPECIMEN   : GMIIIA K253[1][all]
##D2STDCMP   : K253,(O:31.64),(Si:18.7),(Mn:6.32),(Co:1.97),(Cu:2.0),(Zn:8.03),(Ba:31.35)
##DET_HASH   : 12273538-fd48-a23f-0a19-f1e6fa85caef
##CALIB_HASH : 6abaa72c-aa41-8738-0be9-f592914732f3
##WORKING    : 15.0 mm
##DET_NAME   : EDAX All
##DET_MODE   : MediumLE
#SPECTRUM    :
27,
28,
13,
37,
151,
569,
1610,
3841,
7765,
9859,
7369,
6514,
7233,
8452,
12525,
35187,
119912,
224049,
164580,
51440,
19009,
15726,
11833,
8193,
8133,
11889,
13926,
10715,
7878,
8101,
10929,
14128,
18350,
28152,
32958,
22187,
10305,
6008,
5022,
4961,
4886,
5032,
5097,
5142,
5223,
5210,
5393,
5489,
5828,
6030,
6111,
6326,
6300,
6297,
7117,
13507,
42520,
105005,
140641,
100144,
42223,
16363,
8996,
6137,
4759,
4395,
4179,
4254,
4272,
4343,
4397,
4566,
4389,
4502,
4494,
4734,
4838,
4570,
4249,
4159,
4226,
4349,
4194,
4186,
4077,
4248,
4168,
4029,
4156,
4275,
4230,
4257,
4119,
4082,
4012,
3857,
3807,
3770,
3787,
3842,
3711,
3736,
3784,
3790,
3736,
3659,
3687,
3619,
3599,
3489,
3413,
3454,
3413,
3488,
3514,
3486,
3465,
3418,
3249,
3118,
3144,
3122,
3136,
3269,
3131,
3141,
3062,
3191,
3124,
3216,
3523,
3871,
4049,
3823,
3403,
3030,
2905,
2816,
2959,
2830,
2767,
2913,
2960,
3254,
3698,
5295,
9938,
18773,
28437,
32230,
26366,
16179,
7998,
4120,
2983,
2704,
2714,
3526,
5274,
9120,
13531,
15925,
14848,
11311,
7980,
5741,
4242,
3528,
3150,
3678,
4964,
6262,
6849,
6222,
4667,
3224,
2561,
2135,
2080,
1978,
2107,
2264,
2760,
3294,
3829,
3598,
3166,
2571,
2087,
1971,
2033,
2278,
2890,
3766,
5760,
8079,
9659,
9389,
7454,
4809,
3095,
2136,
1798,
1660,
1617,
1634,
1633,
1593,
1641,
1588,
1578,
1684,
1716,
1836,
2154,
2397,
2477,
2444,
2162,
1810,
1564,
1412,
1402,
1421,
1352,
1358,
1453,
1470,
1906,
2385,
2776,
2755,
2532,
2048,
1756,
1457,
1386,
1245,
1251,
1239,
1287,
1191,
1129,
1212,
1232,
1192,
1150,
1192,
1220,
1173,
1186,
1205,
1245,
1315,
1286,
1319,
1250,
1180,
1126,
1102,
1059,
1087,
1085,
1108,
1222,
1409,
1721,
1983,
1989,
1897,
1646,
1255,
1137,
969,
955,
939,
929,
938,
909,
947,
924,
929,
951,
1237,
1627,
2322,
2945,
3496,
3609,
3193,
2328,
1634,
1193,
1004,
871,
939,
942,
936,
917,
857,
794,
755,
782,
741,
733,
726,
748,
731,
806,
736,
733,
698,
672,
770,
744,
734,
821,
907,
1089,
1033,
955,
874,
779,
676,
624,
632,
589,
628,
612,
573,
573,
586,
576,
564,
554,
582,
549,
481,
545,
507,
572,
508,
521,
590,
526,
500,
486,
512,
509,
480,
471,
482,
502,
473,
460,
439,
434,
444,
476,
451,
469,
417,
461,
396,
366,
393,
399,
390,
425,
378,
364,
382,
389,
373,
383,
404,
338,
339,
342,
374,
327,
376,
346,
323,
341,
316,
340,
329,
298,
263,
349,
301,
292,
301,
283,
265,
286,
250,
282,
284,
266,
274,
257,
242,
233,
243,
245,
220,
203,
223,
195,
236,
241,
185,
199,
237,
217,
200,
204,
212,
204,
204,
179,
170,
179,
182,
200,
187,
174,
196,
158,
176,
142,
146,
144,
148,
174,
143,
129,
115,
141,
118,
120,
130,
116,
105,
111,
121,
115,
98,
107,
108,
106,
109,
104,
81,
82,
105,
97,
83,
80,
106,
73,
80,
82,
52,
62,
65,
72,
62,
53,
52,
46,
44,
50,
63,
54,
53,
41,
38,
46,
41,
38,
37,
25,
31,
26,
22,
18,
17,
21,
12,
14,
19,
14,
5,
7,
6,
9,
1,
0,
4,
2,
2,
2,
2,
0,
3,
2,
5,
2,
1,
0,
1,
0,
2,
1,
2,
3,
1,
0,
1,
1,
3,
1,
0,
2,
2,
0,
0,
0,
1,
0,
0,
0,
3,
3,
2,
1,
0,
1,
1,
3,
0,
0,
0,
0,
2,
1,
0,
2,
1,
0,
0,
0,
1,
1,
3,
0,
1,
1,
0,
0,
0,
1,
0,
2,
0,
1,
1,
0,
0,
1,
1,
0,
0,
0,
0,
0,
1,
1,
1,
0,
0,
0,
1,
0,
0,
0,
0,
0,
0,
0,
1,
0,
0,
0,
0,
0,
0,
0,
1,
1,
0,
0,
2,
2,
0,
0,
1,
1,
0,
0,
1,
0,
1,
0,
1,
0,
0,
0,
0,
0,
0,
0,
0,
1,
0,
0,
0,
1,
0,
0,
0,
0,
2,
0,
0,
0,
2,
1,
0,
0,
0,
0,
1,
0,
1,
0,
0,
0,
0,
0,
0,
0,
1,
0,
0,
1,
0,
0,
0,
0,
0,
0,
0,
0,
0,
0,
0,
0,
0,
1,
0,
0,
0,
0,
0,
0,
0,
0,
0,
0,
1,
0,
0,
0,
0,
0,
0,
0,
1,
0,
0,
1,
0,
0,
0,
0,
0,
0,
0,
0,
0,
0,
0,
0,
0,
0,
0,
0,
0,
0,
0,
0,
0,
0,
0,
0,
1,
0,
0,
0,
0,
0,
0,
0,
0,
0,
0,
0,
0,
0,
0,
0,
0,
0,
0,
0,
0,
0,
0,
0,
0,
0,
0,
0,
0,
1,
0,
0,
0,
0,
0,
0,
0,
0,
0,
0,
0,
0,
0,
0,
0,
0,
0,
0,
0,
0,
0,
0,
1,
0,
0,
1,
0,
0,
0,
0,
0,
0,
0,
0,
0,
0,
0,
0,
0,
0,
0,
0,
0,
0,
0,
0,
0,
0,
0,
0,
0,
0,
0,
0,
0,
0,
0,
0,
0,
0,
0,
0,
0,
0,
0,
0,
0,
0,
0,
0,
0,
0,
0,
0,
0,
0,
0,
0,
0,
0,
0,
0,
0,
0,
0,
0,
0,
0,
0,
0,
0,
0,
0,
0,
0,
0,
0,
0,
0,
0,
0,
0,
0,
0,
0,
0,
0,
0,
0,
0,
0,
0,
0,
0,
0,
0,
0,
0,
0,
0,
0,
0,
0,
0,
0,
0,
0,
0,
0,
0,
0,
0,
0,
0,
0,
0,
0,
0,
0,
0,
0,
0,
0,
0,
0,
0,
0,
0,
0,
0,
0,
0,
0,
0,
0,
0,
0,
0,
0,
0,
0,
0,
0,
0,
0,
0,
0,
0,
0,
0,
0,
0,
0,
0,
0,
0,
0,
0,
0,
0,
0,
0,
0,
0,
0,
0,
0,
0,
0,
0,
0,
0,
0,
0,
0,
0,
0,
0,
0,
0,
0,
0,
0,
0,
0,
0,
0,
0,
0,
0,
0,
0,
0,
0,
0,
0,
0,
0,
0,
0,
0,
0,
0,
0,
0,
0,
0,
0,
0,
0,
0,
0,
0,
0,
0,
0,
0,
0,
0,
0,
0,
0,
0,
0,
0,
0,
0,
0,
0,
0,
0,
0,
0,
0,
0,
0,
0,
0,
0,
0,
0,
0,
0,
0,
0,
0,
0,
0,
0,
0,
0,
0,
0,
0,
0,
0,
0,
0,
0,
0,
0,
0,
0,
0,
0,
0,
0,
0,
0,
0,
0,
0,
0,
0,
0,
0,
0,
0,
0,
0,
0,
0,
0,
0,
0,
0,
0,
0,
0,
0,
0,
0,
0,
0,
0,
0,
0,
0,
0,
0,
0,
0,
0,
0,
0,
0,
0,
0,
0,
0,
0,
0,
0,
0,
0,
0,
0,
0,
0,
0,
0,
0,
0,
0,
0,
0,
0,
0,
0,
0,
0,
0,
0,
0,
0,
0,
0,
0,
0,
0,
0,
0,
0,
0,
0,
0,
0,
0,
0,
0,
0,
0,
0,
0,
0,
0,
0,
0,
0,
0,
0,
0,
0,
0,
0,
0,
0,
0,
0,
0,
0,
0,
0,
0,
0,
0,
0,
0,
0,
0,
0,
0,
0,
0,
0,
0,
0,
0,
0,
0,
0,
0,
0,
0,
0,
0,
0,
0,
0,
0,
0,
0,
0,
0,
0,
0,
0,
0,
0,
0,
0,
0,
0,
0,
0,
0,
0,
0,
0,
0,
0,
0,
0,
0,
0,
0,
0,
0,
0,
0,
0,
0,
0,
0,
0,
0,
0,
0,
0,
0,
0,
0,
0,
0,
0,
0,
0,
0,
0,
0,
0,
0,
0,
0,
0,
0,
0,
0,
0,
0,
0,
0,
0,
0,
0,
0,
0,
0,
0,
0,
0,
0,
0,
0,
0,
0,
0,
0,
0,
0,
0,
0,
0,
0,
0,
0,
0,
0,
0,
0,
0,
0,
0,
0,
0,
0,
0,
0,
0,
0,
0,
0,
0,
0,
0,
0,
0,
0,
0,
0,
0,
0,
0,
0,
0,
0,
0,
0,
0,
0,
0,
0,
0,
0,
0,
0,
0,
0,
0,
0,
0,
0,
0,
0,
0,
0,
0,
0,
0,
0,
0,
0,
0,
0,
0,
0,
0,
0,
0,
0,
0,
0,
0,
0,
0,
0,
0,
0,
0,
0,
0,
0,
0,
0,
0,
0,
0,
0,
0,
0,
0,
0,
0,
0,
0,
0,
0,
0,
0,
0,
0,
0,
0,
0,
0,
0,
0,
0,
0,
0,
0,
0,
0,
0,
0,
0,
0,
#ENDOFDATA   :