File: N132962/Quantification/15 keV/GMIIIA/GMIIIA K1053[7][4].msa
#FORMAT      : EMSA/MAS Spectral Data File
#VERSION     : 1.0
#TITLE       : GMIIIA K1053[7][all]
#DATE        : 22-SEP-2025
#TIME        : 21:18
#OWNER       : Unknown
#NPOINTS     : 4096
#NCOLUMNS    : 1
#XUNITS      : eV
#YUNITS      : counts
#DATATYPE    : Y
#XPERCHAN    : 9.99778
#OFFSET      : 1.69135
#BEAMKV      : 15
#SIGNALTYPE  : EDS
#ELEVANGLE   : 35
#AZIMANGLE   : 0
#LIVETIME    : 239.907
#REALTIME    : 261.033
#PROBECUR    : 1.21822
#TAUWIND     : 0
#TDEADLYR    : 0
#TACTLYR     : 0.045
#TALWIND     : 0.025
#CHOFFSET    : 0.0
#XLABEL      : Energy (eV)
#YLABEL      : Counts
#XPOSITION   : 4.56159
#YPOSITION   : 15.41048
#ZPOSITION   : 37.36299
#EDSDET      : SD
##SPECIMEN   : GMIIIA K1053[7][all]
##D2STDCMP   : K1053,(O:16.13),(F:0.39),(Si:9.35),(Cl:0.64),(Br:1.09),(I:1.37),(Pb:71.02)
##DET_HASH   : 12273538-fd48-a23f-0a19-f1e6fa85caef
##CALIB_HASH : 6abaa72c-aa41-8738-0be9-f592914732f3
##WORKING    : 15.0 mm
##DET_NAME   : EDAX All
##DET_MODE   : MediumLE
#SPECTRUM    :
18,
30,
12,
52,
301,
1167,
3032,
6756,
13112,
15963,
10833,
7963,
7485,
7421,
8389,
15490,
41405,
72037,
53485,
19603,
10557,
9752,
10505,
10652,
9039,
7711,
7556,
7760,
8248,
8259,
8452,
8469,
8546,
8721,
9058,
9075,
9058,
9229,
9331,
9580,
9615,
9892,
9983,
10102,
10448,
10361,
10433,
11126,
12800,
15374,
15715,
13814,
12074,
11095,
11232,
15407,
34386,
74108,
99429,
74963,
41862,
26796,
18716,
12656,
9612,
8847,
8456,
8382,
8177,
8460,
8761,
9481,
10603,
11559,
13632,
21234,
47196,
100561,
147490,
142027,
112952,
102368,
87303,
51617,
22411,
10532,
9677,
12261,
13893,
12390,
9305,
6711,
5531,
5452,
5487,
5383,
5413,
5687,
5598,
5676,
5955,
6365,
6634,
7033,
6568,
6088,
5615,
5390,
5013,
4934,
4756,
4848,
4748,
4779,
4934,
4857,
4841,
4899,
4796,
4698,
4859,
4648,
4745,
4702,
4692,
4680,
4633,
4852,
4787,
5097,
5511,
5926,
5723,
5235,
4881,
4559,
4664,
4613,
4531,
4658,
5050,
5005,
4930,
4651,
4438,
4320,
4236,
4342,
4464,
4551,
4656,
4562,
4513,
4307,
4179,
4205,
4189,
4184,
4160,
4263,
4253,
4170,
4192,
3974,
3988,
4016,
3972,
3916,
3855,
3754,
3837,
3792,
3578,
3635,
3662,
3649,
3556,
3570,
3639,
3588,
3525,
3642,
3595,
3516,
3615,
3393,
3453,
3322,
3410,
3334,
3409,
3449,
3262,
3225,
3242,
3305,
3281,
3271,
3211,
3208,
3267,
3240,
3202,
3117,
3115,
3086,
3140,
3230,
3116,
3015,
2950,
3054,
3079,
3102,
2866,
3093,
2924,
2891,
2830,
2833,
2912,
2871,
2859,
2740,
2685,
2657,
2742,
2773,
2674,
2667,
2673,
2700,
2638,
2559,
2532,
2560,
2591,
2610,
2492,
2542,
2549,
2555,
2438,
2479,
2438,
2481,
2402,
2437,
2503,
2423,
2337,
2350,
2315,
2280,
2295,
2283,
2188,
2154,
2215,
2156,
2170,
2233,
2154,
2056,
2153,
2147,
2143,
2157,
2073,
2077,
2047,
1975,
2075,
2005,
1963,
2023,
1973,
1948,
1916,
1937,
1921,
1933,
1814,
1891,
1894,
1829,
1827,
1829,
1837,
1827,
1826,
1858,
1733,
1677,
1707,
1782,
1687,
1787,
1636,
1677,
1633,
1720,
1646,
1658,
1560,
1614,
1671,
1576,
1635,
1590,
1518,
1561,
1540,
1441,
1459,
1485,
1493,
1471,
1442,
1447,
1468,
1469,
1379,
1376,
1422,
1395,
1403,
1296,
1297,
1266,
1309,
1292,
1343,
1327,
1263,
1267,
1217,
1228,
1226,
1244,
1256,
1215,
1199,
1217,
1212,
1241,
1385,
1573,
1801,
2170,
2475,
2653,
2541,
2340,
1873,
1538,
1298,
1143,
1081,
1066,
989,
972,
963,
965,
974,
992,
945,
945,
919,
921,
900,
867,
895,
866,
863,
885,
827,
847,
837,
784,
819,
805,
818,
760,
740,
777,
725,
716,
723,
730,
700,
733,
676,
741,
732,
642,
718,
725,
664,
608,
636,
645,
626,
641,
622,
577,
575,
591,
582,
593,
586,
560,
543,
573,
533,
562,
631,
599,
692,
761,
702,
711,
624,
616,
529,
526,
447,
459,
486,
430,
399,
401,
431,
399,
403,
366,
364,
331,
349,
320,
345,
320,
297,
335,
313,
304,
323,
285,
311,
285,
276,
253,
280,
250,
247,
248,
231,
231,
212,
220,
224,
197,
190,
199,
185,
194,
176,
175,
165,
167,
137,
157,
138,
138,
132,
133,
111,
115,
122,
106,
118,
95,
76,
84,
85,
86,
73,
61,
65,
74,
65,
47,
40,
42,
31,
33,
26,
14,
19,
16,
10,
5,
6,
6,
5,
2,
3,
6,
4,
4,
4,
4,
4,
2,
8,
6,
6,
5,
3,
9,
4,
5,
7,
3,
5,
4,
6,
2,
7,
3,
0,
3,
2,
6,
2,
3,
5,
5,
4,
2,
1,
2,
5,
3,
1,
4,
1,
1,
1,
2,
0,
2,
5,
0,
1,
1,
1,
0,
1,
3,
0,
3,
1,
3,
1,
3,
0,
4,
1,
3,
2,
0,
4,
1,
4,
3,
1,
3,
1,
0,
2,
2,
2,
1,
1,
2,
0,
1,
3,
4,
1,
3,
1,
0,
0,
0,
1,
2,
0,
1,
3,
1,
3,
3,
1,
0,
0,
0,
0,
1,
2,
2,
1,
3,
2,
1,
1,
2,
1,
0,
1,
0,
0,
0,
0,
1,
1,
0,
5,
2,
2,
0,
2,
2,
2,
0,
1,
2,
1,
0,
1,
0,
3,
2,
2,
1,
1,
2,
0,
0,
3,
1,
0,
0,
1,
0,
0,
1,
2,
1,
0,
0,
0,
1,
0,
0,
0,
0,
0,
1,
0,
0,
0,
1,
0,
0,
0,
0,
0,
1,
1,
0,
1,
0,
1,
1,
0,
1,
0,
1,
0,
0,
0,
0,
2,
0,
0,
1,
0,
0,
1,
0,
0,
0,
0,
1,
1,
0,
1,
0,
1,
0,
0,
0,
1,
0,
2,
1,
0,
0,
1,
0,
0,
0,
0,
1,
1,
0,
0,
0,
1,
0,
1,
0,
2,
0,
0,
0,
0,
0,
0,
1,
0,
0,
0,
1,
0,
0,
0,
0,
0,
0,
0,
0,
0,
0,
0,
0,
0,
0,
0,
1,
0,
1,
0,
0,
0,
0,
0,
0,
0,
0,
0,
0,
0,
0,
0,
0,
0,
0,
0,
0,
0,
0,
0,
0,
0,
0,
0,
0,
0,
1,
0,
0,
0,
0,
0,
0,
0,
0,
0,
0,
0,
1,
0,
0,
1,
0,
0,
0,
0,
0,
0,
0,
1,
0,
0,
0,
0,
0,
0,
0,
0,
0,
0,
0,
0,
0,
0,
0,
0,
0,
0,
0,
0,
0,
0,
0,
0,
0,
0,
0,
0,
1,
0,
0,
0,
0,
0,
0,
0,
0,
0,
0,
0,
0,
0,
0,
0,
0,
0,
0,
0,
0,
0,
0,
0,
0,
0,
0,
0,
0,
0,
0,
0,
0,
0,
0,
0,
0,
0,
0,
0,
0,
1,
0,
0,
0,
0,
0,
0,
0,
0,
0,
0,
0,
0,
0,
0,
0,
0,
0,
0,
0,
0,
0,
0,
0,
0,
0,
0,
0,
0,
0,
0,
0,
0,
0,
0,
0,
0,
0,
0,
0,
0,
0,
0,
0,
0,
0,
0,
0,
0,
0,
0,
0,
0,
0,
0,
0,
0,
0,
0,
0,
0,
0,
0,
0,
0,
0,
0,
0,
0,
0,
0,
0,
0,
0,
0,
0,
0,
0,
0,
0,
0,
0,
0,
0,
0,
0,
0,
0,
0,
0,
0,
0,
0,
0,
0,
0,
0,
0,
0,
0,
0,
0,
0,
0,
0,
0,
0,
0,
0,
0,
0,
0,
0,
0,
0,
0,
0,
0,
0,
0,
0,
0,
0,
0,
0,
0,
0,
0,
0,
0,
0,
0,
0,
0,
0,
0,
0,
0,
0,
0,
0,
0,
0,
0,
0,
0,
0,
0,
0,
0,
0,
0,
0,
0,
0,
0,
0,
0,
0,
0,
0,
0,
0,
0,
0,
0,
0,
0,
0,
0,
0,
0,
0,
0,
0,
0,
0,
0,
0,
0,
0,
0,
0,
0,
0,
0,
0,
0,
0,
0,
0,
0,
0,
0,
0,
0,
0,
0,
0,
0,
0,
0,
0,
0,
0,
0,
0,
0,
0,
0,
0,
0,
0,
0,
0,
0,
0,
0,
0,
0,
0,
0,
0,
0,
0,
0,
0,
0,
0,
0,
0,
0,
0,
0,
0,
0,
0,
0,
0,
0,
0,
0,
0,
0,
0,
0,
0,
0,
0,
0,
0,
0,
0,
0,
0,
0,
0,
0,
0,
0,
0,
0,
0,
0,
0,
0,
0,
0,
0,
0,
0,
0,
0,
0,
0,
0,
0,
0,
0,
0,
0,
0,
0,
0,
0,
0,
0,
0,
0,
0,
0,
0,
0,
0,
0,
0,
0,
0,
0,
0,
0,
0,
0,
0,
0,
0,
0,
0,
0,
0,
0,
0,
0,
0,
0,
0,
0,
0,
0,
0,
0,
0,
0,
0,
0,
0,
0,
0,
0,
0,
0,
0,
0,
0,
0,
0,
0,
0,
0,
0,
0,
0,
0,
0,
0,
0,
0,
0,
0,
0,
0,
0,
0,
0,
0,
0,
0,
0,
0,
0,
0,
0,
0,
0,
0,
0,
0,
0,
0,
0,
0,
0,
0,
0,
0,
0,
0,
0,
0,
0,
0,
0,
0,
0,
0,
0,
0,
0,
0,
0,
0,
0,
0,
0,
0,
0,
0,
0,
0,
0,
0,
0,
0,
0,
0,
0,
0,
0,
0,
0,
0,
0,
0,
0,
0,
0,
0,
0,
0,
0,
0,
0,
0,
0,
0,
0,
0,
0,
0,
0,
0,
0,
0,
0,
0,
0,
0,
0,
0,
0,
0,
0,
0,
0,
0,
0,
0,
0,
0,
0,
0,
0,
0,
0,
0,
0,
0,
0,
0,
0,
0,
0,
0,
0,
0,
0,
0,
0,
0,
0,
0,
0,
0,
0,
0,
0,
0,
0,
0,
0,
0,
0,
#ENDOFDATA   :