File: N132962/Quantification/15 keV/GMIIIA/GMIIIA K230[2][4].msa
#FORMAT      : EMSA/MAS Spectral Data File
#VERSION     : 1.0
#TITLE       : GMIIIA K230[2][all]
#DATE        : 22-SEP-2025
#TIME        : 14:34
#OWNER       : Unknown
#NPOINTS     : 4096
#NCOLUMNS    : 1
#XUNITS      : eV
#YUNITS      : counts
#DATATYPE    : Y
#XPERCHAN    : 9.99778
#OFFSET      : 1.69135
#BEAMKV      : 15
#SIGNALTYPE  : EDS
#ELEVANGLE   : 35
#AZIMANGLE   : 0
#LIVETIME    : 239.84
#REALTIME    : 258.605
#PROBECUR    : 1.21983
#TAUWIND     : 0
#TDEADLYR    : 0
#TACTLYR     : 0.045
#TALWIND     : 0.025
#CHOFFSET    : 0.0
#XLABEL      : Energy (eV)
#YLABEL      : Counts
#XPOSITION   : 3.84285
#YPOSITION   : 0.86714
#ZPOSITION   : 37.36299
#EDSDET      : SD
##SPECIMEN   : GMIIIA K230[2][all]
##D2STDCMP   : K230,(O:24.49),(Al:2.65),(Si:14.02),(Zn:4.02),(Ba:8.96),(Ta:4.09),(Pb:41.77)
##DET_HASH   : 12273538-fd48-a23f-0a19-f1e6fa85caef
##CALIB_HASH : 6abaa72c-aa41-8738-0be9-f592914732f3
##WORKING    : 15.0 mm
##DET_NAME   : EDAX All
##DET_MODE   : MediumLE
#SPECTRUM    :
23,
27,
7,
30,
198,
749,
2041,
4981,
11100,
13932,
9156,
6549,
6731,
7215,
9195,
21323,
66649,
121075,
89564,
28080,
10144,
7808,
7631,
7804,
7430,
7284,
7716,
7806,
7382,
7799,
8019,
8496,
12033,
20135,
24937,
19404,
11407,
8213,
7465,
7372,
7594,
7689,
7923,
8305,
8693,
8711,
8824,
10515,
17546,
27314,
27735,
18430,
11310,
9305,
9999,
17689,
47840,
105019,
135645,
98610,
47341,
22873,
14228,
9254,
7437,
7403,
7942,
8051,
7701,
6947,
6719,
6944,
7611,
8040,
9082,
13271,
26458,
53941,
77326,
74545,
59234,
54483,
46130,
28594,
13210,
7083,
6133,
7249,
8415,
8117,
6769,
5350,
4605,
4396,
4514,
4610,
4587,
4693,
4682,
4782,
4879,
5131,
5204,
5342,
5205,
4912,
4759,
4412,
4238,
4367,
4171,
4150,
4107,
4166,
4031,
4080,
4008,
4207,
4075,
3969,
3880,
3927,
3957,
3851,
3990,
3984,
3923,
3777,
3844,
3913,
3927,
3821,
4024,
3972,
3833,
3744,
3785,
3699,
3640,
3676,
3542,
3569,
3476,
3682,
3716,
4135,
5542,
7882,
10398,
11263,
9702,
7123,
4920,
3801,
3404,
3333,
3348,
3580,
4076,
5100,
6314,
6868,
6512,
5608,
4622,
3907,
3639,
3356,
3206,
3422,
3652,
4012,
4238,
3967,
3580,
3209,
2889,
2835,
2871,
2796,
2834,
2809,
2912,
3154,
3203,
3153,
2994,
2886,
2600,
2664,
2614,
2775,
2714,
2749,
2787,
2548,
2568,
2427,
2513,
2447,
2459,
2508,
2425,
2389,
2279,
2279,
2248,
2367,
2267,
2350,
2288,
2319,
2368,
2331,
2324,
2244,
2279,
2200,
2244,
2091,
2184,
2068,
2132,
2078,
2014,
2042,
2016,
2018,
2001,
1991,
2000,
2019,
1986,
2006,
1923,
1975,
1913,
1894,
1877,
1912,
1946,
1886,
1744,
1839,
1784,
1815,
1835,
1794,
1762,
1711,
1709,
1776,
1695,
1739,
1595,
1709,
1614,
1563,
1601,
1632,
1585,
1522,
1515,
1593,
1565,
1573,
1642,
1641,
1628,
1937,
2099,
2123,
2105,
1935,
1752,
1560,
1528,
1464,
1430,
1384,
1442,
1361,
1396,
1555,
1748,
2094,
2576,
2730,
2874,
2473,
2030,
1726,
1524,
1314,
1236,
1227,
1251,
1260,
1247,
1251,
1257,
1203,
1147,
1201,
1231,
1226,
1225,
1194,
1185,
1231,
1323,
1309,
1278,
1246,
1240,
1224,
1207,
1254,
1249,
1300,
1328,
1321,
1143,
1089,
1054,
1036,
985,
960,
934,
922,
917,
927,
926,
915,
868,
899,
883,
851,
897,
866,
856,
901,
827,
816,
801,
826,
911,
986,
1170,
1236,
1357,
1486,
1387,
1260,
1153,
983,
871,
761,
708,
715,
735,
745,
702,
745,
671,
692,
616,
687,
611,
650,
636,
604,
602,
552,
574,
589,
590,
534,
566,
541,
585,
569,
538,
560,
537,
503,
554,
462,
488,
525,
494,
445,
461,
496,
486,
455,
454,
447,
430,
396,
441,
462,
372,
468,
439,
383,
382,
438,
396,
373,
377,
386,
376,
360,
349,
377,
377,
418,
426,
451,
455,
435,
403,
411,
324,
300,
284,
290,
269,
275,
248,
286,
273,
252,
288,
244,
275,
228,
241,
249,
196,
212,
205,
218,
219,
195,
177,
184,
190,
151,
195,
168,
147,
154,
152,
156,
151,
145,
144,
156,
150,
153,
117,
117,
112,
125,
121,
118,
95,
96,
108,
95,
98,
97,
98,
78,
74,
70,
73,
64,
65,
58,
64,
45,
56,
58,
52,
40,
47,
40,
32,
23,
23,
22,
15,
19,
12,
13,
9,
4,
7,
4,
3,
5,
3,
2,
5,
2,
2,
3,
1,
5,
1,
2,
0,
1,
5,
1,
3,
2,
0,
2,
0,
1,
2,
3,
1,
2,
3,
3,
1,
1,
1,
2,
1,
3,
0,
3,
2,
0,
1,
1,
2,
2,
0,
1,
2,
2,
1,
1,
1,
0,
2,
1,
1,
0,
3,
1,
0,
0,
1,
0,
5,
0,
0,
1,
0,
0,
0,
2,
3,
2,
1,
1,
1,
3,
2,
1,
2,
1,
2,
2,
0,
1,
1,
3,
2,
4,
2,
1,
1,
1,
1,
0,
3,
1,
1,
1,
0,
3,
2,
0,
1,
0,
1,
0,
0,
0,
0,
3,
3,
1,
1,
1,
0,
1,
0,
1,
0,
1,
0,
0,
3,
1,
1,
0,
2,
0,
0,
0,
0,
1,
1,
0,
0,
0,
1,
0,
0,
0,
0,
1,
0,
2,
1,
0,
1,
0,
0,
0,
1,
0,
0,
0,
0,
1,
0,
1,
1,
0,
0,
0,
0,
0,
1,
0,
0,
0,
1,
1,
0,
0,
0,
0,
1,
0,
0,
1,
0,
0,
0,
0,
0,
1,
0,
0,
0,
0,
0,
0,
1,
1,
1,
0,
1,
0,
0,
0,
0,
0,
0,
0,
0,
1,
0,
0,
0,
0,
0,
0,
0,
0,
0,
0,
0,
1,
0,
0,
0,
1,
0,
0,
1,
1,
0,
0,
0,
0,
0,
0,
0,
0,
0,
0,
1,
0,
0,
0,
0,
0,
0,
0,
0,
0,
0,
0,
0,
0,
0,
0,
0,
0,
0,
0,
0,
0,
0,
0,
0,
1,
0,
0,
0,
0,
0,
0,
0,
1,
0,
0,
0,
0,
0,
0,
0,
0,
0,
0,
0,
0,
0,
0,
0,
0,
0,
0,
0,
0,
0,
0,
0,
0,
0,
0,
0,
0,
0,
0,
0,
0,
0,
0,
0,
0,
0,
0,
0,
0,
0,
0,
0,
0,
0,
0,
0,
0,
0,
0,
1,
0,
0,
0,
0,
0,
0,
0,
0,
0,
0,
0,
0,
1,
0,
0,
0,
0,
0,
0,
0,
0,
0,
0,
0,
0,
0,
0,
0,
0,
0,
0,
0,
0,
0,
0,
0,
0,
0,
0,
0,
0,
0,
0,
0,
0,
0,
0,
0,
0,
0,
0,
0,
0,
0,
0,
0,
0,
0,
0,
0,
0,
0,
0,
0,
0,
0,
0,
0,
0,
0,
0,
0,
0,
0,
0,
0,
0,
0,
0,
0,
0,
0,
0,
0,
0,
0,
0,
0,
0,
0,
0,
0,
0,
0,
0,
0,
0,
0,
0,
0,
0,
0,
0,
0,
0,
0,
0,
0,
0,
0,
0,
0,
0,
0,
0,
0,
0,
0,
0,
0,
0,
0,
0,
0,
0,
0,
0,
0,
0,
0,
0,
0,
0,
0,
0,
0,
0,
0,
0,
0,
0,
0,
0,
0,
0,
0,
0,
0,
0,
0,
0,
0,
0,
0,
0,
0,
0,
0,
0,
0,
0,
0,
0,
0,
0,
0,
0,
0,
0,
0,
0,
0,
0,
0,
0,
0,
0,
0,
0,
0,
0,
0,
0,
0,
0,
0,
0,
0,
0,
0,
0,
0,
0,
0,
0,
0,
0,
0,
0,
0,
0,
0,
0,
0,
0,
0,
0,
0,
0,
0,
0,
0,
0,
0,
0,
0,
0,
0,
0,
0,
0,
0,
0,
0,
0,
0,
0,
0,
0,
0,
0,
0,
0,
0,
0,
0,
0,
0,
0,
0,
0,
0,
0,
0,
0,
0,
0,
0,
0,
0,
0,
0,
0,
0,
0,
0,
0,
0,
0,
0,
0,
0,
0,
0,
0,
0,
0,
0,
0,
0,
0,
0,
0,
0,
0,
0,
0,
0,
0,
0,
0,
0,
0,
0,
0,
0,
0,
0,
0,
0,
0,
0,
0,
0,
0,
0,
0,
0,
0,
0,
0,
0,
0,
0,
0,
0,
0,
0,
0,
0,
0,
0,
0,
0,
0,
0,
0,
0,
0,
0,
0,
0,
0,
0,
0,
0,
0,
0,
0,
0,
0,
0,
0,
0,
0,
0,
0,
0,
0,
0,
0,
0,
0,
0,
0,
0,
0,
0,
0,
0,
0,
0,
0,
0,
0,
0,
0,
0,
0,
0,
0,
0,
0,
0,
0,
0,
0,
0,
0,
0,
0,
0,
0,
0,
0,
0,
0,
0,
0,
0,
0,
0,
0,
0,
0,
0,
0,
0,
0,
0,
0,
0,
0,
0,
0,
0,
0,
0,
0,
0,
0,
0,
0,
0,
0,
0,
0,
0,
0,
0,
0,
0,
0,
0,
0,
0,
0,
0,
0,
0,
0,
0,
0,
0,
0,
0,
0,
0,
0,
0,
0,
0,
0,
0,
0,
0,
0,
0,
0,
0,
0,
0,
0,
0,
0,
0,
0,
0,
0,
0,
0,
0,
0,
0,
0,
0,
0,
0,
0,
0,
0,
0,
0,
0,
0,
0,
0,
0,
0,
0,
0,
0,
0,
0,
0,
0,
0,
0,
0,
0,
0,
0,
0,
0,
0,
0,
0,
0,
0,
0,
0,
0,
0,
0,
0,
0,
0,
0,
0,
0,
0,
0,
0,
0,
0,
0,
0,
0,
0,
0,
0,
0,
0,
0,
0,
0,
0,
0,
0,
0,
0,
0,
0,
0,
0,
0,
0,
0,
0,
0,
0,
0,
0,
0,
0,
0,
0,
0,
0,
0,
0,
0,
0,
0,
0,
0,
0,
#ENDOFDATA   :