File: N132962/Quantification/15 keV/GMIIIA/GMIIIA K366[2][4].msa
#FORMAT      : EMSA/MAS Spectral Data File
#VERSION     : 1.0
#TITLE       : GMIIIA K366[2][all]
#DATE        : 22-SEP-2025
#TIME        : 15:38
#OWNER       : Unknown
#NPOINTS     : 4096
#NCOLUMNS    : 1
#XUNITS      : eV
#YUNITS      : counts
#DATATYPE    : Y
#XPERCHAN    : 9.99778
#OFFSET      : 1.69135
#BEAMKV      : 15
#SIGNALTYPE  : EDS
#ELEVANGLE   : 35
#AZIMANGLE   : 0
#LIVETIME    : 240.017
#REALTIME    : 260.388
#PROBECUR    : 1.21681
#TAUWIND     : 0
#TDEADLYR    : 0
#TACTLYR     : 0.045
#TALWIND     : 0.025
#CHOFFSET    : 0.0
#XLABEL      : Energy (eV)
#YLABEL      : Counts
#XPOSITION   : 8.32833
#YPOSITION   : 4.16236
#ZPOSITION   : 37.36299
#EDSDET      : SD
##SPECIMEN   : GMIIIA K366[2][all]
##D2STDCMP   : K366,(O:20.43),(Si:13.45),(Pb:66.12)
##DET_HASH   : 12273538-fd48-a23f-0a19-f1e6fa85caef
##CALIB_HASH : 6abaa72c-aa41-8738-0be9-f592914732f3
##WORKING    : 15.0 mm
##DET_NAME   : EDAX All
##DET_MODE   : MediumLE
#SPECTRUM    :
34,
21,
13,
57,
232,
949,
2562,
5776,
11796,
14111,
9980,
7278,
7100,
7253,
8437,
17308,
49688,
88902,
65242,
21661,
9682,
8014,
8087,
8627,
8023,
7030,
6944,
7190,
7759,
7741,
7855,
7752,
8007,
8226,
8413,
8366,
8570,
8716,
8804,
9042,
9109,
9238,
9194,
9222,
9429,
9581,
9639,
9683,
10025,
10359,
10620,
10234,
10160,
10071,
10941,
16553,
43657,
100287,
134452,
100141,
50616,
28077,
18920,
12030,
8917,
7993,
7767,
7688,
7578,
7746,
7875,
8706,
9563,
10354,
12264,
19059,
42499,
90057,
132622,
128153,
101645,
92012,
78066,
46961,
19855,
9151,
7452,
8882,
10653,
10247,
8163,
6048,
5152,
4787,
4978,
4911,
5223,
5073,
5292,
5265,
5418,
5936,
6262,
6418,
6096,
5755,
5122,
4931,
4593,
4622,
4448,
4408,
4498,
4466,
4545,
4611,
4632,
4556,
4592,
4427,
4521,
4288,
4280,
4285,
4390,
4456,
4325,
4129,
4186,
4082,
4107,
4136,
4123,
4141,
4039,
4252,
4217,
4184,
4149,
4127,
4175,
4046,
3952,
3921,
3912,
3874,
3976,
3906,
3999,
3997,
4041,
4064,
3917,
3845,
3725,
3840,
3866,
3718,
3797,
3748,
3751,
3746,
3658,
3693,
3677,
3573,
3603,
3510,
3524,
3494,
3399,
3450,
3415,
3319,
3351,
3439,
3314,
3282,
3304,
3278,
3178,
3260,
3224,
3163,
3190,
3143,
3289,
3154,
3101,
3032,
3080,
3071,
3047,
3008,
2984,
2976,
2986,
3026,
2917,
2854,
2879,
2813,
2790,
2859,
2947,
2829,
2752,
2778,
2771,
2889,
2721,
2727,
2794,
2717,
2815,
2637,
2725,
2600,
2628,
2660,
2587,
2559,
2517,
2601,
2480,
2438,
2597,
2369,
2474,
2431,
2464,
2381,
2389,
2329,
2300,
2398,
2369,
2354,
2251,
2292,
2342,
2272,
2221,
2190,
2121,
2177,
2216,
2208,
2171,
2214,
2174,
2176,
2050,
2025,
2049,
2017,
2000,
2000,
1969,
1973,
1938,
1986,
1939,
1961,
1888,
1936,
1836,
1882,
1839,
1835,
1865,
1789,
1828,
1847,
1804,
1772,
1705,
1747,
1766,
1734,
1714,
1720,
1712,
1754,
1633,
1652,
1659,
1669,
1628,
1639,
1614,
1582,
1539,
1530,
1522,
1547,
1584,
1414,
1480,
1481,
1410,
1496,
1466,
1555,
1461,
1484,
1437,
1502,
1428,
1382,
1411,
1379,
1348,
1325,
1364,
1316,
1331,
1314,
1335,
1321,
1280,
1290,
1224,
1237,
1172,
1290,
1200,
1291,
1247,
1197,
1116,
1185,
1153,
1127,
1130,
1207,
1128,
1056,
1127,
1104,
1107,
1088,
1073,
1106,
1096,
1167,
1280,
1356,
1620,
1888,
2185,
2359,
2347,
2003,
1584,
1381,
1203,
1042,
914,
938,
909,
907,
865,
848,
843,
872,
894,
874,
802,
814,
777,
807,
767,
781,
749,
760,
757,
741,
745,
746,
708,
710,
742,
661,
711,
718,
722,
697,
686,
640,
593,
651,
641,
558,
638,
606,
593,
564,
527,
568,
561,
568,
587,
544,
529,
537,
575,
501,
493,
510,
472,
479,
448,
485,
492,
489,
495,
550,
604,
624,
666,
599,
601,
514,
500,
459,
460,
371,
348,
378,
380,
355,
365,
368,
334,
321,
350,
310,
306,
292,
297,
287,
284,
273,
280,
258,
272,
262,
231,
257,
246,
222,
210,
226,
244,
207,
247,
192,
207,
191,
197,
157,
168,
194,
158,
172,
161,
147,
136,
141,
139,
126,
119,
161,
120,
112,
98,
115,
129,
87,
90,
77,
72,
90,
68,
62,
69,
62,
59,
65,
35,
40,
36,
28,
34,
30,
20,
17,
16,
7,
5,
5,
3,
5,
3,
5,
2,
2,
5,
2,
3,
0,
3,
5,
3,
2,
4,
8,
5,
4,
3,
1,
1,
3,
2,
2,
2,
5,
4,
0,
4,
3,
2,
1,
1,
2,
3,
0,
1,
3,
0,
1,
4,
4,
0,
0,
0,
2,
1,
1,
0,
0,
5,
2,
2,
2,
1,
3,
2,
2,
3,
0,
0,
1,
1,
0,
1,
1,
3,
1,
1,
1,
2,
3,
4,
3,
1,
1,
1,
1,
2,
0,
2,
1,
0,
1,
0,
0,
0,
2,
4,
3,
0,
3,
1,
0,
1,
3,
1,
0,
1,
2,
0,
1,
1,
1,
1,
2,
1,
0,
1,
1,
0,
3,
2,
1,
1,
1,
0,
1,
2,
0,
1,
0,
0,
0,
0,
1,
0,
3,
1,
2,
1,
1,
0,
0,
2,
0,
0,
0,
1,
1,
2,
0,
1,
1,
0,
2,
0,
1,
1,
0,
1,
0,
1,
0,
1,
2,
2,
0,
1,
1,
0,
1,
1,
1,
0,
0,
1,
1,
0,
2,
0,
0,
0,
0,
0,
1,
0,
1,
0,
0,
0,
0,
0,
0,
0,
0,
0,
1,
0,
0,
1,
0,
0,
0,
3,
0,
1,
0,
0,
0,
1,
0,
1,
0,
1,
0,
1,
2,
0,
0,
1,
0,
2,
0,
0,
1,
0,
0,
0,
1,
1,
0,
1,
1,
0,
0,
0,
0,
0,
0,
0,
0,
0,
1,
0,
1,
0,
0,
1,
0,
0,
3,
0,
1,
1,
0,
0,
0,
1,
0,
0,
0,
0,
0,
0,
0,
0,
1,
0,
0,
0,
0,
0,
0,
0,
0,
0,
0,
0,
0,
0,
1,
0,
0,
0,
0,
1,
0,
0,
0,
0,
0,
0,
0,
0,
0,
0,
0,
0,
0,
0,
0,
0,
0,
0,
0,
0,
0,
0,
0,
0,
0,
0,
0,
0,
0,
0,
0,
1,
0,
0,
0,
0,
0,
0,
1,
0,
0,
0,
0,
0,
0,
0,
0,
1,
0,
0,
0,
0,
0,
0,
0,
0,
0,
0,
0,
0,
0,
0,
0,
0,
0,
0,
0,
0,
1,
0,
0,
0,
0,
0,
0,
0,
0,
0,
0,
0,
1,
0,
0,
0,
0,
0,
0,
0,
0,
0,
0,
0,
0,
0,
0,
0,
0,
0,
0,
0,
0,
0,
0,
0,
0,
0,
0,
0,
0,
0,
0,
0,
0,
0,
0,
0,
0,
0,
0,
0,
0,
0,
0,
0,
0,
0,
0,
0,
0,
0,
0,
0,
0,
0,
0,
0,
0,
0,
0,
0,
0,
0,
0,
0,
0,
0,
0,
0,
0,
0,
0,
0,
0,
0,
0,
0,
0,
0,
0,
0,
0,
0,
0,
0,
0,
0,
0,
0,
0,
0,
0,
0,
0,
0,
0,
0,
0,
0,
0,
0,
0,
0,
0,
0,
0,
0,
0,
0,
0,
0,
0,
0,
0,
0,
0,
0,
0,
0,
0,
0,
0,
0,
0,
0,
0,
0,
0,
0,
0,
0,
0,
0,
0,
0,
0,
0,
0,
0,
0,
0,
0,
0,
0,
0,
0,
0,
0,
0,
0,
0,
0,
0,
0,
0,
0,
0,
0,
0,
0,
0,
0,
0,
0,
0,
0,
0,
0,
0,
0,
0,
0,
0,
0,
0,
0,
0,
0,
0,
0,
0,
0,
0,
0,
0,
0,
0,
0,
0,
0,
0,
0,
0,
0,
0,
0,
0,
0,
0,
0,
0,
0,
0,
0,
0,
0,
0,
0,
0,
0,
0,
0,
0,
0,
0,
0,
0,
0,
0,
0,
0,
0,
0,
0,
0,
0,
0,
0,
0,
0,
0,
0,
0,
0,
0,
0,
0,
0,
0,
0,
0,
0,
0,
0,
0,
0,
0,
0,
0,
0,
0,
0,
0,
0,
0,
0,
0,
0,
0,
0,
0,
0,
0,
0,
0,
0,
0,
0,
0,
0,
0,
0,
0,
0,
0,
0,
0,
0,
0,
0,
0,
0,
0,
0,
0,
0,
0,
0,
0,
0,
0,
0,
0,
0,
0,
0,
0,
0,
0,
0,
0,
0,
0,
0,
0,
0,
0,
0,
0,
0,
0,
0,
0,
0,
0,
0,
0,
0,
0,
0,
0,
0,
0,
0,
0,
0,
0,
0,
0,
0,
0,
0,
0,
0,
0,
0,
0,
0,
0,
0,
0,
0,
0,
0,
0,
0,
0,
0,
0,
0,
0,
0,
0,
0,
0,
0,
0,
0,
0,
0,
0,
0,
0,
0,
0,
0,
0,
0,
0,
0,
0,
0,
0,
0,
0,
0,
0,
0,
0,
0,
0,
0,
0,
0,
0,
0,
0,
0,
0,
0,
0,
0,
0,
0,
0,
0,
0,
0,
0,
0,
0,
0,
0,
0,
0,
0,
0,
0,
0,
0,
0,
0,
0,
0,
0,
0,
0,
0,
0,
0,
0,
0,
0,
0,
0,
0,
0,
0,
0,
0,
0,
0,
0,
0,
0,
0,
0,
0,
0,
0,
0,
0,
0,
0,
0,
0,
0,
0,
0,
0,
0,
0,
0,
0,
0,
0,
0,
0,
0,
0,
0,
0,
0,
0,
0,
0,
0,
0,
0,
0,
0,
0,
0,
0,
0,
0,
0,
0,
0,
0,
0,
0,
0,
0,
0,
0,
0,
0,
0,
0,
0,
0,
0,
0,
0,
0,
0,
0,
0,
0,
0,
0,
0,
0,
0,
0,
0,
0,
#ENDOFDATA   :