File: N132962/Quantification/15 keV/GMIIIA/GMIIIA K240[0][4].msa
#FORMAT      : EMSA/MAS Spectral Data File
#VERSION     : 1.0
#TITLE       : GMIIIA K240[0][all]
#DATE        : 22-SEP-2025
#TIME        : 15:12
#OWNER       : Unknown
#NPOINTS     : 4096
#NCOLUMNS    : 1
#XUNITS      : eV
#YUNITS      : counts
#DATATYPE    : Y
#XPERCHAN    : 9.99778
#OFFSET      : 1.69135
#BEAMKV      : 15
#SIGNALTYPE  : EDS
#ELEVANGLE   : 35
#AZIMANGLE   : 0
#LIVETIME    : 239.964
#REALTIME    : 256.035
#PROBECUR    : 1.21732
#TAUWIND     : 0
#TDEADLYR    : 0
#TACTLYR     : 0.045
#TALWIND     : 0.025
#CHOFFSET    : 0.0
#XLABEL      : Energy (eV)
#YLABEL      : Counts
#XPOSITION   : 11.36222
#YPOSITION   : 1.6927
#ZPOSITION   : 37.36299
#EDSDET      : SD
##SPECIMEN   : GMIIIA K240[0][all]
##D2STDCMP   : K240,(O:34.0),(Mg:3.02),(Si:18.7),(Ti:6.0),(Zn:4.02),(Zr:7.4),(Ba:26.87)
##DET_HASH   : 12273538-fd48-a23f-0a19-f1e6fa85caef
##CALIB_HASH : 6abaa72c-aa41-8738-0be9-f592914732f3
##WORKING    : 15.0 mm
##DET_NAME   : EDAX All
##DET_MODE   : MediumLE
#SPECTRUM    :
29,
25,
10,
39,
163,
632,
1509,
3549,
7441,
9478,
7247,
6417,
8477,
10484,
13714,
31297,
98152,
181492,
132221,
39798,
11238,
6432,
5215,
5144,
5674,
7347,
8452,
7612,
5940,
5780,
5780,
6815,
10341,
17186,
19784,
14569,
8503,
5952,
5643,
6430,
10951,
20235,
23002,
15299,
7851,
5968,
5632,
5475,
5659,
6083,
6026,
6249,
6171,
6407,
7310,
14171,
44231,
107619,
144907,
103907,
44761,
17404,
9785,
6439,
5399,
6176,
9557,
16299,
21206,
19541,
15263,
12505,
9605,
7211,
5938,
5202,
4909,
4493,
4207,
4058,
3989,
3917,
3961,
4009,
4043,
3938,
3772,
3861,
3634,
3965,
3892,
3888,
3827,
3750,
3643,
3677,
3490,
3593,
3475,
3521,
3649,
3631,
3419,
3496,
3390,
3341,
3377,
3386,
3259,
3216,
3288,
3282,
3069,
3154,
3141,
3181,
3192,
3160,
3039,
2987,
2965,
3001,
3040,
3024,
2905,
2925,
2818,
2844,
2860,
2973,
3179,
3559,
3679,
3455,
3103,
2853,
2707,
2669,
2517,
2475,
2638,
2638,
2780,
2954,
3532,
4821,
8984,
17496,
28663,
36509,
35166,
25618,
14945,
7432,
3928,
2734,
2703,
3167,
4673,
7860,
11431,
13684,
12966,
10767,
8551,
6537,
4899,
3650,
3011,
3194,
3975,
5306,
5756,
5271,
3994,
2857,
2156,
1974,
1855,
1919,
1901,
2104,
2429,
2920,
3132,
3220,
2691,
2258,
1944,
1790,
1856,
1892,
2162,
2179,
2080,
1997,
1835,
1655,
1692,
1629,
1593,
1613,
1530,
1548,
1460,
1453,
1483,
1477,
1413,
1442,
1374,
1358,
1388,
1370,
1418,
1332,
1346,
1391,
1337,
1325,
1317,
1312,
1306,
1271,
1249,
1238,
1181,
1179,
1236,
1179,
1242,
1225,
1262,
1170,
1163,
1192,
1155,
1187,
1165,
1142,
1098,
1127,
1162,
1098,
1142,
1119,
1058,
1091,
1118,
1056,
1035,
1053,
1027,
1002,
996,
1024,
960,
938,
1005,
1008,
1013,
1002,
1007,
952,
985,
975,
920,
885,
926,
915,
916,
920,
916,
919,
872,
846,
890,
821,
812,
837,
912,
825,
877,
968,
1133,
1481,
1751,
2027,
2056,
1863,
1480,
1169,
960,
818,
725,
744,
768,
692,
691,
712,
683,
691,
745,
731,
642,
657,
657,
634,
649,
634,
672,
639,
643,
650,
659,
610,
694,
667,
735,
797,
738,
662,
689,
576,
576,
582,
604,
574,
576,
530,
535,
502,
538,
542,
543,
490,
523,
491,
510,
477,
462,
455,
495,
470,
452,
455,
469,
471,
440,
452,
428,
432,
431,
437,
385,
366,
420,
390,
386,
366,
360,
376,
385,
386,
386,
365,
363,
363,
374,
350,
353,
358,
377,
342,
348,
335,
351,
325,
334,
312,
325,
285,
286,
295,
276,
268,
238,
288,
265,
270,
249,
302,
287,
257,
266,
255,
236,
280,
254,
267,
222,
246,
216,
232,
243,
231,
212,
221,
209,
204,
204,
233,
189,
195,
209,
169,
184,
181,
166,
160,
162,
193,
174,
175,
169,
145,
161,
151,
170,
161,
142,
148,
138,
124,
138,
127,
123,
119,
129,
111,
119,
117,
130,
106,
114,
85,
105,
114,
108,
84,
100,
89,
72,
87,
95,
77,
74,
98,
83,
70,
78,
74,
63,
69,
54,
56,
56,
58,
50,
50,
46,
46,
54,
43,
49,
38,
41,
32,
50,
35,
31,
21,
23,
26,
35,
29,
25,
24,
17,
15,
22,
15,
14,
13,
12,
5,
10,
3,
4,
5,
1,
2,
3,
0,
1,
1,
1,
0,
0,
0,
0,
2,
1,
0,
0,
0,
1,
0,
2,
0,
0,
1,
0,
1,
0,
0,
1,
1,
0,
0,
1,
1,
0,
0,
1,
4,
1,
0,
0,
2,
1,
0,
3,
1,
0,
0,
1,
0,
0,
3,
0,
0,
2,
1,
1,
0,
0,
0,
0,
0,
0,
0,
1,
1,
0,
0,
2,
1,
0,
0,
2,
4,
0,
0,
1,
0,
0,
1,
0,
0,
0,
0,
0,
0,
0,
0,
0,
0,
0,
0,
1,
0,
1,
0,
0,
0,
0,
0,
0,
1,
0,
0,
1,
1,
0,
0,
0,
0,
1,
0,
2,
0,
0,
0,
0,
0,
0,
0,
0,
0,
0,
0,
0,
0,
0,
0,
0,
0,
3,
1,
0,
2,
0,
0,
0,
0,
0,
0,
0,
1,
0,
0,
0,
0,
0,
0,
0,
0,
0,
0,
0,
0,
1,
0,
0,
0,
0,
0,
0,
0,
0,
0,
0,
0,
1,
0,
0,
0,
0,
0,
0,
0,
0,
0,
0,
0,
0,
1,
0,
0,
0,
0,
0,
0,
0,
0,
0,
0,
0,
0,
0,
0,
0,
0,
0,
0,
0,
0,
0,
0,
0,
0,
0,
0,
0,
0,
0,
0,
0,
0,
0,
0,
0,
1,
0,
0,
0,
0,
0,
0,
0,
1,
0,
0,
0,
0,
0,
0,
0,
0,
0,
0,
0,
0,
0,
0,
0,
0,
0,
0,
0,
0,
0,
0,
0,
0,
0,
0,
0,
0,
0,
0,
0,
0,
0,
0,
0,
0,
0,
0,
0,
0,
0,
0,
0,
0,
0,
0,
0,
0,
0,
0,
0,
0,
0,
0,
0,
0,
0,
0,
0,
0,
0,
0,
0,
0,
0,
0,
0,
0,
0,
0,
0,
0,
0,
0,
0,
0,
0,
0,
0,
0,
0,
0,
0,
0,
0,
0,
0,
0,
0,
0,
0,
0,
0,
0,
0,
0,
0,
0,
0,
0,
0,
0,
0,
0,
0,
0,
0,
0,
0,
0,
0,
0,
0,
0,
0,
0,
0,
0,
0,
0,
0,
0,
0,
0,
0,
0,
0,
0,
0,
0,
0,
0,
0,
0,
0,
0,
0,
0,
0,
0,
0,
0,
0,
0,
0,
0,
0,
0,
0,
0,
0,
0,
0,
0,
0,
0,
0,
0,
0,
0,
0,
0,
0,
0,
0,
0,
0,
0,
0,
0,
0,
0,
0,
0,
0,
0,
0,
0,
0,
0,
0,
0,
0,
0,
0,
0,
0,
0,
0,
0,
0,
0,
0,
0,
0,
0,
0,
0,
0,
0,
0,
0,
0,
0,
0,
0,
0,
0,
0,
0,
0,
0,
0,
0,
0,
0,
0,
0,
0,
0,
0,
0,
0,
0,
0,
0,
0,
0,
0,
0,
0,
0,
0,
0,
0,
0,
0,
0,
0,
0,
0,
0,
0,
0,
0,
0,
0,
0,
0,
0,
0,
0,
0,
0,
0,
0,
0,
0,
0,
0,
0,
0,
0,
0,
0,
0,
0,
0,
0,
0,
0,
0,
0,
0,
0,
0,
0,
0,
0,
0,
0,
0,
0,
0,
0,
0,
0,
0,
0,
0,
0,
0,
0,
0,
0,
0,
0,
0,
0,
0,
0,
0,
0,
0,
0,
0,
0,
0,
0,
0,
0,
0,
0,
0,
0,
0,
0,
0,
0,
0,
0,
0,
0,
0,
0,
0,
0,
0,
0,
0,
0,
0,
0,
0,
0,
0,
0,
0,
0,
0,
0,
0,
0,
0,
0,
0,
0,
0,
0,
0,
0,
0,
0,
0,
0,
0,
0,
0,
0,
0,
0,
0,
0,
0,
0,
0,
0,
0,
0,
0,
0,
0,
0,
0,
0,
0,
0,
0,
0,
0,
0,
0,
0,
0,
0,
0,
0,
0,
0,
0,
0,
0,
0,
0,
0,
0,
0,
0,
0,
0,
0,
0,
0,
0,
0,
0,
0,
0,
0,
0,
0,
0,
0,
0,
0,
0,
0,
0,
0,
0,
0,
0,
0,
0,
0,
0,
0,
0,
0,
0,
0,
0,
0,
0,
0,
0,
0,
0,
0,
0,
0,
0,
0,
0,
0,
0,
0,
0,
0,
0,
0,
0,
0,
0,
0,
0,
0,
0,
0,
0,
0,
0,
0,
0,
0,
0,
0,
0,
0,
0,
0,
0,
0,
0,
0,
0,
0,
0,
0,
0,
0,
0,
0,
0,
0,
0,
0,
0,
0,
0,
0,
0,
0,
0,
0,
0,
0,
0,
0,
0,
0,
0,
0,
0,
0,
0,
0,
0,
0,
0,
0,
0,
0,
0,
0,
0,
0,
0,
0,
0,
0,
0,
0,
0,
0,
0,
0,
0,
0,
0,
0,
0,
0,
0,
0,
0,
0,
0,
0,
0,
0,
0,
0,
0,
0,
0,
0,
0,
0,
0,
0,
0,
0,
0,
0,
0,
0,
0,
0,
0,
0,
0,
0,
0,
0,
0,
0,
0,
0,
0,
0,
0,
0,
0,
0,
0,
0,
0,
0,
0,
0,
0,
0,
0,
0,
0,
0,
0,
0,
0,
0,
0,
0,
0,
0,
0,
0,
0,
0,
0,
0,
0,
0,
0,
0,
0,
0,
0,
0,
0,
0,
0,
0,
0,
0,
0,
0,
0,
0,
0,
0,
0,
0,
0,
0,
0,
0,
0,
0,
0,
0,
0,
0,
0,
0,
0,
0,
0,
0,
0,
0,
0,
0,
0,
#ENDOFDATA   :