File: N132962/Quantification/15 keV/GMIIIA/GMIIIA K1132[2][4].msa
#FORMAT      : EMSA/MAS Spectral Data File
#VERSION     : 1.0
#TITLE       : GMIIIA K1132[2][all]
#DATE        : 22-SEP-2025
#TIME        : 22:25
#OWNER       : Unknown
#NPOINTS     : 4096
#NCOLUMNS    : 1
#XUNITS      : eV
#YUNITS      : counts
#DATATYPE    : Y
#XPERCHAN    : 9.99778
#OFFSET      : 1.69135
#BEAMKV      : 15
#SIGNALTYPE  : EDS
#ELEVANGLE   : 35
#AZIMANGLE   : 0
#LIVETIME    : 240.016
#REALTIME    : 255.398
#PROBECUR    : 1.21595
#TAUWIND     : 0
#TDEADLYR    : 0
#TACTLYR     : 0.045
#TALWIND     : 0.025
#CHOFFSET    : 0.0
#XLABEL      : Energy (eV)
#YLABEL      : Counts
#XPOSITION   : 8.22734
#YPOSITION   : 17.49561
#ZPOSITION   : 37.36299
#EDSDET      : SD
##SPECIMEN   : GMIIIA K1132[2][all]
##D2STDCMP   : K1132,(Li:2.32),(O:41.34),(Al:7.94),(Si:21.39),(Ca:10.72),(Cr:0.51),(Ni:1.18),(Mo:1.67),(Ba:13.43)
##DET_HASH   : 12273538-fd48-a23f-0a19-f1e6fa85caef
##CALIB_HASH : 6abaa72c-aa41-8738-0be9-f592914732f3
##WORKING    : 15.0 mm
##DET_NAME   : EDAX All
##DET_MODE   : MediumLE
#SPECTRUM    :
33,
21,
5,
26,
114,
418,
1273,
3352,
7949,
11565,
8690,
6099,
5450,
5652,
8774,
28045,
102995,
196078,
143066,
39516,
7933,
4078,
3795,
3827,
4290,
5170,
5840,
6536,
7135,
6708,
5165,
4877,
5042,
5512,
6111,
5887,
5366,
4997,
4852,
4816,
4982,
5184,
5155,
5225,
5375,
5506,
6496,
12015,
32074,
61850,
62559,
33775,
13280,
7352,
6792,
13699,
48339,
120814,
164065,
117040,
47926,
17300,
8852,
5322,
3968,
3961,
3900,
3704,
3491,
3512,
3350,
3452,
3498,
3693,
4282,
5729,
7177,
6908,
5765,
4934,
4722,
4263,
3788,
3467,
3384,
3301,
3039,
2955,
2973,
2967,
2899,
2910,
2791,
2858,
2806,
2751,
2757,
2696,
2766,
2692,
2764,
2613,
2598,
2630,
2677,
2653,
2672,
2584,
2673,
2592,
2515,
2539,
2509,
2451,
2447,
2500,
2680,
2698,
2867,
3798,
7348,
16513,
29318,
36917,
31485,
18192,
8058,
3689,
2385,
2285,
2701,
3424,
4716,
6011,
6413,
5159,
3664,
2546,
1987,
1904,
1917,
1884,
1932,
1969,
2108,
2696,
4374,
7575,
11396,
12937,
10651,
6836,
3698,
2212,
1771,
1661,
1782,
1947,
2675,
4123,
5739,
6775,
6310,
4856,
3486,
2717,
2191,
1917,
1806,
1992,
2448,
2991,
3358,
2887,
2281,
1863,
1530,
1469,
1667,
1894,
2066,
2179,
2076,
2043,
2073,
1949,
1740,
1484,
1361,
1227,
1324,
1308,
1348,
1440,
1510,
1393,
1271,
1300,
1217,
1229,
1257,
1152,
1109,
1023,
1092,
1000,
1030,
1044,
1011,
991,
1121,
1026,
1043,
1005,
1008,
980,
953,
914,
957,
1003,
927,
862,
958,
915,
928,
905,
843,
868,
872,
871,
814,
888,
870,
770,
847,
822,
857,
782,
814,
833,
725,
764,
786,
769,
785,
830,
986,
1255,
1446,
1429,
1361,
1193,
950,
824,
733,
709,
676,
661,
725,
718,
694,
647,
616,
620,
665,
658,
629,
616,
587,
608,
630,
668,
659,
625,
690,
679,
649,
654,
628,
606,
564,
548,
547,
537,
499,
519,
524,
548,
514,
494,
505,
471,
511,
537,
454,
458,
502,
426,
484,
510,
493,
485,
465,
474,
459,
495,
446,
447,
447,
445,
451,
414,
419,
439,
412,
436,
402,
443,
392,
385,
377,
391,
406,
410,
392,
385,
349,
357,
395,
359,
344,
393,
401,
338,
316,
374,
348,
333,
306,
360,
322,
294,
309,
295,
271,
307,
315,
292,
311,
272,
281,
296,
261,
273,
278,
282,
262,
263,
268,
266,
232,
277,
261,
244,
245,
238,
241,
249,
229,
236,
237,
227,
234,
235,
226,
240,
251,
202,
221,
208,
216,
202,
200,
167,
204,
167,
180,
201,
153,
171,
204,
160,
186,
177,
187,
169,
157,
163,
152,
159,
156,
141,
162,
152,
155,
136,
133,
147,
153,
149,
136,
120,
136,
131,
106,
110,
108,
96,
121,
126,
110,
114,
110,
117,
106,
108,
92,
123,
103,
96,
83,
78,
104,
74,
87,
76,
74,
66,
73,
75,
66,
74,
80,
66,
69,
62,
65,
65,
77,
67,
52,
47,
50,
51,
44,
54,
47,
44,
51,
42,
37,
36,
35,
42,
44,
42,
40,
45,
41,
29,
35,
33,
29,
24,
18,
19,
20,
24,
23,
18,
14,
14,
19,
22,
16,
21,
19,
17,
12,
12,
11,
8,
6,
6,
8,
8,
8,
0,
1,
0,
0,
1,
1,
0,
0,
0,
0,
0,
0,
1,
2,
0,
0,
0,
0,
0,
0,
0,
0,
0,
1,
1,
0,
2,
0,
0,
0,
1,
1,
0,
1,
0,
1,
0,
1,
1,
0,
1,
0,
0,
1,
0,
0,
0,
0,
0,
0,
0,
0,
0,
0,
0,
0,
0,
0,
0,
0,
0,
1,
0,
0,
0,
0,
0,
0,
0,
0,
0,
1,
0,
0,
0,
0,
0,
0,
1,
0,
0,
1,
0,
0,
0,
0,
0,
0,
0,
0,
0,
0,
0,
0,
0,
0,
0,
0,
0,
0,
0,
1,
0,
0,
0,
0,
0,
0,
1,
0,
0,
0,
0,
1,
0,
0,
0,
0,
0,
0,
1,
0,
0,
0,
0,
0,
0,
0,
0,
0,
0,
0,
0,
0,
0,
0,
0,
0,
0,
0,
0,
1,
0,
0,
0,
0,
0,
0,
0,
0,
0,
0,
0,
0,
0,
0,
0,
0,
0,
0,
0,
0,
0,
0,
1,
0,
0,
0,
0,
0,
1,
0,
0,
0,
0,
0,
0,
0,
0,
0,
0,
0,
0,
0,
0,
0,
0,
0,
0,
0,
0,
0,
0,
0,
0,
0,
0,
0,
0,
0,
0,
0,
0,
0,
0,
0,
0,
0,
0,
0,
0,
0,
0,
0,
0,
0,
0,
0,
0,
0,
0,
0,
0,
0,
0,
0,
0,
0,
0,
1,
0,
0,
0,
0,
0,
0,
0,
0,
0,
1,
0,
0,
0,
0,
0,
0,
0,
0,
0,
0,
0,
0,
0,
0,
0,
0,
0,
0,
0,
0,
0,
0,
0,
0,
0,
0,
0,
0,
0,
0,
0,
0,
0,
1,
0,
0,
0,
0,
0,
0,
0,
0,
0,
0,
0,
0,
0,
0,
0,
0,
0,
0,
0,
0,
0,
0,
0,
0,
0,
0,
0,
0,
0,
0,
0,
0,
0,
0,
0,
0,
0,
0,
0,
0,
0,
0,
0,
0,
0,
0,
0,
0,
0,
0,
0,
0,
0,
0,
0,
0,
0,
0,
0,
0,
0,
0,
0,
0,
0,
0,
0,
0,
0,
0,
0,
0,
0,
0,
0,
0,
0,
0,
0,
0,
0,
0,
0,
0,
0,
0,
0,
0,
0,
0,
0,
0,
0,
0,
0,
0,
0,
0,
0,
0,
0,
0,
0,
0,
0,
0,
0,
0,
0,
0,
0,
0,
0,
0,
0,
0,
0,
0,
0,
0,
0,
0,
0,
0,
0,
0,
0,
0,
0,
0,
0,
0,
0,
0,
0,
0,
0,
0,
0,
0,
0,
0,
0,
0,
0,
0,
0,
0,
0,
0,
0,
0,
0,
0,
0,
0,
0,
0,
0,
0,
0,
0,
0,
0,
0,
0,
0,
0,
0,
0,
0,
0,
0,
0,
0,
0,
0,
0,
0,
0,
0,
0,
0,
0,
0,
0,
0,
0,
0,
0,
0,
0,
0,
0,
0,
0,
0,
0,
0,
0,
0,
0,
0,
0,
0,
0,
0,
0,
0,
0,
0,
0,
0,
0,
0,
0,
0,
0,
0,
0,
0,
0,
0,
0,
0,
0,
0,
0,
0,
0,
0,
0,
0,
0,
0,
0,
0,
0,
0,
0,
0,
0,
0,
0,
0,
0,
0,
0,
0,
0,
0,
0,
0,
0,
0,
0,
0,
0,
0,
0,
0,
0,
0,
0,
0,
0,
0,
0,
0,
0,
0,
0,
0,
0,
0,
0,
0,
0,
0,
0,
0,
0,
0,
0,
0,
0,
0,
0,
0,
0,
0,
0,
0,
0,
0,
0,
0,
0,
0,
0,
0,
0,
0,
0,
0,
0,
0,
0,
0,
0,
0,
0,
0,
0,
0,
0,
0,
0,
0,
0,
0,
0,
0,
0,
0,
0,
0,
0,
0,
0,
0,
0,
0,
0,
0,
0,
0,
0,
0,
0,
0,
0,
0,
0,
0,
0,
0,
0,
0,
0,
0,
0,
0,
0,
0,
0,
0,
0,
0,
0,
0,
0,
0,
0,
0,
0,
0,
0,
0,
0,
0,
0,
0,
0,
0,
0,
0,
0,
0,
0,
0,
0,
0,
0,
0,
0,
0,
0,
0,
0,
0,
0,
0,
0,
0,
0,
0,
0,
0,
0,
0,
0,
0,
0,
0,
0,
0,
0,
0,
0,
0,
0,
0,
0,
0,
0,
0,
0,
0,
0,
0,
0,
0,
0,
0,
0,
0,
0,
0,
0,
0,
0,
0,
0,
0,
0,
0,
0,
0,
0,
0,
0,
0,
0,
0,
0,
0,
0,
0,
0,
0,
0,
0,
0,
0,
0,
0,
0,
0,
0,
0,
0,
0,
0,
0,
0,
0,
0,
0,
0,
0,
0,
0,
0,
0,
0,
0,
0,
0,
0,
0,
0,
0,
0,
0,
0,
0,
0,
0,
0,
0,
0,
0,
0,
0,
0,
0,
0,
0,
0,
0,
0,
0,
0,
0,
0,
0,
0,
0,
0,
0,
0,
0,
0,
0,
0,
0,
0,
0,
0,
0,
0,
0,
0,
0,
0,
0,
0,
0,
0,
0,
0,
0,
0,
0,
0,
0,
0,
0,
0,
0,
0,
0,
0,
0,
0,
0,
0,
0,
0,
0,
0,
0,
0,
0,
0,
0,
0,
0,
0,
0,
0,
0,
0,
0,
0,
0,
0,
0,
0,
0,
0,
0,
0,
0,
0,
0,
0,
0,
0,
0,
0,
0,
0,
0,
0,
0,
0,
0,
0,
0,
0,
0,
0,
0,
#ENDOFDATA   :