File: N132962/Quantification/15 keV/GMIIIA/GMIIIA K252[3][4].msa
#FORMAT      : EMSA/MAS Spectral Data File
#VERSION     : 1.0
#TITLE       : GMIIIA K252[3][all]
#DATE        : 22-SEP-2025
#TIME        : 14:51
#OWNER       : Unknown
#NPOINTS     : 4096
#NCOLUMNS    : 1
#XUNITS      : eV
#YUNITS      : counts
#DATATYPE    : Y
#XPERCHAN    : 9.99778
#OFFSET      : 1.69135
#BEAMKV      : 15
#SIGNALTYPE  : EDS
#ELEVANGLE   : 35
#AZIMANGLE   : 0
#LIVETIME    : 239.994
#REALTIME    : 257.131
#PROBECUR    : 1.21732
#TAUWIND     : 0
#TDEADLYR    : 0
#TACTLYR     : 0.045
#TALWIND     : 0.025
#CHOFFSET    : 0.0
#XLABEL      : Energy (eV)
#YLABEL      : Counts
#XPOSITION   : 4.70937
#YPOSITION   : 2.67439
#ZPOSITION   : 37.36299
#EDSDET      : SD
##SPECIMEN   : GMIIIA K252[3][all]
##D2STDCMP   : K252,(O:30.83),(Si:18.7),(Mn:3.16),(Co:3.93),(Cu:3.99),(Zn:8.03),(Ba:31.35)
##DET_HASH   : 12273538-fd48-a23f-0a19-f1e6fa85caef
##CALIB_HASH : 6abaa72c-aa41-8738-0be9-f592914732f3
##WORKING    : 15.0 mm
##DET_NAME   : EDAX All
##DET_MODE   : MediumLE
#SPECTRUM    :
22,
29,
11,
30,
149,
601,
1607,
3802,
7799,
9808,
7420,
6384,
7123,
8358,
12185,
34777,
118280,
218691,
160461,
50547,
17584,
12923,
10360,
8419,
9269,
14644,
18133,
13497,
8882,
9443,
14253,
19329,
21885,
29316,
33038,
22094,
10795,
6137,
5125,
4898,
4857,
4919,
5034,
5120,
5223,
5236,
5408,
5504,
5829,
6080,
6374,
6223,
6244,
6265,
6950,
13385,
43036,
104337,
139810,
99889,
42299,
16350,
8948,
6008,
4880,
4502,
4316,
4353,
4390,
4261,
4478,
4377,
4298,
4498,
4559,
4755,
4767,
4601,
4451,
4318,
4225,
4235,
4189,
4251,
4169,
4070,
4197,
4195,
4114,
4236,
4284,
4311,
4031,
4031,
3986,
3937,
4031,
3950,
3768,
3952,
3827,
3754,
3703,
3771,
3581,
3796,
3724,
3540,
3612,
3601,
3530,
3500,
3513,
3391,
3590,
3408,
3400,
3490,
3276,
3260,
3317,
3270,
3297,
3128,
3078,
3141,
3140,
3084,
3124,
3233,
3582,
3919,
4122,
3850,
3479,
3119,
3021,
2814,
2924,
2857,
2868,
2857,
2957,
3298,
3805,
5362,
9959,
18596,
28123,
31559,
26082,
16039,
8116,
4147,
2918,
2597,
2861,
3570,
5268,
9235,
13513,
15908,
14455,
11074,
7910,
5723,
4336,
3434,
3102,
3537,
4765,
6270,
6924,
6218,
4669,
3202,
2499,
2220,
2094,
2044,
2154,
2349,
2845,
3284,
3722,
3653,
3103,
2523,
2102,
1967,
2022,
2203,
2640,
3258,
4118,
5160,
5925,
5668,
4661,
3449,
2442,
1995,
1660,
1655,
1600,
1577,
1621,
1623,
1603,
1656,
1576,
1619,
1636,
1781,
1859,
2031,
2034,
1974,
1848,
1657,
1522,
1420,
1400,
1399,
1460,
1427,
1548,
1856,
2462,
3231,
4069,
4183,
3689,
2727,
2057,
1532,
1358,
1276,
1254,
1217,
1193,
1228,
1229,
1155,
1297,
1194,
1258,
1158,
1312,
1223,
1205,
1245,
1298,
1421,
1470,
1555,
1420,
1378,
1205,
1206,
1100,
1088,
1144,
1168,
1382,
1702,
2247,
2589,
2816,
2610,
2070,
1568,
1264,
1090,
1012,
1004,
929,
942,
914,
993,
931,
969,
1065,
1275,
1594,
2335,
3083,
3577,
3606,
2999,
2349,
1627,
1244,
1010,
941,
995,
1026,
1035,
989,
988,
903,
823,
750,
717,
707,
746,
785,
726,
691,
706,
721,
669,
711,
683,
731,
760,
836,
986,
972,
1075,
918,
893,
834,
716,
682,
619,
648,
631,
554,
607,
602,
600,
566,
581,
610,
523,
556,
570,
523,
603,
527,
520,
505,
533,
540,
512,
508,
513,
539,
477,
472,
467,
459,
494,
473,
436,
452,
437,
436,
455,
421,
467,
406,
440,
423,
391,
393,
386,
371,
381,
404,
358,
360,
348,
385,
355,
346,
371,
393,
347,
323,
333,
275,
342,
328,
312,
319,
308,
300,
289,
329,
300,
276,
265,
294,
285,
307,
263,
286,
256,
284,
274,
255,
264,
262,
269,
234,
260,
253,
212,
244,
207,
215,
222,
225,
211,
213,
213,
206,
189,
195,
200,
203,
181,
168,
166,
152,
189,
173,
175,
141,
157,
149,
183,
150,
145,
138,
150,
134,
143,
129,
125,
127,
138,
141,
123,
133,
121,
108,
130,
102,
92,
92,
95,
85,
83,
90,
82,
87,
85,
87,
77,
78,
73,
74,
83,
68,
65,
59,
68,
42,
59,
59,
52,
49,
49,
52,
44,
35,
41,
51,
31,
33,
31,
36,
36,
24,
21,
28,
21,
30,
16,
15,
13,
13,
10,
9,
3,
6,
3,
5,
3,
1,
3,
0,
0,
1,
2,
1,
3,
2,
0,
0,
2,
3,
1,
0,
0,
1,
1,
0,
1,
2,
1,
0,
1,
1,
2,
1,
1,
3,
0,
1,
0,
0,
2,
2,
0,
2,
2,
1,
0,
2,
0,
0,
2,
0,
0,
0,
2,
1,
1,
2,
0,
2,
0,
1,
1,
0,
1,
0,
1,
0,
1,
2,
0,
0,
3,
1,
0,
1,
0,
1,
1,
0,
0,
0,
0,
0,
1,
1,
0,
0,
0,
1,
1,
0,
0,
0,
1,
1,
0,
1,
1,
0,
0,
1,
0,
0,
0,
1,
1,
0,
0,
0,
1,
0,
0,
0,
1,
1,
2,
0,
0,
1,
0,
2,
1,
0,
0,
1,
0,
0,
0,
0,
0,
0,
0,
1,
0,
0,
0,
1,
0,
0,
0,
0,
0,
0,
0,
0,
0,
0,
0,
1,
0,
0,
0,
0,
0,
0,
0,
0,
1,
0,
0,
0,
0,
0,
0,
0,
0,
0,
0,
1,
0,
0,
0,
0,
0,
0,
0,
0,
0,
0,
0,
1,
0,
0,
0,
0,
0,
0,
0,
0,
0,
0,
0,
0,
0,
0,
0,
0,
0,
0,
0,
1,
0,
1,
0,
0,
0,
2,
0,
0,
0,
0,
0,
0,
0,
0,
0,
0,
0,
0,
0,
0,
0,
1,
0,
0,
0,
0,
0,
0,
0,
0,
0,
0,
0,
0,
0,
0,
0,
0,
0,
0,
0,
0,
0,
0,
0,
0,
0,
1,
0,
0,
0,
0,
0,
0,
0,
1,
0,
0,
0,
0,
0,
0,
0,
0,
0,
0,
0,
0,
0,
0,
0,
0,
0,
0,
0,
0,
0,
0,
0,
0,
0,
0,
0,
0,
0,
0,
0,
0,
0,
0,
0,
0,
0,
0,
0,
0,
1,
0,
0,
0,
0,
0,
0,
0,
0,
0,
0,
0,
0,
0,
0,
0,
0,
0,
0,
0,
0,
0,
0,
0,
0,
0,
0,
0,
0,
0,
0,
0,
0,
0,
0,
0,
0,
0,
0,
0,
0,
0,
0,
0,
0,
0,
0,
0,
0,
0,
0,
0,
0,
0,
0,
0,
0,
0,
0,
0,
0,
0,
0,
0,
0,
0,
0,
0,
0,
0,
0,
0,
0,
0,
0,
0,
0,
0,
0,
0,
0,
0,
0,
0,
0,
0,
0,
0,
0,
0,
0,
0,
0,
0,
0,
0,
0,
0,
0,
0,
0,
0,
0,
0,
0,
0,
0,
0,
0,
0,
0,
0,
0,
0,
0,
0,
0,
0,
0,
0,
0,
0,
0,
0,
0,
0,
0,
0,
0,
0,
0,
0,
0,
0,
0,
0,
0,
0,
0,
0,
0,
0,
0,
0,
0,
0,
0,
0,
0,
0,
0,
0,
0,
0,
0,
0,
0,
0,
0,
0,
0,
0,
0,
0,
0,
0,
0,
0,
0,
0,
0,
0,
0,
0,
0,
0,
0,
0,
0,
0,
0,
0,
0,
0,
0,
0,
0,
0,
0,
0,
0,
0,
0,
0,
0,
0,
0,
0,
0,
0,
0,
0,
0,
0,
0,
0,
0,
0,
0,
0,
0,
0,
0,
0,
0,
0,
0,
0,
0,
0,
0,
0,
0,
0,
0,
0,
0,
0,
0,
0,
0,
0,
0,
0,
0,
0,
0,
0,
0,
0,
0,
0,
0,
0,
0,
0,
0,
0,
0,
0,
0,
0,
0,
0,
0,
0,
0,
0,
0,
0,
0,
0,
0,
0,
0,
0,
0,
0,
0,
0,
0,
0,
0,
0,
0,
0,
0,
0,
0,
0,
0,
0,
0,
0,
0,
0,
0,
0,
0,
0,
0,
0,
0,
0,
0,
0,
0,
0,
0,
0,
0,
0,
0,
0,
0,
0,
0,
0,
0,
0,
0,
0,
0,
0,
0,
0,
0,
0,
0,
0,
0,
0,
0,
0,
0,
0,
0,
0,
0,
0,
0,
0,
0,
0,
0,
0,
0,
0,
0,
0,
0,
0,
0,
0,
0,
0,
0,
0,
0,
0,
0,
0,
0,
0,
0,
0,
0,
0,
0,
0,
0,
0,
0,
0,
0,
0,
0,
0,
0,
0,
0,
0,
0,
0,
0,
0,
0,
0,
0,
0,
0,
0,
0,
0,
0,
0,
0,
0,
0,
0,
0,
0,
0,
0,
0,
0,
0,
0,
0,
0,
0,
0,
0,
0,
0,
0,
0,
0,
0,
0,
0,
0,
0,
0,
0,
0,
0,
0,
0,
0,
0,
0,
0,
0,
0,
0,
0,
0,
0,
0,
0,
0,
0,
0,
0,
0,
0,
0,
0,
0,
0,
0,
0,
0,
0,
0,
0,
0,
0,
0,
0,
0,
0,
0,
0,
0,
0,
0,
0,
0,
0,
0,
0,
0,
0,
0,
0,
0,
0,
0,
0,
0,
0,
0,
0,
0,
0,
0,
0,
0,
0,
0,
0,
0,
0,
0,
0,
0,
0,
0,
0,
0,
0,
0,
0,
0,
0,
0,
0,
0,
0,
0,
0,
0,
0,
0,
0,
0,
0,
0,
0,
0,
0,
0,
0,
0,
0,
0,
0,
0,
0,
0,
0,
0,
0,
0,
0,
0,
0,
0,
0,
0,
0,
0,
0,
0,
0,
0,
0,
0,
0,
0,
0,
0,
0,
0,
0,
0,
0,
0,
0,
0,
0,
0,
0,
0,
0,
0,
0,
0,
0,
0,
0,
0,
0,
0,
0,
0,
0,
0,
0,
0,
0,
#ENDOFDATA   :