File: N132962/Quantification/15 keV/GMIIIA/GMIIIA K1132[7][4].msa
#FORMAT      : EMSA/MAS Spectral Data File
#VERSION     : 1.0
#TITLE       : GMIIIA K1132[7][all]
#DATE        : 22-SEP-2025
#TIME        : 22:30
#OWNER       : Unknown
#NPOINTS     : 4096
#NCOLUMNS    : 1
#XUNITS      : eV
#YUNITS      : counts
#DATATYPE    : Y
#XPERCHAN    : 9.99778
#OFFSET      : 1.69135
#BEAMKV      : 15
#SIGNALTYPE  : EDS
#ELEVANGLE   : 35
#AZIMANGLE   : 0
#LIVETIME    : 239.919
#REALTIME    : 255.3433
#PROBECUR    : 1.21595
#TAUWIND     : 0
#TDEADLYR    : 0
#TACTLYR     : 0.045
#TALWIND     : 0.025
#CHOFFSET    : 0.0
#XLABEL      : Energy (eV)
#YLABEL      : Counts
#XPOSITION   : 8.25779
#YPOSITION   : 17.43565
#ZPOSITION   : 37.36299
#EDSDET      : SD
##SPECIMEN   : GMIIIA K1132[7][all]
##D2STDCMP   : K1132,(Li:2.32),(O:41.34),(Al:7.94),(Si:21.39),(Ca:10.72),(Cr:0.51),(Ni:1.18),(Mo:1.67),(Ba:13.43)
##DET_HASH   : 12273538-fd48-a23f-0a19-f1e6fa85caef
##CALIB_HASH : 6abaa72c-aa41-8738-0be9-f592914732f3
##WORKING    : 15.0 mm
##DET_NAME   : EDAX All
##DET_MODE   : MediumLE
#SPECTRUM    :
31,
29,
15,
26,
109,
407,
1163,
2871,
6804,
9964,
8345,
6332,
5391,
5583,
8744,
28933,
104952,
198014,
144443,
40001,
7936,
4354,
4283,
4350,
4538,
5190,
5955,
6415,
7124,
6728,
5151,
4821,
5396,
5456,
5729,
5842,
5087,
4927,
4736,
4748,
4880,
5082,
5061,
5454,
5590,
5619,
6523,
12024,
32433,
61513,
62183,
34180,
13613,
7221,
6805,
13774,
48192,
120729,
163152,
116414,
48129,
17648,
8898,
5362,
4327,
3948,
3858,
3702,
3625,
3304,
3452,
3366,
3459,
3618,
4399,
5752,
6979,
6929,
5631,
4930,
4821,
4295,
3792,
3480,
3328,
3153,
3098,
3081,
3009,
2993,
2947,
2963,
2921,
2903,
2884,
2809,
2855,
2785,
2676,
2861,
2806,
2777,
2672,
2714,
2686,
2585,
2591,
2581,
2585,
2616,
2570,
2468,
2426,
2351,
2463,
2557,
2584,
2621,
2926,
3857,
7372,
16411,
29354,
36950,
31594,
18420,
8058,
3605,
2379,
2380,
2698,
3511,
4736,
6164,
6500,
5179,
3670,
2481,
2089,
1979,
1897,
1915,
1891,
1993,
2156,
2666,
4372,
7784,
11272,
12903,
10706,
6687,
3754,
2224,
1738,
1693,
1744,
2014,
2631,
4148,
5793,
6724,
6252,
4919,
3707,
2744,
2210,
1952,
1733,
1951,
2455,
2934,
3202,
3015,
2402,
1798,
1576,
1586,
1760,
1911,
2032,
2175,
2098,
2014,
2183,
1963,
1703,
1484,
1419,
1297,
1262,
1300,
1403,
1504,
1511,
1382,
1287,
1269,
1279,
1259,
1199,
1139,
1109,
1090,
1037,
1083,
1043,
992,
998,
1039,
1095,
1050,
1067,
1003,
1000,
996,
992,
930,
964,
980,
878,
902,
852,
851,
892,
862,
923,
861,
889,
841,
871,
861,
858,
821,
788,
834,
859,
842,
855,
808,
783,
772,
736,
819,
805,
848,
1000,
1199,
1386,
1466,
1303,
1191,
936,
773,
737,
733,
698,
677,
676,
664,
598,
669,
647,
651,
694,
651,
660,
644,
619,
650,
654,
648,
623,
671,
690,
710,
659,
651,
642,
581,
556,
522,
551,
524,
553,
486,
516,
524,
510,
515,
513,
524,
532,
526,
514,
494,
478,
494,
483,
483,
499,
433,
504,
466,
467,
479,
421,
431,
449,
440,
430,
419,
411,
434,
390,
418,
400,
399,
363,
376,
408,
396,
398,
404,
381,
339,
371,
396,
361,
353,
363,
375,
355,
361,
364,
363,
340,
322,
339,
342,
307,
305,
298,
314,
323,
278,
285,
299,
280,
308,
296,
303,
305,
271,
297,
309,
283,
294,
262,
261,
298,
255,
239,
277,
250,
240,
260,
229,
234,
213,
232,
224,
215,
238,
238,
239,
201,
203,
204,
219,
214,
179,
209,
195,
164,
178,
191,
205,
173,
172,
192,
183,
163,
193,
170,
162,
158,
165,
154,
128,
133,
149,
150,
173,
145,
132,
137,
134,
139,
133,
128,
120,
141,
143,
151,
109,
127,
100,
121,
108,
99,
113,
122,
111,
105,
70,
87,
89,
91,
86,
80,
105,
100,
85,
70,
85,
80,
66,
79,
69,
61,
87,
67,
71,
69,
78,
70,
71,
62,
55,
48,
50,
61,
42,
56,
57,
43,
56,
42,
44,
74,
50,
39,
47,
46,
37,
44,
27,
44,
24,
32,
30,
23,
21,
25,
24,
20,
28,
24,
21,
23,
23,
12,
18,
13,
17,
14,
16,
11,
15,
12,
13,
9,
12,
4,
6,
3,
4,
1,
1,
1,
1,
0,
0,
0,
0,
0,
0,
0,
1,
0,
0,
0,
1,
0,
0,
1,
0,
0,
0,
2,
0,
0,
1,
0,
0,
0,
1,
0,
0,
0,
1,
0,
1,
1,
1,
0,
0,
0,
0,
0,
0,
0,
0,
0,
0,
1,
1,
1,
0,
1,
0,
0,
1,
1,
0,
0,
0,
0,
0,
0,
0,
0,
0,
0,
0,
0,
0,
0,
0,
0,
0,
0,
0,
0,
0,
0,
0,
0,
0,
0,
0,
0,
0,
0,
0,
0,
0,
1,
0,
0,
0,
1,
0,
0,
0,
0,
0,
1,
0,
0,
0,
0,
0,
0,
1,
0,
1,
0,
0,
0,
0,
0,
0,
0,
0,
0,
0,
0,
0,
0,
0,
0,
0,
0,
0,
0,
0,
0,
0,
0,
0,
0,
0,
0,
0,
0,
0,
0,
0,
0,
0,
0,
0,
0,
0,
0,
0,
0,
0,
0,
0,
0,
0,
0,
0,
0,
0,
0,
0,
0,
0,
0,
0,
0,
0,
0,
0,
0,
0,
0,
0,
0,
0,
0,
0,
0,
0,
0,
0,
0,
0,
0,
0,
0,
0,
0,
0,
0,
0,
0,
0,
0,
0,
0,
0,
0,
0,
0,
0,
0,
0,
0,
1,
0,
0,
0,
1,
0,
0,
0,
0,
0,
0,
0,
0,
0,
0,
0,
0,
0,
0,
0,
1,
0,
0,
0,
0,
0,
0,
0,
0,
0,
0,
0,
0,
0,
0,
0,
0,
0,
0,
0,
0,
0,
0,
0,
0,
0,
0,
0,
0,
0,
0,
0,
0,
0,
0,
0,
0,
0,
0,
0,
0,
0,
0,
0,
0,
0,
0,
0,
0,
0,
0,
0,
0,
0,
0,
0,
0,
0,
0,
0,
0,
0,
0,
0,
0,
0,
0,
0,
0,
0,
0,
0,
0,
0,
0,
0,
0,
0,
0,
0,
0,
0,
0,
0,
0,
0,
0,
0,
0,
0,
0,
0,
0,
0,
0,
0,
0,
0,
0,
0,
0,
0,
0,
0,
0,
0,
0,
0,
0,
0,
0,
0,
0,
0,
0,
0,
0,
0,
0,
0,
0,
0,
0,
0,
0,
0,
0,
0,
0,
0,
0,
0,
0,
0,
0,
0,
0,
0,
0,
0,
0,
0,
0,
0,
0,
0,
0,
0,
0,
0,
0,
0,
0,
0,
0,
0,
0,
0,
0,
0,
0,
0,
0,
0,
0,
0,
0,
0,
0,
0,
0,
0,
0,
0,
0,
0,
0,
0,
0,
0,
0,
0,
0,
0,
0,
0,
0,
0,
0,
0,
0,
0,
0,
0,
0,
0,
0,
0,
0,
0,
0,
0,
0,
0,
0,
0,
0,
0,
0,
0,
0,
0,
0,
0,
0,
0,
0,
0,
0,
0,
0,
0,
0,
0,
0,
0,
0,
0,
0,
0,
0,
0,
0,
0,
0,
0,
0,
0,
0,
0,
0,
0,
0,
0,
0,
0,
0,
0,
0,
0,
0,
0,
0,
0,
0,
0,
0,
0,
0,
0,
0,
0,
0,
0,
0,
0,
0,
0,
0,
0,
0,
0,
0,
0,
0,
0,
0,
0,
0,
0,
0,
0,
0,
0,
0,
0,
0,
0,
0,
0,
0,
0,
0,
0,
0,
0,
0,
0,
0,
0,
0,
0,
0,
0,
0,
0,
0,
0,
0,
0,
0,
0,
0,
0,
0,
0,
0,
0,
0,
0,
0,
0,
0,
0,
0,
0,
0,
0,
0,
0,
0,
0,
0,
0,
0,
0,
0,
0,
0,
0,
0,
0,
0,
0,
0,
0,
0,
0,
0,
0,
0,
0,
0,
0,
0,
0,
0,
0,
0,
0,
0,
0,
0,
0,
0,
0,
0,
0,
0,
0,
0,
0,
0,
0,
0,
0,
0,
0,
0,
0,
0,
0,
0,
0,
0,
0,
0,
0,
0,
0,
0,
0,
0,
0,
0,
0,
0,
0,
0,
0,
0,
0,
0,
0,
0,
0,
0,
0,
0,
0,
0,
0,
0,
0,
0,
0,
0,
0,
0,
0,
0,
0,
0,
0,
0,
0,
0,
0,
0,
0,
0,
0,
0,
0,
0,
0,
0,
0,
0,
0,
0,
0,
0,
0,
0,
0,
0,
0,
0,
0,
0,
0,
0,
0,
0,
0,
0,
0,
0,
0,
0,
0,
0,
0,
0,
0,
0,
0,
0,
0,
0,
0,
0,
0,
0,
0,
0,
0,
0,
0,
0,
0,
0,
0,
0,
0,
0,
0,
0,
0,
0,
0,
0,
0,
0,
0,
0,
0,
0,
0,
0,
0,
0,
0,
0,
0,
0,
0,
0,
0,
0,
0,
0,
0,
0,
0,
0,
0,
0,
0,
0,
0,
0,
0,
0,
0,
0,
0,
0,
0,
0,
0,
0,
0,
0,
0,
0,
0,
0,
0,
0,
0,
0,
0,
0,
0,
0,
0,
0,
0,
0,
0,
0,
0,
0,
0,
0,
0,
0,
0,
0,
0,
0,
0,
0,
0,
0,
0,
0,
0,
0,
0,
0,
0,
0,
0,
0,
0,
0,
0,
0,
0,
0,
0,
0,
0,
0,
0,
0,
0,
0,
0,
0,
0,
0,
0,
0,
0,
0,
0,
0,
0,
0,
0,
0,
0,
0,
0,
0,
0,
0,
0,
0,
0,
0,
0,
0,
0,
0,
0,
0,
0,
0,
0,
0,
0,
0,
0,
0,
0,
0,
0,
0,
0,
0,
0,
0,
0,
0,
0,
0,
0,
0,
#ENDOFDATA   :