File: N132962/Quantification/15 keV/GMIIIA/GMIIIA K251[1][4].msa
#FORMAT      : EMSA/MAS Spectral Data File
#VERSION     : 1.0
#TITLE       : GMIIIA K251[1][all]
#DATE        : 22-SEP-2025
#TIME        : 14:57
#OWNER       : Unknown
#NPOINTS     : 4096
#NCOLUMNS    : 1
#XUNITS      : eV
#YUNITS      : counts
#DATATYPE    : Y
#XPERCHAN    : 9.99778
#OFFSET      : 1.69135
#BEAMKV      : 15
#SIGNALTYPE  : EDS
#ELEVANGLE   : 35
#AZIMANGLE   : 0
#LIVETIME    : 239.922
#REALTIME    : 259.12
#PROBECUR    : 1.21732
#TAUWIND     : 0
#TDEADLYR    : 0
#TACTLYR     : 0.045
#TALWIND     : 0.025
#CHOFFSET    : 0.0
#XLABEL      : Energy (eV)
#YLABEL      : Counts
#XPOSITION   : 7.08115
#YPOSITION   : 2.42165
#ZPOSITION   : 37.36299
#EDSDET      : SD
##SPECIMEN   : GMIIIA K251[1][all]
##D2STDCMP   : K251,(O:23.02),(Al:1.32),(Si:14.02),(Ba:8.96),(Ta:4.09),(Pb:44.1),(Bi:4.48)
##DET_HASH   : 12273538-fd48-a23f-0a19-f1e6fa85caef
##CALIB_HASH : 6abaa72c-aa41-8738-0be9-f592914732f3
##WORKING    : 15.0 mm
##DET_NAME   : EDAX All
##DET_MODE   : MediumLE
#SPECTRUM    :
26,
26,
13,
32,
207,
852,
2348,
5499,
10912,
13352,
9505,
7059,
6974,
7384,
9170,
19972,
60145,
108513,
79933,
26036,
10405,
7981,
7672,
7881,
7659,
7702,
8105,
7824,
7378,
7270,
6941,
7415,
7854,
8100,
8182,
8325,
8155,
7942,
7844,
7934,
8084,
8533,
8561,
9058,
9399,
9408,
9221,
10257,
14343,
19948,
20025,
14896,
10741,
9809,
10818,
18736,
50455,
109826,
143057,
103727,
49917,
24511,
15361,
10283,
8055,
7478,
7020,
6820,
6655,
6695,
6724,
7381,
7812,
8590,
9777,
13959,
28647,
58015,
85092,
83840,
71270,
66699,
56332,
35728,
18777,
11061,
8432,
8091,
8744,
8549,
7329,
5973,
5305,
4794,
4872,
4674,
4923,
4966,
4932,
4951,
5078,
5379,
5541,
5579,
5558,
5154,
4902,
4770,
4462,
4403,
4369,
4162,
4309,
4235,
4182,
4259,
4324,
4355,
4314,
4237,
4001,
4186,
4102,
4103,
4116,
4143,
3993,
4258,
4075,
3972,
4084,
4189,
4206,
4161,
3998,
3957,
3986,
3771,
3816,
3940,
3775,
3795,
3871,
3793,
4001,
4446,
5689,
8007,
10928,
11957,
10297,
7398,
5151,
4048,
3527,
3502,
3556,
3660,
4276,
5399,
6560,
7219,
6942,
5866,
4924,
4260,
3880,
3580,
3427,
3524,
4001,
4377,
4505,
4127,
3680,
3476,
3129,
2990,
2965,
2950,
3106,
3020,
3216,
3421,
3342,
3391,
3227,
3097,
2894,
2751,
2887,
2913,
2957,
3033,
2962,
2900,
2802,
2794,
2705,
2720,
2681,
2579,
2550,
2666,
2511,
2517,
2505,
2489,
2444,
2413,
2486,
2482,
2497,
2603,
2510,
2399,
2403,
2351,
2313,
2351,
2251,
2250,
2219,
2285,
2275,
2224,
2226,
2152,
2192,
2271,
2130,
2188,
2240,
2120,
2155,
2101,
2147,
2034,
2086,
2118,
2039,
1991,
1950,
2061,
1966,
2041,
1916,
1878,
1894,
2020,
1953,
1842,
1866,
1812,
1864,
1910,
1811,
1762,
1830,
1798,
1776,
1718,
1739,
1731,
1685,
1767,
1743,
1808,
1894,
2096,
2238,
2298,
2350,
2222,
1951,
1768,
1683,
1535,
1509,
1527,
1488,
1539,
1513,
1488,
1532,
1468,
1476,
1448,
1460,
1417,
1424,
1399,
1427,
1372,
1365,
1351,
1360,
1369,
1338,
1277,
1347,
1256,
1304,
1261,
1325,
1348,
1256,
1370,
1297,
1332,
1448,
1366,
1393,
1399,
1275,
1354,
1285,
1309,
1217,
1217,
1230,
1176,
1219,
1203,
1133,
1166,
1086,
1069,
1020,
1048,
1003,
997,
991,
1023,
974,
951,
989,
968,
964,
950,
946,
879,
937,
929,
988,
914,
979,
1151,
1306,
1406,
1634,
1655,
1749,
1556,
1303,
1053,
919,
876,
802,
832,
891,
874,
836,
750,
790,
738,
778,
713,
699,
676,
691,
719,
754,
675,
712,
644,
648,
630,
669,
661,
602,
620,
597,
592,
618,
597,
569,
551,
531,
574,
585,
527,
543,
519,
549,
516,
482,
518,
522,
473,
449,
501,
453,
478,
452,
421,
445,
436,
415,
424,
400,
424,
408,
427,
400,
407,
380,
450,
475,
504,
526,
483,
463,
412,
388,
367,
334,
336,
299,
319,
356,
375,
314,
319,
319,
303,
283,
299,
259,
273,
269,
262,
231,
193,
265,
233,
220,
206,
202,
219,
219,
202,
187,
182,
201,
176,
166,
179,
163,
189,
162,
160,
163,
153,
123,
123,
126,
113,
124,
130,
123,
123,
108,
93,
110,
80,
87,
85,
108,
81,
71,
80,
77,
60,
51,
55,
64,
63,
35,
39,
38,
42,
43,
25,
22,
25,
13,
16,
7,
11,
2,
3,
6,
6,
3,
2,
6,
3,
5,
1,
1,
3,
2,
6,
1,
2,
2,
3,
1,
3,
3,
3,
2,
1,
2,
2,
2,
0,
2,
1,
3,
1,
2,
2,
2,
1,
3,
0,
0,
4,
1,
0,
2,
1,
1,
0,
2,
1,
0,
2,
1,
0,
3,
4,
2,
0,
1,
1,
1,
3,
0,
0,
4,
0,
1,
0,
0,
0,
1,
2,
3,
2,
0,
2,
0,
7,
2,
0,
2,
4,
0,
3,
0,
0,
1,
2,
2,
1,
2,
2,
1,
0,
1,
4,
0,
0,
0,
3,
1,
0,
1,
1,
2,
1,
0,
0,
0,
1,
2,
3,
3,
0,
1,
0,
0,
1,
0,
0,
1,
0,
1,
0,
2,
0,
2,
0,
0,
0,
1,
2,
1,
0,
1,
0,
0,
0,
0,
1,
0,
1,
2,
0,
1,
0,
4,
0,
1,
0,
0,
1,
0,
2,
1,
0,
1,
0,
1,
0,
0,
2,
0,
0,
0,
0,
1,
2,
0,
0,
0,
0,
0,
0,
0,
0,
0,
1,
0,
0,
0,
0,
0,
0,
0,
0,
0,
3,
0,
2,
0,
0,
1,
0,
1,
0,
1,
0,
0,
0,
1,
0,
0,
0,
0,
0,
0,
0,
0,
0,
0,
0,
0,
1,
0,
1,
0,
0,
0,
0,
0,
0,
0,
0,
0,
1,
0,
0,
0,
0,
0,
0,
1,
0,
0,
0,
0,
0,
0,
0,
0,
0,
0,
0,
0,
0,
0,
0,
0,
0,
0,
2,
0,
1,
0,
0,
0,
0,
0,
0,
1,
2,
0,
0,
0,
0,
0,
0,
0,
0,
0,
1,
0,
0,
0,
0,
0,
0,
0,
0,
0,
0,
0,
0,
0,
0,
0,
0,
0,
0,
0,
0,
0,
1,
0,
0,
0,
0,
0,
0,
0,
0,
0,
0,
0,
0,
0,
0,
0,
0,
0,
0,
0,
0,
0,
0,
0,
0,
0,
0,
0,
0,
0,
1,
0,
0,
0,
0,
0,
0,
0,
0,
0,
0,
0,
0,
0,
0,
0,
0,
0,
0,
0,
0,
0,
0,
0,
0,
0,
0,
0,
0,
0,
0,
0,
0,
0,
0,
0,
0,
0,
0,
1,
0,
0,
0,
0,
0,
0,
0,
0,
0,
0,
0,
0,
0,
0,
0,
0,
0,
0,
0,
0,
0,
0,
0,
0,
0,
0,
0,
0,
0,
0,
0,
0,
0,
0,
0,
0,
0,
0,
0,
0,
0,
0,
0,
0,
0,
0,
0,
0,
0,
0,
0,
0,
0,
0,
0,
0,
0,
0,
0,
0,
0,
0,
0,
0,
0,
0,
0,
0,
0,
0,
0,
0,
0,
0,
0,
0,
0,
0,
0,
0,
0,
0,
0,
0,
0,
0,
0,
0,
0,
0,
0,
0,
0,
0,
0,
0,
0,
0,
0,
0,
0,
0,
0,
0,
0,
0,
0,
0,
0,
0,
0,
0,
0,
0,
0,
0,
0,
0,
0,
0,
0,
0,
0,
0,
0,
0,
0,
0,
0,
0,
0,
0,
0,
0,
0,
0,
0,
0,
0,
0,
0,
0,
0,
0,
0,
0,
0,
0,
0,
0,
0,
0,
0,
0,
0,
0,
0,
0,
0,
0,
0,
0,
0,
0,
0,
0,
0,
0,
0,
0,
0,
0,
0,
0,
0,
0,
0,
0,
0,
0,
0,
0,
0,
0,
0,
0,
0,
0,
0,
0,
0,
0,
0,
0,
0,
0,
0,
0,
0,
0,
0,
0,
0,
0,
0,
0,
0,
0,
0,
0,
0,
0,
0,
0,
0,
0,
0,
0,
0,
0,
0,
0,
0,
0,
0,
0,
0,
0,
0,
0,
0,
0,
0,
0,
0,
0,
0,
0,
0,
0,
0,
0,
0,
0,
0,
0,
0,
0,
0,
0,
0,
0,
0,
0,
0,
0,
0,
0,
0,
0,
0,
0,
0,
0,
0,
0,
0,
0,
0,
0,
0,
0,
0,
0,
0,
0,
0,
0,
0,
0,
0,
0,
0,
0,
0,
0,
0,
0,
0,
0,
0,
0,
0,
0,
0,
0,
0,
0,
0,
0,
0,
0,
0,
0,
0,
0,
0,
0,
0,
0,
0,
0,
0,
0,
0,
0,
0,
0,
0,
0,
0,
0,
0,
0,
0,
0,
0,
0,
0,
0,
0,
0,
0,
0,
0,
0,
0,
0,
0,
0,
0,
0,
0,
0,
0,
0,
0,
0,
0,
0,
0,
0,
0,
0,
0,
0,
0,
0,
0,
0,
0,
0,
0,
0,
0,
0,
0,
0,
0,
0,
0,
0,
0,
0,
0,
0,
0,
0,
0,
0,
0,
0,
0,
0,
0,
0,
0,
0,
0,
0,
0,
0,
0,
0,
0,
0,
0,
0,
0,
0,
0,
0,
0,
0,
0,
0,
0,
0,
0,
0,
0,
0,
0,
0,
0,
0,
0,
0,
0,
0,
0,
0,
0,
0,
0,
0,
0,
0,
0,
0,
0,
0,
0,
0,
0,
0,
0,
0,
0,
0,
0,
0,
0,
0,
0,
0,
0,
0,
0,
0,
0,
0,
0,
0,
0,
0,
0,
0,
0,
0,
0,
0,
0,
0,
0,
0,
0,
0,
0,
0,
0,
0,
0,
0,
0,
0,
0,
0,
0,
0,
0,
0,
0,
0,
0,
0,
0,
0,
0,
0,
0,
0,
0,
0,
0,
0,
0,
0,
0,
0,
0,
0,
0,
0,
0,
#ENDOFDATA   :