File: N132962/Quantification/15 keV/GMIIIA/GMIIIA K1053[0][4].msa
#FORMAT      : EMSA/MAS Spectral Data File
#VERSION     : 1.0
#TITLE       : GMIIIA K1053[0][all]
#DATE        : 22-SEP-2025
#TIME        : 21:10
#OWNER       : Unknown
#NPOINTS     : 4096
#NCOLUMNS    : 1
#XUNITS      : eV
#YUNITS      : counts
#DATATYPE    : Y
#XPERCHAN    : 9.99778
#OFFSET      : 1.69135
#BEAMKV      : 15
#SIGNALTYPE  : EDS
#ELEVANGLE   : 35
#AZIMANGLE   : 0
#LIVETIME    : 239.869
#REALTIME    : 260.976
#PROBECUR    : 1.21822
#TAUWIND     : 0
#TDEADLYR    : 0
#TACTLYR     : 0.045
#TALWIND     : 0.025
#CHOFFSET    : 0.0
#XLABEL      : Energy (eV)
#YLABEL      : Counts
#XPOSITION   : 4.54723
#YPOSITION   : 15.42561
#ZPOSITION   : 37.36299
#EDSDET      : SD
##SPECIMEN   : GMIIIA K1053[0][all]
##D2STDCMP   : K1053,(O:16.13),(F:0.39),(Si:9.35),(Cl:0.64),(Br:1.09),(I:1.37),(Pb:71.02)
##DET_HASH   : 12273538-fd48-a23f-0a19-f1e6fa85caef
##CALIB_HASH : 6abaa72c-aa41-8738-0be9-f592914732f3
##WORKING    : 15.0 mm
##DET_NAME   : EDAX All
##DET_MODE   : MediumLE
#SPECTRUM    :
26,
36,
13,
50,
299,
1215,
3184,
6835,
12918,
15579,
10753,
7848,
7332,
7492,
8429,
15545,
40997,
71490,
52709,
19568,
10474,
9796,
10523,
10739,
9038,
7710,
7452,
7813,
8046,
8184,
8289,
8510,
8633,
8928,
8989,
9114,
9062,
9126,
9234,
9621,
9604,
9760,
10046,
10185,
10271,
10426,
10498,
11128,
12955,
15422,
15657,
13915,
12064,
11124,
11110,
15166,
34314,
74384,
97873,
75345,
41458,
26801,
18918,
12526,
9632,
8646,
8474,
8386,
8354,
8307,
8572,
9474,
10497,
11520,
13767,
21167,
47838,
100355,
147434,
141925,
112030,
102342,
86723,
52209,
22444,
10602,
9811,
12321,
13861,
12785,
9145,
6609,
5651,
5307,
5438,
5477,
5601,
5630,
5518,
5746,
5969,
6268,
6765,
6854,
6522,
6188,
5535,
5240,
5166,
4871,
4841,
4856,
4853,
4839,
4856,
4804,
4893,
4983,
4785,
4922,
4783,
4609,
4602,
4704,
4782,
4650,
4660,
4717,
4859,
5104,
5635,
5906,
5786,
5215,
4726,
4563,
4516,
4475,
4747,
4835,
4976,
5083,
4918,
4678,
4514,
4357,
4296,
4349,
4410,
4401,
4776,
4684,
4439,
4245,
4095,
4187,
4068,
4248,
4313,
4297,
4258,
4154,
4091,
4084,
4083,
3961,
3963,
3830,
3897,
3777,
3860,
3824,
3814,
3746,
3613,
3659,
3751,
3552,
3503,
3581,
3654,
3620,
3451,
3578,
3477,
3490,
3508,
3438,
3397,
3375,
3296,
3433,
3265,
3308,
3206,
3345,
3218,
3173,
3312,
3181,
3228,
3146,
3077,
3153,
3152,
3107,
3086,
3201,
3028,
2998,
3050,
3023,
3165,
3135,
3032,
2996,
2989,
2934,
2861,
2864,
2825,
2769,
2828,
2800,
2695,
2728,
2811,
2716,
2688,
2641,
2686,
2615,
2651,
2557,
2538,
2616,
2542,
2530,
2627,
2549,
2430,
2518,
2484,
2548,
2365,
2363,
2453,
2361,
2412,
2359,
2307,
2296,
2235,
2242,
2366,
2255,
2191,
2142,
2207,
2199,
2198,
2214,
2109,
2145,
2152,
2110,
2134,
2161,
2046,
2022,
2062,
2028,
2119,
1997,
1982,
1980,
1922,
1965,
1852,
1933,
1921,
1888,
1898,
1829,
1838,
1904,
1886,
1770,
1775,
1795,
1800,
1819,
1867,
1790,
1770,
1719,
1738,
1681,
1662,
1676,
1692,
1681,
1620,
1633,
1610,
1627,
1699,
1667,
1637,
1546,
1562,
1533,
1519,
1453,
1511,
1545,
1380,
1475,
1441,
1450,
1390,
1480,
1406,
1391,
1374,
1317,
1310,
1343,
1310,
1305,
1358,
1347,
1191,
1263,
1244,
1210,
1252,
1148,
1213,
1201,
1234,
1157,
1243,
1202,
1221,
1271,
1407,
1623,
1787,
2186,
2437,
2550,
2477,
2194,
1891,
1598,
1312,
1208,
1105,
1074,
1005,
955,
962,
938,
988,
960,
956,
947,
888,
884,
916,
884,
912,
857,
860,
828,
861,
816,
809,
859,
768,
801,
753,
802,
755,
746,
741,
754,
773,
708,
734,
643,
699,
690,
674,
698,
747,
726,
693,
643,
636,
601,
606,
662,
592,
638,
607,
637,
587,
566,
618,
588,
582,
541,
529,
550,
599,
630,
703,
701,
744,
694,
659,
603,
573,
494,
469,
477,
436,
438,
420,
406,
408,
442,
419,
372,
403,
346,
354,
386,
342,
309,
292,
325,
304,
286,
298,
268,
308,
241,
260,
266,
250,
244,
245,
241,
230,
228,
214,
210,
203,
232,
208,
183,
216,
188,
184,
173,
162,
179,
155,
134,
141,
135,
146,
122,
111,
123,
126,
99,
120,
115,
96,
95,
77,
69,
74,
64,
76,
71,
61,
43,
35,
47,
40,
38,
22,
31,
11,
12,
13,
7,
6,
6,
6,
1,
3,
5,
5,
3,
4,
4,
3,
6,
5,
4,
1,
1,
4,
3,
7,
4,
2,
3,
3,
4,
5,
4,
4,
7,
2,
0,
4,
3,
4,
3,
1,
6,
0,
2,
1,
3,
0,
3,
2,
3,
2,
2,
2,
0,
0,
0,
4,
1,
0,
2,
1,
2,
3,
2,
0,
1,
2,
1,
3,
2,
1,
4,
2,
2,
3,
0,
2,
0,
2,
1,
0,
1,
0,
2,
2,
1,
2,
2,
3,
1,
1,
1,
1,
0,
1,
1,
2,
3,
6,
2,
1,
1,
2,
0,
0,
2,
3,
0,
2,
1,
3,
1,
0,
2,
1,
1,
1,
1,
1,
0,
0,
1,
0,
1,
0,
0,
0,
0,
2,
1,
0,
1,
0,
0,
0,
2,
0,
2,
1,
1,
0,
2,
1,
0,
0,
0,
0,
0,
1,
2,
1,
0,
2,
0,
0,
0,
0,
0,
1,
1,
3,
0,
0,
0,
0,
1,
1,
0,
2,
0,
0,
0,
1,
1,
1,
0,
1,
0,
0,
1,
0,
0,
0,
0,
1,
0,
1,
0,
0,
2,
0,
0,
1,
0,
1,
0,
1,
1,
1,
0,
1,
0,
0,
1,
1,
0,
0,
0,
0,
0,
0,
1,
0,
0,
1,
0,
0,
0,
0,
0,
1,
0,
1,
0,
0,
1,
1,
1,
0,
1,
0,
0,
2,
0,
2,
0,
1,
0,
0,
0,
0,
0,
0,
0,
0,
0,
0,
1,
0,
0,
0,
2,
1,
0,
0,
0,
0,
0,
0,
0,
1,
1,
1,
0,
2,
0,
0,
0,
0,
0,
0,
0,
0,
0,
0,
0,
0,
0,
0,
0,
0,
0,
0,
0,
0,
0,
0,
0,
1,
0,
0,
1,
0,
0,
1,
0,
0,
0,
0,
0,
0,
0,
0,
0,
0,
1,
0,
1,
0,
0,
0,
0,
0,
0,
0,
0,
0,
1,
0,
0,
0,
0,
0,
0,
0,
0,
0,
0,
0,
0,
0,
0,
0,
0,
0,
0,
0,
1,
0,
0,
0,
0,
0,
0,
0,
0,
0,
0,
0,
0,
0,
0,
0,
0,
0,
0,
0,
0,
0,
0,
0,
0,
1,
0,
0,
0,
0,
0,
0,
0,
0,
0,
0,
0,
0,
0,
0,
0,
0,
0,
0,
0,
0,
0,
1,
0,
0,
1,
0,
0,
0,
0,
0,
0,
1,
0,
0,
0,
0,
0,
0,
0,
0,
0,
0,
0,
0,
0,
0,
0,
0,
0,
0,
0,
0,
0,
0,
0,
0,
0,
0,
0,
0,
0,
0,
0,
0,
0,
0,
0,
0,
0,
0,
0,
0,
0,
0,
0,
0,
0,
0,
0,
0,
0,
0,
0,
0,
0,
0,
0,
0,
0,
0,
0,
0,
0,
0,
0,
0,
0,
0,
0,
0,
0,
0,
0,
0,
0,
0,
0,
0,
0,
0,
0,
0,
0,
0,
0,
0,
0,
0,
0,
0,
0,
0,
0,
0,
0,
0,
0,
0,
0,
0,
0,
0,
0,
0,
0,
0,
0,
0,
0,
0,
0,
0,
0,
0,
0,
0,
0,
0,
0,
0,
0,
0,
0,
0,
0,
0,
0,
0,
0,
0,
0,
0,
0,
0,
0,
0,
0,
0,
0,
0,
0,
0,
0,
0,
0,
0,
0,
0,
0,
0,
0,
0,
0,
0,
0,
0,
0,
0,
0,
0,
0,
0,
0,
0,
0,
0,
0,
0,
0,
0,
0,
0,
0,
0,
0,
0,
0,
0,
0,
0,
0,
0,
0,
0,
0,
0,
0,
0,
0,
0,
0,
0,
0,
0,
0,
0,
0,
0,
0,
0,
0,
0,
0,
0,
0,
0,
0,
0,
0,
0,
0,
0,
0,
0,
0,
0,
0,
0,
0,
0,
0,
0,
0,
0,
0,
0,
0,
0,
0,
0,
0,
0,
0,
0,
0,
0,
0,
0,
0,
0,
0,
0,
0,
0,
0,
0,
0,
0,
0,
0,
0,
0,
0,
0,
0,
0,
0,
0,
0,
0,
0,
0,
0,
0,
0,
0,
0,
0,
0,
0,
0,
0,
0,
0,
0,
0,
0,
0,
0,
0,
0,
0,
0,
0,
0,
0,
0,
0,
0,
0,
0,
0,
0,
0,
0,
0,
0,
0,
0,
0,
0,
0,
0,
0,
0,
0,
0,
0,
0,
0,
0,
0,
0,
0,
0,
0,
0,
0,
0,
0,
0,
0,
0,
0,
0,
0,
0,
0,
0,
0,
0,
0,
0,
0,
0,
0,
0,
0,
0,
0,
0,
0,
0,
0,
0,
0,
0,
0,
0,
0,
0,
0,
0,
0,
0,
0,
0,
0,
0,
0,
0,
0,
0,
0,
0,
0,
0,
0,
0,
0,
0,
0,
0,
0,
0,
0,
0,
0,
0,
0,
0,
0,
0,
0,
0,
0,
0,
0,
0,
0,
0,
0,
0,
0,
0,
0,
0,
0,
0,
0,
0,
0,
0,
0,
0,
0,
0,
0,
0,
0,
0,
0,
0,
0,
0,
0,
0,
0,
0,
0,
0,
0,
0,
0,
0,
0,
0,
0,
0,
0,
0,
0,
0,
0,
0,
0,
0,
0,
0,
0,
0,
0,
0,
0,
0,
0,
0,
0,
0,
0,
0,
0,
0,
0,
0,
0,
0,
0,
0,
0,
0,
0,
0,
0,
0,
0,
0,
0,
0,
0,
0,
0,
0,
0,
0,
0,
0,
#ENDOFDATA   :