File: N132962/Quantification/15 keV/GMIIIA/GMIIIA K1010[5][4].msa
#FORMAT      : EMSA/MAS Spectral Data File
#VERSION     : 1.0
#TITLE       : GMIIIA K1010[5][all]
#DATE        : 22-SEP-2025
#TIME        : 21:37
#OWNER       : Unknown
#NPOINTS     : 4096
#NCOLUMNS    : 1
#XUNITS      : eV
#YUNITS      : counts
#DATATYPE    : Y
#XPERCHAN    : 9.99778
#OFFSET      : 1.69135
#BEAMKV      : 15
#SIGNALTYPE  : EDS
#ELEVANGLE   : 35
#AZIMANGLE   : 0
#LIVETIME    : 240.002
#REALTIME    : 256.228
#PROBECUR    : 1.21615
#TAUWIND     : 0
#TDEADLYR    : 0
#TACTLYR     : 0.045
#TALWIND     : 0.025
#CHOFFSET    : 0.0
#XLABEL      : Energy (eV)
#YLABEL      : Counts
#XPOSITION   : 8.97793
#YPOSITION   : 15.46424
#ZPOSITION   : 37.36299
#EDSDET      : SD
##SPECIMEN   : GMIIIA K1010[5][all]
##D2STDCMP   : K1010,(O:38.96),(Al:8.92),(Si:21.02),(K:1.87),(Ca:6.75),(Ge:1.56),(Rb:2.06),(Sr:10.05),(Te:0.9),(Cs:2.12),(La:1.92),(Eu:1.94),(Gd:1.95)
##DET_HASH   : 12273538-fd48-a23f-0a19-f1e6fa85caef
##CALIB_HASH : 6abaa72c-aa41-8738-0be9-f592914732f3
##WORKING    : 15.0 mm
##DET_NAME   : EDAX All
##DET_MODE   : MediumLE
#SPECTRUM    :
36,
31,
21,
20,
106,
413,
1174,
2818,
6437,
8587,
6387,
4803,
4520,
5123,
7949,
24829,
90111,
170113,
124635,
33691,
5974,
3774,
4142,
4157,
4078,
4197,
4393,
4996,
5538,
5718,
5849,
5616,
5531,
5793,
6465,
6762,
6852,
8367,
10982,
14577,
15279,
11815,
7873,
6506,
6362,
6602,
7729,
13926,
38402,
74325,
75398,
41211,
17032,
9865,
9329,
18487,
56598,
133088,
182036,
144084,
84850,
49367,
29131,
16911,
9388,
6174,
4702,
3866,
3391,
3261,
3220,
3179,
3279,
3455,
3613,
3576,
3572,
3473,
3393,
3163,
3079,
3115,
3130,
3018,
2962,
2944,
3101,
3010,
3023,
2923,
2886,
2890,
3003,
2706,
2929,
2851,
2848,
2755,
2758,
2881,
2870,
2753,
2655,
2779,
2773,
2803,
2940,
3348,
4452,
6783,
9117,
9046,
6740,
4184,
2980,
2744,
2757,
2920,
3274,
4267,
6405,
12010,
19780,
24723,
21042,
13033,
6516,
3651,
2625,
2465,
2470,
2787,
3623,
4590,
5069,
4323,
3340,
2608,
2248,
2179,
2338,
3116,
3673,
3850,
3569,
2750,
2235,
1893,
1906,
1909,
1933,
2138,
2549,
3127,
3788,
3928,
3312,
2768,
2192,
1919,
1838,
1729,
1753,
1839,
1925,
2007,
2107,
2159,
2242,
2150,
2018,
1830,
1703,
1624,
1632,
1608,
1567,
1651,
1629,
1712,
1621,
1588,
1556,
1427,
1482,
1383,
1368,
1328,
1361,
1335,
1413,
1437,
1762,
2045,
2203,
2328,
2085,
1724,
1538,
1598,
1778,
2014,
1933,
1870,
1623,
1420,
1169,
1162,
1137,
1158,
1154,
1189,
1277,
1394,
1415,
1422,
1368,
1294,
1193,
1118,
1220,
1174,
1254,
1371,
1338,
1291,
1352,
1243,
1215,
1180,
1053,
1109,
969,
972,
976,
1005,
1019,
1025,
963,
965,
877,
884,
868,
818,
807,
855,
825,
839,
863,
850,
832,
847,
831,
735,
769,
823,
773,
819,
860,
839,
788,
773,
749,
672,
698,
691,
664,
682,
677,
680,
684,
681,
655,
663,
622,
672,
621,
598,
611,
617,
606,
536,
567,
590,
560,
579,
569,
559,
573,
540,
555,
539,
520,
566,
531,
512,
503,
553,
554,
506,
529,
505,
467,
511,
443,
471,
487,
452,
495,
466,
441,
500,
488,
463,
440,
412,
477,
464,
419,
437,
426,
421,
451,
448,
447,
459,
535,
605,
582,
609,
578,
506,
474,
410,
386,
380,
377,
363,
373,
343,
355,
347,
348,
315,
270,
278,
292,
297,
338,
321,
295,
284,
317,
305,
269,
276,
288,
267,
330,
290,
269,
300,
268,
251,
283,
272,
307,
283,
264,
267,
248,
213,
213,
237,
245,
253,
237,
231,
210,
213,
217,
198,
215,
224,
203,
210,
200,
182,
195,
182,
203,
190,
172,
207,
177,
187,
171,
195,
175,
171,
176,
170,
147,
172,
153,
166,
154,
153,
152,
149,
131,
122,
150,
141,
125,
108,
135,
102,
139,
125,
129,
104,
108,
118,
121,
113,
102,
116,
90,
91,
96,
107,
105,
104,
87,
87,
93,
74,
86,
85,
86,
72,
74,
71,
70,
65,
62,
68,
61,
62,
72,
61,
65,
47,
59,
38,
61,
53,
40,
52,
44,
57,
39,
45,
48,
38,
32,
38,
36,
41,
33,
30,
26,
27,
26,
28,
24,
22,
22,
25,
21,
25,
26,
17,
13,
22,
13,
14,
15,
12,
15,
8,
9,
12,
7,
7,
1,
0,
2,
1,
0,
4,
0,
2,
1,
3,
0,
1,
0,
2,
1,
0,
1,
1,
0,
0,
0,
0,
1,
1,
0,
0,
1,
1,
1,
0,
1,
0,
1,
0,
0,
1,
1,
0,
0,
0,
0,
0,
1,
0,
0,
0,
0,
0,
0,
0,
0,
0,
1,
1,
0,
0,
0,
1,
0,
0,
0,
0,
1,
0,
1,
0,
0,
0,
0,
1,
1,
1,
0,
0,
0,
0,
0,
0,
0,
2,
0,
1,
0,
0,
1,
0,
0,
0,
1,
0,
0,
0,
0,
0,
0,
0,
0,
0,
0,
1,
0,
0,
0,
1,
0,
0,
0,
0,
0,
0,
0,
0,
0,
0,
0,
0,
1,
0,
0,
0,
0,
0,
0,
0,
0,
0,
0,
0,
0,
0,
0,
0,
0,
0,
0,
0,
0,
0,
0,
0,
0,
0,
0,
0,
0,
0,
0,
0,
0,
0,
0,
0,
0,
0,
0,
0,
0,
0,
0,
0,
0,
0,
0,
0,
0,
0,
0,
0,
0,
0,
0,
0,
0,
0,
0,
0,
0,
0,
0,
0,
0,
1,
0,
0,
0,
0,
0,
0,
0,
0,
0,
0,
0,
0,
0,
0,
0,
0,
0,
0,
0,
0,
0,
0,
0,
0,
0,
0,
0,
0,
0,
0,
0,
0,
0,
0,
0,
0,
0,
0,
0,
0,
0,
1,
0,
0,
0,
0,
0,
0,
0,
0,
0,
0,
0,
0,
0,
0,
0,
0,
1,
0,
0,
0,
0,
0,
0,
0,
0,
0,
0,
0,
0,
0,
0,
0,
0,
0,
0,
0,
0,
0,
0,
0,
0,
0,
0,
0,
0,
0,
0,
0,
0,
0,
0,
0,
0,
0,
0,
0,
0,
0,
0,
0,
0,
0,
0,
0,
0,
0,
0,
0,
0,
0,
0,
0,
0,
0,
0,
0,
0,
0,
0,
0,
0,
0,
0,
0,
0,
0,
0,
0,
0,
0,
0,
0,
0,
0,
0,
0,
0,
0,
0,
0,
0,
0,
0,
0,
0,
0,
0,
0,
0,
0,
0,
0,
0,
0,
0,
0,
0,
0,
0,
0,
0,
0,
0,
0,
0,
0,
0,
0,
0,
0,
0,
0,
0,
0,
0,
0,
0,
0,
0,
0,
0,
0,
0,
0,
0,
0,
0,
0,
0,
0,
0,
0,
0,
0,
0,
0,
0,
0,
0,
0,
0,
0,
0,
0,
0,
0,
0,
0,
0,
0,
0,
0,
0,
0,
0,
0,
0,
0,
0,
0,
0,
0,
0,
0,
0,
0,
0,
0,
0,
0,
0,
0,
0,
0,
0,
0,
0,
0,
0,
0,
0,
0,
0,
0,
0,
0,
0,
0,
0,
0,
0,
0,
0,
0,
0,
0,
0,
0,
0,
0,
0,
0,
0,
0,
0,
0,
0,
0,
0,
0,
0,
0,
0,
0,
0,
0,
0,
0,
0,
0,
0,
0,
0,
0,
0,
0,
0,
0,
0,
0,
0,
0,
0,
0,
0,
0,
0,
0,
0,
0,
0,
0,
0,
0,
0,
0,
0,
0,
0,
0,
0,
0,
0,
0,
0,
0,
0,
0,
0,
0,
0,
0,
0,
0,
0,
0,
0,
0,
0,
0,
0,
0,
0,
0,
0,
0,
0,
0,
0,
0,
0,
0,
0,
0,
0,
0,
0,
0,
0,
0,
0,
0,
0,
0,
0,
0,
0,
0,
0,
0,
0,
0,
0,
0,
0,
0,
0,
0,
0,
0,
0,
0,
0,
0,
0,
0,
0,
0,
0,
0,
0,
0,
0,
0,
0,
0,
0,
0,
0,
0,
0,
0,
0,
0,
0,
0,
0,
0,
0,
0,
0,
0,
0,
0,
0,
0,
0,
0,
0,
0,
0,
0,
0,
0,
0,
0,
0,
0,
0,
0,
0,
0,
0,
0,
0,
0,
0,
0,
0,
0,
0,
0,
0,
0,
0,
0,
0,
0,
0,
0,
0,
0,
0,
0,
0,
0,
0,
0,
0,
0,
0,
0,
0,
0,
0,
0,
0,
0,
0,
0,
0,
0,
0,
0,
0,
0,
0,
0,
0,
0,
0,
0,
0,
0,
0,
0,
0,
0,
0,
0,
0,
0,
0,
0,
0,
0,
0,
0,
0,
0,
0,
0,
0,
0,
0,
0,
0,
0,
0,
0,
0,
0,
0,
0,
0,
0,
0,
0,
0,
0,
0,
0,
0,
0,
0,
0,
0,
0,
0,
0,
0,
0,
0,
0,
0,
0,
0,
0,
0,
0,
0,
0,
0,
0,
0,
0,
0,
0,
0,
0,
0,
0,
0,
0,
0,
0,
0,
0,
0,
0,
0,
0,
0,
0,
0,
0,
0,
0,
0,
0,
0,
0,
0,
0,
0,
0,
0,
0,
0,
0,
0,
0,
0,
0,
0,
0,
0,
0,
0,
0,
0,
0,
0,
0,
0,
0,
0,
0,
0,
0,
0,
0,
0,
0,
0,
0,
0,
0,
0,
0,
0,
0,
0,
0,
0,
0,
0,
0,
0,
0,
0,
0,
0,
0,
0,
0,
0,
0,
0,
0,
0,
0,
0,
0,
0,
0,
0,
0,
0,
0,
0,
0,
0,
0,
0,
0,
0,
0,
0,
0,
0,
0,
0,
0,
0,
0,
0,
0,
0,
0,
0,
0,
0,
0,
0,
0,
0,
0,
0,
0,
0,
0,
0,
0,
0,
0,
0,
0,
0,
0,
0,
0,
0,
0,
0,
0,
0,
0,
0,
0,
0,
0,
0,
0,
0,
0,
#ENDOFDATA   :