File: N132962/Quantification/15 keV/GMIIIA/GMIIIA K240[5][4].msa
#FORMAT      : EMSA/MAS Spectral Data File
#VERSION     : 1.0
#TITLE       : GMIIIA K240[5][all]
#DATE        : 22-SEP-2025
#TIME        : 15:18
#OWNER       : Unknown
#NPOINTS     : 4096
#NCOLUMNS    : 1
#XUNITS      : eV
#YUNITS      : counts
#DATATYPE    : Y
#XPERCHAN    : 9.99778
#OFFSET      : 1.69135
#BEAMKV      : 15
#SIGNALTYPE  : EDS
#ELEVANGLE   : 35
#AZIMANGLE   : 0
#LIVETIME    : 239.971
#REALTIME    : 256.043
#PROBECUR    : 1.21681
#TAUWIND     : 0
#TDEADLYR    : 0
#TACTLYR     : 0.045
#TALWIND     : 0.025
#CHOFFSET    : 0.0
#XLABEL      : Energy (eV)
#YLABEL      : Counts
#XPOSITION   : 11.34763
#YPOSITION   : 1.7116
#ZPOSITION   : 37.36299
#EDSDET      : SD
##SPECIMEN   : GMIIIA K240[5][all]
##D2STDCMP   : K240,(O:34.0),(Mg:3.02),(Si:18.7),(Ti:6.0),(Zn:4.02),(Zr:7.4),(Ba:26.87)
##DET_HASH   : 12273538-fd48-a23f-0a19-f1e6fa85caef
##CALIB_HASH : 6abaa72c-aa41-8738-0be9-f592914732f3
##WORKING    : 15.0 mm
##DET_NAME   : EDAX All
##DET_MODE   : MediumLE
#SPECTRUM    :
24,
33,
7,
30,
176,
601,
1631,
3777,
7760,
10109,
7488,
6627,
8459,
10685,
13720,
31165,
97872,
180020,
132477,
39341,
11209,
6462,
5056,
5089,
5742,
7413,
8486,
7293,
6137,
5940,
5988,
6755,
10456,
17007,
20015,
14624,
8540,
6041,
5650,
6437,
10567,
19769,
23148,
15283,
8144,
5866,
5574,
5690,
5838,
6042,
6201,
6350,
6288,
6423,
7477,
14278,
44154,
106742,
144911,
103832,
44635,
17589,
9583,
6315,
5454,
6092,
9922,
16256,
20931,
19352,
15250,
12523,
9879,
7239,
5958,
5197,
4845,
4311,
4148,
3982,
3927,
3961,
3917,
3926,
4008,
3986,
3851,
3913,
3816,
3720,
3920,
3979,
3807,
3801,
3613,
3543,
3526,
3578,
3604,
3564,
3479,
3417,
3482,
3474,
3336,
3396,
3308,
3299,
3237,
3310,
3220,
3353,
3147,
3211,
3194,
3187,
3200,
3161,
2985,
3214,
2946,
2979,
3034,
2984,
2994,
2981,
2862,
2857,
2980,
2931,
3160,
3448,
3599,
3449,
3201,
2952,
2692,
2532,
2586,
2677,
2557,
2608,
2728,
2897,
3422,
4958,
8859,
17483,
28762,
36367,
35202,
26016,
15014,
7530,
3833,
2761,
2608,
3193,
4597,
7631,
11554,
13682,
13054,
10685,
8380,
6535,
4925,
3644,
3039,
3287,
4112,
5206,
5871,
5181,
3934,
2785,
2193,
1939,
1938,
1836,
1993,
2091,
2477,
2875,
3149,
3135,
2680,
2266,
1893,
1816,
1802,
1862,
2132,
2284,
2078,
2063,
1864,
1655,
1725,
1549,
1558,
1547,
1476,
1455,
1491,
1412,
1416,
1436,
1406,
1442,
1449,
1413,
1488,
1444,
1442,
1348,
1355,
1325,
1300,
1340,
1318,
1354,
1358,
1305,
1220,
1230,
1245,
1202,
1260,
1188,
1216,
1193,
1199,
1210,
1220,
1176,
1178,
1196,
1146,
1120,
1112,
1130,
1112,
1128,
1112,
1075,
1093,
1109,
1144,
1091,
1042,
1023,
1003,
980,
991,
1003,
1010,
988,
980,
960,
948,
965,
977,
970,
901,
966,
952,
896,
977,
898,
909,
923,
847,
902,
941,
915,
864,
905,
824,
862,
850,
816,
875,
926,
1192,
1441,
1805,
2034,
2081,
1883,
1478,
1173,
916,
803,
724,
714,
768,
679,
680,
695,
716,
687,
683,
674,
662,
637,
641,
629,
633,
665,
649,
666,
625,
659,
632,
639,
669,
740,
759,
762,
740,
715,
669,
635,
581,
539,
550,
532,
535,
551,
544,
494,
507,
496,
499,
484,
535,
518,
485,
477,
477,
490,
494,
524,
503,
498,
454,
460,
428,
442,
442,
430,
419,
426,
399,
421,
426,
383,
400,
429,
446,
375,
356,
398,
378,
354,
318,
373,
371,
341,
350,
328,
322,
344,
324,
321,
323,
331,
336,
311,
294,
277,
280,
295,
312,
293,
248,
276,
323,
257,
273,
255,
251,
241,
267,
276,
249,
251,
243,
261,
212,
226,
270,
209,
206,
223,
224,
219,
235,
215,
220,
201,
225,
192,
198,
185,
151,
192,
192,
152,
160,
166,
173,
154,
165,
154,
149,
162,
153,
142,
157,
165,
148,
132,
165,
119,
135,
129,
112,
121,
121,
110,
117,
130,
103,
76,
95,
112,
91,
93,
92,
92,
95,
85,
77,
80,
82,
86,
81,
92,
71,
64,
61,
66,
65,
78,
61,
59,
56,
51,
48,
47,
54,
55,
46,
38,
33,
36,
40,
33,
28,
34,
31,
21,
20,
30,
26,
24,
15,
13,
15,
16,
9,
13,
14,
9,
12,
4,
4,
1,
2,
0,
1,
2,
1,
2,
0,
4,
4,
0,
1,
1,
0,
1,
2,
1,
0,
0,
0,
4,
1,
1,
0,
0,
1,
3,
0,
0,
0,
0,
0,
1,
0,
0,
1,
0,
0,
1,
1,
0,
1,
1,
0,
0,
0,
0,
0,
1,
0,
2,
0,
0,
1,
0,
0,
0,
0,
0,
1,
1,
0,
0,
0,
0,
0,
1,
0,
0,
0,
0,
0,
1,
1,
1,
0,
2,
0,
0,
0,
0,
0,
0,
0,
0,
0,
0,
0,
0,
2,
1,
0,
1,
0,
1,
0,
0,
0,
0,
1,
0,
2,
0,
0,
1,
2,
0,
1,
1,
1,
0,
1,
0,
0,
0,
0,
1,
0,
0,
0,
0,
0,
1,
1,
0,
0,
0,
0,
1,
1,
0,
1,
0,
0,
0,
0,
0,
0,
0,
0,
0,
0,
0,
1,
0,
0,
1,
0,
0,
0,
0,
0,
0,
0,
0,
0,
0,
0,
1,
1,
0,
0,
0,
0,
0,
0,
1,
1,
0,
0,
0,
0,
0,
0,
0,
0,
0,
1,
0,
1,
0,
0,
0,
0,
0,
0,
0,
0,
0,
0,
0,
0,
0,
0,
0,
0,
0,
0,
0,
0,
0,
0,
0,
0,
0,
0,
0,
0,
0,
0,
0,
0,
0,
0,
0,
0,
0,
0,
0,
0,
0,
0,
0,
0,
0,
0,
0,
0,
0,
0,
0,
0,
0,
0,
0,
0,
0,
1,
0,
0,
0,
0,
0,
0,
0,
0,
0,
0,
0,
0,
0,
0,
0,
0,
0,
0,
0,
0,
0,
0,
0,
0,
0,
0,
0,
0,
0,
0,
1,
0,
0,
0,
0,
0,
0,
0,
0,
0,
0,
0,
0,
0,
0,
0,
0,
0,
0,
0,
0,
0,
0,
0,
0,
0,
0,
0,
0,
0,
0,
0,
0,
0,
0,
0,
0,
0,
0,
0,
0,
0,
0,
0,
0,
0,
0,
0,
0,
0,
0,
0,
0,
0,
0,
0,
0,
0,
0,
0,
0,
0,
0,
0,
0,
0,
0,
0,
0,
0,
0,
0,
0,
0,
0,
0,
0,
0,
0,
0,
0,
0,
0,
0,
0,
0,
0,
0,
0,
0,
0,
0,
0,
0,
0,
0,
0,
0,
0,
0,
0,
0,
0,
0,
0,
0,
0,
0,
0,
0,
0,
0,
0,
0,
0,
0,
0,
0,
0,
0,
0,
0,
0,
0,
0,
0,
0,
0,
0,
0,
0,
0,
0,
0,
0,
0,
0,
0,
0,
0,
0,
0,
0,
0,
0,
0,
0,
0,
0,
0,
0,
0,
0,
0,
0,
0,
0,
0,
0,
0,
0,
0,
0,
0,
0,
0,
0,
0,
0,
0,
0,
0,
0,
0,
0,
0,
0,
0,
0,
0,
0,
0,
0,
0,
0,
0,
0,
0,
0,
0,
0,
0,
0,
0,
0,
0,
0,
0,
0,
0,
0,
0,
0,
0,
0,
0,
0,
0,
0,
0,
0,
0,
0,
0,
0,
0,
0,
0,
0,
0,
0,
0,
0,
0,
0,
0,
0,
0,
0,
0,
0,
0,
0,
0,
0,
0,
0,
0,
0,
0,
0,
0,
0,
0,
0,
0,
0,
0,
0,
0,
0,
0,
0,
0,
0,
0,
0,
0,
0,
0,
0,
0,
0,
0,
0,
0,
0,
0,
0,
0,
0,
0,
0,
0,
0,
0,
0,
0,
0,
0,
0,
0,
0,
0,
0,
0,
0,
0,
0,
0,
0,
0,
0,
0,
0,
0,
0,
0,
0,
0,
0,
0,
0,
0,
0,
0,
0,
0,
0,
0,
0,
0,
0,
0,
0,
0,
0,
0,
0,
0,
0,
0,
0,
0,
0,
0,
0,
0,
0,
0,
0,
0,
0,
0,
0,
0,
0,
0,
0,
0,
0,
0,
0,
0,
0,
0,
0,
0,
0,
0,
0,
0,
0,
0,
0,
0,
0,
0,
0,
0,
0,
0,
0,
0,
0,
0,
0,
0,
0,
0,
0,
0,
0,
0,
0,
0,
0,
0,
0,
0,
0,
0,
0,
0,
0,
0,
0,
0,
0,
0,
0,
0,
0,
0,
0,
0,
0,
0,
0,
0,
0,
0,
0,
0,
0,
0,
0,
0,
0,
0,
0,
0,
0,
0,
0,
0,
0,
0,
0,
0,
0,
0,
0,
0,
0,
0,
0,
0,
0,
0,
0,
0,
0,
0,
0,
0,
0,
0,
0,
0,
0,
0,
0,
0,
0,
0,
0,
0,
0,
0,
0,
0,
0,
0,
0,
0,
0,
0,
0,
0,
0,
0,
0,
0,
0,
0,
0,
0,
0,
0,
0,
0,
0,
0,
0,
0,
0,
0,
0,
0,
0,
0,
0,
0,
0,
0,
0,
0,
0,
0,
0,
0,
0,
0,
0,
0,
0,
0,
0,
0,
0,
0,
0,
0,
0,
0,
0,
0,
0,
0,
0,
0,
0,
0,
0,
0,
0,
0,
0,
0,
0,
0,
0,
0,
0,
0,
0,
0,
0,
0,
0,
0,
0,
0,
0,
0,
0,
0,
0,
0,
0,
0,
0,
0,
0,
0,
0,
0,
0,
0,
0,
0,
0,
0,
0,
0,
0,
0,
0,
0,
0,
0,
0,
0,
0,
0,
0,
0,
0,
0,
0,
0,
0,
0,
0,
0,
0,
0,
0,
0,
0,
0,
0,
0,
0,
0,
0,
0,
0,
0,
0,
0,
0,
0,
0,
0,
0,
0,
0,
#ENDOFDATA   :