File: N132962/Quantification/15 keV/GMIIIA/GMIIIA K251[0][4].msa
#FORMAT      : EMSA/MAS Spectral Data File
#VERSION     : 1.0
#TITLE       : GMIIIA K251[0][all]
#DATE        : 22-SEP-2025
#TIME        : 14:56
#OWNER       : Unknown
#NPOINTS     : 4096
#NCOLUMNS    : 1
#XUNITS      : eV
#YUNITS      : counts
#DATATYPE    : Y
#XPERCHAN    : 9.99778
#OFFSET      : 1.69135
#BEAMKV      : 15
#SIGNALTYPE  : EDS
#ELEVANGLE   : 35
#AZIMANGLE   : 0
#LIVETIME    : 239.982
#REALTIME    : 259.179
#PROBECUR    : 1.21732
#TAUWIND     : 0
#TDEADLYR    : 0
#TACTLYR     : 0.045
#TALWIND     : 0.025
#CHOFFSET    : 0.0
#XLABEL      : Energy (eV)
#YLABEL      : Counts
#XPOSITION   : 7.07991
#YPOSITION   : 2.4648
#ZPOSITION   : 37.36299
#EDSDET      : SD
##SPECIMEN   : GMIIIA K251[0][all]
##D2STDCMP   : K251,(O:23.02),(Al:1.32),(Si:14.02),(Ba:8.96),(Ta:4.09),(Pb:44.1),(Bi:4.48)
##DET_HASH   : 12273538-fd48-a23f-0a19-f1e6fa85caef
##CALIB_HASH : 6abaa72c-aa41-8738-0be9-f592914732f3
##WORKING    : 15.0 mm
##DET_NAME   : EDAX All
##DET_MODE   : MediumLE
#SPECTRUM    :
26,
26,
14,
44,
201,
784,
2450,
5485,
10956,
13372,
9637,
7198,
7067,
7408,
9276,
20158,
59900,
108099,
79191,
26176,
10358,
8055,
7676,
8003,
7644,
7571,
8202,
7781,
7243,
7270,
7071,
7390,
7864,
7948,
8055,
8207,
8026,
7870,
7978,
8122,
8116,
8323,
8623,
8960,
9272,
9387,
9211,
10233,
14160,
20262,
20071,
14416,
10776,
9685,
10717,
18923,
50697,
110777,
142365,
103756,
49960,
24556,
15444,
10380,
8025,
7321,
7110,
6750,
6660,
6766,
6715,
7189,
7961,
8528,
9892,
14224,
28528,
58490,
84888,
84246,
70997,
66607,
57010,
35677,
18918,
11091,
8461,
8090,
8807,
8595,
7148,
6061,
5274,
4983,
4600,
4745,
4903,
4876,
4853,
4943,
5205,
5478,
5672,
5711,
5586,
5259,
4971,
4764,
4742,
4436,
4256,
4261,
4235,
4261,
4214,
4410,
4291,
4375,
4183,
4242,
4120,
4269,
4036,
4150,
4099,
4132,
4041,
4022,
3951,
4021,
4089,
4129,
4146,
4126,
4198,
3974,
3949,
3868,
4020,
3836,
3713,
3914,
3817,
3945,
4040,
4430,
5519,
8001,
10895,
11949,
10342,
7474,
5108,
4104,
3633,
3578,
3512,
3859,
4207,
5267,
6613,
7200,
6869,
5844,
4933,
4248,
3868,
3535,
3430,
3586,
3973,
4288,
4505,
4326,
3884,
3370,
3114,
2980,
3031,
3062,
3028,
3111,
3145,
3300,
3348,
3393,
3273,
3043,
2975,
2749,
2828,
2832,
2988,
2958,
2918,
2816,
2739,
2678,
2685,
2744,
2675,
2637,
2564,
2562,
2486,
2529,
2418,
2519,
2451,
2415,
2420,
2517,
2484,
2464,
2538,
2407,
2432,
2399,
2383,
2314,
2257,
2369,
2395,
2317,
2202,
2286,
2145,
2143,
2198,
2256,
2272,
2091,
2076,
2085,
2228,
2127,
2178,
2074,
2032,
2130,
2034,
2048,
1956,
2017,
2011,
1981,
1901,
1997,
1922,
1945,
1954,
1871,
1823,
1813,
1822,
1834,
1843,
1780,
1786,
1747,
1793,
1731,
1733,
1738,
1724,
1696,
1709,
1773,
1953,
2142,
2315,
2364,
2362,
2056,
1875,
1770,
1683,
1539,
1480,
1589,
1531,
1453,
1456,
1481,
1505,
1441,
1462,
1410,
1475,
1498,
1393,
1396,
1412,
1348,
1376,
1355,
1368,
1354,
1320,
1309,
1321,
1265,
1376,
1305,
1316,
1327,
1334,
1285,
1390,
1383,
1425,
1396,
1413,
1353,
1259,
1272,
1234,
1153,
1175,
1187,
1232,
1293,
1189,
1199,
1095,
1141,
1090,
1015,
1069,
1062,
1025,
992,
1018,
1020,
1002,
971,
1006,
1020,
977,
944,
894,
915,
933,
911,
960,
961,
996,
1054,
1281,
1403,
1643,
1621,
1642,
1507,
1359,
1119,
1026,
873,
898,
829,
927,
832,
877,
847,
849,
783,
736,
691,
712,
669,
685,
675,
704,
648,
698,
624,
675,
606,
653,
672,
620,
642,
625,
592,
589,
568,
598,
598,
479,
554,
551,
575,
562,
498,
508,
483,
480,
500,
511,
485,
467,
534,
477,
489,
508,
470,
462,
435,
442,
445,
416,
399,
418,
422,
409,
447,
398,
478,
482,
496,
480,
488,
466,
453,
401,
388,
319,
314,
312,
300,
297,
294,
286,
292,
301,
311,
297,
280,
261,
264,
211,
254,
240,
214,
242,
212,
237,
200,
218,
190,
189,
198,
181,
186,
173,
170,
192,
160,
178,
173,
144,
120,
160,
131,
149,
131,
132,
140,
134,
119,
108,
103,
116,
80,
102,
101,
107,
99,
86,
74,
80,
65,
68,
66,
71,
53,
58,
55,
33,
40,
39,
29,
29,
34,
27,
25,
23,
12,
5,
3,
3,
6,
6,
3,
1,
1,
1,
3,
3,
4,
2,
2,
4,
0,
4,
2,
2,
3,
4,
2,
2,
4,
0,
3,
5,
1,
1,
2,
4,
1,
1,
2,
0,
1,
2,
1,
2,
0,
1,
3,
1,
0,
3,
2,
2,
2,
0,
2,
1,
2,
1,
1,
0,
1,
1,
1,
1,
1,
1,
0,
0,
1,
3,
0,
0,
0,
2,
2,
2,
0,
1,
4,
3,
0,
0,
1,
0,
0,
0,
2,
0,
3,
4,
0,
0,
1,
1,
0,
1,
0,
1,
2,
2,
1,
1,
2,
2,
1,
0,
0,
1,
1,
0,
1,
3,
0,
1,
0,
0,
1,
1,
3,
1,
0,
1,
0,
1,
0,
0,
2,
1,
1,
1,
0,
0,
0,
1,
0,
2,
1,
0,
2,
3,
0,
0,
2,
1,
0,
1,
2,
1,
1,
0,
2,
3,
1,
0,
0,
1,
1,
1,
0,
1,
0,
0,
0,
0,
1,
0,
3,
1,
0,
2,
0,
0,
1,
3,
0,
0,
1,
0,
0,
1,
1,
1,
1,
1,
0,
0,
1,
0,
1,
0,
2,
0,
0,
1,
0,
0,
0,
0,
1,
1,
0,
0,
0,
0,
0,
0,
1,
0,
0,
0,
0,
0,
0,
0,
0,
0,
1,
0,
0,
1,
0,
0,
0,
1,
0,
0,
0,
0,
0,
0,
0,
0,
0,
1,
0,
0,
1,
0,
0,
0,
0,
0,
0,
0,
0,
1,
0,
0,
0,
0,
0,
0,
0,
0,
0,
1,
0,
0,
0,
0,
0,
0,
0,
0,
0,
0,
0,
0,
0,
0,
1,
0,
0,
0,
0,
0,
0,
0,
0,
0,
0,
0,
0,
0,
0,
0,
1,
0,
0,
0,
0,
0,
0,
0,
0,
0,
0,
0,
0,
0,
0,
0,
0,
0,
0,
0,
0,
0,
0,
0,
1,
1,
0,
0,
0,
0,
0,
0,
0,
0,
0,
0,
0,
0,
0,
0,
0,
0,
0,
0,
0,
0,
0,
1,
0,
0,
0,
0,
0,
0,
0,
0,
0,
0,
0,
0,
0,
0,
0,
0,
0,
0,
0,
0,
0,
0,
0,
0,
0,
0,
0,
0,
0,
0,
0,
0,
0,
0,
0,
0,
0,
0,
0,
0,
0,
0,
0,
0,
0,
0,
0,
0,
0,
0,
0,
0,
0,
0,
0,
0,
0,
0,
0,
0,
0,
0,
0,
0,
0,
0,
0,
0,
0,
0,
0,
0,
0,
0,
0,
0,
0,
0,
0,
0,
0,
0,
0,
0,
0,
0,
0,
0,
0,
0,
0,
0,
0,
0,
0,
0,
0,
0,
0,
0,
0,
0,
0,
0,
0,
0,
0,
0,
0,
0,
0,
0,
0,
0,
0,
0,
0,
0,
0,
0,
0,
0,
0,
0,
0,
0,
0,
0,
0,
0,
0,
0,
0,
0,
0,
0,
0,
0,
0,
0,
0,
0,
0,
0,
0,
0,
0,
0,
0,
0,
0,
0,
0,
0,
0,
0,
0,
0,
0,
0,
0,
0,
0,
0,
0,
0,
0,
0,
0,
0,
0,
0,
0,
0,
0,
0,
0,
0,
0,
0,
0,
0,
0,
0,
0,
0,
0,
0,
0,
0,
0,
0,
0,
0,
0,
0,
0,
0,
0,
0,
0,
0,
0,
0,
0,
0,
0,
0,
0,
0,
0,
0,
0,
0,
0,
0,
0,
0,
0,
0,
0,
0,
0,
0,
0,
0,
0,
0,
0,
0,
0,
0,
0,
0,
0,
0,
0,
0,
0,
0,
0,
0,
0,
0,
0,
0,
0,
0,
0,
0,
0,
0,
0,
0,
0,
0,
0,
0,
0,
0,
0,
0,
0,
0,
0,
0,
0,
0,
0,
0,
0,
0,
0,
0,
0,
0,
0,
0,
0,
0,
0,
0,
0,
0,
0,
0,
0,
0,
0,
0,
0,
0,
0,
0,
0,
0,
0,
0,
0,
0,
0,
0,
0,
0,
0,
0,
0,
0,
0,
0,
0,
0,
0,
0,
0,
0,
0,
0,
0,
0,
0,
0,
0,
0,
0,
0,
0,
0,
0,
0,
0,
0,
0,
0,
0,
0,
0,
0,
0,
0,
0,
0,
0,
0,
0,
0,
0,
0,
0,
0,
0,
0,
0,
0,
0,
0,
0,
0,
0,
0,
0,
0,
0,
0,
0,
0,
0,
0,
0,
0,
0,
0,
0,
0,
0,
0,
0,
0,
0,
0,
0,
0,
0,
0,
0,
0,
0,
0,
0,
0,
0,
0,
0,
0,
0,
0,
0,
0,
0,
0,
0,
0,
0,
0,
0,
0,
0,
0,
0,
0,
0,
0,
0,
0,
0,
0,
0,
0,
0,
0,
0,
0,
0,
0,
0,
0,
0,
0,
0,
0,
0,
0,
0,
0,
0,
0,
0,
0,
0,
0,
0,
0,
0,
0,
0,
0,
0,
0,
0,
0,
0,
0,
0,
0,
0,
0,
0,
0,
0,
0,
0,
0,
0,
0,
0,
0,
0,
0,
0,
0,
0,
0,
0,
0,
0,
0,
0,
0,
0,
0,
0,
0,
0,
0,
0,
0,
0,
0,
0,
0,
0,
0,
0,
0,
0,
0,
0,
0,
0,
0,
0,
0,
0,
0,
0,
0,
0,
0,
0,
0,
0,
0,
0,
0,
0,
0,
0,
0,
0,
0,
0,
0,
0,
0,
0,
0,
0,
0,
0,
0,
0,
0,
0,
0,
0,
0,
0,
0,
0,
#ENDOFDATA   :