File: N132962/Quantification/15 keV/GMIIIA/GMIIIA K326[3][4].msa
#FORMAT      : EMSA/MAS Spectral Data File
#VERSION     : 1.0
#TITLE       : GMIIIA K326[3][all]
#DATE        : 22-SEP-2025
#TIME        : 15:31
#OWNER       : Unknown
#NPOINTS     : 4096
#NCOLUMNS    : 1
#XUNITS      : eV
#YUNITS      : counts
#DATATYPE    : Y
#XPERCHAN    : 9.99778
#OFFSET      : 1.69135
#BEAMKV      : 15
#SIGNALTYPE  : EDS
#ELEVANGLE   : 35
#AZIMANGLE   : 0
#LIVETIME    : 239.9607
#REALTIME    : 254.574
#PROBECUR    : 1.21681
#TAUWIND     : 0
#TDEADLYR    : 0
#TACTLYR     : 0.045
#TALWIND     : 0.025
#CHOFFSET    : 0.0
#XLABEL      : Energy (eV)
#YLABEL      : Counts
#XPOSITION   : 10.63021
#YPOSITION   : 3.77854
#ZPOSITION   : 37.36299
#EDSDET      : SD
##SPECIMEN   : GMIIIA K326[3][all]
##D2STDCMP   : K326,(B:9.32),(O:51.35),(Na:1.48),(Mg:18.15),(Si:13.98),(Ca:5.72)
##DET_HASH   : 12273538-fd48-a23f-0a19-f1e6fa85caef
##CALIB_HASH : 6abaa72c-aa41-8738-0be9-f592914732f3
##WORKING    : 15.0 mm
##DET_NAME   : EDAX All
##DET_MODE   : MediumLE
#SPECTRUM    :
31,
30,
7,
15,
155,
858,
1630,
2375,
4841,
6761,
5549,
4535,
4554,
5529,
9973,
38412,
147035,
280728,
203363,
52559,
6543,
2641,
3132,
3355,
2879,
2604,
2828,
3068,
3218,
3440,
3416,
3936,
4691,
7749,
13766,
15115,
9573,
6107,
6361,
13476,
48573,
120240,
144626,
81784,
24125,
6444,
3812,
3547,
3613,
3870,
3954,
4011,
3820,
3883,
4423,
9558,
33422,
82474,
112509,
80574,
33313,
12192,
6078,
3868,
2864,
2637,
2477,
2441,
2395,
2343,
2372,
2315,
2370,
2475,
2625,
2756,
2616,
2562,
2416,
2200,
2132,
2215,
2343,
2224,
2274,
2155,
2168,
2174,
2098,
2097,
2099,
1979,
1883,
2016,
1980,
1840,
1951,
1903,
1948,
2009,
2113,
2056,
1862,
1824,
1794,
1780,
1784,
1731,
1725,
1694,
1716,
1634,
1657,
1592,
1614,
1618,
1693,
1742,
1746,
2311,
4370,
9057,
16292,
20203,
17247,
10286,
4446,
2317,
1538,
1467,
1468,
1835,
2478,
3294,
3440,
3055,
2247,
1589,
1310,
1298,
1319,
1223,
1136,
1110,
1152,
1148,
1102,
1074,
1096,
1089,
1129,
1126,
1158,
1072,
1039,
1062,
1039,
999,
1011,
997,
934,
936,
975,
1024,
937,
907,
993,
939,
879,
901,
863,
894,
912,
858,
902,
848,
846,
831,
842,
805,
828,
846,
818,
812,
823,
802,
702,
768,
812,
730,
746,
696,
731,
744,
740,
695,
671,
723,
690,
682,
709,
664,
655,
650,
655,
636,
672,
597,
612,
630,
648,
642,
641,
632,
620,
623,
600,
608,
527,
572,
557,
528,
529,
551,
560,
540,
546,
554,
531,
521,
542,
518,
540,
510,
517,
491,
498,
487,
484,
470,
463,
464,
456,
452,
454,
425,
430,
467,
441,
420,
453,
450,
404,
430,
410,
424,
403,
404,
387,
392,
395,
369,
386,
373,
359,
385,
339,
382,
370,
373,
331,
358,
378,
334,
368,
322,
354,
370,
329,
309,
316,
293,
313,
319,
327,
276,
301,
306,
299,
314,
292,
273,
280,
255,
296,
317,
282,
253,
250,
249,
263,
273,
239,
266,
249,
257,
272,
267,
263,
251,
238,
215,
233,
250,
222,
232,
227,
230,
244,
219,
215,
227,
215,
193,
199,
198,
209,
204,
212,
173,
201,
182,
188,
197,
171,
174,
200,
189,
184,
147,
159,
165,
143,
194,
183,
184,
179,
151,
137,
152,
158,
132,
187,
156,
124,
149,
162,
128,
132,
132,
130,
128,
151,
141,
133,
135,
145,
139,
120,
123,
110,
125,
116,
125,
112,
109,
111,
109,
102,
100,
111,
102,
118,
115,
99,
100,
101,
101,
96,
93,
98,
96,
74,
88,
94,
77,
88,
102,
84,
75,
89,
81,
89,
67,
71,
66,
79,
76,
69,
73,
65,
60,
72,
56,
57,
59,
65,
72,
68,
65,
58,
41,
47,
52,
52,
49,
53,
44,
45,
48,
50,
52,
46,
49,
42,
36,
38,
34,
50,
36,
34,
34,
36,
37,
31,
28,
38,
31,
27,
21,
34,
29,
36,
30,
28,
18,
20,
23,
20,
31,
16,
24,
20,
24,
17,
23,
23,
25,
11,
12,
12,
13,
13,
10,
14,
10,
10,
14,
9,
9,
12,
10,
9,
10,
11,
9,
7,
7,
7,
4,
2,
4,
3,
4,
5,
3,
1,
2,
3,
1,
1,
0,
0,
0,
0,
0,
0,
1,
0,
1,
1,
0,
0,
0,
0,
0,
0,
0,
0,
0,
0,
0,
0,
0,
0,
0,
0,
0,
0,
0,
0,
0,
0,
0,
0,
0,
0,
0,
0,
0,
0,
0,
0,
0,
0,
0,
0,
0,
0,
0,
1,
0,
1,
0,
0,
0,
0,
0,
0,
0,
0,
0,
0,
0,
0,
0,
0,
0,
0,
0,
0,
0,
0,
0,
0,
0,
0,
0,
0,
0,
0,
0,
0,
0,
0,
0,
0,
0,
0,
0,
0,
0,
0,
0,
0,
0,
0,
0,
0,
0,
0,
0,
0,
0,
0,
0,
0,
0,
0,
0,
0,
0,
0,
0,
0,
0,
0,
0,
0,
0,
0,
0,
0,
0,
0,
0,
0,
0,
0,
0,
0,
0,
0,
0,
0,
0,
0,
0,
0,
0,
0,
0,
0,
0,
0,
0,
0,
0,
0,
0,
0,
0,
0,
0,
0,
0,
1,
0,
0,
0,
0,
0,
0,
0,
0,
0,
0,
0,
0,
0,
0,
0,
0,
0,
0,
0,
0,
0,
0,
0,
0,
0,
0,
0,
0,
0,
0,
0,
0,
0,
0,
0,
0,
0,
0,
0,
0,
0,
0,
0,
0,
0,
0,
0,
0,
0,
0,
0,
0,
0,
0,
0,
0,
0,
0,
0,
0,
0,
0,
0,
0,
0,
0,
0,
0,
0,
0,
0,
0,
0,
0,
0,
0,
0,
0,
0,
0,
0,
0,
0,
0,
0,
0,
0,
0,
0,
0,
0,
0,
0,
0,
0,
0,
0,
0,
0,
0,
0,
0,
0,
0,
0,
0,
0,
0,
0,
0,
0,
0,
0,
0,
0,
0,
0,
0,
0,
0,
0,
0,
0,
0,
0,
0,
0,
0,
0,
0,
0,
0,
0,
0,
0,
0,
0,
0,
0,
0,
0,
0,
0,
0,
0,
0,
0,
0,
0,
0,
0,
0,
0,
0,
0,
0,
0,
0,
0,
0,
0,
0,
0,
0,
0,
0,
0,
0,
0,
0,
0,
0,
0,
0,
0,
0,
0,
0,
0,
0,
0,
0,
0,
0,
0,
0,
0,
0,
0,
0,
0,
0,
0,
0,
0,
0,
0,
0,
0,
0,
0,
0,
0,
0,
0,
0,
0,
0,
0,
0,
0,
0,
0,
0,
0,
0,
0,
0,
0,
0,
0,
0,
0,
0,
0,
0,
0,
0,
0,
0,
0,
0,
0,
0,
0,
0,
0,
0,
0,
0,
0,
0,
0,
0,
0,
0,
0,
0,
0,
0,
0,
0,
0,
0,
0,
0,
0,
0,
0,
0,
0,
0,
0,
0,
0,
0,
0,
0,
0,
0,
0,
0,
0,
0,
0,
0,
0,
0,
0,
0,
0,
0,
0,
0,
0,
0,
0,
0,
0,
0,
0,
0,
0,
0,
0,
0,
0,
0,
0,
0,
0,
0,
0,
0,
0,
0,
0,
0,
0,
0,
0,
0,
0,
0,
0,
0,
0,
0,
0,
0,
0,
0,
0,
0,
0,
0,
0,
0,
0,
0,
0,
0,
0,
0,
0,
0,
0,
0,
0,
0,
0,
0,
0,
0,
0,
0,
0,
0,
0,
0,
0,
0,
0,
0,
0,
0,
0,
0,
0,
0,
0,
0,
0,
0,
0,
0,
0,
0,
0,
0,
0,
0,
0,
0,
0,
0,
0,
0,
0,
0,
0,
0,
0,
0,
0,
0,
0,
0,
0,
0,
0,
0,
0,
0,
0,
0,
0,
0,
0,
0,
0,
0,
0,
0,
0,
0,
0,
0,
0,
0,
0,
0,
0,
0,
0,
0,
0,
0,
0,
0,
0,
0,
0,
0,
0,
0,
0,
0,
0,
0,
0,
0,
0,
0,
0,
0,
0,
0,
0,
0,
0,
0,
0,
0,
0,
0,
0,
0,
0,
0,
0,
0,
0,
0,
0,
0,
0,
0,
0,
0,
0,
0,
0,
0,
0,
0,
0,
0,
0,
0,
0,
0,
0,
0,
0,
0,
0,
0,
0,
0,
0,
0,
0,
0,
0,
0,
0,
0,
0,
0,
0,
0,
0,
0,
0,
0,
0,
0,
0,
0,
0,
0,
0,
0,
0,
0,
0,
0,
0,
0,
0,
0,
0,
0,
0,
0,
0,
0,
0,
0,
0,
0,
0,
0,
0,
0,
0,
0,
0,
0,
0,
0,
0,
0,
0,
0,
0,
0,
0,
0,
0,
0,
0,
0,
0,
0,
0,
0,
0,
0,
0,
0,
0,
0,
0,
0,
0,
0,
0,
0,
0,
0,
0,
0,
0,
0,
0,
0,
0,
0,
0,
0,
0,
0,
0,
0,
0,
0,
0,
0,
0,
0,
0,
0,
0,
0,
0,
0,
0,
0,
0,
0,
0,
0,
0,
0,
0,
0,
0,
0,
0,
0,
0,
0,
0,
0,
0,
0,
0,
0,
0,
0,
0,
0,
0,
0,
0,
0,
0,
0,
0,
0,
0,
0,
0,
0,
0,
0,
0,
0,
0,
0,
0,
0,
0,
0,
0,
0,
0,
0,
0,
0,
0,
0,
0,
0,
0,
0,
0,
0,
0,
0,
0,
0,
0,
0,
0,
0,
0,
0,
0,
0,
0,
0,
0,
0,
0,
0,
0,
0,
0,
0,
0,
0,
0,
0,
0,
0,
0,
0,
0,
0,
0,
0,
0,
0,
0,
0,
0,
0,
0,
0,
0,
0,
0,
0,
0,
0,
0,
0,
0,
0,
0,
0,
0,
0,
0,
0,
0,
#ENDOFDATA   :