File: N132962/Quantification/15 keV/GMIIIA/GMIIIA K1053[3][4].msa
#FORMAT      : EMSA/MAS Spectral Data File
#VERSION     : 1.0
#TITLE       : GMIIIA K1053[3][all]
#DATE        : 22-SEP-2025
#TIME        : 21:13
#OWNER       : Unknown
#NPOINTS     : 4096
#NCOLUMNS    : 1
#XUNITS      : eV
#YUNITS      : counts
#DATATYPE    : Y
#XPERCHAN    : 9.99778
#OFFSET      : 1.69135
#BEAMKV      : 15
#SIGNALTYPE  : EDS
#ELEVANGLE   : 35
#AZIMANGLE   : 0
#LIVETIME    : 239.904
#REALTIME    : 261.037
#PROBECUR    : 1.21822
#TAUWIND     : 0
#TDEADLYR    : 0
#TACTLYR     : 0.045
#TALWIND     : 0.025
#CHOFFSET    : 0.0
#XLABEL      : Energy (eV)
#YLABEL      : Counts
#XPOSITION   : 4.48796
#YPOSITION   : 15.45677
#ZPOSITION   : 37.36299
#EDSDET      : SD
##SPECIMEN   : GMIIIA K1053[3][all]
##D2STDCMP   : K1053,(O:16.13),(F:0.39),(Si:9.35),(Cl:0.64),(Br:1.09),(I:1.37),(Pb:71.02)
##DET_HASH   : 12273538-fd48-a23f-0a19-f1e6fa85caef
##CALIB_HASH : 6abaa72c-aa41-8738-0be9-f592914732f3
##WORKING    : 15.0 mm
##DET_NAME   : EDAX All
##DET_MODE   : MediumLE
#SPECTRUM    :
23,
22,
11,
75,
309,
1205,
3189,
6752,
12915,
15678,
10912,
7771,
7246,
7517,
8450,
15598,
41492,
72172,
53645,
19390,
10297,
9794,
10577,
10865,
9190,
7798,
7503,
8030,
8203,
8302,
8334,
8473,
8730,
8685,
8910,
9045,
9030,
9421,
9487,
9450,
9794,
9885,
10089,
10095,
10339,
10348,
10489,
10987,
12824,
15471,
15624,
14081,
12096,
11112,
11196,
15240,
34205,
74658,
98220,
75439,
42012,
26803,
18900,
12686,
9607,
8658,
8655,
8444,
8321,
8406,
8721,
9507,
10766,
11631,
13644,
21288,
47319,
100555,
148643,
142190,
113035,
102025,
87073,
51569,
22296,
10553,
9701,
12352,
13975,
12753,
9378,
6657,
5614,
5555,
5489,
5418,
5584,
5812,
5648,
5743,
5873,
6495,
6752,
6736,
6575,
6064,
5616,
5322,
5100,
4971,
4881,
4881,
4861,
4881,
4801,
4958,
4903,
4999,
4967,
4856,
4759,
4668,
4693,
4706,
4756,
4740,
4642,
4773,
4642,
5115,
5483,
5919,
5747,
5272,
4812,
4618,
4576,
4516,
4554,
4808,
5076,
5048,
4838,
4715,
4529,
4316,
4344,
4298,
4454,
4571,
4683,
4665,
4443,
4301,
4233,
4171,
4057,
4242,
4257,
4198,
4177,
4090,
4079,
3982,
3929,
4018,
4039,
3830,
3930,
3806,
3803,
3920,
3727,
3790,
3650,
3773,
3603,
3594,
3621,
3605,
3635,
3559,
3551,
3484,
3553,
3387,
3430,
3422,
3429,
3465,
3452,
3388,
3430,
3337,
3363,
3291,
3258,
3295,
3209,
3238,
3273,
3160,
3138,
3169,
3087,
3151,
3031,
3067,
3016,
3106,
2913,
3067,
3047,
3092,
3012,
3050,
2970,
2915,
2863,
2878,
2783,
2849,
2787,
2806,
2825,
2701,
2678,
2787,
2734,
2681,
2680,
2600,
2562,
2657,
2591,
2562,
2606,
2479,
2498,
2462,
2568,
2426,
2477,
2456,
2458,
2355,
2493,
2382,
2454,
2361,
2439,
2415,
2299,
2344,
2218,
2204,
2273,
2234,
2191,
2187,
2147,
2224,
2217,
2204,
2059,
2113,
2036,
2125,
2121,
2057,
2036,
1965,
2089,
2002,
1944,
1924,
2032,
1935,
1887,
1983,
1922,
1920,
1928,
1843,
1852,
1758,
1806,
1800,
1802,
1734,
1741,
1778,
1815,
1749,
1731,
1732,
1614,
1747,
1668,
1693,
1710,
1610,
1666,
1728,
1614,
1702,
1740,
1610,
1601,
1566,
1565,
1511,
1522,
1550,
1439,
1522,
1467,
1422,
1484,
1453,
1446,
1381,
1429,
1388,
1357,
1375,
1369,
1385,
1307,
1313,
1319,
1342,
1274,
1287,
1234,
1209,
1216,
1278,
1175,
1281,
1177,
1167,
1232,
1201,
1196,
1238,
1396,
1557,
1789,
2022,
2443,
2632,
2540,
2273,
1992,
1554,
1334,
1134,
1075,
981,
1002,
979,
939,
988,
951,
945,
972,
925,
893,
882,
905,
900,
893,
901,
936,
855,
862,
811,
824,
784,
795,
790,
813,
753,
796,
807,
755,
749,
704,
701,
710,
709,
715,
686,
712,
676,
682,
688,
663,
677,
682,
599,
633,
630,
651,
602,
606,
626,
584,
566,
550,
531,
507,
524,
540,
543,
558,
609,
655,
721,
710,
695,
637,
603,
578,
536,
454,
428,
419,
413,
389,
434,
389,
412,
401,
364,
370,
351,
337,
322,
321,
319,
324,
308,
288,
325,
279,
262,
260,
277,
235,
267,
297,
244,
244,
235,
224,
232,
205,
234,
230,
213,
217,
187,
193,
165,
187,
177,
191,
157,
159,
146,
147,
153,
163,
153,
127,
124,
105,
112,
96,
98,
96,
123,
75,
79,
66,
71,
64,
53,
57,
41,
31,
32,
39,
33,
28,
22,
14,
20,
6,
1,
4,
1,
3,
3,
6,
3,
2,
4,
3,
7,
10,
3,
2,
1,
3,
8,
4,
2,
6,
3,
4,
6,
4,
3,
3,
2,
5,
1,
1,
2,
4,
4,
1,
1,
1,
6,
1,
1,
2,
1,
5,
1,
4,
1,
3,
3,
4,
1,
2,
2,
1,
2,
1,
2,
3,
1,
2,
1,
1,
1,
1,
2,
3,
3,
1,
0,
2,
5,
1,
1,
2,
4,
1,
2,
2,
4,
1,
0,
2,
1,
1,
2,
4,
0,
1,
3,
1,
2,
1,
4,
3,
1,
1,
3,
1,
2,
1,
1,
2,
3,
1,
2,
2,
2,
2,
2,
0,
3,
5,
2,
1,
0,
1,
1,
1,
4,
0,
0,
2,
4,
0,
1,
0,
3,
1,
0,
2,
0,
1,
1,
3,
1,
0,
0,
2,
1,
1,
2,
0,
1,
0,
1,
1,
0,
2,
3,
0,
1,
1,
0,
3,
0,
3,
1,
3,
0,
0,
0,
0,
0,
1,
1,
0,
1,
0,
2,
1,
0,
0,
1,
1,
2,
0,
1,
0,
0,
0,
0,
0,
0,
0,
0,
0,
0,
1,
1,
0,
0,
0,
1,
0,
0,
0,
0,
1,
0,
0,
0,
0,
0,
1,
0,
0,
0,
0,
0,
0,
0,
0,
1,
0,
0,
2,
0,
0,
0,
0,
0,
0,
0,
0,
0,
0,
0,
2,
1,
0,
0,
0,
1,
0,
1,
1,
0,
0,
0,
0,
0,
0,
0,
0,
2,
1,
1,
0,
0,
0,
1,
0,
0,
0,
0,
0,
1,
1,
0,
0,
0,
0,
0,
1,
0,
0,
0,
0,
0,
0,
0,
0,
1,
0,
0,
0,
0,
0,
0,
0,
0,
0,
0,
0,
0,
0,
1,
0,
0,
1,
0,
0,
1,
1,
0,
0,
0,
0,
0,
0,
0,
0,
0,
0,
0,
0,
0,
0,
0,
1,
0,
0,
0,
0,
0,
0,
1,
1,
1,
0,
0,
0,
0,
0,
0,
0,
0,
0,
0,
0,
0,
0,
0,
1,
0,
0,
0,
0,
0,
0,
0,
1,
0,
0,
0,
0,
0,
0,
0,
0,
0,
0,
0,
0,
0,
0,
0,
0,
0,
0,
0,
0,
0,
0,
0,
0,
0,
0,
0,
0,
0,
0,
0,
0,
0,
0,
0,
0,
0,
0,
0,
0,
0,
1,
0,
0,
0,
0,
0,
0,
0,
0,
0,
0,
0,
0,
0,
0,
0,
0,
0,
0,
0,
0,
0,
0,
0,
0,
0,
0,
0,
0,
0,
0,
0,
0,
0,
0,
0,
0,
0,
0,
0,
0,
0,
0,
0,
0,
0,
0,
0,
0,
0,
0,
0,
0,
0,
0,
0,
0,
0,
0,
0,
0,
0,
0,
0,
0,
0,
0,
0,
0,
0,
0,
0,
0,
0,
0,
0,
0,
0,
0,
0,
0,
0,
0,
0,
0,
0,
0,
0,
0,
0,
0,
0,
0,
0,
0,
0,
0,
0,
0,
0,
0,
0,
0,
0,
0,
0,
0,
0,
0,
0,
0,
0,
0,
0,
0,
0,
0,
0,
0,
0,
0,
0,
0,
0,
0,
0,
0,
0,
0,
0,
0,
0,
0,
0,
0,
0,
0,
0,
0,
0,
0,
0,
0,
0,
0,
0,
0,
0,
0,
0,
0,
0,
0,
0,
0,
0,
0,
0,
0,
0,
0,
0,
0,
0,
0,
0,
0,
0,
0,
0,
0,
0,
0,
0,
0,
0,
0,
0,
0,
0,
0,
0,
0,
0,
0,
0,
0,
0,
0,
0,
0,
0,
0,
0,
0,
0,
0,
0,
0,
0,
0,
0,
0,
0,
0,
0,
0,
0,
0,
0,
0,
0,
0,
0,
0,
0,
0,
0,
0,
0,
0,
0,
0,
0,
0,
0,
0,
0,
0,
0,
0,
0,
0,
0,
0,
0,
0,
0,
0,
0,
0,
0,
0,
0,
0,
0,
0,
0,
0,
0,
0,
0,
0,
0,
0,
0,
0,
0,
0,
0,
0,
0,
0,
0,
0,
0,
0,
0,
0,
0,
0,
0,
0,
0,
0,
0,
0,
0,
0,
0,
0,
0,
0,
0,
0,
0,
0,
0,
0,
0,
0,
0,
0,
0,
0,
0,
0,
0,
0,
0,
0,
0,
0,
0,
0,
0,
0,
0,
0,
0,
0,
0,
0,
0,
0,
0,
0,
0,
0,
0,
0,
0,
0,
0,
0,
0,
0,
0,
0,
0,
0,
0,
0,
0,
0,
0,
0,
0,
0,
0,
0,
0,
0,
0,
0,
0,
0,
0,
0,
0,
0,
0,
0,
0,
0,
0,
0,
0,
0,
0,
0,
0,
0,
0,
0,
0,
0,
0,
0,
0,
0,
0,
0,
0,
0,
0,
0,
0,
0,
0,
0,
0,
0,
0,
0,
0,
0,
0,
0,
0,
0,
0,
0,
0,
0,
0,
0,
0,
0,
0,
0,
0,
0,
0,
0,
0,
0,
0,
0,
0,
0,
0,
0,
0,
0,
0,
0,
0,
0,
0,
0,
0,
0,
0,
0,
0,
0,
0,
0,
0,
0,
0,
0,
0,
0,
0,
0,
0,
0,
0,
0,
0,
0,
0,
0,
0,
0,
0,
0,
0,
0,
0,
0,
0,
0,
0,
0,
0,
0,
0,
0,
0,
0,
0,
0,
0,
0,
0,
0,
0,
0,
0,
0,
0,
0,
0,
0,
0,
0,
0,
0,
0,
0,
0,
#ENDOFDATA   :