File: N132962/Quantification/15 keV/GMIIIA/GMIIIA K1070[5][4].msa
#FORMAT      : EMSA/MAS Spectral Data File
#VERSION     : 1.0
#TITLE       : GMIIIA K1070[5][all]
#DATE        : 22-SEP-2025
#TIME        : 21:05
#OWNER       : Unknown
#NPOINTS     : 4096
#NCOLUMNS    : 1
#XUNITS      : eV
#YUNITS      : counts
#DATATYPE    : Y
#XPERCHAN    : 9.99778
#OFFSET      : 1.69135
#BEAMKV      : 15
#SIGNALTYPE  : EDS
#ELEVANGLE   : 35
#AZIMANGLE   : 0
#LIVETIME    : 239.994
#REALTIME    : 256.17
#PROBECUR    : 1.21822
#TAUWIND     : 0
#TDEADLYR    : 0
#TACTLYR     : 0.045
#TALWIND     : 0.025
#CHOFFSET    : 0.0
#XLABEL      : Energy (eV)
#YLABEL      : Counts
#XPOSITION   : 2.42324
#YPOSITION   : 15.71432
#ZPOSITION   : 37.36299
#EDSDET      : SD
##SPECIMEN   : GMIIIA K1070[5][all]
##D2STDCMP   : K1070,(O:34.31),(Mg:7.54),(Si:18.7),(Ca:8.93),(Zn:10.04),(Ba:11.2),(Pb:9.28)
##DET_HASH   : 12273538-fd48-a23f-0a19-f1e6fa85caef
##CALIB_HASH : 6abaa72c-aa41-8738-0be9-f592914732f3
##WORKING    : 15.0 mm
##DET_NAME   : EDAX All
##DET_MODE   : MediumLE
#SPECTRUM    :
23,
26,
17,
29,
130,
473,
1289,
3151,
7500,
10708,
8636,
6457,
5825,
6005,
8604,
25108,
88365,
166199,
121617,
34673,
8293,
5273,
5168,
5073,
5296,
5861,
6539,
6477,
6469,
7458,
7768,
8780,
17217,
35991,
44832,
29711,
12801,
7070,
6300,
8605,
20097,
44164,
52690,
31415,
12322,
6139,
5374,
5374,
5503,
5847,
5944,
5959,
5957,
6026,
6830,
13570,
44087,
108471,
146182,
105336,
44333,
17518,
9637,
5937,
4795,
4308,
4191,
4114,
3922,
4090,
3887,
4048,
4236,
4413,
4725,
5585,
8226,
13565,
18110,
17466,
14654,
13599,
11944,
8277,
5275,
4062,
3769,
4096,
4350,
4275,
4039,
3776,
3380,
3402,
3338,
3353,
3337,
3297,
3358,
3374,
3366,
3410,
3489,
3443,
3350,
3273,
3109,
3229,
3027,
3086,
2965,
2959,
2934,
2878,
2886,
3041,
3053,
3104,
3312,
4054,
7209,
14751,
25878,
31931,
27400,
16291,
7777,
3847,
2766,
2734,
3010,
3716,
4845,
5883,
6271,
5353,
3879,
2899,
2552,
2365,
2367,
2397,
2348,
2443,
2553,
3090,
4552,
7453,
10708,
11674,
10055,
6733,
3885,
2635,
2170,
2116,
2159,
2309,
2889,
4156,
5603,
6328,
6032,
4885,
3875,
2992,
2567,
2232,
2089,
2328,
2722,
3149,
3344,
3081,
2582,
2099,
1815,
1765,
1755,
1663,
1800,
1830,
1864,
2131,
2258,
2217,
2081,
1798,
1702,
1667,
1574,
1653,
1734,
1742,
1733,
1580,
1578,
1502,
1460,
1437,
1421,
1376,
1359,
1348,
1391,
1360,
1324,
1343,
1340,
1349,
1285,
1271,
1324,
1297,
1354,
1302,
1219,
1259,
1201,
1277,
1201,
1218,
1209,
1205,
1178,
1132,
1089,
1102,
1186,
1172,
1130,
1169,
1068,
1168,
1126,
1060,
1074,
1096,
1081,
1080,
1023,
1039,
980,
1049,
1022,
1024,
1031,
978,
1039,
1014,
1008,
927,
878,
938,
895,
895,
900,
882,
817,
883,
943,
865,
877,
865,
837,
879,
832,
834,
873,
850,
838,
811,
861,
814,
790,
798,
777,
777,
731,
791,
810,
788,
948,
1145,
1554,
2466,
3274,
3788,
3906,
3292,
2469,
1640,
1116,
821,
749,
714,
727,
630,
639,
662,
627,
629,
619,
655,
658,
643,
590,
588,
598,
638,
631,
593,
578,
629,
664,
670,
836,
889,
984,
985,
897,
797,
659,
650,
566,
524,
468,
479,
506,
507,
476,
465,
454,
473,
454,
443,
405,
427,
446,
467,
453,
474,
448,
428,
404,
378,
439,
459,
473,
458,
475,
519,
497,
504,
416,
435,
403,
378,
372,
360,
359,
362,
348,
376,
379,
337,
329,
321,
327,
315,
298,
316,
309,
314,
320,
322,
286,
277,
320,
298,
293,
274,
282,
240,
278,
250,
251,
244,
267,
251,
266,
222,
244,
225,
235,
261,
235,
205,
210,
222,
222,
228,
211,
245,
232,
192,
192,
203,
180,
173,
183,
175,
161,
169,
175,
155,
182,
157,
154,
170,
180,
187,
158,
154,
145,
140,
136,
130,
121,
145,
135,
113,
135,
131,
122,
120,
127,
94,
129,
105,
114,
115,
94,
102,
92,
87,
83,
91,
92,
80,
84,
87,
64,
89,
85,
92,
76,
73,
61,
65,
60,
69,
47,
70,
64,
56,
47,
47,
44,
46,
50,
49,
41,
44,
45,
25,
51,
33,
38,
39,
23,
32,
31,
16,
28,
31,
30,
17,
17,
21,
17,
12,
13,
10,
12,
5,
13,
8,
3,
5,
7,
2,
0,
3,
2,
1,
0,
1,
0,
1,
1,
1,
0,
0,
2,
2,
1,
1,
0,
1,
1,
1,
1,
1,
0,
4,
3,
0,
1,
0,
0,
1,
0,
1,
0,
0,
1,
0,
1,
1,
2,
1,
0,
0,
1,
2,
0,
0,
0,
1,
0,
0,
0,
0,
0,
0,
1,
1,
0,
0,
0,
0,
0,
0,
0,
1,
1,
1,
0,
0,
0,
1,
2,
0,
0,
0,
0,
1,
0,
1,
0,
0,
0,
0,
0,
1,
0,
0,
0,
0,
0,
1,
1,
1,
0,
0,
1,
0,
1,
0,
0,
0,
0,
0,
0,
1,
0,
0,
0,
0,
0,
0,
0,
0,
0,
1,
0,
1,
0,
1,
0,
0,
0,
1,
0,
0,
0,
0,
1,
1,
0,
0,
0,
1,
0,
0,
0,
1,
0,
0,
0,
0,
0,
0,
0,
0,
0,
0,
0,
0,
0,
0,
0,
0,
0,
0,
0,
0,
0,
0,
0,
0,
0,
0,
0,
0,
0,
0,
0,
0,
0,
0,
0,
0,
0,
0,
0,
0,
0,
0,
0,
0,
0,
0,
0,
0,
0,
0,
0,
0,
1,
0,
0,
0,
0,
0,
0,
0,
0,
0,
0,
0,
0,
0,
0,
0,
0,
0,
0,
0,
0,
1,
0,
0,
0,
0,
0,
0,
0,
0,
0,
0,
0,
0,
0,
0,
0,
0,
0,
0,
0,
0,
0,
0,
0,
0,
0,
0,
0,
0,
0,
0,
0,
0,
0,
0,
0,
0,
0,
0,
0,
0,
0,
0,
0,
0,
0,
0,
0,
0,
0,
0,
0,
0,
0,
0,
0,
0,
0,
0,
0,
0,
0,
0,
0,
0,
0,
0,
0,
0,
0,
0,
0,
0,
0,
0,
0,
0,
0,
0,
0,
0,
0,
0,
0,
0,
0,
0,
0,
0,
0,
0,
0,
0,
0,
0,
0,
0,
0,
0,
0,
0,
0,
0,
0,
0,
0,
0,
0,
0,
0,
0,
0,
0,
0,
0,
0,
0,
0,
0,
0,
0,
0,
0,
0,
0,
0,
0,
0,
0,
0,
0,
0,
0,
0,
0,
0,
0,
0,
0,
0,
0,
0,
0,
0,
0,
0,
0,
0,
0,
0,
0,
0,
0,
0,
0,
0,
0,
0,
0,
0,
0,
0,
0,
0,
0,
0,
0,
0,
0,
0,
0,
0,
0,
0,
0,
0,
0,
0,
0,
0,
0,
0,
0,
0,
0,
0,
0,
0,
0,
0,
0,
0,
0,
0,
0,
0,
0,
0,
0,
0,
0,
0,
0,
0,
0,
0,
0,
0,
0,
0,
0,
0,
0,
0,
0,
0,
0,
0,
0,
0,
0,
0,
0,
0,
0,
0,
0,
0,
0,
0,
0,
0,
0,
0,
0,
0,
0,
0,
0,
0,
0,
0,
0,
0,
0,
0,
0,
0,
0,
0,
0,
0,
0,
0,
0,
0,
0,
0,
0,
0,
0,
0,
0,
0,
0,
0,
0,
0,
0,
0,
0,
0,
0,
0,
0,
0,
0,
0,
0,
0,
0,
0,
0,
0,
0,
0,
0,
0,
0,
0,
0,
0,
0,
0,
0,
0,
0,
0,
0,
0,
0,
0,
0,
0,
0,
0,
0,
0,
0,
0,
0,
0,
0,
0,
0,
0,
0,
0,
0,
0,
0,
0,
0,
0,
0,
0,
0,
0,
0,
0,
0,
0,
0,
0,
0,
0,
0,
0,
0,
0,
0,
0,
0,
0,
0,
0,
0,
0,
0,
0,
0,
0,
0,
0,
0,
0,
0,
0,
0,
0,
0,
0,
0,
0,
0,
0,
0,
0,
0,
0,
0,
0,
0,
0,
0,
0,
0,
0,
0,
0,
0,
0,
0,
0,
0,
0,
0,
0,
0,
0,
0,
0,
0,
0,
0,
0,
0,
0,
0,
0,
0,
0,
0,
0,
0,
0,
0,
0,
0,
0,
0,
0,
0,
0,
0,
0,
0,
0,
0,
0,
0,
0,
0,
0,
0,
0,
0,
0,
0,
0,
0,
0,
0,
0,
0,
0,
0,
0,
0,
0,
0,
0,
0,
0,
0,
0,
0,
0,
0,
0,
0,
0,
0,
0,
0,
0,
0,
0,
0,
0,
0,
0,
0,
0,
0,
0,
0,
0,
0,
0,
0,
0,
0,
0,
0,
0,
0,
0,
0,
0,
0,
0,
0,
0,
0,
0,
0,
0,
0,
0,
0,
0,
0,
0,
0,
0,
0,
0,
0,
0,
0,
0,
0,
0,
0,
0,
0,
0,
0,
0,
0,
0,
0,
0,
0,
0,
0,
0,
0,
0,
0,
0,
0,
0,
0,
0,
0,
0,
0,
0,
0,
0,
0,
0,
0,
0,
0,
0,
0,
0,
0,
0,
0,
0,
0,
0,
0,
0,
0,
0,
0,
0,
0,
0,
0,
0,
0,
0,
0,
0,
0,
0,
0,
0,
0,
0,
0,
0,
0,
0,
0,
0,
0,
0,
0,
0,
0,
0,
0,
0,
0,
0,
0,
0,
0,
0,
0,
0,
0,
0,
0,
0,
0,
0,
0,
0,
0,
0,
0,
0,
0,
0,
0,
0,
0,
0,
0,
0,
0,
0,
0,
0,
0,
0,
0,
0,
0,
0,
0,
0,
0,
0,
0,
0,
0,
0,
0,
0,
0,
0,
0,
0,
0,
0,
0,
0,
0,
0,
0,
0,
0,
0,
0,
0,
0,
0,
0,
0,
0,
0,
0,
0,
0,
0,
0,
#ENDOFDATA   :