File: N132962/Quantification/15 keV/GMIIIA/GMIIIA K227[0][4].msa
#FORMAT      : EMSA/MAS Spectral Data File
#VERSION     : 1.0
#TITLE       : GMIIIA K227[0][all]
#DATE        : 22-SEP-2025
#TIME        : 14:15
#OWNER       : Unknown
#NPOINTS     : 4096
#NCOLUMNS    : 1
#XUNITS      : eV
#YUNITS      : counts
#DATATYPE    : Y
#XPERCHAN    : 9.99778
#OFFSET      : 1.69135
#BEAMKV      : 15
#SIGNALTYPE  : EDS
#ELEVANGLE   : 35
#AZIMANGLE   : 0
#LIVETIME    : 240.041
#REALTIME    : 261.289
#PROBECUR    : 1.21983
#TAUWIND     : 0
#TDEADLYR    : 0
#TACTLYR     : 0.045
#TALWIND     : 0.025
#CHOFFSET    : 0.0
#XLABEL      : Energy (eV)
#YLABEL      : Counts
#XPOSITION   : 7.71643
#YPOSITION   : 0.38332
#ZPOSITION   : 37.36299
#EDSDET      : SD
##SPECIMEN   : GMIIIA K227[0][all]
##D2STDCMP   : K227,(O:16.39),(Si:9.35),(Pb:74.27)
##DET_HASH   : 12273538-fd48-a23f-0a19-f1e6fa85caef
##CALIB_HASH : 6abaa72c-aa41-8738-0be9-f592914732f3
##WORKING    : 15.0 mm
##DET_NAME   : EDAX All
##DET_MODE   : MediumLE
#SPECTRUM    :
22,
35,
17,
48,
318,
1120,
3242,
6718,
12871,
15806,
10979,
7962,
7325,
7278,
8447,
15480,
42188,
73949,
54535,
19872,
10493,
10079,
10963,
11158,
9344,
7752,
7436,
7553,
8213,
8262,
8347,
8323,
8666,
8646,
8746,
8956,
9131,
9291,
9330,
9386,
9639,
9800,
9967,
10052,
10141,
10154,
10199,
10353,
10407,
10892,
10966,
10695,
10543,
10864,
11187,
15530,
34927,
76062,
101870,
77453,
42573,
27469,
19328,
12728,
9765,
8908,
8527,
8455,
8378,
8535,
8819,
9688,
10801,
11931,
14050,
21894,
49391,
104641,
153236,
147280,
117491,
105774,
90531,
53784,
22855,
10229,
8011,
9934,
11967,
11181,
8854,
6585,
5365,
5207,
5116,
5299,
5530,
5554,
5609,
5657,
5875,
6397,
6636,
6897,
6663,
6044,
5561,
5234,
5111,
4924,
4852,
4885,
4924,
4744,
4679,
4924,
4900,
4890,
4819,
4748,
4687,
4658,
4752,
4598,
4766,
4724,
4638,
4566,
4492,
4388,
4475,
4362,
4366,
4388,
4581,
4599,
4615,
4482,
4548,
4600,
4458,
4405,
4387,
4311,
4358,
4209,
4311,
4355,
4248,
4336,
4409,
4433,
4252,
4192,
4138,
4123,
4250,
4268,
4245,
4069,
4148,
4156,
4064,
4017,
4049,
3860,
4015,
3833,
3891,
3805,
3792,
3741,
3804,
3644,
3735,
3705,
3842,
3661,
3727,
3564,
3688,
3635,
3650,
3525,
3608,
3513,
3529,
3450,
3400,
3451,
3423,
3450,
3220,
3358,
3377,
3275,
3275,
3292,
3325,
3223,
3295,
3248,
3155,
3102,
3163,
3118,
3192,
3081,
3055,
3140,
3056,
3027,
3027,
3087,
3040,
3053,
3006,
2934,
2956,
2804,
2946,
2828,
2733,
2783,
2760,
2666,
2730,
2804,
2656,
2609,
2645,
2705,
2709,
2606,
2642,
2586,
2549,
2628,
2541,
2519,
2484,
2568,
2430,
2439,
2492,
2402,
2447,
2393,
2443,
2353,
2460,
2429,
2396,
2373,
2278,
2233,
2290,
2259,
2235,
2303,
2247,
2281,
2181,
2147,
2143,
2115,
2127,
2101,
2173,
2087,
2067,
1980,
2010,
2000,
2079,
2081,
1961,
1996,
1982,
1978,
1918,
1912,
1929,
1829,
1879,
1827,
1858,
1754,
1884,
1826,
1753,
1785,
1796,
1689,
1781,
1774,
1726,
1722,
1717,
1748,
1658,
1695,
1668,
1688,
1676,
1717,
1758,
1713,
1578,
1553,
1563,
1613,
1462,
1510,
1514,
1498,
1525,
1391,
1461,
1428,
1390,
1407,
1486,
1396,
1420,
1397,
1375,
1340,
1373,
1331,
1302,
1299,
1307,
1294,
1300,
1264,
1283,
1233,
1220,
1226,
1240,
1184,
1239,
1199,
1203,
1315,
1397,
1610,
1848,
2250,
2473,
2716,
2617,
2347,
1968,
1618,
1332,
1176,
1025,
1063,
1078,
993,
1058,
1008,
960,
948,
944,
946,
973,
916,
946,
901,
937,
868,
922,
819,
844,
883,
791,
870,
810,
854,
824,
817,
808,
801,
744,
688,
728,
702,
743,
748,
728,
696,
639,
716,
670,
696,
670,
645,
645,
667,
628,
639,
628,
683,
665,
606,
590,
630,
535,
543,
563,
549,
532,
539,
578,
635,
696,
720,
737,
710,
710,
626,
522,
490,
458,
458,
455,
442,
424,
424,
435,
393,
390,
387,
350,
346,
377,
330,
343,
317,
310,
303,
296,
313,
301,
270,
277,
262,
256,
263,
249,
250,
242,
219,
248,
229,
240,
248,
187,
181,
187,
190,
194,
195,
200,
191,
193,
172,
166,
143,
156,
141,
143,
134,
123,
130,
113,
137,
115,
81,
87,
110,
67,
92,
89,
70,
69,
65,
58,
50,
45,
40,
34,
33,
31,
23,
22,
14,
6,
12,
10,
8,
8,
4,
8,
2,
7,
2,
7,
3,
8,
2,
6,
7,
4,
4,
1,
3,
3,
3,
2,
3,
3,
2,
2,
4,
3,
4,
1,
6,
6,
3,
7,
2,
2,
2,
2,
1,
3,
4,
0,
2,
2,
0,
2,
2,
1,
1,
4,
4,
2,
3,
2,
4,
3,
1,
2,
0,
0,
1,
0,
1,
3,
3,
2,
2,
3,
1,
1,
1,
4,
2,
2,
3,
0,
0,
0,
1,
2,
1,
2,
0,
0,
0,
1,
3,
1,
2,
1,
1,
0,
1,
2,
3,
1,
2,
1,
1,
7,
1,
2,
3,
0,
3,
0,
1,
0,
1,
1,
3,
1,
0,
1,
3,
0,
0,
1,
0,
2,
2,
1,
2,
1,
1,
0,
1,
1,
3,
2,
0,
2,
1,
0,
3,
0,
1,
0,
1,
1,
2,
1,
0,
1,
0,
1,
1,
1,
0,
0,
0,
1,
2,
1,
4,
0,
1,
0,
1,
1,
3,
0,
0,
1,
1,
1,
1,
1,
2,
0,
2,
0,
0,
1,
0,
0,
0,
0,
1,
0,
0,
3,
0,
0,
2,
1,
0,
0,
1,
0,
1,
1,
0,
0,
0,
1,
0,
0,
1,
1,
2,
0,
0,
2,
2,
0,
0,
0,
0,
1,
1,
2,
0,
1,
0,
0,
0,
0,
1,
0,
0,
0,
0,
1,
0,
0,
2,
0,
0,
0,
1,
1,
0,
0,
0,
0,
0,
0,
0,
0,
2,
0,
0,
1,
0,
0,
0,
0,
1,
1,
0,
0,
0,
0,
0,
0,
1,
0,
0,
0,
0,
0,
0,
0,
0,
0,
0,
0,
0,
1,
0,
1,
0,
0,
0,
0,
0,
0,
0,
0,
1,
0,
0,
1,
0,
0,
0,
1,
0,
1,
0,
0,
0,
0,
0,
1,
0,
0,
0,
0,
0,
0,
1,
0,
0,
0,
0,
0,
0,
0,
0,
1,
1,
0,
0,
1,
0,
0,
0,
0,
0,
0,
0,
0,
1,
0,
0,
0,
0,
0,
1,
0,
0,
0,
0,
0,
0,
0,
0,
0,
0,
0,
0,
1,
0,
0,
0,
0,
0,
0,
0,
0,
0,
0,
0,
0,
0,
0,
0,
0,
0,
0,
0,
0,
1,
0,
0,
0,
0,
0,
0,
0,
0,
0,
0,
0,
0,
0,
0,
0,
0,
0,
0,
0,
0,
0,
0,
0,
0,
0,
0,
0,
0,
0,
0,
0,
0,
0,
0,
0,
0,
0,
0,
0,
0,
0,
0,
0,
0,
0,
0,
0,
0,
0,
0,
0,
0,
0,
0,
0,
0,
0,
0,
0,
0,
0,
0,
0,
0,
0,
0,
0,
0,
0,
0,
0,
0,
0,
0,
0,
0,
0,
0,
0,
0,
0,
0,
0,
0,
0,
0,
0,
0,
0,
0,
0,
0,
0,
0,
0,
0,
0,
0,
0,
0,
0,
0,
0,
0,
0,
0,
0,
0,
0,
0,
0,
0,
0,
0,
0,
0,
0,
0,
0,
0,
0,
0,
0,
0,
0,
0,
0,
0,
0,
0,
0,
0,
0,
0,
0,
0,
0,
0,
0,
0,
0,
0,
0,
0,
0,
0,
0,
0,
0,
0,
0,
0,
0,
0,
0,
0,
0,
0,
0,
0,
0,
0,
0,
0,
0,
0,
0,
0,
0,
0,
0,
0,
0,
0,
0,
0,
0,
0,
0,
0,
0,
0,
0,
0,
0,
0,
0,
0,
0,
0,
0,
0,
0,
0,
0,
0,
0,
0,
0,
0,
0,
0,
0,
0,
0,
0,
0,
0,
0,
0,
0,
0,
0,
0,
0,
0,
0,
0,
0,
0,
0,
0,
0,
0,
0,
0,
0,
0,
0,
0,
0,
0,
0,
0,
0,
0,
0,
0,
0,
0,
0,
0,
0,
0,
0,
0,
0,
0,
0,
0,
0,
0,
0,
0,
0,
0,
0,
0,
0,
0,
0,
0,
0,
0,
0,
0,
0,
0,
0,
0,
0,
0,
0,
0,
0,
0,
0,
0,
0,
0,
0,
0,
0,
0,
0,
0,
0,
0,
0,
0,
0,
0,
0,
0,
0,
0,
0,
0,
0,
0,
0,
0,
0,
0,
0,
0,
0,
0,
0,
0,
0,
0,
0,
0,
0,
0,
0,
0,
0,
0,
0,
0,
0,
0,
0,
0,
0,
0,
0,
0,
0,
0,
0,
0,
0,
0,
0,
0,
0,
0,
0,
0,
0,
0,
0,
0,
0,
0,
0,
0,
0,
0,
0,
0,
0,
0,
0,
0,
0,
0,
0,
0,
0,
0,
0,
0,
0,
0,
0,
0,
0,
0,
0,
0,
0,
0,
0,
0,
0,
0,
0,
0,
0,
0,
0,
0,
0,
0,
0,
0,
0,
0,
0,
0,
0,
0,
0,
0,
0,
0,
0,
0,
0,
0,
0,
0,
0,
0,
0,
0,
0,
0,
0,
0,
0,
0,
0,
0,
0,
0,
0,
0,
0,
0,
0,
0,
0,
0,
0,
0,
0,
0,
0,
0,
0,
0,
0,
0,
0,
0,
0,
0,
0,
0,
0,
0,
0,
0,
0,
0,
0,
0,
0,
0,
0,
0,
0,
0,
0,
0,
0,
0,
0,
0,
0,
0,
0,
0,
0,
0,
0,
0,
0,
0,
0,
0,
0,
0,
0,
0,
0,
0,
0,
0,
0,
0,
0,
0,
0,
0,
0,
0,
0,
0,
0,
0,
0,
0,
0,
0,
#ENDOFDATA   :