File: N132962/Quantification/15 keV/GMIIIA/GMIIIA K1010[7][4].msa
#FORMAT      : EMSA/MAS Spectral Data File
#VERSION     : 1.0
#TITLE       : GMIIIA K1010[7][all]
#DATE        : 22-SEP-2025
#TIME        : 21:39
#OWNER       : Unknown
#NPOINTS     : 4096
#NCOLUMNS    : 1
#XUNITS      : eV
#YUNITS      : counts
#DATATYPE    : Y
#XPERCHAN    : 9.99778
#OFFSET      : 1.69135
#BEAMKV      : 15
#SIGNALTYPE  : EDS
#ELEVANGLE   : 35
#AZIMANGLE   : 0
#LIVETIME    : 239.997
#REALTIME    : 256.24
#PROBECUR    : 1.21615
#TAUWIND     : 0
#TDEADLYR    : 0
#TACTLYR     : 0.045
#TALWIND     : 0.025
#CHOFFSET    : 0.0
#XLABEL      : Energy (eV)
#YLABEL      : Counts
#XPOSITION   : 8.94769
#YPOSITION   : 15.52763
#ZPOSITION   : 37.36299
#EDSDET      : SD
##SPECIMEN   : GMIIIA K1010[7][all]
##D2STDCMP   : K1010,(O:38.96),(Al:8.92),(Si:21.02),(K:1.87),(Ca:6.75),(Ge:1.56),(Rb:2.06),(Sr:10.05),(Te:0.9),(Cs:2.12),(La:1.92),(Eu:1.94),(Gd:1.95)
##DET_HASH   : 12273538-fd48-a23f-0a19-f1e6fa85caef
##CALIB_HASH : 6abaa72c-aa41-8738-0be9-f592914732f3
##WORKING    : 15.0 mm
##DET_NAME   : EDAX All
##DET_MODE   : MediumLE
#SPECTRUM    :
17,
21,
8,
26,
111,
441,
1152,
2759,
6271,
8541,
6628,
4880,
4642,
5084,
7852,
24911,
90871,
171213,
124491,
33368,
5868,
3690,
4140,
4306,
4178,
4133,
4383,
4989,
5654,
5867,
5795,
5660,
5510,
5885,
6350,
6633,
6730,
8121,
10920,
14596,
15512,
11673,
8026,
6527,
6416,
6504,
7670,
14192,
38512,
73991,
75767,
41646,
17335,
9826,
9524,
18312,
56764,
133536,
181951,
144678,
84160,
49057,
29366,
16585,
9532,
6020,
4701,
3937,
3378,
3279,
3214,
3230,
3240,
3426,
3461,
3529,
3620,
3375,
3295,
3106,
3160,
3108,
3047,
3084,
3051,
3064,
2941,
2936,
2914,
2891,
2905,
2885,
2911,
2910,
2822,
2875,
2811,
2697,
2842,
2849,
2888,
2711,
2701,
2676,
2760,
2843,
2916,
3342,
4559,
6726,
9021,
9042,
6752,
4114,
2998,
2751,
2735,
2940,
3246,
4115,
6345,
11853,
19888,
24648,
21192,
13070,
6621,
3659,
2645,
2399,
2402,
2853,
3724,
4509,
4944,
4365,
3294,
2530,
2246,
2264,
2477,
3030,
3711,
3882,
3386,
2790,
2164,
1958,
1898,
1846,
1987,
2117,
2548,
3147,
3784,
3884,
3369,
2763,
2173,
1923,
1743,
1778,
1769,
1869,
1907,
2015,
2020,
2224,
2156,
2146,
1973,
1823,
1769,
1599,
1664,
1577,
1705,
1616,
1708,
1716,
1698,
1671,
1562,
1491,
1427,
1427,
1364,
1289,
1276,
1405,
1423,
1501,
1712,
2018,
2238,
2249,
2002,
1708,
1527,
1677,
1811,
2028,
1991,
1937,
1566,
1363,
1225,
1126,
1166,
1115,
1089,
1155,
1263,
1267,
1464,
1430,
1373,
1284,
1257,
1174,
1150,
1205,
1277,
1305,
1398,
1309,
1254,
1226,
1165,
1162,
1026,
1000,
910,
926,
960,
1058,
992,
997,
1008,
912,
891,
852,
817,
841,
812,
834,
848,
864,
898,
905,
878,
832,
789,
814,
742,
806,
824,
771,
808,
761,
809,
802,
707,
699,
675,
651,
761,
739,
694,
715,
705,
730,
676,
637,
623,
619,
661,
603,
644,
615,
609,
635,
628,
639,
541,
570,
605,
585,
577,
555,
578,
529,
544,
565,
550,
556,
592,
512,
523,
526,
520,
476,
493,
500,
476,
492,
479,
452,
498,
452,
441,
432,
474,
455,
443,
433,
458,
410,
417,
452,
395,
429,
424,
430,
463,
445,
507,
585,
595,
623,
582,
500,
477,
441,
396,
383,
374,
391,
350,
370,
367,
366,
366,
324,
321,
331,
327,
293,
322,
363,
324,
291,
281,
299,
295,
317,
284,
288,
301,
308,
249,
265,
303,
290,
253,
300,
293,
294,
280,
258,
265,
287,
259,
260,
232,
223,
195,
210,
252,
208,
211,
197,
231,
231,
178,
207,
199,
209,
205,
181,
190,
202,
190,
181,
203,
150,
176,
172,
167,
173,
161,
161,
177,
147,
150,
159,
151,
142,
145,
130,
138,
150,
136,
137,
117,
127,
119,
133,
117,
121,
103,
118,
133,
102,
110,
100,
108,
101,
113,
98,
81,
102,
90,
96,
103,
100,
74,
83,
84,
82,
69,
84,
79,
76,
70,
55,
53,
58,
70,
64,
61,
52,
67,
54,
53,
52,
44,
59,
59,
61,
46,
48,
41,
48,
38,
36,
41,
44,
40,
38,
28,
29,
37,
28,
27,
21,
30,
27,
29,
18,
36,
17,
17,
11,
17,
16,
15,
9,
19,
11,
10,
3,
7,
5,
8,
5,
4,
4,
2,
1,
2,
1,
0,
1,
1,
1,
0,
0,
0,
0,
1,
0,
0,
0,
1,
0,
0,
0,
0,
0,
1,
0,
0,
0,
0,
0,
0,
0,
0,
0,
0,
0,
0,
1,
0,
0,
0,
0,
0,
1,
0,
0,
1,
0,
2,
1,
0,
0,
0,
1,
0,
1,
0,
0,
0,
1,
0,
0,
0,
0,
0,
0,
0,
0,
0,
0,
0,
0,
2,
1,
0,
0,
0,
0,
0,
1,
0,
0,
0,
0,
0,
0,
0,
0,
0,
0,
0,
0,
0,
1,
0,
0,
0,
0,
2,
0,
1,
0,
0,
0,
0,
0,
0,
0,
0,
0,
0,
0,
0,
0,
0,
0,
1,
0,
0,
0,
0,
0,
0,
0,
0,
0,
0,
1,
0,
0,
1,
0,
0,
0,
0,
1,
0,
1,
0,
0,
0,
0,
0,
1,
1,
1,
0,
0,
0,
0,
0,
0,
0,
0,
0,
0,
0,
0,
0,
0,
0,
0,
0,
0,
0,
0,
1,
0,
0,
1,
0,
0,
0,
0,
0,
0,
0,
0,
0,
0,
0,
0,
0,
0,
0,
0,
0,
0,
0,
0,
0,
0,
0,
0,
0,
0,
0,
0,
0,
0,
0,
0,
0,
0,
0,
0,
0,
0,
0,
0,
0,
0,
0,
0,
0,
0,
0,
0,
0,
0,
0,
0,
0,
1,
0,
0,
0,
0,
0,
0,
0,
0,
0,
0,
0,
0,
0,
0,
0,
0,
0,
0,
0,
0,
0,
0,
0,
0,
0,
0,
0,
0,
0,
0,
0,
0,
0,
0,
0,
0,
0,
0,
0,
0,
0,
0,
0,
0,
0,
0,
0,
0,
0,
0,
0,
0,
0,
0,
0,
0,
0,
0,
0,
0,
0,
0,
0,
0,
0,
0,
0,
0,
0,
0,
0,
0,
0,
0,
0,
0,
0,
0,
0,
0,
0,
0,
0,
0,
0,
0,
0,
0,
0,
0,
0,
0,
0,
0,
0,
0,
0,
0,
0,
0,
0,
0,
0,
0,
0,
0,
0,
0,
0,
0,
0,
0,
0,
0,
0,
0,
0,
0,
0,
0,
0,
0,
0,
0,
0,
0,
0,
0,
0,
0,
0,
0,
0,
0,
0,
0,
0,
0,
0,
0,
0,
0,
0,
0,
0,
0,
0,
0,
0,
0,
0,
0,
0,
0,
0,
0,
0,
0,
0,
0,
0,
0,
0,
0,
0,
0,
0,
0,
0,
0,
0,
0,
0,
0,
0,
0,
0,
0,
0,
0,
0,
0,
0,
0,
0,
0,
0,
0,
0,
0,
0,
0,
0,
0,
0,
0,
0,
0,
0,
0,
0,
0,
0,
0,
0,
0,
0,
0,
0,
0,
0,
0,
0,
0,
0,
0,
0,
0,
0,
0,
0,
0,
0,
0,
0,
0,
0,
0,
0,
0,
0,
0,
0,
0,
0,
0,
0,
0,
0,
0,
0,
0,
0,
0,
0,
0,
0,
0,
0,
0,
0,
0,
0,
0,
0,
0,
0,
0,
0,
0,
0,
0,
0,
0,
0,
0,
0,
0,
0,
0,
0,
0,
0,
0,
0,
0,
0,
0,
0,
0,
0,
0,
0,
0,
0,
0,
0,
0,
0,
0,
0,
0,
0,
0,
0,
0,
0,
0,
0,
0,
0,
0,
0,
0,
0,
0,
0,
0,
0,
0,
0,
0,
0,
0,
0,
0,
0,
0,
0,
0,
0,
0,
0,
0,
0,
0,
0,
0,
0,
0,
0,
0,
0,
0,
0,
0,
0,
0,
0,
0,
0,
0,
0,
0,
0,
0,
0,
0,
0,
0,
0,
0,
0,
0,
0,
0,
0,
0,
0,
0,
0,
0,
0,
0,
0,
0,
0,
0,
0,
0,
0,
0,
0,
0,
0,
0,
0,
0,
0,
0,
0,
0,
0,
0,
0,
0,
0,
0,
0,
0,
0,
0,
0,
0,
0,
0,
0,
0,
0,
0,
0,
0,
0,
0,
0,
0,
0,
0,
0,
0,
0,
0,
0,
0,
0,
0,
0,
0,
0,
0,
0,
0,
0,
0,
0,
0,
0,
0,
0,
0,
0,
0,
0,
0,
0,
0,
0,
0,
0,
0,
0,
0,
0,
0,
0,
0,
0,
0,
0,
0,
0,
0,
0,
0,
0,
0,
0,
0,
0,
0,
0,
0,
0,
0,
0,
0,
0,
0,
0,
0,
0,
0,
0,
0,
0,
0,
0,
0,
0,
0,
0,
0,
0,
0,
0,
0,
0,
0,
0,
0,
0,
0,
0,
0,
0,
0,
0,
0,
0,
0,
0,
0,
0,
0,
0,
0,
0,
0,
0,
0,
0,
0,
0,
0,
0,
0,
0,
0,
0,
0,
0,
0,
0,
0,
0,
0,
0,
0,
0,
0,
0,
0,
0,
0,
0,
0,
0,
0,
0,
0,
0,
0,
0,
0,
0,
0,
0,
0,
0,
0,
0,
0,
0,
0,
0,
0,
0,
0,
0,
0,
0,
0,
0,
0,
0,
0,
0,
0,
0,
0,
0,
0,
0,
0,
0,
0,
0,
0,
0,
0,
0,
0,
0,
0,
0,
0,
0,
0,
0,
0,
0,
0,
0,
0,
0,
0,
0,
0,
0,
0,
0,
0,
0,
0,
0,
0,
0,
0,
0,
0,
0,
0,
0,
0,
0,
0,
0,
0,
0,
0,
0,
0,
0,
0,
0,
0,
0,
0,
0,
0,
0,
0,
0,
0,
0,
0,
0,
0,
0,
0,
0,
0,
0,
0,
0,
0,
#ENDOFDATA   :