File: N132962/Quantification/15 keV/GMIIIA/GMIIIA K1012[3][4].msa
#FORMAT      : EMSA/MAS Spectral Data File
#VERSION     : 1.0
#TITLE       : GMIIIA K1012[3][all]
#DATE        : 22-SEP-2025
#TIME        : 21:24
#OWNER       : Unknown
#NPOINTS     : 4096
#NCOLUMNS    : 1
#XUNITS      : eV
#YUNITS      : counts
#DATATYPE    : Y
#XPERCHAN    : 9.99778
#OFFSET      : 1.69135
#BEAMKV      : 15
#SIGNALTYPE  : EDS
#ELEVANGLE   : 35
#AZIMANGLE   : 0
#LIVETIME    : 239.934
#REALTIME    : 256.611
#PROBECUR    : 1.21822
#TAUWIND     : 0
#TDEADLYR    : 0
#TACTLYR     : 0.045
#TALWIND     : 0.025
#CHOFFSET    : 0.0
#XLABEL      : Energy (eV)
#YLABEL      : Counts
#XPOSITION   : 6.85374
#YPOSITION   : 15.39819
#ZPOSITION   : 37.36299
#EDSDET      : SD
##SPECIMEN   : GMIIIA K1012[3][all]
##D2STDCMP   : K1012,(O:39.34),(Na:1.48),(Mg:9.05),(Al:7.94),(Si:18.7),(P:0.63),(K:1.66),(Ca:0.4),(Ga:1.49),(Se:0.71),(In:1.65),(Cs:1.89),(Ba:13.43),(Ce:1.63)
##DET_HASH   : 12273538-fd48-a23f-0a19-f1e6fa85caef
##CALIB_HASH : 6abaa72c-aa41-8738-0be9-f592914732f3
##WORKING    : 15.0 mm
##DET_NAME   : EDAX All
##DET_MODE   : MediumLE
#SPECTRUM    :
20,
25,
12,
26,
119,
449,
1146,
2898,
6282,
8044,
5787,
5052,
5812,
6767,
10923,
35284,
129250,
246180,
178657,
48948,
8963,
4982,
4895,
4813,
4691,
5450,
5968,
5735,
5176,
5282,
5335,
5604,
6672,
9564,
15440,
17754,
15391,
12648,
9753,
10292,
24249,
55855,
65982,
38719,
14070,
6357,
5879,
11013,
29396,
56020,
56727,
31319,
12465,
6825,
6301,
12674,
43024,
107593,
145567,
103570,
43205,
15880,
8322,
5122,
4056,
4341,
5539,
6366,
5790,
4346,
3540,
3340,
3347,
3232,
3501,
3700,
3762,
3388,
3319,
3032,
3028,
3088,
3091,
3007,
3025,
3020,
3014,
3004,
2960,
2940,
2993,
3072,
2938,
2825,
2937,
2910,
2879,
2896,
2952,
2896,
2943,
2796,
2842,
2769,
2702,
2752,
2886,
3652,
5688,
8862,
11327,
10383,
7325,
4403,
3282,
3291,
3531,
3711,
3472,
3434,
3457,
3551,
3781,
3992,
3683,
3019,
2670,
2311,
2324,
2332,
2371,
2579,
2557,
2587,
2326,
2189,
2096,
2040,
2026,
2056,
2408,
2974,
3672,
3908,
3713,
3555,
4579,
7459,
10785,
12138,
10195,
6562,
4059,
2906,
2732,
2548,
2329,
2431,
3117,
4453,
6528,
7468,
7121,
5541,
4093,
3096,
2523,
2028,
1867,
2004,
2315,
2935,
3204,
3014,
2729,
2425,
2159,
1961,
1729,
1566,
1545,
1501,
1637,
1827,
2029,
2032,
1925,
1674,
1556,
1466,
1385,
1374,
1421,
1483,
1470,
1333,
1230,
1225,
1186,
1219,
1234,
1276,
1183,
1168,
1096,
1102,
1078,
1105,
1113,
1075,
1031,
1066,
1107,
1090,
1073,
1047,
970,
957,
993,
940,
1012,
932,
979,
999,
953,
933,
915,
921,
904,
907,
917,
891,
872,
826,
826,
862,
835,
855,
786,
886,
824,
818,
746,
782,
782,
813,
771,
785,
815,
784,
769,
724,
757,
686,
666,
685,
779,
742,
725,
671,
687,
666,
690,
674,
640,
643,
633,
668,
601,
657,
607,
674,
642,
676,
609,
620,
593,
589,
621,
586,
584,
582,
529,
554,
560,
555,
546,
550,
523,
519,
541,
546,
534,
541,
506,
545,
514,
550,
459,
497,
450,
489,
527,
509,
603,
593,
727,
780,
783,
792,
713,
595,
502,
438,
444,
447,
436,
488,
413,
444,
418,
404,
433,
387,
409,
383,
375,
348,
391,
403,
374,
359,
361,
360,
393,
361,
358,
369,
369,
356,
374,
397,
365,
355,
411,
321,
310,
331,
296,
303,
316,
304,
268,
308,
300,
302,
261,
271,
277,
280,
295,
256,
270,
276,
253,
269,
257,
257,
274,
232,
220,
251,
229,
244,
210,
220,
233,
206,
213,
204,
196,
202,
223,
202,
215,
194,
184,
206,
185,
184,
182,
165,
189,
196,
174,
169,
170,
169,
146,
139,
168,
145,
175,
138,
155,
140,
126,
146,
135,
151,
116,
134,
133,
130,
121,
109,
145,
113,
121,
128,
128,
113,
114,
105,
107,
101,
80,
87,
94,
103,
105,
94,
94,
90,
81,
75,
81,
93,
96,
74,
85,
66,
82,
84,
85,
68,
75,
78,
57,
56,
58,
52,
61,
65,
58,
45,
61,
53,
54,
44,
43,
43,
40,
54,
45,
48,
41,
37,
36,
27,
23,
33,
18,
28,
22,
24,
22,
19,
20,
28,
22,
15,
28,
20,
24,
17,
18,
11,
10,
9,
10,
10,
4,
7,
5,
8,
6,
0,
6,
3,
1,
2,
0,
0,
0,
2,
0,
0,
0,
1,
1,
1,
1,
0,
2,
0,
0,
1,
1,
0,
1,
0,
1,
1,
0,
1,
1,
0,
0,
0,
0,
1,
0,
0,
0,
0,
2,
1,
0,
0,
0,
1,
0,
0,
1,
0,
0,
0,
0,
0,
0,
0,
0,
0,
0,
0,
0,
0,
1,
0,
0,
0,
0,
0,
0,
0,
0,
0,
0,
1,
0,
0,
0,
0,
0,
0,
0,
0,
0,
0,
1,
0,
1,
2,
0,
0,
0,
0,
0,
1,
0,
0,
0,
0,
0,
1,
0,
0,
0,
0,
0,
0,
0,
0,
0,
0,
0,
0,
0,
0,
0,
0,
0,
0,
0,
0,
0,
0,
0,
0,
0,
0,
0,
0,
0,
0,
1,
0,
0,
0,
0,
0,
1,
1,
0,
0,
0,
0,
0,
0,
0,
0,
0,
0,
0,
0,
1,
0,
0,
0,
1,
0,
0,
0,
0,
0,
0,
0,
0,
0,
0,
0,
0,
0,
0,
0,
0,
0,
0,
0,
0,
0,
0,
0,
0,
0,
0,
0,
0,
0,
0,
0,
0,
0,
0,
0,
0,
0,
0,
0,
0,
0,
0,
0,
0,
0,
0,
0,
0,
0,
0,
0,
0,
0,
0,
0,
0,
1,
0,
0,
0,
0,
0,
0,
0,
0,
0,
0,
0,
0,
0,
0,
0,
0,
0,
0,
0,
0,
0,
0,
0,
0,
0,
0,
0,
0,
0,
0,
0,
0,
0,
0,
0,
0,
0,
0,
0,
0,
0,
0,
0,
0,
0,
0,
0,
0,
0,
0,
0,
0,
0,
0,
0,
0,
0,
0,
0,
0,
1,
0,
0,
0,
0,
0,
0,
0,
0,
0,
0,
0,
0,
0,
0,
0,
0,
0,
0,
0,
0,
0,
0,
0,
0,
0,
0,
0,
0,
0,
0,
0,
0,
0,
0,
0,
0,
0,
0,
0,
0,
0,
0,
0,
0,
0,
0,
0,
0,
0,
0,
0,
0,
0,
0,
0,
0,
0,
0,
0,
0,
0,
0,
0,
0,
0,
0,
0,
0,
0,
0,
0,
0,
0,
0,
0,
0,
0,
0,
0,
0,
0,
0,
0,
0,
0,
0,
0,
0,
0,
0,
0,
0,
0,
0,
0,
0,
0,
0,
0,
0,
0,
0,
0,
0,
0,
0,
0,
0,
0,
0,
0,
0,
0,
0,
0,
0,
0,
0,
0,
0,
0,
0,
0,
0,
0,
0,
0,
0,
0,
0,
0,
0,
0,
0,
0,
0,
0,
0,
0,
0,
0,
0,
0,
0,
0,
0,
0,
0,
0,
0,
0,
0,
0,
0,
0,
0,
0,
0,
0,
0,
0,
0,
0,
0,
0,
0,
0,
0,
0,
0,
0,
0,
0,
0,
0,
0,
0,
0,
0,
0,
0,
0,
0,
0,
0,
0,
0,
0,
0,
0,
0,
0,
0,
0,
0,
0,
0,
0,
0,
0,
0,
0,
0,
0,
0,
0,
0,
0,
0,
0,
0,
0,
0,
0,
0,
0,
0,
0,
0,
0,
0,
0,
0,
0,
0,
0,
0,
0,
0,
0,
0,
0,
0,
0,
0,
0,
0,
0,
0,
0,
0,
0,
0,
0,
0,
0,
0,
0,
0,
0,
0,
0,
0,
0,
0,
0,
0,
0,
0,
0,
0,
0,
0,
0,
0,
0,
0,
0,
0,
0,
0,
0,
0,
0,
0,
0,
0,
0,
0,
0,
0,
0,
0,
0,
0,
0,
0,
0,
0,
0,
0,
0,
0,
0,
0,
0,
0,
0,
0,
0,
0,
0,
0,
0,
0,
0,
0,
0,
0,
0,
0,
0,
0,
0,
0,
0,
0,
0,
0,
0,
0,
0,
0,
0,
0,
0,
0,
0,
0,
0,
0,
0,
0,
0,
0,
0,
0,
0,
0,
0,
0,
0,
0,
0,
0,
0,
0,
0,
0,
0,
0,
0,
0,
0,
0,
0,
0,
0,
0,
0,
0,
0,
0,
0,
0,
0,
0,
0,
0,
0,
0,
0,
0,
0,
0,
0,
0,
0,
0,
0,
0,
0,
0,
0,
0,
0,
0,
0,
0,
0,
0,
0,
0,
0,
0,
0,
0,
0,
0,
0,
0,
0,
0,
0,
0,
0,
0,
0,
0,
0,
0,
0,
0,
0,
0,
0,
0,
0,
0,
0,
0,
0,
0,
0,
0,
0,
0,
0,
0,
0,
0,
0,
0,
0,
0,
0,
0,
0,
0,
0,
0,
0,
0,
0,
0,
0,
0,
0,
0,
0,
0,
0,
0,
0,
0,
0,
0,
0,
0,
0,
0,
0,
0,
0,
0,
0,
0,
0,
0,
0,
0,
0,
0,
0,
0,
0,
0,
0,
0,
0,
0,
0,
0,
0,
0,
0,
0,
0,
0,
0,
0,
0,
0,
0,
0,
0,
0,
0,
0,
0,
0,
0,
0,
0,
0,
0,
0,
0,
0,
0,
0,
0,
0,
0,
0,
0,
0,
0,
0,
0,
0,
0,
0,
0,
0,
0,
0,
0,
0,
0,
0,
0,
0,
0,
0,
0,
0,
0,
0,
0,
0,
0,
0,
0,
0,
0,
0,
0,
0,
0,
0,
0,
0,
0,
0,
0,
0,
0,
0,
0,
0,
0,
0,
0,
0,
0,
0,
0,
0,
0,
0,
0,
0,
0,
0,
0,
0,
0,
0,
0,
0,
0,
0,
0,
0,
0,
0,
0,
0,
0,
0,
0,
0,
0,
0,
0,
0,
#ENDOFDATA   :