File: N132962/Quantification/15 keV/GMIIIA/GMIIIA K1001[4][4].msa
#FORMAT      : EMSA/MAS Spectral Data File
#VERSION     : 1.0
#TITLE       : GMIIIA K1001[4][all]
#DATE        : 22-SEP-2025
#TIME        : 21:56
#OWNER       : Unknown
#NPOINTS     : 4096
#NCOLUMNS    : 1
#XUNITS      : eV
#YUNITS      : counts
#DATATYPE    : Y
#XPERCHAN    : 9.99778
#OFFSET      : 1.69135
#BEAMKV      : 15
#SIGNALTYPE  : EDS
#ELEVANGLE   : 35
#AZIMANGLE   : 0
#LIVETIME    : 239.994
#REALTIME    : 256.289
#PROBECUR    : 1.21615
#TAUWIND     : 0
#TDEADLYR    : 0
#TACTLYR     : 0.045
#TALWIND     : 0.025
#CHOFFSET    : 0.0
#XLABEL      : Energy (eV)
#YLABEL      : Counts
#XPOSITION   : 13.47066
#YPOSITION   : 15.05539
#ZPOSITION   : 37.36299
#EDSDET      : SD
##SPECIMEN   : GMIIIA K1001[4][all]
##D2STDCMP   : K1001,(O:39.47),(Na:1.67),(Mg:1.36),(Al:8.92),(Si:21.02),(K:1.87),(Ca:6.75),(Rb:2.06),(Sr:10.05),(Pr:1.92),(Nd:1.93),(Er:1.97),(Pb:1.04)
##DET_HASH   : 12273538-fd48-a23f-0a19-f1e6fa85caef
##CALIB_HASH : 6abaa72c-aa41-8738-0be9-f592914732f3
##WORKING    : 15.0 mm
##DET_NAME   : EDAX All
##DET_MODE   : MediumLE
#SPECTRUM    :
25,
19,
20,
28,
121,
391,
1091,
2888,
7307,
9567,
6821,
4746,
4530,
4984,
7678,
24307,
88330,
167975,
122158,
32603,
5617,
3438,
4169,
4565,
4414,
4550,
4403,
4535,
4684,
5209,
5929,
7042,
8010,
10557,
16148,
16929,
11301,
7201,
6215,
6613,
9281,
14948,
16666,
12039,
7890,
7632,
10269,
18269,
42381,
76789,
76038,
41011,
16920,
9851,
9600,
18815,
57601,
134612,
182058,
144820,
84742,
49539,
29252,
16605,
9538,
5931,
4478,
3758,
3328,
3168,
3045,
3199,
3157,
3308,
3476,
3675,
3888,
4179,
4555,
4308,
4074,
3810,
3773,
3352,
2985,
2900,
2951,
2883,
2914,
2986,
2845,
2888,
2798,
2883,
2755,
2860,
2822,
2796,
2807,
2758,
2784,
2688,
2661,
2695,
2569,
2613,
2955,
3224,
4239,
6559,
8840,
8578,
6596,
4078,
2912,
2589,
2682,
3014,
3142,
3887,
6242,
11802,
19558,
24169,
20455,
12231,
5875,
3161,
2274,
2190,
2343,
2570,
3524,
4272,
4662,
4038,
2950,
2268,
1990,
1855,
1918,
1883,
1819,
1692,
1801,
1738,
1778,
1701,
1823,
1831,
1765,
1823,
1791,
1682,
1807,
1667,
1618,
1652,
1605,
1502,
1619,
1571,
1613,
1567,
1720,
1997,
2344,
2815,
2875,
2513,
2193,
1832,
2027,
2207,
2398,
2295,
1959,
1760,
1607,
1443,
1543,
1804,
1899,
1969,
1932,
1714,
1494,
1525,
1509,
1675,
1704,
1666,
1700,
1600,
1560,
1481,
1388,
1309,
1267,
1166,
1212,
1237,
1315,
1312,
1267,
1233,
1240,
1145,
1163,
1201,
1167,
1116,
1113,
1110,
1154,
972,
1037,
1045,
1052,
1050,
1085,
1045,
975,
955,
1001,
940,
912,
1010,
1037,
1223,
1360,
1464,
1381,
1297,
1143,
994,
913,
852,
847,
861,
790,
864,
802,
846,
793,
760,
795,
788,
791,
816,
796,
751,
760,
767,
732,
738,
788,
811,
821,
880,
882,
856,
797,
868,
718,
731,
724,
702,
716,
692,
702,
712,
722,
684,
676,
651,
657,
594,
574,
586,
537,
534,
573,
544,
549,
523,
547,
554,
509,
534,
478,
493,
525,
526,
499,
506,
525,
504,
556,
506,
526,
467,
527,
489,
488,
509,
488,
448,
473,
433,
455,
461,
450,
447,
417,
433,
426,
407,
408,
421,
435,
407,
385,
398,
386,
383,
383,
387,
411,
349,
392,
386,
383,
338,
351,
297,
352,
348,
308,
359,
328,
334,
361,
294,
328,
312,
313,
319,
329,
284,
288,
308,
339,
320,
287,
271,
304,
282,
263,
259,
251,
270,
263,
247,
262,
245,
234,
243,
249,
229,
244,
230,
214,
216,
236,
223,
227,
210,
206,
227,
210,
212,
188,
227,
192,
229,
216,
198,
187,
170,
167,
192,
159,
169,
169,
168,
180,
149,
165,
143,
163,
165,
174,
144,
149,
148,
142,
135,
137,
139,
130,
137,
153,
143,
127,
112,
134,
113,
89,
110,
108,
95,
115,
131,
90,
118,
113,
100,
82,
91,
88,
92,
92,
90,
88,
76,
84,
87,
72,
70,
90,
71,
85,
72,
72,
70,
68,
73,
57,
55,
60,
58,
56,
47,
44,
52,
43,
52,
55,
40,
57,
48,
51,
50,
40,
30,
36,
29,
35,
34,
37,
35,
33,
33,
32,
25,
29,
23,
21,
25,
16,
18,
21,
13,
23,
13,
14,
12,
11,
10,
9,
12,
6,
8,
9,
4,
5,
5,
1,
1,
2,
0,
0,
2,
0,
1,
0,
1,
1,
0,
0,
0,
2,
0,
1,
0,
0,
0,
0,
0,
0,
0,
0,
0,
0,
0,
0,
0,
0,
0,
1,
1,
0,
2,
0,
1,
0,
0,
1,
0,
1,
1,
0,
0,
0,
0,
1,
0,
0,
0,
0,
0,
0,
1,
0,
0,
1,
0,
1,
0,
0,
1,
0,
0,
0,
0,
0,
0,
0,
0,
0,
1,
0,
0,
0,
0,
0,
0,
0,
1,
0,
0,
0,
0,
0,
0,
0,
0,
1,
0,
0,
0,
0,
1,
0,
0,
0,
0,
0,
0,
0,
0,
1,
1,
0,
0,
0,
0,
0,
0,
0,
1,
0,
0,
0,
0,
1,
0,
0,
0,
0,
0,
1,
0,
0,
0,
0,
0,
0,
0,
0,
0,
0,
0,
0,
0,
0,
0,
0,
0,
1,
0,
0,
0,
0,
0,
1,
0,
0,
0,
0,
0,
0,
0,
0,
0,
0,
1,
0,
0,
0,
0,
0,
0,
0,
0,
0,
0,
0,
0,
0,
0,
0,
0,
0,
0,
0,
0,
0,
0,
0,
0,
0,
0,
1,
0,
0,
0,
0,
0,
0,
0,
0,
0,
0,
0,
0,
0,
0,
0,
0,
0,
0,
0,
0,
0,
0,
0,
0,
0,
0,
0,
0,
0,
0,
0,
0,
0,
0,
0,
0,
0,
0,
0,
0,
0,
0,
0,
0,
0,
0,
0,
0,
0,
0,
0,
0,
0,
0,
0,
0,
0,
1,
0,
0,
0,
0,
0,
0,
0,
0,
0,
0,
0,
0,
0,
0,
0,
0,
0,
0,
0,
0,
0,
0,
0,
0,
0,
0,
0,
0,
0,
0,
0,
0,
0,
0,
0,
0,
0,
0,
0,
0,
0,
0,
0,
0,
0,
0,
0,
0,
0,
0,
0,
0,
0,
0,
0,
0,
0,
0,
0,
0,
0,
0,
0,
0,
0,
0,
0,
0,
0,
0,
0,
0,
0,
0,
0,
0,
0,
0,
0,
0,
0,
0,
0,
0,
0,
0,
0,
0,
0,
0,
0,
0,
0,
0,
0,
0,
0,
0,
0,
0,
0,
0,
0,
0,
0,
0,
0,
0,
0,
0,
0,
0,
0,
0,
0,
0,
0,
0,
0,
0,
0,
0,
0,
0,
0,
0,
0,
0,
0,
0,
0,
0,
0,
0,
0,
0,
0,
0,
0,
0,
0,
0,
0,
0,
0,
0,
0,
0,
0,
0,
0,
0,
0,
0,
0,
0,
0,
0,
0,
0,
0,
0,
0,
0,
0,
0,
0,
0,
0,
0,
0,
0,
0,
0,
0,
0,
0,
0,
0,
0,
0,
0,
0,
0,
0,
0,
0,
0,
0,
0,
0,
0,
0,
0,
0,
0,
0,
0,
0,
0,
0,
0,
0,
0,
0,
0,
0,
0,
0,
0,
0,
0,
0,
0,
0,
0,
0,
0,
0,
0,
0,
0,
0,
0,
0,
0,
0,
0,
0,
0,
0,
0,
0,
0,
0,
0,
0,
0,
0,
0,
0,
0,
0,
0,
0,
0,
0,
0,
0,
0,
0,
0,
0,
0,
0,
0,
0,
0,
0,
0,
0,
0,
0,
0,
0,
0,
0,
0,
0,
0,
0,
0,
0,
0,
0,
0,
0,
0,
0,
0,
0,
0,
0,
0,
0,
0,
0,
0,
0,
0,
0,
0,
0,
0,
0,
0,
0,
0,
0,
0,
0,
0,
0,
0,
0,
0,
0,
0,
0,
0,
0,
0,
0,
0,
0,
0,
0,
0,
0,
0,
0,
0,
0,
0,
0,
0,
0,
0,
0,
0,
0,
0,
0,
0,
0,
0,
0,
0,
0,
0,
0,
0,
0,
0,
0,
0,
0,
0,
0,
0,
0,
0,
0,
0,
0,
0,
0,
0,
0,
0,
0,
0,
0,
0,
0,
0,
0,
0,
0,
0,
0,
0,
0,
0,
0,
0,
0,
0,
0,
0,
0,
0,
0,
0,
0,
0,
0,
0,
0,
0,
0,
0,
0,
0,
0,
0,
0,
0,
0,
0,
0,
0,
0,
0,
0,
0,
0,
0,
0,
0,
0,
0,
0,
0,
0,
0,
0,
0,
0,
0,
0,
0,
0,
0,
0,
0,
0,
0,
0,
0,
0,
0,
0,
0,
0,
0,
0,
0,
0,
0,
0,
0,
0,
0,
0,
0,
0,
0,
0,
0,
0,
0,
0,
0,
0,
0,
0,
0,
0,
0,
0,
0,
0,
0,
0,
0,
0,
0,
0,
0,
0,
0,
0,
0,
0,
0,
0,
0,
0,
0,
0,
0,
0,
0,
0,
0,
0,
0,
0,
0,
0,
0,
0,
0,
0,
0,
0,
0,
0,
0,
0,
0,
0,
0,
0,
0,
0,
0,
0,
0,
0,
0,
0,
0,
0,
0,
0,
0,
0,
0,
0,
0,
0,
0,
0,
0,
0,
0,
0,
0,
0,
0,
0,
0,
0,
0,
0,
0,
0,
0,
0,
0,
0,
0,
0,
0,
0,
0,
0,
0,
0,
0,
0,
0,
0,
0,
0,
0,
0,
0,
0,
0,
0,
0,
0,
0,
0,
0,
0,
0,
0,
0,
0,
0,
0,
0,
0,
0,
0,
0,
0,
0,
0,
0,
0,
0,
0,
0,
0,
0,
0,
0,
0,
0,
0,
0,
0,
0,
0,
0,
0,
0,
0,
0,
0,
0,
0,
0,
0,
0,
0,
0,
0,
0,
0,
0,
0,
0,
0,
0,
0,
0,
0,
#ENDOFDATA   :