File: N132962/Quantification/15 keV/GMIIIA/GMIIIA K229[1][4].msa
#FORMAT      : EMSA/MAS Spectral Data File
#VERSION     : 1.0
#TITLE       : GMIIIA K229[1][all]
#DATE        : 22-SEP-2025
#TIME        : 14:24
#OWNER       : Unknown
#NPOINTS     : 4096
#NCOLUMNS    : 1
#XUNITS      : eV
#YUNITS      : counts
#DATATYPE    : Y
#XPERCHAN    : 9.99778
#OFFSET      : 1.69135
#BEAMKV      : 15
#SIGNALTYPE  : EDS
#ELEVANGLE   : 35
#AZIMANGLE   : 0
#LIVETIME    : 239.942
#REALTIME    : 260.142
#PROBECUR    : 1.21983
#TAUWIND     : 0
#TDEADLYR    : 0
#TACTLYR     : 0.045
#TALWIND     : 0.025
#CHOFFSET    : 0.0
#XLABEL      : Energy (eV)
#YLABEL      : Counts
#XPOSITION   : 5.9622
#YPOSITION   : 0.74248
#ZPOSITION   : 37.36299
#EDSDET      : SD
##SPECIMEN   : GMIIIA K229[1][all]
##D2STDCMP   : K229,(O:20.99),(Si:14.02),(Pb:64.98)
##DET_HASH   : 12273538-fd48-a23f-0a19-f1e6fa85caef
##CALIB_HASH : 6abaa72c-aa41-8738-0be9-f592914732f3
##WORKING    : 15.0 mm
##DET_NAME   : EDAX All
##DET_MODE   : MediumLE
#SPECTRUM    :
21,
28,
10,
43,
233,
980,
2520,
5583,
11404,
14094,
9813,
7129,
6937,
7169,
8475,
17553,
51102,
90563,
66501,
22113,
9545,
8037,
8157,
8529,
7656,
6947,
7007,
6885,
7350,
7675,
7498,
7727,
7930,
8227,
8095,
8247,
8515,
8754,
8710,
8796,
9028,
9277,
9380,
9263,
9411,
9595,
9604,
9656,
9913,
10362,
10305,
10185,
10149,
10213,
10998,
16970,
45087,
104583,
139543,
103226,
51283,
28388,
18829,
11879,
8849,
7765,
7366,
7392,
7237,
7562,
7784,
8346,
9351,
10304,
12224,
18747,
41770,
88244,
128624,
125019,
98615,
89329,
76324,
45454,
19763,
8955,
7309,
8833,
10461,
10083,
7927,
5878,
4943,
4916,
4824,
4849,
4974,
5147,
5191,
5215,
5412,
5911,
6040,
6161,
5894,
5651,
5134,
4776,
4661,
4533,
4472,
4488,
4429,
4461,
4438,
4536,
4602,
4524,
4397,
4306,
4320,
4292,
4165,
4345,
4254,
4263,
4208,
4162,
4084,
4118,
4051,
3956,
4052,
4091,
4081,
4024,
4237,
4212,
4104,
4038,
3978,
3999,
3940,
3996,
3843,
3774,
3726,
3817,
3797,
3866,
4162,
3920,
3835,
3754,
3737,
3815,
3683,
3682,
3580,
3745,
3685,
3734,
3603,
3566,
3623,
3609,
3583,
3467,
3420,
3357,
3395,
3407,
3313,
3436,
3331,
3301,
3189,
3217,
3266,
3126,
3279,
3186,
3213,
3180,
3136,
3136,
3206,
3081,
2939,
3078,
2901,
3081,
2885,
2975,
3042,
2915,
2969,
2894,
2906,
2914,
2860,
2772,
2766,
2802,
2756,
2719,
2696,
2692,
2687,
2723,
2779,
2733,
2707,
2732,
2741,
2690,
2650,
2555,
2543,
2609,
2533,
2529,
2563,
2426,
2394,
2503,
2446,
2473,
2456,
2397,
2238,
2364,
2311,
2314,
2288,
2315,
2221,
2277,
2232,
2249,
2271,
2205,
2264,
2157,
2195,
2111,
2231,
2127,
2152,
2070,
2027,
2088,
2075,
2021,
1927,
2032,
2048,
1938,
1945,
1944,
1877,
1883,
1852,
1934,
1849,
1831,
1883,
1844,
1870,
1787,
1815,
1796,
1739,
1754,
1893,
1742,
1750,
1683,
1700,
1635,
1692,
1661,
1629,
1733,
1613,
1591,
1659,
1602,
1535,
1602,
1556,
1578,
1543,
1563,
1532,
1550,
1479,
1484,
1489,
1490,
1479,
1498,
1482,
1480,
1475,
1436,
1448,
1481,
1328,
1397,
1326,
1323,
1305,
1294,
1350,
1395,
1290,
1269,
1214,
1267,
1219,
1252,
1265,
1213,
1215,
1164,
1169,
1159,
1133,
1139,
1132,
1111,
1134,
1141,
1123,
1131,
1171,
1106,
1096,
992,
1007,
1016,
1037,
1075,
1073,
1089,
1244,
1361,
1578,
1798,
1997,
2251,
2205,
1920,
1620,
1376,
1167,
1007,
917,
883,
850,
889,
875,
813,
830,
809,
772,
839,
763,
801,
769,
751,
739,
707,
781,
739,
762,
758,
750,
745,
714,
699,
678,
611,
636,
651,
641,
650,
660,
645,
634,
627,
587,
613,
583,
648,
591,
563,
568,
591,
560,
505,
566,
536,
500,
561,
511,
522,
514,
516,
469,
455,
469,
427,
466,
454,
524,
511,
604,
591,
598,
636,
585,
557,
480,
426,
418,
378,
356,
346,
334,
370,
366,
342,
346,
338,
296,
298,
308,
299,
236,
316,
262,
271,
249,
268,
216,
249,
242,
245,
219,
212,
175,
219,
198,
202,
191,
204,
187,
199,
196,
157,
147,
178,
145,
139,
123,
143,
147,
131,
110,
128,
136,
131,
118,
108,
85,
78,
110,
96,
86,
100,
79,
84,
69,
67,
62,
61,
46,
49,
44,
36,
52,
34,
28,
21,
27,
10,
13,
15,
11,
7,
9,
6,
4,
1,
4,
3,
2,
4,
3,
1,
3,
1,
6,
2,
4,
1,
0,
1,
2,
5,
2,
3,
3,
2,
1,
1,
2,
5,
1,
4,
3,
2,
0,
2,
4,
0,
1,
2,
3,
2,
1,
1,
2,
0,
1,
1,
5,
3,
2,
1,
2,
1,
0,
0,
2,
1,
1,
2,
1,
4,
3,
1,
1,
0,
1,
3,
1,
2,
2,
3,
0,
0,
1,
1,
1,
3,
2,
0,
1,
0,
1,
1,
0,
1,
0,
2,
2,
0,
1,
1,
2,
1,
2,
0,
3,
3,
1,
2,
2,
0,
1,
2,
0,
3,
1,
0,
3,
1,
1,
0,
1,
0,
0,
1,
1,
0,
1,
0,
3,
1,
2,
1,
1,
0,
2,
1,
0,
0,
0,
3,
0,
1,
0,
0,
1,
1,
0,
0,
0,
0,
1,
1,
0,
1,
1,
0,
1,
2,
2,
1,
1,
0,
1,
0,
1,
0,
2,
0,
1,
0,
1,
1,
0,
1,
0,
0,
2,
0,
1,
1,
0,
0,
0,
2,
0,
0,
0,
3,
0,
1,
2,
0,
0,
1,
0,
0,
0,
0,
0,
0,
1,
0,
0,
1,
0,
1,
2,
0,
0,
0,
2,
1,
1,
0,
0,
0,
0,
0,
1,
0,
1,
0,
1,
0,
0,
0,
0,
0,
0,
0,
0,
1,
0,
0,
0,
0,
0,
0,
0,
1,
0,
1,
0,
0,
2,
0,
0,
0,
0,
0,
0,
0,
0,
0,
0,
0,
0,
0,
0,
1,
0,
0,
0,
0,
0,
0,
0,
0,
0,
0,
0,
0,
0,
0,
0,
0,
1,
0,
0,
0,
0,
0,
0,
0,
0,
0,
0,
0,
0,
0,
0,
0,
0,
0,
0,
0,
0,
0,
0,
0,
0,
0,
0,
0,
0,
0,
0,
0,
0,
0,
0,
0,
0,
0,
0,
0,
0,
0,
0,
1,
0,
0,
0,
0,
0,
0,
0,
0,
0,
1,
0,
0,
0,
0,
0,
0,
0,
0,
0,
0,
0,
0,
0,
1,
0,
0,
0,
0,
0,
0,
0,
0,
0,
0,
0,
0,
0,
0,
0,
0,
0,
0,
0,
0,
0,
0,
0,
0,
0,
0,
0,
0,
0,
0,
0,
0,
0,
0,
0,
0,
0,
0,
0,
0,
0,
0,
0,
0,
0,
0,
0,
0,
0,
0,
0,
0,
0,
0,
0,
1,
0,
0,
0,
0,
0,
1,
0,
0,
0,
0,
1,
0,
0,
0,
0,
0,
0,
0,
0,
0,
0,
0,
0,
0,
0,
0,
0,
0,
0,
0,
0,
1,
0,
0,
0,
0,
0,
0,
0,
0,
0,
0,
0,
0,
0,
0,
0,
0,
0,
0,
0,
0,
0,
0,
0,
0,
0,
0,
0,
0,
0,
0,
0,
0,
0,
0,
0,
0,
0,
0,
0,
0,
0,
0,
0,
0,
0,
0,
0,
0,
0,
0,
0,
0,
0,
0,
0,
0,
0,
0,
0,
0,
0,
0,
0,
0,
0,
0,
0,
0,
0,
0,
0,
0,
0,
0,
0,
0,
0,
0,
0,
0,
0,
0,
0,
0,
0,
0,
0,
0,
0,
0,
0,
0,
0,
0,
0,
0,
0,
0,
0,
0,
0,
0,
0,
0,
0,
0,
0,
0,
0,
0,
0,
0,
0,
0,
0,
0,
0,
0,
0,
0,
0,
0,
0,
0,
0,
0,
0,
0,
0,
0,
0,
0,
0,
0,
0,
0,
0,
0,
0,
0,
0,
0,
0,
0,
0,
0,
0,
0,
0,
0,
0,
0,
0,
0,
0,
0,
0,
0,
0,
0,
0,
0,
0,
0,
0,
0,
0,
0,
0,
0,
0,
0,
0,
0,
0,
0,
0,
0,
0,
0,
0,
0,
0,
0,
0,
0,
0,
0,
0,
0,
0,
0,
0,
0,
0,
0,
0,
0,
0,
0,
0,
0,
0,
0,
0,
0,
0,
0,
0,
0,
0,
0,
0,
0,
0,
0,
0,
0,
0,
0,
0,
0,
0,
0,
0,
0,
0,
0,
0,
0,
0,
0,
0,
0,
0,
0,
0,
0,
0,
0,
0,
0,
0,
0,
0,
0,
0,
0,
0,
0,
0,
0,
0,
0,
0,
0,
0,
0,
0,
0,
0,
0,
0,
0,
0,
0,
0,
0,
0,
0,
0,
0,
0,
0,
0,
0,
0,
0,
0,
0,
0,
0,
0,
0,
0,
0,
0,
0,
0,
0,
0,
0,
0,
0,
0,
0,
0,
0,
0,
0,
0,
0,
0,
0,
0,
0,
0,
0,
0,
0,
0,
0,
0,
0,
0,
0,
0,
0,
0,
0,
0,
0,
0,
0,
0,
0,
0,
0,
0,
0,
0,
0,
0,
0,
0,
0,
0,
0,
0,
0,
0,
0,
0,
0,
0,
0,
0,
0,
0,
0,
0,
0,
0,
0,
0,
0,
0,
0,
0,
0,
0,
0,
0,
0,
0,
0,
0,
0,
0,
0,
0,
0,
0,
0,
0,
0,
0,
0,
0,
0,
0,
0,
0,
0,
0,
0,
0,
0,
0,
0,
0,
0,
0,
0,
0,
0,
0,
0,
0,
0,
0,
0,
0,
0,
0,
0,
0,
0,
0,
0,
0,
0,
0,
0,
0,
0,
0,
0,
0,
0,
0,
0,
0,
0,
0,
0,
0,
0,
0,
0,
0,
0,
0,
0,
0,
0,
0,
0,
0,
0,
0,
0,
#ENDOFDATA   :