File: N132962/Quantification/15 keV/GMIIIA/GMIIIA K252[2][4].msa
#FORMAT      : EMSA/MAS Spectral Data File
#VERSION     : 1.0
#TITLE       : GMIIIA K252[2][all]
#DATE        : 22-SEP-2025
#TIME        : 14:50
#OWNER       : Unknown
#NPOINTS     : 4096
#NCOLUMNS    : 1
#XUNITS      : eV
#YUNITS      : counts
#DATATYPE    : Y
#XPERCHAN    : 9.99778
#OFFSET      : 1.69135
#BEAMKV      : 15
#SIGNALTYPE  : EDS
#ELEVANGLE   : 35
#AZIMANGLE   : 0
#LIVETIME    : 239.9906
#REALTIME    : 257.13
#PROBECUR    : 1.21732
#TAUWIND     : 0
#TDEADLYR    : 0
#TACTLYR     : 0.045
#TALWIND     : 0.025
#CHOFFSET    : 0.0
#XLABEL      : Energy (eV)
#YLABEL      : Counts
#XPOSITION   : 4.68511
#YPOSITION   : 2.64043
#ZPOSITION   : 37.36299
#EDSDET      : SD
##SPECIMEN   : GMIIIA K252[2][all]
##D2STDCMP   : K252,(O:30.83),(Si:18.7),(Mn:3.16),(Co:3.93),(Cu:3.99),(Zn:8.03),(Ba:31.35)
##DET_HASH   : 12273538-fd48-a23f-0a19-f1e6fa85caef
##CALIB_HASH : 6abaa72c-aa41-8738-0be9-f592914732f3
##WORKING    : 15.0 mm
##DET_NAME   : EDAX All
##DET_MODE   : MediumLE
#SPECTRUM    :
21,
26,
21,
36,
134,
596,
1583,
3704,
7672,
9683,
7194,
6315,
7170,
8343,
12435,
34653,
118557,
219849,
161467,
50278,
17544,
13161,
10160,
8343,
9443,
14762,
18091,
13496,
9035,
9350,
14244,
19014,
21598,
28998,
33201,
22123,
10231,
6194,
5214,
4781,
4977,
5007,
5037,
4937,
5153,
5244,
5361,
5583,
5760,
6182,
6419,
6443,
6340,
6324,
7112,
13142,
42570,
103666,
139223,
99586,
42530,
16451,
9201,
5824,
4780,
4376,
4346,
4433,
4414,
4402,
4418,
4324,
4413,
4521,
4605,
4814,
4635,
4587,
4450,
4380,
4283,
4246,
4279,
4231,
4186,
4165,
4186,
4182,
4235,
4125,
4370,
4330,
4145,
4043,
4028,
3832,
3869,
3821,
3913,
3823,
3856,
3821,
3752,
3697,
3663,
3639,
3621,
3682,
3620,
3506,
3410,
3389,
3527,
3405,
3457,
3442,
3391,
3488,
3299,
3303,
3292,
3290,
3206,
3235,
3263,
3016,
3052,
3127,
3185,
3177,
3561,
3923,
4118,
3755,
3480,
3214,
2997,
2895,
2889,
2724,
2981,
2871,
2935,
3140,
3692,
5442,
9812,
18761,
28645,
31538,
26598,
15974,
8072,
4224,
2932,
2702,
2830,
3528,
5385,
8993,
13652,
16077,
14877,
11244,
7936,
5747,
4355,
3505,
3076,
3565,
5005,
6370,
6945,
6139,
4683,
3296,
2488,
2238,
2103,
2132,
2186,
2335,
2742,
3375,
3850,
3677,
3106,
2500,
2133,
1852,
2125,
2297,
2690,
3232,
4079,
5229,
5912,
5762,
4699,
3440,
2468,
1926,
1777,
1733,
1666,
1624,
1643,
1654,
1564,
1564,
1576,
1592,
1656,
1708,
1823,
1999,
2083,
2009,
1849,
1655,
1620,
1438,
1391,
1420,
1368,
1343,
1560,
1843,
2426,
3242,
3937,
4165,
3526,
2852,
2022,
1690,
1343,
1309,
1274,
1255,
1270,
1226,
1245,
1218,
1208,
1174,
1264,
1220,
1208,
1242,
1254,
1255,
1361,
1425,
1483,
1423,
1471,
1302,
1258,
1086,
1111,
1064,
1110,
1201,
1338,
1752,
2255,
2622,
2808,
2591,
2165,
1668,
1228,
1094,
1026,
972,
897,
940,
931,
941,
902,
959,
971,
1270,
1649,
2298,
3057,
3554,
3659,
3141,
2293,
1621,
1244,
1030,
991,
981,
1064,
1049,
950,
908,
780,
790,
738,
753,
771,
717,
743,
746,
719,
720,
714,
730,
731,
700,
739,
828,
828,
964,
1009,
1007,
957,
854,
772,
657,
684,
677,
628,
625,
596,
614,
588,
592,
593,
611,
557,
562,
573,
540,
507,
548,
603,
497,
526,
521,
529,
518,
539,
502,
479,
473,
499,
471,
524,
479,
461,
458,
444,
444,
436,
389,
415,
443,
429,
385,
461,
433,
403,
380,
429,
419,
418,
396,
394,
378,
416,
385,
383,
369,
359,
348,
383,
348,
341,
319,
331,
371,
312,
323,
314,
338,
306,
296,
319,
310,
290,
266,
275,
252,
287,
250,
263,
237,
266,
240,
256,
262,
225,
252,
221,
249,
230,
260,
228,
209,
209,
241,
195,
184,
215,
205,
186,
182,
205,
167,
181,
186,
151,
176,
176,
160,
157,
158,
151,
154,
164,
150,
145,
152,
149,
127,
130,
128,
129,
135,
113,
108,
124,
109,
98,
112,
89,
109,
100,
103,
90,
98,
91,
81,
94,
70,
94,
91,
74,
81,
72,
83,
83,
80,
47,
72,
61,
55,
42,
37,
42,
58,
62,
45,
30,
37,
28,
29,
40,
32,
26,
30,
28,
28,
23,
24,
27,
16,
15,
16,
17,
8,
10,
7,
5,
5,
1,
5,
2,
0,
2,
2,
1,
1,
0,
2,
2,
2,
0,
1,
1,
4,
1,
1,
1,
1,
2,
2,
0,
0,
0,
2,
0,
0,
0,
0,
3,
0,
2,
2,
1,
0,
0,
1,
1,
3,
2,
1,
0,
1,
0,
1,
0,
0,
1,
1,
0,
2,
2,
0,
1,
0,
1,
0,
1,
1,
1,
1,
0,
0,
0,
1,
1,
0,
0,
1,
2,
1,
1,
3,
1,
2,
0,
0,
1,
3,
0,
0,
0,
3,
1,
1,
0,
1,
0,
1,
1,
2,
0,
0,
1,
0,
0,
0,
0,
0,
1,
0,
1,
0,
1,
0,
0,
0,
0,
0,
0,
1,
0,
0,
0,
0,
0,
0,
0,
1,
0,
2,
1,
0,
0,
0,
0,
1,
0,
0,
0,
0,
0,
0,
0,
1,
0,
0,
1,
0,
1,
0,
0,
3,
0,
0,
0,
0,
1,
0,
0,
0,
0,
0,
0,
0,
0,
0,
0,
0,
0,
0,
0,
0,
0,
0,
0,
0,
0,
1,
0,
0,
0,
0,
1,
0,
0,
0,
0,
0,
0,
0,
0,
0,
0,
0,
0,
0,
0,
0,
1,
0,
0,
0,
1,
1,
0,
0,
0,
0,
0,
0,
0,
0,
0,
1,
0,
0,
1,
0,
0,
0,
0,
0,
0,
0,
0,
0,
1,
0,
0,
0,
0,
0,
0,
0,
0,
0,
0,
0,
1,
0,
0,
0,
0,
0,
0,
0,
0,
1,
0,
0,
0,
0,
0,
0,
0,
0,
0,
0,
0,
0,
0,
0,
0,
0,
0,
0,
0,
0,
0,
0,
0,
1,
0,
0,
0,
0,
0,
0,
0,
0,
0,
0,
0,
0,
0,
0,
0,
0,
0,
0,
0,
0,
0,
0,
0,
0,
0,
0,
0,
0,
0,
0,
0,
0,
0,
0,
0,
0,
0,
0,
0,
0,
0,
0,
0,
0,
0,
0,
0,
0,
0,
0,
0,
0,
0,
0,
0,
0,
0,
0,
0,
0,
0,
0,
0,
0,
0,
0,
0,
0,
0,
0,
0,
0,
0,
0,
0,
0,
0,
0,
0,
0,
0,
0,
0,
0,
0,
0,
0,
0,
0,
0,
0,
0,
0,
0,
0,
0,
0,
0,
0,
0,
0,
0,
0,
0,
0,
0,
0,
0,
0,
0,
0,
0,
0,
0,
0,
0,
0,
0,
0,
0,
0,
0,
0,
0,
0,
0,
0,
0,
0,
0,
0,
0,
0,
0,
0,
0,
0,
0,
0,
0,
0,
0,
0,
0,
0,
0,
0,
0,
0,
0,
0,
0,
0,
0,
0,
0,
0,
0,
0,
0,
0,
0,
0,
0,
0,
0,
0,
0,
0,
0,
0,
0,
0,
0,
0,
0,
0,
0,
0,
0,
0,
0,
0,
0,
0,
0,
0,
0,
0,
0,
0,
0,
0,
0,
0,
0,
0,
0,
0,
0,
0,
0,
0,
0,
0,
0,
0,
0,
0,
0,
0,
0,
0,
0,
0,
0,
0,
0,
0,
0,
0,
0,
0,
0,
0,
0,
0,
0,
0,
0,
0,
0,
0,
0,
0,
0,
0,
0,
0,
0,
0,
0,
0,
0,
0,
0,
0,
0,
0,
0,
0,
0,
0,
0,
0,
0,
0,
0,
0,
0,
0,
0,
0,
0,
0,
0,
0,
0,
0,
0,
0,
0,
0,
0,
0,
0,
0,
0,
0,
0,
0,
0,
0,
0,
0,
0,
0,
0,
0,
0,
0,
0,
0,
0,
0,
0,
0,
0,
0,
0,
0,
0,
0,
0,
0,
0,
0,
0,
0,
0,
0,
0,
0,
0,
0,
0,
0,
0,
0,
0,
0,
0,
0,
0,
0,
0,
0,
0,
0,
0,
0,
0,
0,
0,
0,
0,
0,
0,
0,
0,
0,
0,
0,
0,
0,
0,
0,
0,
0,
0,
0,
0,
0,
0,
0,
0,
0,
0,
0,
0,
0,
0,
0,
0,
0,
0,
0,
0,
0,
0,
0,
0,
0,
0,
0,
0,
0,
0,
0,
0,
0,
0,
0,
0,
0,
0,
0,
0,
0,
0,
0,
0,
0,
0,
0,
0,
0,
0,
0,
0,
0,
0,
0,
0,
0,
0,
0,
0,
0,
0,
0,
0,
0,
0,
0,
0,
0,
0,
0,
0,
0,
0,
0,
0,
0,
0,
0,
0,
0,
0,
0,
0,
0,
0,
0,
0,
0,
0,
0,
0,
0,
0,
0,
0,
0,
0,
0,
0,
0,
0,
0,
0,
0,
0,
0,
0,
0,
0,
0,
0,
0,
0,
0,
0,
0,
0,
0,
0,
0,
0,
0,
0,
0,
0,
0,
0,
0,
0,
0,
0,
0,
0,
0,
0,
0,
0,
0,
0,
0,
0,
0,
0,
0,
0,
0,
0,
0,
0,
0,
0,
0,
0,
0,
0,
0,
0,
0,
0,
0,
0,
0,
0,
0,
0,
0,
0,
0,
0,
0,
0,
0,
0,
0,
0,
0,
0,
0,
0,
0,
0,
0,
0,
0,
0,
0,
0,
0,
0,
0,
0,
0,
0,
0,
0,
0,
0,
0,
0,
0,
0,
0,
0,
0,
0,
0,
0,
0,
0,
0,
0,
0,
0,
0,
0,
0,
0,
0,
0,
0,
0,
0,
0,
0,
0,
0,
0,
0,
0,
0,
0,
0,
0,
0,
0,
0,
0,
0,
0,
0,
0,
0,
0,
0,
0,
0,
0,
0,
0,
0,
0,
0,
0,
#ENDOFDATA   :