File: N132962/Quantification/15 keV/GMIIIA/GMIIIA K229[5][4].msa
#FORMAT      : EMSA/MAS Spectral Data File
#VERSION     : 1.0
#TITLE       : GMIIIA K229[5][all]
#DATE        : 22-SEP-2025
#TIME        : 14:29
#OWNER       : Unknown
#NPOINTS     : 4096
#NCOLUMNS    : 1
#XUNITS      : eV
#YUNITS      : counts
#DATATYPE    : Y
#XPERCHAN    : 9.99778
#OFFSET      : 1.69135
#BEAMKV      : 15
#SIGNALTYPE  : EDS
#ELEVANGLE   : 35
#AZIMANGLE   : 0
#LIVETIME    : 239.928
#REALTIME    : 260.147
#PROBECUR    : 1.21983
#TAUWIND     : 0
#TDEADLYR    : 0
#TACTLYR     : 0.045
#TALWIND     : 0.025
#CHOFFSET    : 0.0
#XLABEL      : Energy (eV)
#YLABEL      : Counts
#XPOSITION   : 5.93064
#YPOSITION   : 0.74389
#ZPOSITION   : 37.36299
#EDSDET      : SD
##SPECIMEN   : GMIIIA K229[5][all]
##D2STDCMP   : K229,(O:20.99),(Si:14.02),(Pb:64.98)
##DET_HASH   : 12273538-fd48-a23f-0a19-f1e6fa85caef
##CALIB_HASH : 6abaa72c-aa41-8738-0be9-f592914732f3
##WORKING    : 15.0 mm
##DET_NAME   : EDAX All
##DET_MODE   : MediumLE
#SPECTRUM    :
22,
25,
18,
49,
242,
887,
2548,
5787,
11542,
14347,
10003,
7170,
6965,
7047,
8380,
17384,
50849,
91147,
66909,
22197,
9561,
8005,
8059,
8627,
7729,
6964,
6900,
7190,
7391,
7738,
7621,
7649,
8171,
8234,
8379,
8432,
8551,
8567,
8841,
8741,
8902,
9096,
9287,
9603,
9443,
9446,
9510,
9702,
9888,
10367,
10343,
10223,
9990,
10104,
10866,
16969,
44773,
103687,
139261,
103453,
51034,
28629,
18616,
11881,
8659,
7784,
7542,
7318,
7418,
7565,
7844,
8412,
9382,
10315,
12135,
18863,
41771,
88418,
129159,
123876,
99322,
89114,
76242,
45091,
19666,
8715,
7429,
8730,
10367,
10170,
7990,
5931,
4985,
4862,
4800,
4896,
5168,
5103,
5398,
5421,
5452,
6101,
6097,
6176,
6013,
5654,
5054,
4947,
4658,
4565,
4494,
4354,
4423,
4411,
4499,
4460,
4421,
4460,
4479,
4313,
4333,
4190,
4229,
4243,
4358,
4308,
4255,
4253,
4107,
4052,
4127,
4142,
4157,
4068,
4083,
4093,
4128,
4164,
4102,
3990,
3949,
3973,
3866,
4015,
3902,
3817,
3926,
3846,
3950,
3921,
3851,
4042,
3876,
3751,
3748,
3635,
3792,
3743,
3750,
3792,
3752,
3638,
3591,
3469,
3694,
3479,
3583,
3434,
3451,
3430,
3412,
3298,
3465,
3337,
3276,
3250,
3221,
3213,
3336,
3226,
3165,
3203,
3135,
3278,
3185,
3231,
3049,
3074,
3080,
3072,
2991,
3098,
2937,
3102,
2972,
2912,
2923,
2822,
2848,
2842,
2833,
2856,
2811,
2810,
2783,
2808,
2795,
2673,
2674,
2693,
2728,
2645,
2761,
2677,
2832,
2707,
2645,
2529,
2510,
2540,
2528,
2487,
2524,
2434,
2463,
2391,
2472,
2430,
2383,
2306,
2359,
2333,
2311,
2317,
2255,
2239,
2346,
2301,
2339,
2122,
2212,
2162,
2241,
2274,
2253,
2086,
2164,
2112,
2206,
2135,
2134,
2105,
2076,
2001,
2037,
1971,
1961,
1984,
1924,
2000,
1877,
2004,
1846,
1870,
1897,
1841,
1964,
1801,
1805,
1830,
1829,
1871,
1794,
1743,
1730,
1722,
1681,
1770,
1726,
1703,
1654,
1645,
1608,
1618,
1700,
1628,
1642,
1591,
1537,
1581,
1654,
1544,
1540,
1501,
1496,
1506,
1514,
1445,
1444,
1479,
1422,
1387,
1457,
1488,
1445,
1522,
1495,
1351,
1439,
1366,
1340,
1327,
1360,
1286,
1321,
1306,
1307,
1259,
1244,
1244,
1231,
1296,
1227,
1178,
1239,
1172,
1126,
1210,
1169,
1157,
1119,
1108,
1120,
1134,
1126,
1117,
1075,
1101,
1085,
1002,
1090,
1044,
1106,
983,
1073,
1168,
1237,
1336,
1558,
1743,
2133,
2245,
2201,
1948,
1624,
1358,
1126,
1012,
940,
946,
868,
873,
857,
860,
835,
772,
844,
809,
795,
790,
787,
772,
784,
736,
766,
748,
737,
754,
724,
715,
734,
714,
679,
636,
643,
654,
630,
696,
620,
599,
602,
584,
586,
634,
582,
598,
547,
597,
545,
563,
554,
581,
526,
549,
522,
533,
491,
494,
559,
504,
504,
478,
482,
485,
461,
459,
517,
480,
569,
590,
636,
643,
586,
550,
493,
418,
413,
374,
363,
401,
390,
377,
363,
348,
323,
338,
322,
291,
298,
302,
281,
283,
277,
262,
268,
239,
243,
241,
225,
226,
246,
236,
205,
218,
200,
213,
191,
175,
208,
171,
202,
185,
154,
164,
170,
161,
134,
136,
165,
131,
114,
141,
135,
136,
123,
98,
137,
110,
96,
99,
91,
110,
82,
90,
74,
62,
69,
58,
60,
49,
47,
51,
39,
33,
31,
30,
22,
14,
11,
15,
10,
8,
4,
3,
3,
4,
1,
3,
3,
4,
1,
3,
2,
3,
3,
2,
6,
4,
1,
3,
4,
1,
4,
3,
1,
4,
1,
7,
2,
4,
0,
0,
0,
1,
4,
1,
4,
0,
3,
0,
2,
1,
3,
3,
2,
1,
1,
1,
1,
3,
2,
2,
1,
0,
1,
0,
2,
1,
0,
0,
1,
1,
3,
1,
3,
0,
1,
2,
1,
3,
1,
3,
1,
0,
1,
0,
0,
1,
0,
1,
0,
2,
1,
0,
3,
1,
1,
4,
3,
0,
0,
1,
1,
2,
0,
2,
2,
0,
0,
4,
1,
1,
2,
2,
1,
0,
1,
1,
5,
5,
0,
0,
1,
4,
0,
1,
2,
1,
3,
2,
0,
1,
0,
0,
1,
0,
1,
4,
1,
0,
0,
1,
0,
0,
0,
0,
1,
0,
0,
1,
2,
1,
3,
0,
2,
0,
0,
0,
1,
0,
2,
0,
1,
0,
0,
0,
0,
2,
0,
0,
2,
0,
0,
1,
0,
0,
0,
0,
2,
2,
0,
0,
1,
0,
0,
1,
0,
1,
1,
0,
1,
0,
2,
0,
0,
0,
0,
0,
0,
0,
0,
1,
2,
2,
1,
0,
0,
0,
0,
0,
0,
0,
0,
0,
0,
1,
1,
1,
0,
0,
1,
1,
0,
0,
1,
0,
0,
1,
0,
0,
0,
1,
0,
1,
0,
0,
0,
0,
0,
0,
0,
0,
0,
0,
0,
0,
0,
1,
0,
0,
0,
0,
0,
0,
1,
0,
0,
0,
0,
0,
0,
0,
1,
0,
1,
0,
0,
1,
1,
0,
1,
0,
0,
1,
0,
0,
0,
0,
0,
0,
0,
0,
0,
0,
0,
1,
0,
1,
0,
0,
0,
0,
0,
0,
0,
0,
0,
0,
0,
0,
0,
0,
0,
0,
0,
0,
0,
0,
0,
0,
0,
0,
0,
0,
0,
0,
0,
0,
1,
0,
0,
0,
0,
0,
0,
0,
0,
0,
0,
0,
1,
0,
1,
0,
0,
0,
0,
0,
0,
0,
0,
0,
0,
0,
0,
0,
0,
0,
0,
0,
0,
0,
0,
0,
0,
0,
0,
0,
0,
0,
0,
0,
0,
0,
0,
0,
1,
0,
0,
0,
0,
0,
0,
0,
0,
0,
0,
0,
0,
0,
0,
0,
1,
0,
0,
0,
1,
0,
0,
0,
0,
0,
0,
0,
0,
1,
0,
0,
0,
0,
0,
0,
0,
0,
0,
0,
0,
0,
0,
0,
0,
0,
0,
0,
0,
0,
0,
0,
0,
0,
0,
0,
0,
0,
0,
0,
0,
0,
0,
0,
0,
0,
0,
0,
0,
0,
0,
0,
0,
0,
0,
0,
0,
0,
0,
0,
0,
0,
0,
0,
0,
0,
0,
0,
0,
0,
0,
0,
0,
0,
0,
0,
0,
0,
0,
0,
0,
0,
0,
0,
0,
0,
0,
0,
0,
0,
0,
0,
0,
0,
0,
0,
0,
0,
0,
0,
0,
0,
0,
0,
0,
0,
0,
0,
0,
0,
0,
0,
0,
0,
0,
0,
0,
0,
0,
0,
0,
0,
0,
0,
0,
0,
0,
0,
0,
0,
0,
0,
0,
0,
0,
0,
0,
0,
0,
0,
0,
0,
0,
0,
0,
0,
0,
0,
0,
0,
0,
0,
0,
0,
0,
0,
0,
0,
0,
0,
0,
0,
0,
0,
0,
0,
0,
0,
0,
0,
0,
0,
0,
0,
0,
0,
0,
0,
0,
0,
0,
0,
0,
0,
0,
0,
0,
0,
0,
0,
0,
0,
0,
0,
0,
0,
0,
0,
0,
0,
0,
0,
0,
0,
0,
0,
0,
0,
0,
0,
0,
0,
0,
0,
0,
0,
0,
0,
0,
0,
0,
0,
0,
0,
0,
0,
0,
0,
0,
0,
0,
0,
0,
0,
0,
0,
0,
0,
0,
0,
0,
0,
0,
0,
0,
0,
0,
0,
0,
0,
0,
0,
0,
0,
0,
0,
0,
0,
0,
0,
0,
0,
0,
0,
0,
0,
0,
0,
0,
0,
0,
0,
0,
0,
0,
0,
0,
0,
0,
0,
0,
0,
0,
0,
0,
0,
0,
0,
0,
0,
0,
0,
0,
0,
0,
0,
0,
0,
0,
0,
0,
0,
0,
0,
0,
0,
0,
0,
0,
0,
0,
0,
0,
0,
0,
0,
0,
0,
0,
0,
0,
0,
0,
0,
0,
0,
0,
0,
0,
0,
0,
0,
0,
0,
0,
0,
0,
0,
0,
0,
0,
0,
0,
0,
0,
0,
0,
0,
0,
0,
0,
0,
0,
0,
0,
0,
0,
0,
0,
0,
0,
0,
0,
0,
0,
0,
0,
0,
0,
0,
0,
0,
0,
0,
0,
0,
0,
0,
0,
0,
0,
0,
0,
0,
0,
0,
0,
0,
0,
0,
0,
0,
0,
0,
0,
0,
0,
0,
0,
0,
0,
0,
0,
0,
0,
0,
0,
0,
0,
0,
0,
0,
0,
0,
0,
0,
0,
0,
0,
0,
0,
0,
0,
0,
0,
0,
0,
0,
0,
0,
0,
0,
0,
0,
0,
0,
0,
0,
0,
0,
0,
0,
0,
0,
0,
0,
0,
0,
0,
0,
0,
0,
0,
0,
0,
0,
0,
0,
0,
0,
0,
0,
0,
0,
0,
0,
0,
0,
0,
0,
0,
0,
0,
0,
0,
0,
0,
0,
0,
0,
0,
0,
0,
0,
0,
0,
0,
0,
0,
0,
#ENDOFDATA   :