File: N132962/Quantification/15 keV/GMIIIA/GMIIIA K1229[0][4].msa
#FORMAT      : EMSA/MAS Spectral Data File
#VERSION     : 1.0
#TITLE       : GMIIIA K1229[0][all]
#DATE        : 22-SEP-2025
#TIME        : 22:43
#OWNER       : Unknown
#NPOINTS     : 4096
#NCOLUMNS    : 1
#XUNITS      : eV
#YUNITS      : counts
#DATATYPE    : Y
#XPERCHAN    : 9.99778
#OFFSET      : 1.69135
#BEAMKV      : 15
#SIGNALTYPE  : EDS
#ELEVANGLE   : 35
#AZIMANGLE   : 0
#LIVETIME    : 239.976
#REALTIME    : 256.038
#PROBECUR    : 1.21591
#TAUWIND     : 0
#TDEADLYR    : 0
#TACTLYR     : 0.045
#TALWIND     : 0.025
#CHOFFSET    : 0.0
#XLABEL      : Energy (eV)
#YLABEL      : Counts
#XPOSITION   : 3.98254
#YPOSITION   : 17.46144
#ZPOSITION   : 37.36299
#EDSDET      : SD
##SPECIMEN   : GMIIIA K1229[0][all]
##D2STDCMP   : K1229,(O:41.02),(Mg:1.77),(Al:9.34),(Si:22.0),(Ca:10.51),(Sr:7.46),(Ba:7.9)
##DET_HASH   : 12273538-fd48-a23f-0a19-f1e6fa85caef
##CALIB_HASH : 6abaa72c-aa41-8738-0be9-f592914732f3
##WORKING    : 15.0 mm
##DET_NAME   : EDAX All
##DET_MODE   : MediumLE
#SPECTRUM    :
27,
26,
10,
28,
131,
415,
1104,
2653,
6399,
9105,
7465,
5515,
4870,
5281,
8029,
25373,
95050,
179704,
130782,
35538,
6554,
3750,
3781,
3928,
3964,
4377,
4847,
4943,
4558,
4379,
4446,
4773,
5241,
5570,
5889,
6045,
5695,
5397,
5338,
6057,
9443,
15960,
18819,
12741,
7769,
6318,
7206,
13772,
38972,
75959,
77245,
41856,
16494,
9089,
7889,
15370,
52101,
131256,
181009,
139281,
76300,
41301,
24097,
13858,
8087,
5630,
4285,
3677,
3307,
3164,
3021,
3165,
3174,
3227,
3477,
3607,
3524,
3346,
3183,
3119,
3029,
2989,
2978,
2823,
2886,
2886,
2888,
2917,
2844,
2874,
2767,
2792,
2803,
2837,
2690,
2649,
2586,
2694,
2736,
2695,
2646,
2688,
2554,
2535,
2634,
2666,
2626,
2637,
2635,
2581,
2467,
2445,
2400,
2382,
2360,
2544,
2563,
2671,
2902,
3828,
7366,
16285,
28718,
36131,
31193,
17979,
7942,
3566,
2533,
2197,
2475,
3187,
4488,
5892,
6182,
5125,
3667,
2538,
1994,
1866,
1872,
1852,
1832,
1862,
1992,
2312,
3333,
5104,
7560,
8225,
6901,
4809,
2851,
1972,
1654,
1652,
1654,
1763,
2163,
3035,
3995,
4579,
4193,
3548,
2678,
2206,
1991,
1709,
1570,
1712,
1975,
2274,
2459,
2366,
1917,
1655,
1399,
1405,
1370,
1375,
1401,
1451,
1505,
1691,
1739,
1651,
1545,
1377,
1295,
1237,
1195,
1255,
1351,
1294,
1254,
1268,
1241,
1108,
1125,
1167,
1105,
1053,
1048,
1068,
1073,
1010,
1034,
1011,
1035,
993,
1028,
982,
998,
1081,
1028,
1004,
975,
969,
935,
939,
920,
935,
934,
856,
859,
884,
859,
910,
865,
866,
874,
835,
805,
839,
852,
842,
791,
756,
763,
758,
790,
753,
780,
743,
756,
728,
752,
736,
708,
760,
732,
727,
724,
667,
664,
680,
702,
655,
664,
626,
677,
628,
633,
681,
598,
673,
616,
645,
635,
629,
647,
653,
593,
604,
615,
573,
569,
582,
585,
599,
536,
552,
549,
604,
544,
553,
487,
513,
475,
509,
502,
472,
475,
476,
456,
509,
457,
460,
449,
481,
459,
466,
464,
439,
448,
440,
462,
427,
440,
385,
478,
429,
371,
409,
406,
416,
385,
396,
415,
356,
383,
391,
375,
354,
395,
380,
326,
379,
332,
343,
363,
334,
341,
317,
315,
331,
330,
318,
310,
319,
284,
318,
319,
326,
285,
307,
307,
295,
261,
283,
300,
273,
281,
283,
247,
247,
266,
265,
263,
221,
244,
243,
251,
274,
252,
245,
233,
266,
244,
203,
230,
237,
229,
237,
243,
234,
233,
214,
221,
185,
179,
168,
183,
183,
198,
185,
174,
173,
187,
164,
169,
167,
163,
187,
170,
158,
159,
169,
135,
147,
166,
149,
155,
144,
139,
156,
137,
146,
115,
117,
112,
140,
101,
119,
104,
111,
102,
108,
105,
110,
102,
101,
98,
120,
87,
113,
104,
94,
92,
73,
80,
72,
78,
91,
77,
71,
81,
84,
76,
84,
75,
71,
72,
59,
56,
70,
65,
52,
76,
58,
56,
50,
67,
50,
42,
41,
62,
39,
52,
47,
40,
34,
40,
45,
33,
34,
33,
35,
31,
30,
33,
32,
35,
21,
24,
30,
26,
25,
25,
19,
17,
10,
21,
22,
19,
19,
9,
14,
11,
9,
10,
6,
7,
12,
6,
7,
4,
3,
3,
3,
3,
3,
0,
0,
2,
3,
0,
1,
0,
0,
0,
1,
0,
1,
0,
0,
1,
0,
0,
1,
0,
0,
0,
0,
1,
1,
0,
0,
1,
2,
1,
0,
0,
1,
0,
0,
0,
1,
0,
0,
2,
0,
0,
0,
0,
0,
0,
0,
0,
0,
0,
0,
0,
0,
0,
0,
0,
0,
0,
0,
0,
0,
0,
0,
0,
0,
0,
1,
0,
0,
0,
0,
0,
0,
0,
0,
0,
0,
1,
0,
1,
0,
0,
0,
0,
0,
0,
0,
0,
0,
1,
0,
0,
0,
0,
0,
0,
0,
0,
0,
0,
0,
0,
0,
0,
0,
0,
0,
0,
0,
0,
0,
0,
0,
1,
0,
0,
0,
0,
0,
0,
2,
0,
0,
0,
0,
0,
0,
0,
0,
0,
0,
1,
0,
0,
0,
0,
0,
0,
0,
0,
0,
0,
0,
0,
0,
0,
0,
0,
0,
0,
0,
1,
0,
0,
0,
0,
0,
0,
0,
0,
0,
0,
0,
0,
0,
0,
0,
0,
0,
0,
0,
0,
0,
0,
0,
0,
0,
0,
0,
0,
0,
0,
0,
0,
0,
0,
0,
0,
0,
0,
0,
0,
0,
0,
0,
0,
0,
0,
0,
0,
0,
0,
0,
0,
0,
0,
0,
0,
0,
0,
0,
0,
0,
0,
0,
0,
0,
0,
0,
0,
0,
0,
0,
0,
0,
0,
0,
0,
0,
0,
0,
0,
1,
0,
0,
0,
0,
0,
0,
0,
0,
0,
0,
0,
0,
0,
0,
0,
0,
0,
0,
0,
0,
0,
0,
0,
0,
0,
0,
0,
0,
0,
0,
0,
0,
0,
0,
0,
0,
0,
0,
0,
0,
0,
0,
0,
0,
0,
0,
0,
0,
0,
0,
0,
0,
0,
0,
0,
0,
0,
0,
0,
0,
0,
0,
0,
0,
0,
0,
0,
0,
0,
0,
0,
0,
0,
0,
0,
0,
0,
0,
0,
0,
0,
0,
0,
0,
0,
0,
0,
0,
0,
0,
0,
0,
0,
0,
0,
0,
0,
0,
0,
0,
0,
0,
0,
0,
0,
0,
0,
0,
0,
0,
0,
0,
0,
0,
0,
0,
0,
0,
0,
0,
0,
0,
0,
0,
0,
0,
0,
0,
0,
0,
0,
0,
0,
0,
0,
0,
0,
0,
0,
0,
0,
0,
0,
0,
0,
0,
0,
0,
0,
0,
0,
0,
0,
0,
0,
0,
0,
0,
0,
0,
0,
0,
0,
0,
0,
0,
0,
0,
0,
0,
0,
0,
0,
0,
0,
0,
0,
0,
0,
0,
0,
0,
0,
0,
0,
0,
0,
0,
0,
0,
0,
0,
0,
0,
0,
0,
0,
0,
0,
0,
0,
0,
0,
0,
0,
0,
0,
0,
0,
0,
0,
0,
0,
0,
0,
0,
0,
0,
0,
0,
0,
0,
0,
0,
0,
0,
0,
0,
0,
0,
0,
0,
0,
0,
0,
0,
0,
0,
0,
0,
0,
0,
0,
0,
0,
0,
0,
0,
0,
0,
0,
0,
0,
0,
0,
0,
0,
0,
0,
0,
0,
0,
0,
0,
0,
0,
0,
0,
0,
0,
0,
0,
0,
0,
0,
0,
0,
0,
0,
0,
0,
0,
0,
0,
0,
0,
0,
0,
0,
0,
0,
0,
0,
0,
0,
0,
0,
0,
0,
0,
0,
0,
0,
0,
0,
0,
0,
0,
0,
0,
0,
0,
0,
0,
0,
0,
0,
0,
0,
0,
0,
0,
0,
0,
0,
0,
0,
0,
0,
0,
0,
0,
0,
0,
0,
0,
0,
0,
0,
0,
0,
0,
0,
0,
0,
0,
0,
0,
0,
0,
0,
0,
0,
0,
0,
0,
0,
0,
0,
0,
0,
0,
0,
0,
0,
0,
0,
0,
0,
0,
0,
0,
0,
0,
0,
0,
0,
0,
0,
0,
0,
0,
0,
0,
0,
0,
0,
0,
0,
0,
0,
0,
0,
0,
0,
0,
0,
0,
0,
0,
0,
0,
0,
0,
0,
0,
0,
0,
0,
0,
0,
0,
0,
0,
0,
0,
0,
0,
0,
0,
0,
0,
0,
0,
0,
0,
0,
0,
0,
0,
0,
0,
0,
0,
0,
0,
0,
0,
0,
0,
0,
0,
0,
0,
0,
0,
0,
0,
0,
0,
0,
0,
0,
0,
0,
0,
0,
0,
0,
0,
0,
0,
0,
0,
0,
0,
0,
0,
0,
0,
0,
0,
0,
0,
0,
0,
0,
0,
0,
0,
0,
0,
0,
0,
0,
0,
0,
0,
0,
0,
0,
0,
0,
0,
0,
0,
0,
0,
0,
0,
0,
0,
0,
0,
0,
0,
0,
0,
0,
0,
0,
0,
0,
0,
0,
0,
0,
0,
0,
0,
0,
0,
0,
0,
0,
0,
0,
0,
0,
0,
0,
0,
0,
0,
0,
0,
0,
0,
0,
0,
0,
0,
0,
0,
0,
0,
0,
0,
0,
0,
0,
0,
0,
0,
0,
0,
0,
0,
0,
0,
0,
0,
0,
0,
0,
0,
0,
0,
0,
0,
0,
0,
0,
0,
0,
0,
0,
0,
0,
0,
0,
0,
0,
0,
0,
0,
0,
0,
0,
0,
0,
0,
0,
0,
0,
0,
0,
0,
0,
0,
0,
0,
0,
0,
0,
0,
0,
0,
0,
0,
0,
0,
0,
0,
0,
0,
0,
0,
0,
0,
0,
0,
0,
0,
0,
0,
0,
0,
0,
0,
0,
0,
#ENDOFDATA   :