File: N132962/Quantification/15 keV/GMIIIA/GMIIIA K1234[2][4].msa
#FORMAT      : EMSA/MAS Spectral Data File
#VERSION     : 1.0
#TITLE       : GMIIIA K1234[2][all]
#DATE        : 22-SEP-2025
#TIME        : 22:56
#OWNER       : Unknown
#NPOINTS     : 4096
#NCOLUMNS    : 1
#XUNITS      : eV
#YUNITS      : counts
#DATATYPE    : Y
#XPERCHAN    : 9.99778
#OFFSET      : 1.69135
#BEAMKV      : 15
#SIGNALTYPE  : EDS
#ELEVANGLE   : 35
#AZIMANGLE   : 0
#LIVETIME    : 239.987
#REALTIME    : 255.9118
#PROBECUR    : 1.21591
#TAUWIND     : 0
#TDEADLYR    : 0
#TACTLYR     : 0.045
#TALWIND     : 0.025
#CHOFFSET    : 0.0
#XLABEL      : Energy (eV)
#YLABEL      : Counts
#XPOSITION   : 1.95364
#YPOSITION   : 17.90924
#ZPOSITION   : 37.36299
#EDSDET      : SD
##SPECIMEN   : GMIIIA K1234[2][all]
##D2STDCMP   : K1234,(O:39.85),(Al:9.15),(Si:21.56),(Ca:12.36),(Ba:15.49),(W:1.59)
##DET_HASH   : 12273538-fd48-a23f-0a19-f1e6fa85caef
##CALIB_HASH : 6abaa72c-aa41-8738-0be9-f592914732f3
##WORKING    : 15.0 mm
##DET_NAME   : EDAX All
##DET_MODE   : MediumLE
#SPECTRUM    :
29,
35,
18,
28,
119,
422,
1172,
3015,
6922,
10600,
9039,
6705,
5655,
5592,
8537,
26704,
98563,
186333,
135391,
37683,
7999,
4570,
4122,
4332,
4314,
5315,
6163,
5546,
4647,
4360,
4465,
4899,
5465,
5827,
6247,
6241,
5661,
5281,
5020,
4988,
5112,
5198,
5449,
5504,
5765,
5972,
7170,
13478,
36361,
70724,
71479,
38714,
14844,
7754,
6936,
14200,
49561,
124097,
168888,
122317,
53405,
20800,
10772,
6245,
4316,
4118,
3998,
3843,
3638,
3569,
3386,
3498,
3371,
3615,
3617,
3796,
3774,
3576,
3477,
3357,
3296,
3244,
3270,
3203,
3161,
3077,
3151,
3195,
3184,
3158,
3057,
3059,
3081,
2977,
3007,
2867,
2976,
2929,
2912,
2911,
2829,
2930,
2821,
2859,
2816,
2908,
2817,
2899,
2750,
2737,
2669,
2685,
2617,
2652,
2619,
2692,
2793,
2942,
3238,
4298,
8452,
19076,
33957,
42833,
36151,
21156,
9136,
3998,
2722,
2547,
2915,
3877,
5187,
7016,
7255,
6085,
3922,
2730,
2145,
2082,
2039,
2120,
2082,
2168,
2316,
3037,
5010,
8950,
13346,
14721,
12046,
7712,
4214,
2414,
1967,
1834,
1792,
2156,
2989,
4592,
6452,
7632,
7062,
5542,
4092,
3072,
2399,
2196,
1941,
2142,
2734,
3238,
3691,
3298,
2528,
1893,
1618,
1512,
1509,
1405,
1553,
1738,
1812,
2057,
2148,
2110,
1880,
1619,
1409,
1367,
1388,
1403,
1516,
1602,
1578,
1443,
1303,
1240,
1252,
1229,
1206,
1241,
1184,
1134,
1122,
1199,
1147,
1054,
1104,
1056,
1121,
1061,
1118,
1128,
1121,
1094,
1046,
1022,
1011,
1065,
954,
961,
1001,
982,
1008,
980,
949,
896,
930,
900,
905,
876,
940,
817,
813,
862,
862,
891,
836,
872,
880,
791,
805,
835,
860,
866,
859,
834,
837,
776,
816,
840,
751,
778,
720,
776,
702,
772,
766,
724,
772,
721,
751,
727,
717,
714,
712,
697,
705,
685,
672,
664,
676,
652,
666,
684,
707,
720,
789,
764,
818,
804,
702,
657,
646,
607,
606,
558,
570,
555,
571,
555,
588,
553,
530,
508,
530,
573,
520,
494,
502,
493,
554,
508,
494,
482,
541,
484,
489,
447,
473,
476,
470,
436,
444,
475,
459,
433,
470,
457,
461,
437,
493,
474,
479,
448,
433,
391,
429,
408,
450,
454,
418,
415,
396,
380,
380,
391,
391,
395,
363,
375,
334,
353,
347,
332,
338,
332,
347,
370,
304,
322,
293,
307,
301,
300,
282,
290,
264,
303,
295,
319,
298,
277,
283,
276,
256,
278,
243,
250,
259,
248,
270,
248,
214,
250,
269,
241,
226,
195,
246,
190,
213,
208,
193,
195,
196,
224,
189,
208,
190,
177,
212,
180,
211,
155,
167,
171,
166,
154,
195,
157,
169,
161,
154,
150,
159,
147,
138,
138,
131,
137,
157,
134,
140,
129,
106,
138,
127,
120,
115,
105,
125,
133,
105,
124,
122,
103,
104,
100,
109,
101,
89,
107,
82,
88,
107,
85,
97,
92,
97,
101,
82,
75,
72,
88,
76,
73,
70,
69,
64,
72,
57,
61,
53,
50,
50,
66,
60,
54,
51,
56,
41,
53,
33,
40,
43,
38,
33,
41,
26,
31,
31,
34,
33,
38,
39,
31,
22,
19,
24,
26,
22,
20,
19,
13,
13,
13,
13,
11,
8,
14,
9,
13,
3,
5,
5,
3,
6,
0,
1,
1,
0,
1,
2,
1,
0,
0,
0,
1,
0,
1,
0,
1,
2,
3,
1,
0,
0,
0,
0,
2,
1,
0,
0,
1,
0,
1,
0,
0,
0,
0,
1,
2,
0,
0,
1,
1,
1,
0,
0,
0,
0,
0,
2,
0,
1,
0,
0,
0,
0,
1,
0,
1,
0,
0,
0,
0,
0,
0,
0,
0,
1,
0,
0,
0,
0,
0,
0,
2,
1,
1,
0,
0,
0,
0,
0,
1,
0,
1,
0,
1,
0,
1,
0,
0,
1,
0,
0,
0,
0,
1,
0,
0,
0,
1,
0,
0,
1,
0,
1,
1,
0,
0,
0,
0,
1,
0,
1,
0,
0,
0,
0,
0,
0,
0,
0,
0,
0,
0,
0,
0,
1,
0,
0,
0,
0,
0,
0,
0,
0,
0,
1,
0,
0,
0,
0,
0,
0,
0,
0,
0,
0,
0,
0,
0,
0,
0,
0,
0,
0,
0,
0,
0,
0,
0,
0,
0,
0,
0,
0,
0,
0,
0,
0,
0,
0,
0,
0,
0,
0,
0,
0,
0,
0,
0,
0,
0,
0,
0,
0,
0,
0,
0,
0,
0,
0,
0,
0,
0,
0,
0,
0,
0,
0,
0,
0,
0,
0,
0,
0,
0,
0,
0,
0,
0,
0,
0,
0,
0,
0,
0,
0,
0,
0,
0,
0,
0,
0,
0,
0,
0,
0,
0,
0,
0,
0,
0,
0,
0,
0,
0,
0,
0,
0,
0,
0,
0,
0,
0,
0,
0,
0,
0,
0,
0,
0,
0,
0,
0,
0,
0,
0,
0,
0,
0,
0,
0,
0,
0,
0,
0,
0,
0,
0,
0,
0,
0,
0,
0,
0,
0,
0,
0,
0,
0,
0,
0,
0,
0,
0,
0,
0,
0,
0,
0,
0,
0,
0,
0,
0,
0,
0,
0,
0,
0,
0,
0,
0,
0,
0,
0,
0,
0,
0,
0,
0,
0,
0,
0,
0,
0,
0,
0,
0,
0,
0,
0,
0,
0,
0,
0,
0,
0,
0,
0,
0,
0,
0,
0,
0,
0,
0,
0,
0,
0,
0,
0,
0,
0,
0,
0,
0,
0,
0,
0,
0,
0,
0,
0,
0,
0,
0,
0,
0,
0,
0,
0,
0,
0,
0,
0,
0,
0,
0,
0,
0,
0,
0,
0,
0,
0,
0,
0,
0,
0,
0,
0,
0,
0,
0,
0,
0,
0,
0,
0,
0,
0,
0,
0,
0,
0,
0,
0,
0,
0,
0,
0,
0,
0,
0,
0,
0,
0,
0,
0,
0,
0,
0,
0,
0,
0,
0,
0,
0,
0,
0,
0,
0,
0,
0,
0,
0,
0,
0,
0,
0,
0,
0,
0,
0,
0,
0,
0,
0,
0,
0,
0,
0,
0,
0,
0,
0,
0,
0,
0,
0,
0,
0,
0,
0,
0,
0,
0,
0,
0,
0,
0,
0,
0,
0,
0,
0,
0,
0,
0,
0,
0,
0,
0,
0,
0,
0,
0,
0,
0,
0,
0,
0,
0,
0,
0,
0,
0,
0,
0,
0,
0,
0,
0,
0,
0,
0,
0,
0,
0,
0,
0,
0,
0,
0,
0,
0,
0,
0,
0,
0,
0,
0,
0,
0,
0,
0,
0,
0,
0,
0,
0,
0,
0,
0,
0,
0,
0,
0,
0,
0,
0,
0,
0,
0,
0,
0,
0,
0,
0,
0,
0,
0,
0,
0,
0,
0,
0,
0,
0,
0,
0,
0,
0,
0,
0,
0,
0,
0,
0,
0,
0,
0,
0,
0,
0,
0,
0,
0,
0,
0,
0,
0,
0,
0,
0,
0,
0,
0,
0,
0,
0,
0,
0,
0,
0,
0,
0,
0,
0,
0,
0,
0,
0,
0,
0,
0,
0,
0,
0,
0,
0,
0,
0,
0,
0,
0,
0,
0,
0,
0,
0,
0,
0,
0,
0,
0,
0,
0,
0,
0,
0,
0,
0,
0,
0,
0,
0,
0,
0,
0,
0,
0,
0,
0,
0,
0,
0,
0,
0,
0,
0,
0,
0,
0,
0,
0,
0,
0,
0,
0,
0,
0,
0,
0,
0,
0,
0,
0,
0,
0,
0,
0,
0,
0,
0,
0,
0,
0,
0,
0,
0,
0,
0,
0,
0,
0,
0,
0,
0,
0,
0,
0,
0,
0,
0,
0,
0,
0,
0,
0,
0,
0,
0,
0,
0,
0,
0,
0,
0,
0,
0,
0,
0,
0,
0,
0,
0,
0,
0,
0,
0,
0,
0,
0,
0,
0,
0,
0,
0,
0,
0,
0,
0,
0,
0,
0,
0,
0,
0,
0,
0,
0,
0,
0,
0,
0,
0,
0,
0,
0,
0,
0,
0,
0,
0,
0,
0,
0,
0,
0,
0,
0,
0,
0,
0,
0,
0,
0,
0,
0,
0,
0,
0,
0,
0,
0,
0,
0,
0,
0,
0,
0,
0,
0,
0,
0,
0,
0,
0,
0,
0,
0,
0,
0,
0,
0,
0,
0,
0,
0,
0,
0,
0,
0,
0,
0,
0,
0,
0,
0,
0,
0,
0,
0,
0,
0,
0,
0,
0,
0,
0,
0,
0,
0,
0,
0,
0,
0,
0,
0,
0,
0,
0,
0,
0,
0,
0,
0,
0,
0,
0,
0,
0,
0,
0,
0,
0,
0,
0,
0,
0,
0,
0,
0,
0,
0,
0,
0,
0,
0,
0,
0,
0,
0,
0,
0,
0,
0,
0,
0,
0,
0,
0,
0,
0,
0,
0,
0,
0,
#ENDOFDATA   :