File: N132962/Quantification/15 keV/GMIIIA/GMIIIA K1001[0][4].msa
#FORMAT      : EMSA/MAS Spectral Data File
#VERSION     : 1.0
#TITLE       : GMIIIA K1001[0][all]
#DATE        : 22-SEP-2025
#TIME        : 21:52
#OWNER       : Unknown
#NPOINTS     : 4096
#NCOLUMNS    : 1
#XUNITS      : eV
#YUNITS      : counts
#DATATYPE    : Y
#XPERCHAN    : 9.99778
#OFFSET      : 1.69135
#BEAMKV      : 15
#SIGNALTYPE  : EDS
#ELEVANGLE   : 35
#AZIMANGLE   : 0
#LIVETIME    : 239.9563
#REALTIME    : 256.229
#PROBECUR    : 1.21615
#TAUWIND     : 0
#TDEADLYR    : 0
#TACTLYR     : 0.045
#TALWIND     : 0.025
#CHOFFSET    : 0.0
#XLABEL      : Energy (eV)
#YLABEL      : Counts
#XPOSITION   : 13.48187
#YPOSITION   : 15.08271
#ZPOSITION   : 37.36299
#EDSDET      : SD
##SPECIMEN   : GMIIIA K1001[0][all]
##D2STDCMP   : K1001,(O:39.47),(Na:1.67),(Mg:1.36),(Al:8.92),(Si:21.02),(K:1.87),(Ca:6.75),(Rb:2.06),(Sr:10.05),(Pr:1.92),(Nd:1.93),(Er:1.97),(Pb:1.04)
##DET_HASH   : 12273538-fd48-a23f-0a19-f1e6fa85caef
##CALIB_HASH : 6abaa72c-aa41-8738-0be9-f592914732f3
##WORKING    : 15.0 mm
##DET_NAME   : EDAX All
##DET_MODE   : MediumLE
#SPECTRUM    :
19,
28,
9,
26,
135,
400,
1163,
3066,
7663,
10018,
6840,
4724,
4526,
4935,
7683,
24511,
88403,
167116,
121695,
33097,
5742,
3421,
4072,
4646,
4643,
4446,
4410,
4506,
4745,
5155,
6114,
7069,
8063,
10576,
16031,
16868,
11371,
7229,
6207,
6594,
9325,
14716,
16598,
11892,
7960,
7673,
10091,
18152,
42235,
76106,
75117,
41336,
16920,
9864,
9411,
18744,
57510,
134143,
182685,
144438,
84688,
49173,
29161,
16571,
9313,
6103,
4573,
3764,
3356,
3198,
3051,
3187,
3236,
3312,
3556,
3641,
3817,
4161,
4446,
4348,
3984,
3919,
3718,
3361,
3071,
2933,
2891,
2940,
2953,
2926,
2971,
2809,
2807,
2790,
2774,
2683,
2700,
2737,
2733,
2821,
2734,
2715,
2589,
2685,
2670,
2736,
2816,
3212,
4299,
6555,
8669,
8721,
6366,
4060,
2797,
2697,
2686,
2783,
3189,
4058,
6307,
11746,
19717,
23987,
20234,
12201,
5851,
3084,
2324,
2185,
2305,
2671,
3408,
4304,
4595,
4001,
3024,
2311,
1934,
1894,
1903,
1845,
1812,
1750,
1675,
1834,
1794,
1777,
1784,
1850,
1858,
1849,
1744,
1733,
1770,
1657,
1699,
1579,
1606,
1553,
1628,
1594,
1583,
1559,
1699,
1973,
2310,
2815,
2942,
2598,
2173,
1950,
1894,
2180,
2268,
2286,
2032,
1687,
1555,
1514,
1566,
1661,
1934,
2016,
1836,
1757,
1604,
1483,
1527,
1618,
1635,
1686,
1608,
1506,
1501,
1561,
1434,
1350,
1291,
1174,
1264,
1208,
1240,
1299,
1264,
1221,
1236,
1091,
1196,
1157,
1144,
1115,
1122,
1129,
1080,
1050,
1041,
1033,
1062,
1060,
1057,
1058,
1019,
920,
961,
931,
980,
989,
1107,
1252,
1348,
1492,
1408,
1338,
1186,
942,
852,
868,
789,
845,
834,
791,
771,
874,
779,
803,
738,
798,
803,
770,
785,
745,
766,
757,
744,
749,
740,
819,
834,
917,
875,
901,
829,
816,
706,
743,
729,
707,
676,
704,
702,
691,
765,
696,
693,
690,
648,
656,
617,
581,
615,
560,
616,
578,
573,
595,
551,
551,
553,
510,
528,
550,
509,
507,
512,
533,
497,
505,
508,
511,
534,
491,
476,
505,
520,
486,
472,
431,
480,
453,
491,
462,
441,
455,
471,
427,
426,
428,
404,
380,
416,
401,
416,
397,
389,
370,
396,
395,
426,
333,
381,
347,
363,
399,
376,
357,
305,
352,
327,
334,
345,
317,
348,
341,
322,
308,
321,
313,
301,
334,
327,
317,
306,
279,
274,
276,
271,
278,
292,
282,
240,
251,
256,
277,
249,
264,
252,
246,
240,
213,
241,
222,
226,
246,
235,
237,
218,
228,
227,
206,
213,
210,
199,
202,
211,
211,
184,
153,
193,
179,
174,
201,
164,
162,
159,
165,
131,
146,
170,
173,
152,
141,
164,
149,
148,
162,
153,
117,
160,
136,
138,
131,
132,
113,
112,
114,
110,
120,
119,
109,
130,
116,
125,
91,
97,
105,
95,
97,
104,
89,
71,
88,
78,
92,
80,
97,
88,
77,
65,
70,
68,
78,
68,
66,
67,
69,
62,
55,
64,
57,
63,
66,
62,
51,
69,
59,
65,
55,
50,
48,
47,
44,
52,
35,
36,
31,
36,
37,
35,
42,
32,
30,
31,
35,
28,
23,
21,
32,
34,
22,
18,
19,
21,
20,
15,
19,
17,
13,
10,
12,
10,
8,
10,
11,
9,
5,
3,
1,
1,
2,
0,
2,
1,
0,
2,
2,
0,
0,
1,
0,
0,
0,
0,
0,
0,
0,
0,
0,
0,
0,
0,
1,
0,
0,
0,
0,
0,
0,
0,
0,
0,
0,
0,
1,
0,
0,
0,
0,
0,
0,
0,
1,
2,
0,
1,
0,
2,
0,
0,
0,
1,
0,
0,
0,
0,
0,
0,
0,
0,
2,
0,
0,
0,
1,
0,
1,
0,
0,
0,
0,
0,
0,
0,
0,
0,
0,
0,
0,
0,
0,
1,
0,
0,
0,
0,
0,
0,
0,
0,
0,
1,
1,
0,
0,
0,
0,
0,
0,
0,
0,
0,
0,
0,
0,
1,
0,
0,
0,
0,
0,
0,
0,
0,
0,
0,
0,
0,
1,
0,
0,
0,
0,
0,
0,
0,
1,
0,
1,
0,
0,
0,
0,
0,
0,
0,
1,
0,
0,
0,
0,
1,
0,
0,
0,
0,
0,
0,
0,
0,
0,
0,
0,
0,
0,
0,
0,
0,
0,
0,
0,
0,
0,
0,
0,
0,
0,
0,
0,
0,
0,
0,
0,
0,
0,
0,
0,
0,
0,
0,
0,
0,
0,
0,
0,
0,
0,
0,
0,
1,
0,
0,
0,
0,
0,
0,
0,
0,
0,
0,
0,
0,
0,
0,
0,
0,
0,
0,
0,
0,
0,
0,
0,
0,
0,
0,
0,
0,
0,
0,
1,
0,
0,
0,
0,
0,
0,
0,
0,
0,
0,
0,
0,
0,
0,
0,
0,
0,
0,
0,
0,
0,
0,
0,
0,
0,
0,
0,
0,
0,
0,
0,
0,
0,
0,
0,
0,
0,
0,
0,
0,
0,
0,
0,
1,
0,
0,
0,
0,
0,
0,
0,
0,
0,
0,
0,
0,
0,
0,
0,
0,
0,
0,
0,
0,
0,
0,
0,
0,
0,
0,
0,
0,
0,
0,
0,
0,
0,
0,
0,
0,
0,
0,
0,
0,
0,
0,
0,
0,
0,
0,
0,
0,
0,
0,
0,
0,
0,
0,
0,
0,
0,
0,
0,
0,
0,
0,
0,
0,
0,
0,
0,
0,
0,
0,
0,
0,
0,
0,
0,
0,
0,
0,
0,
0,
0,
0,
0,
0,
0,
0,
0,
0,
0,
0,
0,
0,
0,
0,
0,
0,
0,
0,
0,
0,
0,
0,
0,
0,
0,
0,
0,
0,
0,
0,
0,
0,
0,
0,
0,
0,
0,
0,
0,
0,
0,
0,
0,
0,
0,
0,
0,
0,
0,
0,
0,
0,
0,
0,
0,
0,
0,
0,
0,
0,
0,
0,
0,
0,
0,
0,
0,
0,
0,
0,
0,
0,
0,
0,
0,
0,
0,
0,
0,
0,
0,
0,
0,
0,
0,
0,
0,
0,
0,
0,
0,
0,
0,
0,
0,
0,
0,
0,
0,
0,
0,
0,
0,
0,
0,
0,
0,
0,
0,
0,
0,
0,
0,
0,
0,
0,
0,
0,
0,
0,
0,
0,
0,
0,
0,
0,
0,
0,
0,
0,
0,
0,
0,
0,
0,
0,
0,
0,
0,
0,
0,
0,
0,
0,
0,
0,
0,
0,
0,
0,
0,
0,
0,
0,
0,
0,
0,
0,
0,
0,
0,
0,
0,
0,
0,
0,
0,
0,
0,
0,
0,
0,
0,
0,
0,
0,
0,
0,
0,
0,
0,
0,
0,
0,
0,
0,
0,
0,
0,
0,
0,
0,
0,
0,
0,
0,
0,
0,
0,
0,
0,
0,
0,
0,
0,
0,
0,
0,
0,
0,
0,
0,
0,
0,
0,
0,
0,
0,
0,
0,
0,
0,
0,
0,
0,
0,
0,
0,
0,
0,
0,
0,
0,
0,
0,
0,
0,
0,
0,
0,
0,
0,
0,
0,
0,
0,
0,
0,
0,
0,
0,
0,
0,
0,
0,
0,
0,
0,
0,
0,
0,
0,
0,
0,
0,
0,
0,
0,
0,
0,
0,
0,
0,
0,
0,
0,
0,
0,
0,
0,
0,
0,
0,
0,
0,
0,
0,
0,
0,
0,
0,
0,
0,
0,
0,
0,
0,
0,
0,
0,
0,
0,
0,
0,
0,
0,
0,
0,
0,
0,
0,
0,
0,
0,
0,
0,
0,
0,
0,
0,
0,
0,
0,
0,
0,
0,
0,
0,
0,
0,
0,
0,
0,
0,
0,
0,
0,
0,
0,
0,
0,
0,
0,
0,
0,
0,
0,
0,
0,
0,
0,
0,
0,
0,
0,
0,
0,
0,
0,
0,
0,
0,
0,
0,
0,
0,
0,
0,
0,
0,
0,
0,
0,
0,
0,
0,
0,
0,
0,
0,
0,
0,
0,
0,
0,
0,
0,
0,
0,
0,
0,
0,
0,
0,
0,
0,
0,
0,
0,
0,
0,
0,
0,
0,
0,
0,
0,
0,
0,
0,
0,
0,
0,
0,
0,
0,
0,
0,
0,
0,
0,
0,
0,
0,
0,
0,
0,
0,
0,
0,
0,
0,
0,
0,
0,
0,
0,
0,
0,
0,
0,
0,
0,
0,
0,
0,
0,
0,
0,
0,
0,
0,
0,
0,
0,
0,
0,
0,
0,
0,
0,
0,
0,
0,
0,
0,
0,
0,
0,
0,
0,
0,
0,
0,
0,
0,
0,
0,
0,
0,
0,
0,
0,
0,
0,
0,
0,
0,
0,
0,
0,
0,
0,
0,
0,
0,
0,
0,
0,
0,
0,
0,
0,
0,
0,
0,
0,
0,
0,
0,
0,
0,
0,
0,
0,
0,
0,
0,
0,
0,
0,
0,
#ENDOFDATA   :