File: N132962/Quantification/15 keV/GMIIIA/GMIIIA K1234[4][4].msa
#FORMAT      : EMSA/MAS Spectral Data File
#VERSION     : 1.0
#TITLE       : GMIIIA K1234[4][all]
#DATE        : 22-SEP-2025
#TIME        : 22:58
#OWNER       : Unknown
#NPOINTS     : 4096
#NCOLUMNS    : 1
#XUNITS      : eV
#YUNITS      : counts
#DATATYPE    : Y
#XPERCHAN    : 9.99778
#OFFSET      : 1.69135
#BEAMKV      : 15
#SIGNALTYPE  : EDS
#ELEVANGLE   : 35
#AZIMANGLE   : 0
#LIVETIME    : 239.941
#REALTIME    : 255.85
#PROBECUR    : 1.21591
#TAUWIND     : 0
#TDEADLYR    : 0
#TACTLYR     : 0.045
#TALWIND     : 0.025
#CHOFFSET    : 0.0
#XLABEL      : Energy (eV)
#YLABEL      : Counts
#XPOSITION   : 1.94535
#YPOSITION   : 17.83799
#ZPOSITION   : 37.36299
#EDSDET      : SD
##SPECIMEN   : GMIIIA K1234[4][all]
##D2STDCMP   : K1234,(O:39.85),(Al:9.15),(Si:21.56),(Ca:12.36),(Ba:15.49),(W:1.59)
##DET_HASH   : 12273538-fd48-a23f-0a19-f1e6fa85caef
##CALIB_HASH : 6abaa72c-aa41-8738-0be9-f592914732f3
##WORKING    : 15.0 mm
##DET_NAME   : EDAX All
##DET_MODE   : MediumLE
#SPECTRUM    :
26,
26,
9,
18,
110,
423,
1144,
3018,
7151,
10741,
9046,
6697,
5622,
5641,
8764,
27053,
98274,
184825,
135011,
37551,
7904,
4556,
4174,
4157,
4277,
5202,
6105,
5379,
4717,
4192,
4339,
4838,
5531,
5768,
6168,
6236,
5507,
5149,
5162,
5050,
5057,
5472,
5440,
5494,
5724,
6204,
7196,
13181,
36484,
70754,
71647,
39084,
15235,
7790,
7214,
14048,
49753,
123910,
169790,
122085,
52913,
20658,
10917,
6217,
4375,
4159,
4021,
3868,
3796,
3505,
3392,
3473,
3402,
3514,
3709,
3853,
3805,
3679,
3648,
3388,
3239,
3287,
3317,
3137,
3204,
3256,
3151,
3069,
3283,
3107,
3126,
3202,
3065,
3042,
2957,
2865,
2854,
2866,
2880,
2881,
2871,
2834,
2868,
2802,
2802,
2858,
2752,
2844,
2772,
2701,
2704,
2567,
2592,
2624,
2596,
2701,
2837,
2933,
3064,
4217,
8353,
19057,
34267,
42973,
35999,
21163,
9146,
4003,
2714,
2556,
2915,
3761,
5353,
7085,
7303,
5921,
4114,
2768,
2312,
2041,
2003,
1984,
2022,
2107,
2386,
2951,
5112,
8951,
13258,
14678,
12454,
7641,
4081,
2512,
1918,
1810,
1893,
2100,
2883,
4583,
6555,
7736,
6970,
5511,
4037,
3082,
2482,
2110,
1874,
2131,
2661,
3245,
3668,
3458,
2695,
2026,
1603,
1547,
1518,
1417,
1580,
1622,
1680,
2006,
2102,
2172,
1881,
1603,
1371,
1337,
1392,
1454,
1570,
1565,
1476,
1411,
1349,
1244,
1216,
1217,
1255,
1183,
1178,
1105,
1141,
1096,
1096,
1105,
1093,
1077,
1049,
1088,
1069,
1069,
1046,
1013,
1102,
990,
993,
1044,
972,
1030,
953,
1006,
957,
964,
930,
930,
954,
962,
924,
904,
911,
921,
931,
892,
892,
931,
944,
846,
876,
854,
854,
891,
825,
862,
825,
809,
849,
793,
769,
793,
803,
816,
751,
743,
722,
763,
741,
729,
739,
710,
690,
686,
675,
701,
709,
658,
673,
680,
675,
702,
672,
649,
641,
612,
732,
715,
754,
833,
856,
807,
743,
700,
611,
600,
623,
578,
557,
587,
584,
549,
581,
593,
565,
530,
556,
562,
580,
485,
512,
525,
531,
490,
471,
468,
509,
493,
474,
438,
509,
449,
459,
475,
448,
441,
474,
458,
431,
451,
490,
474,
478,
458,
469,
464,
409,
436,
436,
419,
438,
459,
439,
403,
410,
378,
361,
370,
357,
380,
339,
352,
340,
345,
322,
312,
327,
319,
318,
335,
329,
312,
303,
289,
301,
282,
321,
269,
280,
307,
272,
313,
257,
254,
267,
255,
241,
252,
270,
247,
267,
235,
266,
251,
236,
234,
235,
215,
236,
250,
225,
226,
224,
225,
236,
199,
204,
217,
196,
204,
194,
186,
200,
142,
158,
216,
188,
187,
172,
173,
169,
139,
165,
139,
160,
156,
148,
157,
142,
148,
131,
158,
127,
169,
156,
157,
128,
136,
125,
136,
119,
116,
120,
107,
131,
109,
101,
99,
116,
96,
96,
101,
82,
96,
75,
95,
94,
79,
87,
70,
102,
71,
70,
67,
76,
77,
62,
61,
70,
52,
75,
77,
70,
75,
59,
54,
59,
53,
61,
45,
55,
40,
49,
39,
58,
47,
32,
40,
37,
30,
40,
41,
24,
28,
32,
25,
27,
31,
20,
24,
26,
23,
18,
17,
17,
27,
19,
17,
15,
15,
14,
14,
7,
6,
10,
3,
5,
5,
8,
5,
0,
2,
3,
1,
0,
0,
1,
0,
0,
2,
0,
0,
2,
1,
2,
1,
1,
0,
0,
0,
1,
0,
0,
1,
1,
0,
0,
0,
0,
0,
2,
0,
1,
0,
0,
1,
1,
0,
0,
0,
0,
0,
1,
0,
0,
2,
0,
0,
0,
0,
0,
0,
0,
0,
0,
0,
0,
0,
0,
0,
1,
0,
1,
0,
1,
0,
1,
0,
1,
0,
2,
1,
1,
0,
1,
0,
2,
0,
1,
0,
0,
1,
0,
0,
1,
1,
0,
0,
0,
0,
0,
0,
0,
0,
0,
0,
0,
0,
0,
0,
0,
0,
0,
0,
0,
0,
0,
0,
0,
0,
0,
0,
0,
0,
0,
0,
0,
0,
1,
0,
0,
1,
0,
0,
0,
0,
0,
0,
0,
0,
0,
0,
0,
0,
0,
0,
0,
0,
0,
1,
0,
0,
0,
0,
1,
0,
1,
0,
0,
0,
0,
0,
0,
0,
0,
1,
0,
0,
0,
0,
0,
0,
0,
0,
0,
0,
1,
0,
0,
0,
0,
0,
0,
0,
0,
0,
0,
0,
0,
0,
0,
0,
0,
0,
0,
0,
0,
0,
0,
0,
0,
0,
0,
0,
0,
1,
0,
0,
1,
0,
0,
0,
0,
0,
0,
0,
0,
0,
0,
0,
0,
0,
0,
0,
0,
0,
0,
0,
0,
0,
0,
0,
0,
0,
0,
0,
0,
0,
0,
0,
0,
1,
0,
0,
0,
0,
0,
0,
0,
0,
0,
0,
0,
0,
0,
0,
0,
0,
0,
0,
0,
0,
0,
0,
0,
0,
0,
0,
0,
0,
0,
0,
0,
0,
0,
0,
0,
1,
0,
0,
0,
0,
0,
0,
1,
0,
0,
0,
0,
0,
0,
0,
0,
0,
0,
0,
0,
0,
0,
0,
0,
0,
0,
0,
0,
0,
0,
0,
0,
0,
0,
0,
0,
0,
0,
0,
0,
0,
0,
0,
0,
0,
0,
0,
0,
0,
0,
0,
0,
0,
0,
0,
0,
0,
0,
0,
0,
0,
0,
0,
0,
1,
0,
0,
0,
0,
0,
0,
0,
0,
0,
0,
0,
0,
0,
0,
0,
0,
0,
0,
0,
0,
0,
0,
0,
0,
0,
0,
0,
0,
0,
0,
0,
0,
0,
0,
0,
0,
0,
0,
0,
0,
0,
0,
0,
0,
0,
0,
0,
0,
0,
0,
0,
0,
0,
0,
0,
0,
0,
0,
0,
0,
0,
0,
0,
0,
0,
0,
0,
0,
0,
0,
0,
0,
0,
0,
0,
0,
0,
0,
0,
0,
0,
0,
0,
0,
0,
0,
0,
0,
0,
0,
0,
0,
0,
0,
0,
0,
0,
0,
0,
0,
0,
0,
0,
0,
0,
0,
0,
0,
0,
0,
0,
0,
0,
0,
0,
0,
0,
0,
0,
0,
0,
0,
0,
0,
0,
0,
0,
0,
0,
0,
0,
0,
0,
0,
0,
0,
0,
0,
0,
0,
0,
0,
0,
0,
0,
0,
0,
0,
0,
0,
0,
0,
0,
0,
0,
0,
0,
0,
0,
0,
0,
0,
0,
0,
0,
0,
0,
0,
0,
0,
0,
0,
0,
0,
0,
0,
0,
0,
0,
0,
0,
0,
0,
0,
0,
0,
0,
0,
0,
0,
0,
0,
0,
0,
0,
0,
0,
0,
0,
0,
0,
0,
0,
0,
0,
0,
0,
0,
0,
0,
0,
0,
0,
0,
0,
0,
0,
0,
0,
0,
0,
0,
0,
0,
0,
0,
0,
0,
0,
0,
0,
0,
0,
0,
0,
0,
0,
0,
0,
0,
0,
0,
0,
0,
0,
0,
0,
0,
0,
0,
0,
0,
0,
0,
0,
0,
0,
0,
0,
0,
0,
0,
0,
0,
0,
0,
0,
0,
0,
0,
0,
0,
0,
0,
0,
0,
0,
0,
0,
0,
0,
0,
0,
0,
0,
0,
0,
0,
0,
0,
0,
0,
0,
0,
0,
0,
0,
0,
0,
0,
0,
0,
0,
0,
0,
0,
0,
0,
0,
0,
0,
0,
0,
0,
0,
0,
0,
0,
0,
0,
0,
0,
0,
0,
0,
0,
0,
0,
0,
0,
0,
0,
0,
0,
0,
0,
0,
0,
0,
0,
0,
0,
0,
0,
0,
0,
0,
0,
0,
0,
0,
0,
0,
0,
0,
0,
0,
0,
0,
0,
0,
0,
0,
0,
0,
0,
0,
0,
0,
0,
0,
0,
0,
0,
0,
0,
0,
0,
0,
0,
0,
0,
0,
0,
0,
0,
0,
0,
0,
0,
0,
0,
0,
0,
0,
0,
0,
0,
0,
0,
0,
0,
0,
0,
0,
0,
0,
0,
0,
0,
0,
0,
0,
0,
0,
0,
0,
0,
0,
0,
0,
0,
0,
0,
0,
0,
0,
0,
0,
0,
0,
0,
0,
0,
0,
0,
0,
0,
0,
0,
0,
0,
0,
0,
0,
0,
0,
0,
0,
0,
0,
0,
0,
0,
0,
0,
0,
0,
0,
0,
0,
0,
0,
0,
0,
0,
0,
0,
0,
0,
0,
0,
0,
0,
0,
0,
0,
0,
0,
0,
0,
0,
0,
0,
0,
0,
0,
0,
0,
0,
0,
0,
0,
0,
0,
0,
0,
0,
0,
0,
0,
0,
0,
0,
0,
0,
0,
0,
0,
0,
0,
0,
0,
0,
0,
0,
0,
0,
0,
0,
0,
0,
0,
0,
0,
0,
0,
0,
0,
0,
0,
0,
0,
0,
#ENDOFDATA   :