File: N132962/Quantification/15 keV/GMIIIA/GMIIIA K1236[7][4].msa
#FORMAT      : EMSA/MAS Spectral Data File
#VERSION     : 1.0
#TITLE       : GMIIIA K1236[7][all]
#DATE        : 22-SEP-2025
#TIME        : 23:12
#OWNER       : Unknown
#NPOINTS     : 4096
#NCOLUMNS    : 1
#XUNITS      : eV
#YUNITS      : counts
#DATATYPE    : Y
#XPERCHAN    : 9.99778
#OFFSET      : 1.69135
#BEAMKV      : 15
#SIGNALTYPE  : EDS
#ELEVANGLE   : 35
#AZIMANGLE   : 0
#LIVETIME    : 239.898
#REALTIME    : 258.862
#PROBECUR    : 1.21388
#TAUWIND     : 0
#TDEADLYR    : 0
#TACTLYR     : 0.045
#TALWIND     : 0.025
#CHOFFSET    : 0.0
#XLABEL      : Energy (eV)
#YLABEL      : Counts
#XPOSITION   : 7.15166
#YPOSITION   : 18.9369
#ZPOSITION   : 37.36299
#EDSDET      : SD
##SPECIMEN   : GMIIIA K1236[7][all]
##D2STDCMP   : K1236,(O:21.27),(Sc:0.65),(Ge:40.95),(Pb:37.13)
##DET_HASH   : 12273538-fd48-a23f-0a19-f1e6fa85caef
##CALIB_HASH : 6abaa72c-aa41-8738-0be9-f592914732f3
##WORKING    : 15.0 mm
##DET_NAME   : EDAX All
##DET_MODE   : MediumLE
#SPECTRUM    :
28,
22,
10,
37,
179,
716,
1914,
4556,
9465,
12060,
8593,
6561,
6856,
7372,
8888,
18913,
56049,
99941,
73401,
23208,
8657,
7283,
7002,
7619,
7696,
7318,
7534,
7915,
8097,
8634,
8618,
8896,
9838,
12874,
18255,
20088,
18307,
25932,
75101,
170452,
210906,
138154,
53230,
17338,
9126,
6861,
6259,
6300,
6165,
6480,
6550,
6577,
6403,
6387,
6540,
6641,
7011,
7602,
8299,
9111,
10422,
11046,
9529,
7620,
6639,
6452,
6263,
6362,
6192,
6440,
6471,
6825,
7485,
7844,
8792,
12387,
24148,
49047,
70401,
67729,
54794,
50416,
42833,
26389,
12667,
7194,
6441,
7258,
8326,
8133,
6756,
5465,
5035,
4775,
4698,
4912,
4904,
4899,
4949,
4870,
5062,
5301,
5490,
5671,
5333,
5122,
4783,
4694,
4444,
4314,
4334,
4246,
4370,
4279,
4240,
4275,
4346,
4288,
4544,
4402,
4347,
4281,
4259,
4141,
4131,
4078,
4074,
4033,
3940,
3954,
4028,
3874,
3840,
3902,
4377,
5194,
5455,
5473,
4748,
4074,
3842,
3654,
3699,
3707,
3688,
3628,
3669,
3649,
3779,
3800,
3991,
3749,
3668,
3422,
3458,
3421,
3356,
3439,
3321,
3296,
3355,
3251,
3388,
3222,
3322,
3200,
3252,
3142,
3125,
3213,
3095,
3099,
3036,
3059,
3031,
2937,
2976,
2920,
2886,
2925,
2958,
2970,
2870,
2792,
2838,
2768,
2729,
2819,
2813,
2762,
2666,
2640,
2594,
2750,
2698,
2665,
2601,
2670,
2557,
2595,
2507,
2589,
2386,
2575,
2552,
2568,
2472,
2405,
2504,
2388,
2488,
2374,
2484,
2393,
2376,
2353,
2253,
2237,
2280,
2292,
2253,
2216,
2175,
2175,
2158,
2250,
2242,
2149,
2158,
2150,
2051,
2007,
2070,
2040,
1989,
2079,
2005,
1953,
1978,
1969,
1916,
1940,
1951,
1934,
1898,
1763,
1845,
1861,
1898,
1849,
1768,
1772,
1731,
1807,
1713,
1736,
1777,
1693,
1659,
1650,
1701,
1583,
1647,
1642,
1642,
1611,
1601,
1624,
1575,
1523,
1537,
1624,
1596,
1544,
1464,
1487,
1469,
1499,
1414,
1491,
1416,
1404,
1384,
1460,
1432,
1404,
1361,
1436,
1375,
1352,
1358,
1320,
1329,
1284,
1303,
1309,
1304,
1307,
1213,
1257,
1265,
1204,
1163,
1208,
1262,
1192,
1222,
1235,
1197,
1171,
1190,
1146,
1185,
1163,
1106,
1173,
1091,
1098,
1029,
1092,
1044,
1078,
1205,
1430,
1803,
2778,
4067,
5889,
7381,
8102,
7214,
5888,
4207,
2688,
1737,
1243,
1023,
928,
856,
905,
871,
907,
864,
902,
862,
1009,
938,
1056,
1135,
1310,
1479,
1506,
1468,
1341,
1189,
1007,
879,
842,
803,
841,
780,
908,
1018,
1280,
1469,
1602,
1637,
1557,
1305,
1068,
931,
701,
729,
655,
611,
622,
549,
598,
603,
606,
565,
533,
566,
605,
517,
576,
540,
544,
535,
525,
522,
486,
480,
481,
487,
453,
482,
474,
467,
444,
442,
401,
425,
423,
432,
398,
438,
395,
434,
412,
394,
388,
406,
369,
348,
382,
369,
408,
432,
449,
438,
442,
416,
326,
383,
329,
310,
299,
301,
311,
284,
311,
308,
281,
267,
303,
272,
231,
233,
255,
234,
235,
218,
225,
201,
206,
188,
198,
180,
190,
165,
185,
161,
166,
177,
178,
146,
160,
139,
146,
162,
128,
126,
161,
134,
111,
133,
118,
132,
98,
106,
97,
89,
92,
103,
107,
87,
85,
81,
67,
69,
67,
75,
56,
62,
43,
35,
42,
36,
34,
42,
29,
26,
21,
18,
17,
21,
12,
15,
8,
11,
7,
3,
4,
2,
2,
3,
2,
2,
2,
0,
1,
4,
3,
4,
3,
4,
1,
4,
1,
5,
3,
3,
2,
5,
1,
2,
2,
1,
3,
0,
5,
0,
0,
0,
0,
0,
1,
5,
1,
1,
3,
1,
0,
1,
1,
6,
1,
0,
2,
0,
1,
1,
1,
1,
4,
3,
0,
1,
0,
2,
0,
2,
1,
2,
2,
1,
1,
1,
0,
0,
3,
2,
3,
0,
1,
3,
1,
0,
0,
1,
1,
1,
0,
2,
1,
1,
1,
0,
2,
1,
0,
1,
0,
2,
0,
1,
2,
2,
1,
1,
1,
1,
1,
1,
0,
0,
0,
0,
0,
0,
1,
0,
1,
1,
0,
1,
1,
0,
0,
1,
1,
0,
0,
1,
2,
0,
1,
0,
1,
1,
0,
1,
0,
1,
0,
0,
0,
0,
1,
3,
3,
0,
2,
1,
1,
0,
0,
0,
2,
0,
0,
0,
2,
0,
1,
0,
1,
2,
0,
0,
0,
0,
2,
0,
2,
0,
0,
0,
0,
0,
1,
1,
0,
0,
1,
0,
0,
0,
0,
1,
0,
1,
0,
0,
2,
1,
0,
0,
0,
0,
0,
1,
0,
1,
0,
0,
0,
0,
1,
0,
0,
0,
0,
1,
0,
1,
0,
0,
0,
1,
0,
0,
0,
0,
0,
0,
0,
0,
2,
0,
1,
0,
0,
0,
0,
0,
0,
1,
0,
0,
0,
1,
0,
0,
0,
1,
1,
0,
0,
0,
0,
0,
0,
0,
0,
0,
0,
0,
1,
0,
0,
0,
1,
0,
0,
0,
0,
0,
0,
0,
0,
0,
1,
1,
1,
0,
0,
1,
0,
0,
1,
0,
0,
0,
0,
0,
0,
0,
0,
0,
0,
0,
0,
0,
0,
0,
0,
0,
0,
0,
0,
0,
0,
0,
0,
0,
0,
0,
0,
0,
0,
1,
0,
0,
0,
0,
0,
0,
0,
0,
0,
0,
0,
0,
0,
0,
0,
0,
0,
0,
0,
0,
0,
0,
0,
0,
0,
0,
0,
0,
0,
0,
0,
0,
0,
0,
0,
0,
0,
0,
0,
0,
1,
1,
0,
0,
0,
1,
0,
0,
0,
0,
0,
0,
0,
0,
0,
0,
0,
0,
0,
0,
0,
0,
0,
0,
0,
0,
0,
0,
0,
0,
0,
0,
0,
0,
0,
1,
0,
0,
0,
0,
0,
0,
0,
0,
0,
0,
0,
0,
0,
0,
0,
0,
0,
0,
0,
0,
0,
0,
0,
1,
0,
0,
0,
0,
0,
0,
0,
0,
0,
0,
0,
0,
0,
0,
0,
0,
0,
0,
0,
0,
0,
0,
0,
0,
0,
0,
0,
0,
0,
0,
0,
0,
0,
0,
0,
0,
0,
0,
0,
0,
0,
0,
0,
0,
0,
0,
0,
0,
0,
0,
0,
0,
0,
0,
0,
0,
0,
0,
0,
0,
0,
0,
0,
0,
0,
0,
0,
0,
0,
0,
0,
0,
0,
0,
0,
0,
0,
0,
0,
0,
0,
0,
0,
0,
0,
0,
0,
0,
0,
0,
0,
0,
0,
0,
0,
0,
0,
0,
0,
0,
0,
0,
0,
0,
0,
0,
0,
0,
0,
0,
0,
0,
0,
0,
0,
0,
0,
0,
0,
0,
0,
0,
0,
0,
0,
0,
0,
0,
0,
0,
0,
0,
0,
0,
0,
0,
0,
0,
0,
0,
0,
0,
0,
0,
0,
0,
0,
0,
0,
0,
0,
0,
0,
0,
0,
0,
0,
0,
0,
0,
0,
0,
0,
0,
0,
0,
0,
0,
0,
0,
0,
0,
0,
0,
0,
0,
0,
0,
0,
0,
0,
0,
0,
0,
0,
0,
0,
0,
0,
0,
0,
0,
0,
0,
0,
0,
0,
0,
0,
0,
0,
0,
0,
0,
0,
0,
0,
0,
0,
0,
0,
0,
0,
0,
0,
0,
0,
0,
0,
0,
0,
0,
0,
0,
0,
0,
0,
0,
0,
0,
0,
0,
0,
0,
0,
0,
0,
0,
0,
0,
0,
0,
0,
0,
0,
0,
0,
0,
0,
0,
0,
0,
0,
0,
0,
0,
0,
0,
0,
0,
0,
0,
0,
0,
0,
0,
0,
0,
0,
0,
0,
0,
0,
0,
0,
0,
0,
0,
0,
0,
0,
0,
0,
0,
0,
0,
0,
0,
0,
0,
0,
0,
0,
0,
0,
0,
0,
0,
0,
0,
0,
0,
0,
0,
0,
0,
0,
0,
0,
0,
0,
0,
0,
0,
0,
0,
0,
0,
0,
0,
0,
0,
0,
0,
0,
0,
0,
0,
0,
0,
0,
0,
0,
0,
0,
0,
0,
0,
0,
0,
0,
0,
0,
0,
0,
0,
0,
0,
0,
0,
0,
0,
0,
0,
0,
0,
0,
0,
0,
0,
0,
0,
0,
0,
0,
0,
0,
0,
0,
0,
0,
0,
0,
0,
0,
0,
0,
0,
0,
0,
0,
0,
0,
0,
0,
0,
0,
0,
0,
0,
0,
0,
0,
0,
0,
0,
0,
0,
0,
0,
0,
0,
0,
0,
0,
0,
0,
0,
0,
0,
0,
0,
0,
0,
0,
0,
0,
0,
0,
0,
0,
0,
0,
0,
0,
0,
0,
0,
0,
0,
0,
0,
0,
0,
0,
0,
0,
0,
0,
0,
0,
0,
0,
0,
0,
0,
0,
0,
0,
0,
0,
0,
0,
0,
0,
0,
0,
0,
0,
0,
0,
0,
0,
#ENDOFDATA   :