File: N132962/Quantification/15 keV/GMIIIA/GMIIIA K1080[6][4].msa
#FORMAT      : EMSA/MAS Spectral Data File
#VERSION     : 1.0
#TITLE       : GMIIIA K1080[6][all]
#DATE        : 22-SEP-2025
#TIME        : 20:56
#OWNER       : Unknown
#NPOINTS     : 4096
#NCOLUMNS    : 1
#XUNITS      : eV
#YUNITS      : counts
#DATATYPE    : Y
#XPERCHAN    : 9.99778
#OFFSET      : 1.69135
#BEAMKV      : 15
#SIGNALTYPE  : EDS
#ELEVANGLE   : 35
#AZIMANGLE   : 0
#LIVETIME    : 239.937
#REALTIME    : 255.338
#PROBECUR    : 1.2178
#TAUWIND     : 0
#TDEADLYR    : 0
#TACTLYR     : 0.045
#TALWIND     : 0.025
#CHOFFSET    : 0.0
#XLABEL      : Energy (eV)
#YLABEL      : Counts
#XPOSITION   : 0.39789
#YPOSITION   : 15.75911
#ZPOSITION   : 37.36299
#EDSDET      : SD
##SPECIMEN   : GMIIIA K1080[6][all]
##D2STDCMP   : K1080,(Li:2.79),(B:0.62),(O:41.65),(Mg:1.21),(Al:7.94),(Si:18.7),(Ca:10.72),(Ti:1.2),(Sr:12.68),(Zr:0.74),(Lu:1.76)
##DET_HASH   : 12273538-fd48-a23f-0a19-f1e6fa85caef
##CALIB_HASH : 6abaa72c-aa41-8738-0be9-f592914732f3
##WORKING    : 15.0 mm
##DET_NAME   : EDAX All
##DET_MODE   : MediumLE
#SPECTRUM    :
16,
23,
11,
21,
138,
437,
1023,
2598,
5956,
8578,
7110,
5187,
4700,
5137,
7745,
23599,
85492,
162559,
117964,
32311,
5156,
3059,
3615,
3770,
3592,
3511,
3642,
3912,
4105,
4293,
4440,
4579,
4736,
4994,
5227,
5488,
5388,
5349,
5374,
6168,
8873,
13801,
15837,
11166,
7393,
6358,
7038,
13247,
36102,
69609,
71372,
40580,
20515,
14965,
12564,
16775,
48287,
117886,
166021,
138749,
89866,
57941,
35080,
20413,
11398,
6996,
5503,
5056,
5033,
4653,
4095,
3880,
3624,
3495,
3410,
3446,
3368,
3118,
2947,
2892,
2905,
2801,
2825,
2787,
2797,
2661,
2768,
2738,
2828,
2707,
2630,
2659,
2669,
2542,
2544,
2527,
2645,
2525,
2590,
2549,
2524,
2545,
2475,
2439,
2415,
2417,
2520,
2492,
2415,
2383,
2379,
2332,
2313,
2360,
2258,
2381,
2556,
2505,
2907,
3717,
7321,
16455,
29349,
36679,
30957,
18247,
7799,
3429,
2261,
2070,
2298,
3005,
4195,
5619,
6127,
5171,
3480,
2366,
1913,
1785,
1712,
1699,
1692,
1679,
1624,
1603,
1762,
2001,
2597,
3522,
4122,
4023,
3120,
2275,
1803,
1562,
1406,
1483,
1492,
1477,
1492,
1513,
1559,
1581,
1718,
1721,
1673,
1462,
1386,
1325,
1277,
1350,
1319,
1276,
1277,
1269,
1322,
1197,
1305,
1235,
1261,
1274,
1310,
1244,
1173,
1149,
1176,
1129,
1175,
1116,
1118,
1139,
1109,
1103,
1101,
1087,
1075,
1055,
1028,
1087,
1039,
1003,
992,
970,
1000,
997,
1044,
950,
976,
972,
972,
916,
937,
952,
937,
961,
911,
879,
890,
908,
881,
883,
865,
891,
875,
893,
833,
883,
764,
776,
786,
818,
784,
767,
771,
785,
768,
731,
763,
774,
742,
812,
736,
694,
727,
713,
684,
687,
706,
655,
714,
692,
830,
838,
953,
1029,
897,
847,
744,
643,
659,
643,
641,
606,
594,
576,
586,
626,
571,
555,
655,
575,
531,
587,
563,
521,
530,
514,
508,
507,
522,
525,
509,
490,
492,
497,
516,
534,
525,
587,
619,
578,
540,
523,
507,
471,
475,
447,
480,
467,
474,
476,
457,
471,
455,
452,
405,
404,
413,
407,
435,
382,
363,
401,
352,
365,
413,
341,
357,
375,
382,
382,
382,
347,
341,
364,
342,
312,
299,
324,
292,
358,
319,
329,
347,
332,
303,
290,
342,
314,
286,
321,
287,
279,
267,
302,
334,
263,
263,
269,
265,
260,
248,
228,
293,
264,
234,
236,
236,
227,
233,
254,
236,
224,
216,
220,
205,
230,
211,
189,
208,
204,
177,
172,
208,
220,
175,
182,
206,
162,
179,
177,
158,
183,
195,
169,
174,
134,
133,
154,
151,
161,
156,
165,
153,
131,
155,
152,
151,
155,
154,
123,
123,
134,
127,
122,
114,
155,
126,
118,
114,
129,
108,
118,
94,
114,
113,
92,
128,
108,
101,
97,
107,
90,
89,
96,
87,
96,
86,
87,
90,
76,
76,
75,
73,
71,
74,
69,
68,
68,
68,
68,
62,
58,
66,
58,
58,
54,
66,
49,
47,
46,
45,
50,
46,
33,
35,
47,
43,
36,
40,
34,
41,
33,
35,
27,
26,
33,
30,
21,
39,
22,
26,
29,
24,
33,
25,
12,
28,
16,
15,
18,
12,
20,
11,
11,
9,
14,
9,
12,
10,
9,
6,
9,
6,
6,
4,
4,
3,
1,
2,
2,
0,
0,
0,
1,
0,
0,
1,
2,
0,
1,
0,
0,
1,
1,
0,
1,
1,
0,
0,
0,
0,
1,
2,
1,
2,
0,
0,
0,
1,
0,
0,
1,
0,
1,
0,
0,
0,
0,
0,
1,
0,
0,
0,
0,
0,
0,
0,
0,
1,
0,
0,
0,
0,
0,
0,
0,
0,
0,
0,
0,
0,
0,
0,
0,
0,
0,
0,
0,
0,
0,
0,
0,
2,
0,
1,
1,
0,
0,
0,
0,
0,
1,
0,
0,
0,
0,
0,
1,
0,
0,
0,
0,
1,
0,
0,
0,
0,
0,
0,
1,
0,
0,
1,
0,
1,
0,
0,
0,
0,
0,
0,
0,
0,
0,
0,
0,
0,
0,
0,
0,
0,
0,
0,
0,
0,
0,
1,
0,
0,
0,
1,
0,
0,
0,
0,
0,
0,
0,
0,
0,
0,
0,
0,
0,
0,
0,
0,
0,
0,
0,
0,
0,
1,
0,
0,
0,
0,
0,
0,
0,
0,
0,
0,
0,
0,
0,
0,
0,
0,
0,
0,
0,
0,
0,
0,
0,
0,
0,
0,
0,
0,
0,
0,
0,
0,
0,
0,
0,
0,
0,
0,
0,
0,
0,
0,
0,
0,
0,
0,
0,
0,
0,
0,
0,
0,
0,
0,
0,
0,
0,
0,
0,
0,
0,
0,
0,
0,
0,
0,
0,
0,
0,
0,
0,
0,
0,
0,
0,
0,
0,
0,
0,
0,
0,
0,
0,
0,
0,
0,
0,
0,
0,
0,
0,
0,
0,
0,
0,
0,
0,
0,
0,
0,
0,
0,
0,
0,
0,
0,
0,
0,
0,
0,
0,
0,
0,
0,
0,
0,
0,
0,
0,
0,
0,
0,
0,
0,
0,
0,
0,
0,
0,
0,
0,
0,
0,
0,
0,
0,
0,
0,
0,
0,
0,
0,
0,
0,
0,
0,
0,
0,
0,
0,
0,
0,
0,
0,
0,
0,
0,
0,
0,
0,
0,
0,
0,
0,
0,
0,
0,
0,
0,
0,
0,
0,
0,
0,
0,
0,
0,
0,
0,
0,
0,
0,
0,
0,
0,
0,
0,
0,
0,
0,
0,
0,
0,
0,
0,
0,
0,
0,
0,
0,
0,
0,
0,
0,
0,
0,
0,
0,
0,
0,
0,
0,
0,
0,
0,
0,
0,
0,
0,
0,
0,
0,
0,
0,
0,
0,
0,
0,
0,
0,
0,
0,
0,
0,
0,
0,
0,
0,
0,
0,
0,
0,
0,
0,
0,
0,
0,
0,
0,
0,
0,
0,
0,
0,
0,
0,
0,
0,
0,
0,
0,
0,
0,
0,
0,
0,
0,
0,
0,
0,
0,
0,
0,
0,
0,
0,
0,
0,
0,
0,
0,
0,
0,
0,
0,
0,
0,
0,
0,
0,
0,
0,
0,
0,
0,
0,
0,
0,
0,
0,
0,
0,
0,
0,
0,
0,
0,
0,
0,
0,
0,
0,
0,
0,
0,
0,
0,
0,
0,
0,
0,
0,
0,
0,
0,
0,
0,
0,
0,
0,
0,
0,
0,
0,
0,
0,
0,
0,
0,
0,
0,
0,
0,
0,
0,
0,
0,
0,
0,
0,
0,
0,
0,
0,
0,
0,
0,
0,
0,
0,
0,
0,
0,
0,
0,
0,
0,
0,
0,
0,
0,
0,
0,
0,
0,
0,
0,
0,
0,
0,
0,
0,
0,
0,
0,
0,
0,
0,
0,
0,
0,
0,
0,
0,
0,
0,
0,
0,
0,
0,
0,
0,
0,
0,
0,
0,
0,
0,
0,
0,
0,
0,
0,
0,
0,
0,
0,
0,
0,
0,
0,
0,
0,
0,
0,
0,
0,
0,
0,
0,
0,
0,
0,
0,
0,
0,
0,
0,
0,
0,
0,
0,
0,
0,
0,
0,
0,
0,
0,
0,
0,
0,
0,
0,
0,
0,
0,
0,
0,
0,
0,
0,
0,
0,
0,
0,
0,
0,
0,
0,
0,
0,
0,
0,
0,
0,
0,
0,
0,
0,
0,
0,
0,
0,
0,
0,
0,
0,
0,
0,
0,
0,
0,
0,
0,
0,
0,
0,
0,
0,
0,
0,
0,
0,
0,
0,
0,
0,
0,
0,
0,
0,
0,
0,
0,
0,
0,
0,
0,
0,
0,
0,
0,
0,
0,
0,
0,
0,
0,
0,
0,
0,
0,
0,
0,
0,
0,
0,
0,
0,
0,
0,
0,
0,
0,
0,
0,
0,
0,
0,
0,
0,
0,
0,
0,
0,
0,
0,
0,
0,
0,
0,
0,
0,
0,
0,
0,
0,
0,
0,
0,
0,
0,
0,
0,
0,
0,
0,
0,
0,
0,
0,
0,
0,
0,
0,
0,
0,
0,
0,
0,
0,
0,
0,
0,
0,
0,
0,
0,
0,
0,
0,
0,
0,
0,
0,
0,
0,
0,
0,
0,
0,
0,
0,
0,
0,
0,
0,
0,
0,
0,
0,
0,
0,
0,
0,
0,
0,
0,
0,
0,
0,
0,
0,
0,
0,
0,
0,
0,
0,
0,
0,
0,
0,
0,
0,
0,
0,
0,
0,
0,
0,
0,
0,
0,
0,
0,
0,
0,
0,
0,
0,
0,
0,
0,
0,
0,
0,
0,
0,
0,
0,
0,
0,
0,
0,
0,
0,
0,
0,
0,
0,
0,
0,
0,
0,
0,
0,
0,
0,
0,
0,
0,
0,
0,
0,
0,
0,
0,
0,
0,
0,
0,
0,
0,
0,
0,
0,
0,
0,
0,
#ENDOFDATA   :