File: N132962/Quantification/15 keV/GMIIIA/GMIIIA K1236[6][4].msa
#FORMAT      : EMSA/MAS Spectral Data File
#VERSION     : 1.0
#TITLE       : GMIIIA K1236[6][all]
#DATE        : 22-SEP-2025
#TIME        : 23:11
#OWNER       : Unknown
#NPOINTS     : 4096
#NCOLUMNS    : 1
#XUNITS      : eV
#YUNITS      : counts
#DATATYPE    : Y
#XPERCHAN    : 9.99778
#OFFSET      : 1.69135
#BEAMKV      : 15
#SIGNALTYPE  : EDS
#ELEVANGLE   : 35
#AZIMANGLE   : 0
#LIVETIME    : 239.962
#REALTIME    : 258.915
#PROBECUR    : 1.21388
#TAUWIND     : 0
#TDEADLYR    : 0
#TACTLYR     : 0.045
#TALWIND     : 0.025
#CHOFFSET    : 0.0
#XLABEL      : Energy (eV)
#YLABEL      : Counts
#XPOSITION   : 7.1724
#YPOSITION   : 18.99652
#ZPOSITION   : 37.36299
#EDSDET      : SD
##SPECIMEN   : GMIIIA K1236[6][all]
##D2STDCMP   : K1236,(O:21.27),(Sc:0.65),(Ge:40.95),(Pb:37.13)
##DET_HASH   : 12273538-fd48-a23f-0a19-f1e6fa85caef
##CALIB_HASH : 6abaa72c-aa41-8738-0be9-f592914732f3
##WORKING    : 15.0 mm
##DET_NAME   : EDAX All
##DET_MODE   : MediumLE
#SPECTRUM    :
19,
38,
13,
35,
183,
731,
1893,
4475,
9600,
12009,
8571,
6620,
6676,
7212,
8653,
18601,
55961,
100443,
73646,
23390,
8534,
6998,
7094,
7515,
7561,
7219,
7618,
7836,
8372,
8445,
8560,
9006,
10036,
12998,
18047,
20206,
18153,
26013,
74864,
171693,
210734,
137979,
53709,
17504,
9024,
6943,
6342,
6388,
6281,
6442,
6572,
6467,
6350,
6409,
6581,
6641,
6914,
7773,
8133,
9052,
10411,
10865,
9645,
7614,
6717,
6361,
6381,
6264,
6309,
6310,
6337,
6812,
7323,
7818,
8749,
12433,
24263,
48976,
70675,
68002,
54859,
49778,
42518,
26245,
12855,
7238,
6313,
7397,
8221,
8024,
6803,
5403,
4856,
4855,
4678,
4797,
4845,
4958,
5019,
4876,
5074,
5204,
5334,
5490,
5354,
4958,
4611,
4606,
4433,
4421,
4388,
4320,
4402,
4239,
4353,
4308,
4311,
4315,
4402,
4298,
4373,
4167,
4311,
4284,
4238,
4157,
4003,
3852,
3815,
3998,
3825,
3778,
3887,
4061,
4454,
5112,
5522,
5253,
4753,
4178,
3865,
3683,
3515,
3608,
3717,
3584,
3582,
3710,
3797,
4010,
3876,
3742,
3606,
3544,
3488,
3443,
3390,
3367,
3433,
3368,
3300,
3374,
3309,
3282,
3293,
3349,
3181,
3175,
3180,
3153,
3068,
3085,
3004,
3090,
3163,
2991,
2952,
2959,
2948,
2901,
2830,
2919,
2854,
2884,
2878,
2867,
2700,
2712,
2777,
2780,
2700,
2680,
2717,
2690,
2710,
2571,
2714,
2680,
2557,
2594,
2598,
2548,
2516,
2450,
2517,
2450,
2468,
2379,
2414,
2296,
2358,
2327,
2339,
2486,
2378,
2346,
2318,
2367,
2209,
2172,
2190,
2247,
2202,
2137,
2120,
2207,
2063,
2132,
2080,
2074,
2107,
2019,
2093,
2064,
2067,
2063,
1982,
1945,
1969,
1936,
2005,
1944,
1817,
1845,
1857,
1811,
1946,
1882,
1860,
1898,
1781,
1835,
1855,
1784,
1720,
1816,
1754,
1750,
1703,
1680,
1757,
1662,
1618,
1621,
1639,
1676,
1645,
1588,
1667,
1612,
1575,
1528,
1568,
1563,
1507,
1431,
1558,
1529,
1472,
1454,
1454,
1438,
1412,
1401,
1442,
1396,
1365,
1421,
1337,
1304,
1336,
1355,
1297,
1368,
1287,
1314,
1198,
1259,
1265,
1348,
1282,
1240,
1239,
1212,
1225,
1300,
1240,
1279,
1212,
1157,
1140,
1152,
1111,
1108,
1133,
1090,
1081,
1184,
1091,
1110,
1127,
1082,
1198,
1345,
1779,
2668,
4159,
5944,
7421,
8076,
7550,
5818,
4018,
2626,
1730,
1169,
1034,
945,
925,
937,
876,
906,
825,
904,
899,
904,
979,
1035,
1153,
1263,
1525,
1494,
1502,
1332,
1145,
1071,
879,
781,
768,
783,
820,
894,
1033,
1189,
1422,
1679,
1584,
1497,
1299,
1058,
855,
790,
672,
664,
617,
635,
639,
598,
611,
595,
586,
558,
569,
545,
580,
532,
550,
523,
527,
539,
488,
485,
488,
517,
418,
475,
482,
421,
421,
489,
438,
441,
435,
449,
433,
446,
423,
437,
441,
376,
398,
403,
381,
372,
364,
391,
437,
384,
412,
424,
424,
459,
436,
368,
372,
344,
312,
319,
307,
327,
291,
268,
283,
268,
263,
259,
236,
272,
237,
240,
233,
239,
238,
226,
217,
215,
203,
217,
188,
204,
173,
196,
186,
184,
192,
176,
167,
156,
159,
156,
121,
151,
164,
141,
150,
118,
128,
104,
119,
101,
101,
103,
109,
104,
93,
81,
86,
81,
91,
78,
67,
57,
65,
68,
55,
50,
49,
44,
41,
33,
41,
43,
23,
33,
28,
22,
28,
12,
9,
9,
2,
7,
5,
4,
4,
4,
2,
1,
2,
2,
2,
1,
0,
0,
2,
2,
0,
0,
6,
1,
2,
6,
0,
0,
1,
3,
1,
3,
2,
0,
4,
1,
4,
2,
2,
2,
0,
2,
0,
2,
2,
0,
2,
1,
4,
1,
1,
2,
0,
3,
1,
2,
1,
2,
2,
2,
0,
2,
2,
1,
3,
1,
1,
2,
0,
1,
0,
3,
1,
1,
2,
0,
0,
2,
1,
0,
2,
3,
0,
1,
1,
2,
0,
3,
0,
0,
0,
1,
1,
1,
1,
1,
2,
1,
1,
0,
1,
0,
0,
0,
0,
2,
1,
2,
1,
0,
2,
0,
0,
0,
1,
2,
1,
1,
0,
1,
1,
0,
1,
0,
1,
2,
0,
1,
1,
1,
1,
0,
1,
0,
1,
0,
0,
1,
0,
1,
2,
1,
0,
1,
0,
0,
1,
0,
1,
0,
1,
1,
0,
0,
0,
3,
1,
2,
1,
1,
1,
1,
2,
0,
1,
0,
0,
1,
0,
0,
0,
0,
0,
0,
0,
1,
0,
1,
0,
1,
2,
4,
0,
0,
0,
0,
0,
1,
0,
0,
0,
0,
1,
1,
1,
0,
0,
1,
0,
0,
0,
0,
0,
0,
0,
1,
0,
0,
1,
0,
0,
0,
0,
0,
1,
0,
1,
2,
0,
0,
0,
0,
0,
0,
0,
0,
1,
0,
0,
0,
0,
0,
0,
0,
0,
1,
0,
0,
0,
1,
0,
0,
0,
0,
0,
0,
0,
0,
1,
0,
0,
0,
0,
0,
2,
0,
1,
0,
0,
0,
0,
0,
0,
0,
0,
1,
0,
0,
0,
0,
1,
0,
0,
0,
0,
0,
0,
0,
0,
0,
1,
0,
0,
0,
0,
0,
0,
0,
0,
0,
0,
0,
0,
0,
0,
1,
0,
0,
0,
0,
0,
0,
0,
0,
0,
0,
1,
0,
0,
0,
0,
0,
0,
0,
0,
0,
0,
0,
0,
0,
0,
0,
0,
0,
1,
0,
0,
0,
0,
0,
0,
0,
0,
0,
0,
0,
0,
0,
0,
0,
0,
0,
0,
0,
0,
0,
0,
0,
0,
0,
0,
0,
0,
0,
0,
0,
0,
0,
0,
0,
0,
0,
0,
0,
0,
0,
0,
0,
0,
0,
0,
0,
0,
0,
0,
0,
0,
0,
0,
0,
0,
0,
0,
0,
0,
0,
0,
0,
1,
0,
0,
0,
0,
0,
0,
0,
0,
0,
0,
0,
0,
0,
0,
0,
0,
0,
0,
0,
0,
0,
0,
0,
0,
0,
0,
0,
0,
0,
0,
0,
0,
0,
0,
0,
0,
0,
0,
0,
0,
0,
0,
0,
0,
0,
0,
0,
0,
0,
0,
0,
0,
0,
0,
0,
0,
0,
0,
0,
0,
0,
0,
0,
0,
0,
0,
0,
0,
0,
0,
0,
0,
0,
0,
0,
0,
0,
0,
0,
0,
0,
0,
0,
0,
0,
0,
0,
0,
0,
0,
0,
0,
0,
0,
0,
0,
0,
0,
0,
0,
0,
0,
0,
0,
0,
0,
0,
0,
0,
0,
0,
0,
0,
0,
0,
0,
0,
0,
0,
0,
0,
0,
0,
0,
0,
0,
0,
0,
0,
0,
0,
0,
0,
0,
0,
0,
0,
0,
0,
0,
0,
0,
0,
0,
0,
0,
0,
0,
0,
0,
0,
0,
0,
0,
0,
0,
0,
0,
0,
0,
0,
0,
0,
0,
0,
0,
0,
0,
0,
0,
0,
0,
0,
0,
0,
0,
0,
0,
0,
0,
0,
0,
0,
0,
0,
0,
0,
0,
0,
0,
0,
0,
0,
0,
0,
0,
0,
0,
0,
0,
0,
0,
0,
0,
0,
0,
0,
0,
0,
0,
0,
0,
0,
0,
0,
0,
0,
0,
0,
0,
0,
0,
0,
0,
0,
0,
0,
0,
0,
0,
0,
0,
0,
0,
0,
0,
0,
0,
0,
0,
0,
0,
0,
0,
0,
0,
0,
0,
0,
0,
0,
0,
0,
0,
0,
0,
0,
0,
0,
0,
0,
0,
0,
0,
0,
0,
0,
0,
0,
0,
0,
0,
0,
0,
0,
0,
0,
0,
0,
0,
0,
0,
0,
0,
0,
0,
0,
0,
0,
0,
0,
0,
0,
0,
0,
0,
0,
0,
0,
0,
0,
0,
0,
0,
0,
0,
0,
0,
0,
0,
0,
0,
0,
0,
0,
0,
0,
0,
0,
0,
0,
0,
0,
0,
0,
0,
0,
0,
0,
0,
0,
0,
0,
0,
0,
0,
0,
0,
0,
0,
0,
0,
0,
0,
0,
0,
0,
0,
0,
0,
0,
0,
0,
0,
0,
0,
0,
0,
0,
0,
0,
0,
0,
0,
0,
0,
0,
0,
0,
0,
0,
0,
0,
0,
0,
0,
0,
0,
0,
0,
0,
0,
0,
0,
0,
0,
0,
0,
0,
0,
0,
0,
0,
0,
0,
0,
0,
0,
0,
0,
0,
0,
0,
0,
0,
0,
0,
0,
0,
0,
0,
0,
0,
0,
0,
0,
0,
0,
0,
0,
0,
0,
0,
0,
0,
0,
0,
0,
0,
0,
0,
0,
0,
0,
0,
0,
0,
0,
0,
0,
0,
0,
0,
0,
0,
0,
0,
0,
0,
0,
0,
0,
0,
0,
0,
0,
0,
0,
0,
0,
0,
0,
0,
0,
0,
0,
0,
0,
0,
0,
0,
0,
0,
0,
0,
0,
0,
0,
0,
0,
0,
#ENDOFDATA   :