File: N132962/Quantification/15 keV/GMIIIA/GMIIIA K1070[8][4].msa
#FORMAT      : EMSA/MAS Spectral Data File
#VERSION     : 1.0
#TITLE       : GMIIIA K1070[8][all]
#DATE        : 22-SEP-2025
#TIME        : 21:09
#OWNER       : Unknown
#NPOINTS     : 4096
#NCOLUMNS    : 1
#XUNITS      : eV
#YUNITS      : counts
#DATATYPE    : Y
#XPERCHAN    : 9.99778
#OFFSET      : 1.69135
#BEAMKV      : 15
#SIGNALTYPE  : EDS
#ELEVANGLE   : 35
#AZIMANGLE   : 0
#LIVETIME    : 240.036
#REALTIME    : 256.2368
#PROBECUR    : 1.21822
#TAUWIND     : 0
#TDEADLYR    : 0
#TACTLYR     : 0.045
#TALWIND     : 0.025
#CHOFFSET    : 0.0
#XLABEL      : Energy (eV)
#YLABEL      : Counts
#XPOSITION   : 2.27295
#YPOSITION   : 15.71129
#ZPOSITION   : 37.36299
#EDSDET      : SD
##SPECIMEN   : GMIIIA K1070[8][all]
##D2STDCMP   : K1070,(O:34.31),(Mg:7.54),(Si:18.7),(Ca:8.93),(Zn:10.04),(Ba:11.2),(Pb:9.28)
##DET_HASH   : 12273538-fd48-a23f-0a19-f1e6fa85caef
##CALIB_HASH : 6abaa72c-aa41-8738-0be9-f592914732f3
##WORKING    : 15.0 mm
##DET_NAME   : EDAX All
##DET_MODE   : MediumLE
#SPECTRUM    :
30,
30,
10,
26,
122,
466,
1329,
3131,
7580,
10717,
8840,
6536,
5786,
5949,
8711,
25223,
88402,
166267,
121133,
34816,
8305,
5182,
4793,
5201,
5197,
6122,
6575,
6553,
6591,
7469,
7704,
8875,
17126,
36244,
44939,
29415,
12761,
7069,
6308,
8397,
20580,
44327,
52718,
31224,
12014,
6286,
5293,
5310,
5421,
5830,
5924,
6062,
5900,
5989,
6886,
13649,
44118,
108158,
146370,
104800,
44317,
17811,
9668,
6167,
4604,
4469,
4309,
4012,
3975,
4079,
4000,
4061,
4206,
4283,
4757,
5584,
8074,
13512,
18246,
17467,
14388,
13263,
11900,
8314,
5228,
3905,
3860,
4120,
4281,
4135,
4024,
3750,
3396,
3448,
3329,
3343,
3436,
3308,
3238,
3343,
3427,
3373,
3308,
3328,
3324,
3239,
3095,
3115,
3035,
2967,
3014,
2995,
2969,
2991,
2956,
2978,
3120,
3176,
3310,
4185,
7143,
14765,
25643,
32018,
27572,
16147,
7709,
3886,
2934,
2684,
3098,
3676,
4753,
5954,
6174,
5311,
3971,
2992,
2528,
2366,
2331,
2373,
2292,
2385,
2638,
3085,
4650,
7368,
10465,
11850,
10105,
6621,
3912,
2598,
2242,
2107,
2206,
2384,
2958,
4153,
5588,
6504,
6128,
4812,
3831,
2988,
2583,
2179,
2135,
2308,
2684,
3233,
3509,
3068,
2564,
2139,
1814,
1726,
1707,
1697,
1723,
1831,
1926,
2131,
2265,
2249,
1974,
1793,
1671,
1588,
1606,
1636,
1747,
1777,
1809,
1647,
1578,
1552,
1497,
1485,
1440,
1491,
1440,
1392,
1358,
1370,
1392,
1365,
1320,
1253,
1371,
1296,
1378,
1361,
1351,
1320,
1294,
1227,
1226,
1244,
1179,
1152,
1221,
1214,
1189,
1205,
1228,
1166,
1182,
1175,
1137,
1122,
1168,
1127,
1144,
1140,
1071,
1058,
1032,
1047,
1024,
1077,
1017,
1021,
1040,
987,
966,
1011,
982,
957,
1017,
1002,
932,
968,
924,
909,
909,
896,
891,
898,
871,
872,
856,
880,
867,
874,
856,
830,
824,
843,
826,
833,
768,
778,
816,
834,
795,
780,
766,
782,
772,
814,
903,
1155,
1673,
2440,
3380,
3933,
3946,
3385,
2553,
1707,
1117,
837,
745,
704,
713,
619,
654,
645,
642,
623,
626,
632,
638,
596,
609,
587,
607,
611,
573,
629,
589,
596,
646,
656,
796,
885,
916,
953,
982,
818,
686,
602,
552,
531,
529,
490,
479,
531,
467,
461,
487,
483,
450,
421,
469,
462,
416,
452,
424,
455,
405,
415,
440,
419,
441,
426,
507,
477,
520,
516,
524,
489,
460,
402,
400,
424,
397,
370,
363,
349,
334,
372,
354,
349,
292,
321,
308,
304,
319,
305,
311,
337,
313,
312,
310,
318,
296,
289,
295,
244,
285,
308,
270,
260,
287,
246,
219,
221,
244,
235,
224,
237,
226,
221,
230,
218,
236,
221,
204,
249,
180,
226,
193,
181,
185,
176,
196,
182,
203,
168,
190,
176,
162,
178,
187,
187,
178,
180,
177,
164,
177,
156,
179,
119,
123,
146,
127,
129,
127,
121,
130,
150,
118,
127,
120,
111,
119,
93,
125,
112,
112,
87,
105,
105,
85,
94,
71,
83,
78,
75,
89,
77,
78,
71,
70,
95,
64,
62,
63,
75,
65,
58,
48,
51,
66,
56,
46,
56,
34,
57,
53,
48,
40,
32,
33,
25,
33,
30,
33,
27,
34,
24,
26,
22,
24,
11,
15,
16,
12,
16,
7,
12,
9,
9,
3,
6,
5,
5,
1,
1,
2,
2,
0,
1,
0,
0,
2,
0,
2,
2,
0,
1,
1,
1,
0,
1,
1,
2,
0,
0,
0,
2,
0,
1,
0,
1,
0,
0,
0,
0,
0,
0,
0,
1,
0,
0,
1,
1,
0,
0,
1,
0,
1,
0,
0,
1,
0,
1,
0,
1,
0,
0,
0,
0,
0,
0,
0,
0,
1,
0,
0,
0,
0,
1,
0,
1,
0,
2,
0,
0,
1,
0,
0,
1,
0,
1,
2,
0,
1,
1,
0,
2,
1,
0,
0,
0,
0,
0,
1,
1,
0,
0,
0,
0,
0,
0,
0,
0,
0,
0,
0,
1,
0,
1,
0,
0,
0,
0,
1,
0,
0,
0,
0,
0,
0,
0,
0,
0,
0,
0,
0,
0,
0,
0,
0,
0,
0,
0,
1,
1,
0,
0,
0,
0,
0,
0,
0,
0,
0,
0,
0,
0,
1,
0,
0,
0,
0,
0,
0,
0,
0,
0,
0,
0,
0,
0,
0,
0,
0,
1,
0,
0,
1,
0,
0,
0,
0,
0,
0,
0,
1,
0,
0,
0,
0,
0,
0,
0,
0,
0,
0,
0,
0,
0,
0,
0,
0,
0,
0,
0,
0,
0,
0,
0,
0,
0,
0,
0,
1,
0,
0,
0,
1,
0,
0,
0,
0,
0,
0,
0,
0,
0,
0,
0,
0,
0,
0,
0,
0,
0,
0,
0,
0,
0,
0,
0,
0,
0,
0,
0,
0,
0,
0,
0,
0,
0,
0,
0,
0,
0,
0,
0,
0,
0,
0,
0,
0,
1,
0,
0,
0,
0,
0,
0,
0,
0,
0,
0,
0,
0,
0,
0,
0,
0,
0,
0,
0,
0,
0,
0,
0,
0,
0,
0,
0,
0,
0,
0,
0,
0,
0,
0,
0,
0,
0,
0,
0,
0,
0,
0,
0,
0,
0,
0,
0,
0,
0,
0,
0,
0,
0,
0,
0,
0,
0,
0,
0,
0,
0,
0,
0,
0,
0,
0,
0,
0,
0,
0,
0,
0,
0,
0,
0,
0,
0,
0,
0,
0,
0,
0,
0,
0,
0,
0,
0,
0,
0,
0,
0,
0,
0,
0,
0,
0,
0,
0,
0,
0,
0,
0,
0,
0,
0,
0,
0,
0,
0,
0,
0,
0,
0,
0,
0,
0,
0,
0,
0,
0,
0,
0,
0,
0,
0,
0,
0,
0,
0,
0,
0,
0,
0,
0,
0,
0,
0,
0,
0,
0,
0,
0,
0,
0,
0,
0,
0,
0,
0,
0,
0,
0,
0,
0,
0,
0,
0,
0,
0,
0,
0,
0,
0,
0,
0,
0,
0,
0,
0,
0,
0,
0,
0,
0,
0,
0,
0,
0,
0,
0,
0,
0,
0,
0,
0,
0,
0,
0,
0,
0,
0,
0,
0,
0,
0,
0,
0,
0,
0,
0,
0,
0,
0,
0,
0,
0,
0,
0,
0,
0,
0,
0,
0,
0,
0,
0,
0,
0,
0,
0,
0,
0,
0,
0,
0,
0,
0,
0,
0,
0,
0,
0,
0,
0,
0,
0,
0,
0,
0,
0,
0,
0,
0,
0,
0,
0,
0,
0,
0,
0,
0,
0,
0,
0,
0,
0,
0,
0,
0,
0,
0,
0,
0,
0,
0,
0,
0,
0,
0,
0,
0,
0,
0,
0,
0,
0,
0,
0,
0,
0,
0,
0,
0,
0,
0,
0,
0,
0,
0,
0,
0,
0,
0,
0,
0,
0,
0,
0,
0,
0,
0,
0,
0,
0,
0,
0,
0,
0,
0,
0,
0,
0,
0,
0,
0,
0,
0,
0,
0,
0,
0,
0,
0,
0,
0,
0,
0,
0,
0,
0,
0,
0,
0,
0,
0,
0,
0,
0,
0,
0,
0,
0,
0,
0,
0,
0,
0,
0,
0,
0,
0,
0,
0,
0,
0,
0,
0,
0,
0,
0,
0,
0,
0,
0,
0,
0,
0,
0,
0,
0,
0,
0,
0,
0,
0,
0,
0,
0,
0,
0,
0,
0,
0,
0,
0,
0,
0,
0,
0,
0,
0,
0,
0,
0,
0,
0,
0,
0,
0,
0,
0,
0,
0,
0,
0,
0,
0,
0,
0,
0,
0,
0,
0,
0,
0,
0,
0,
0,
0,
0,
0,
0,
0,
0,
0,
0,
0,
0,
0,
0,
0,
0,
0,
0,
0,
0,
0,
0,
0,
0,
0,
0,
0,
0,
0,
0,
0,
0,
0,
0,
0,
0,
0,
0,
0,
0,
0,
0,
0,
0,
0,
0,
0,
0,
0,
0,
0,
0,
0,
0,
0,
0,
0,
0,
0,
0,
0,
0,
0,
0,
0,
0,
0,
0,
0,
0,
0,
0,
0,
0,
0,
0,
0,
0,
0,
0,
0,
0,
0,
0,
0,
0,
0,
0,
0,
0,
0,
0,
0,
0,
0,
0,
0,
0,
0,
0,
0,
0,
0,
0,
0,
0,
0,
0,
0,
0,
0,
0,
0,
0,
0,
0,
0,
0,
0,
0,
0,
0,
0,
0,
0,
0,
0,
0,
0,
0,
0,
0,
0,
0,
0,
0,
0,
0,
0,
0,
0,
0,
0,
0,
0,
0,
0,
0,
0,
0,
0,
0,
0,
0,
0,
0,
0,
0,
0,
0,
0,
0,
0,
0,
0,
0,
0,
0,
0,
0,
0,
0,
0,
0,
0,
0,
0,
0,
0,
0,
0,
0,
0,
0,
0,
0,
0,
0,
0,
0,
0,
0,
0,
0,
0,
0,
0,
0,
0,
0,
#ENDOFDATA   :