File: N132962/Quantification/15 keV/GMIIIA/GMIIIA K229[2][4].msa
#FORMAT      : EMSA/MAS Spectral Data File
#VERSION     : 1.0
#TITLE       : GMIIIA K229[2][all]
#DATE        : 22-SEP-2025
#TIME        : 14:25
#OWNER       : Unknown
#NPOINTS     : 4096
#NCOLUMNS    : 1
#XUNITS      : eV
#YUNITS      : counts
#DATATYPE    : Y
#XPERCHAN    : 9.99778
#OFFSET      : 1.69135
#BEAMKV      : 15
#SIGNALTYPE  : EDS
#ELEVANGLE   : 35
#AZIMANGLE   : 0
#LIVETIME    : 239.983
#REALTIME    : 260.201
#PROBECUR    : 1.21983
#TAUWIND     : 0
#TDEADLYR    : 0
#TACTLYR     : 0.045
#TALWIND     : 0.025
#CHOFFSET    : 0.0
#XLABEL      : Energy (eV)
#YLABEL      : Counts
#XPOSITION   : 5.91759
#YPOSITION   : 0.78294
#ZPOSITION   : 37.36299
#EDSDET      : SD
##SPECIMEN   : GMIIIA K229[2][all]
##D2STDCMP   : K229,(O:20.99),(Si:14.02),(Pb:64.98)
##DET_HASH   : 12273538-fd48-a23f-0a19-f1e6fa85caef
##CALIB_HASH : 6abaa72c-aa41-8738-0be9-f592914732f3
##WORKING    : 15.0 mm
##DET_NAME   : EDAX All
##DET_MODE   : MediumLE
#SPECTRUM    :
25,
29,
15,
35,
254,
831,
2500,
5706,
11494,
13830,
9660,
7270,
6791,
7133,
8653,
17574,
51050,
91552,
67144,
22305,
9454,
8038,
8115,
8621,
7923,
6708,
6909,
7093,
7562,
7496,
7613,
7747,
8019,
8024,
8149,
8443,
8430,
8638,
8687,
9037,
9050,
9045,
9115,
9366,
9449,
9480,
9411,
9775,
9825,
10360,
10189,
10304,
10085,
10180,
10912,
16654,
44883,
103811,
139262,
103252,
51058,
28420,
18459,
11906,
8772,
7780,
7458,
7353,
7312,
7523,
7886,
8467,
9558,
10300,
12192,
18934,
41438,
88449,
129297,
124787,
98867,
89979,
76306,
45416,
19607,
8821,
7439,
8859,
10365,
10236,
7904,
5807,
5046,
4829,
4677,
4936,
4926,
5168,
5138,
5243,
5325,
5820,
6099,
6304,
6036,
5575,
5098,
4917,
4614,
4598,
4439,
4547,
4421,
4463,
4430,
4346,
4408,
4542,
4550,
4486,
4350,
4190,
4318,
4350,
4337,
4291,
4203,
4296,
4067,
4183,
4167,
4014,
4034,
4139,
4076,
4087,
4230,
4169,
4174,
4192,
3990,
4051,
3848,
3830,
3891,
3878,
3751,
3890,
3930,
3978,
3916,
3874,
3948,
3794,
3785,
3776,
3720,
3770,
3705,
3752,
3701,
3575,
3613,
3645,
3492,
3530,
3569,
3498,
3465,
3365,
3406,
3427,
3290,
3317,
3347,
3319,
3341,
3253,
3260,
3229,
3257,
3179,
3123,
3072,
3206,
3130,
3061,
3103,
3119,
3050,
3045,
2951,
3022,
3041,
2904,
2997,
2949,
2873,
2871,
2872,
2901,
2760,
2951,
2819,
2801,
2704,
2676,
2742,
2696,
2648,
2717,
2766,
2778,
2756,
2706,
2620,
2658,
2538,
2661,
2532,
2555,
2491,
2532,
2508,
2494,
2472,
2430,
2439,
2368,
2356,
2387,
2384,
2332,
2312,
2387,
2276,
2304,
2271,
2271,
2234,
2252,
2262,
2240,
2171,
2121,
2149,
2101,
2210,
2129,
2154,
2132,
2085,
2046,
2053,
1996,
2039,
1895,
1922,
1991,
1950,
1984,
1926,
2001,
1899,
1885,
1854,
1870,
1922,
1819,
1800,
1778,
1789,
1775,
1727,
1723,
1774,
1768,
1712,
1671,
1760,
1606,
1694,
1628,
1674,
1726,
1684,
1603,
1586,
1571,
1592,
1611,
1588,
1608,
1507,
1546,
1492,
1582,
1449,
1457,
1512,
1451,
1403,
1375,
1443,
1481,
1476,
1424,
1425,
1460,
1372,
1384,
1325,
1287,
1283,
1318,
1314,
1238,
1234,
1260,
1238,
1278,
1224,
1206,
1185,
1217,
1176,
1154,
1148,
1230,
1186,
1155,
1088,
1124,
1076,
1105,
1091,
1083,
1081,
1079,
1060,
1022,
1036,
1052,
1048,
1073,
1151,
1218,
1304,
1522,
1886,
2126,
2228,
2149,
1925,
1604,
1371,
1149,
992,
945,
881,
849,
908,
911,
872,
869,
883,
888,
777,
787,
790,
805,
814,
812,
772,
677,
779,
704,
747,
675,
693,
709,
652,
701,
684,
660,
638,
649,
660,
602,
595,
652,
603,
643,
638,
605,
581,
549,
598,
617,
503,
557,
511,
523,
513,
501,
531,
529,
522,
532,
449,
471,
502,
511,
446,
466,
474,
474,
527,
559,
613,
612,
618,
566,
557,
449,
458,
377,
371,
356,
398,
384,
394,
332,
344,
340,
343,
301,
301,
307,
322,
278,
270,
272,
271,
262,
258,
269,
237,
207,
237,
214,
224,
198,
234,
192,
208,
174,
227,
176,
170,
171,
184,
172,
168,
134,
141,
149,
154,
142,
133,
128,
139,
133,
141,
132,
111,
122,
88,
92,
90,
85,
78,
71,
75,
67,
57,
68,
58,
59,
57,
40,
37,
31,
42,
28,
23,
27,
20,
14,
12,
9,
5,
4,
8,
3,
3,
3,
1,
3,
2,
3,
7,
3,
0,
3,
5,
2,
2,
4,
5,
2,
3,
0,
5,
1,
1,
4,
0,
0,
1,
3,
1,
2,
2,
2,
2,
3,
2,
2,
2,
0,
2,
0,
3,
4,
1,
2,
1,
0,
4,
0,
2,
0,
3,
3,
1,
2,
2,
1,
1,
0,
4,
1,
2,
1,
1,
1,
2,
0,
1,
1,
0,
0,
1,
3,
0,
2,
0,
1,
5,
0,
1,
0,
2,
1,
2,
1,
1,
3,
0,
2,
3,
1,
1,
0,
2,
0,
3,
0,
1,
1,
0,
0,
0,
1,
0,
2,
1,
1,
0,
1,
1,
0,
1,
1,
1,
1,
0,
2,
2,
0,
1,
0,
1,
1,
1,
1,
1,
0,
0,
2,
1,
1,
0,
0,
0,
2,
1,
0,
0,
0,
0,
0,
0,
0,
1,
1,
1,
0,
0,
1,
0,
1,
1,
0,
1,
1,
0,
0,
0,
0,
2,
0,
1,
0,
0,
0,
0,
0,
0,
0,
0,
0,
0,
2,
0,
1,
1,
1,
1,
1,
0,
0,
0,
0,
0,
0,
0,
0,
0,
0,
0,
0,
1,
1,
0,
1,
0,
1,
0,
0,
1,
0,
0,
0,
0,
2,
0,
0,
0,
0,
1,
0,
0,
1,
0,
0,
1,
0,
0,
0,
0,
0,
0,
0,
0,
0,
1,
0,
0,
1,
0,
2,
0,
0,
1,
1,
0,
0,
1,
0,
2,
1,
1,
0,
0,
0,
0,
0,
0,
0,
0,
0,
0,
1,
1,
1,
1,
1,
0,
0,
0,
0,
0,
1,
0,
0,
0,
0,
0,
1,
0,
0,
0,
0,
0,
0,
0,
0,
0,
0,
0,
1,
0,
0,
0,
0,
0,
0,
0,
0,
0,
0,
0,
0,
0,
1,
0,
0,
0,
0,
0,
0,
0,
0,
1,
0,
0,
0,
0,
0,
0,
0,
0,
0,
0,
1,
0,
0,
0,
0,
0,
0,
0,
0,
0,
0,
0,
0,
0,
0,
0,
0,
0,
0,
0,
0,
0,
0,
1,
0,
0,
0,
0,
0,
0,
0,
0,
0,
0,
0,
0,
0,
0,
0,
0,
0,
0,
0,
0,
0,
0,
0,
0,
0,
0,
0,
0,
0,
0,
0,
0,
0,
0,
0,
0,
0,
0,
0,
0,
0,
0,
0,
0,
0,
0,
0,
0,
0,
0,
0,
0,
0,
0,
0,
0,
0,
0,
0,
0,
0,
0,
0,
0,
0,
0,
0,
0,
0,
0,
0,
0,
0,
0,
0,
0,
0,
0,
0,
0,
0,
0,
0,
0,
0,
0,
0,
0,
0,
0,
0,
0,
0,
0,
0,
0,
0,
0,
0,
0,
0,
1,
0,
0,
0,
0,
0,
0,
0,
0,
0,
0,
0,
0,
0,
0,
0,
0,
0,
0,
0,
0,
0,
0,
0,
0,
0,
0,
1,
0,
0,
0,
0,
0,
0,
0,
0,
0,
0,
0,
0,
0,
0,
0,
0,
0,
0,
0,
0,
0,
0,
0,
0,
0,
0,
0,
0,
0,
0,
0,
0,
0,
0,
0,
0,
0,
0,
0,
0,
0,
0,
0,
0,
0,
0,
0,
0,
0,
0,
0,
0,
0,
0,
0,
0,
0,
0,
0,
0,
0,
0,
0,
0,
0,
0,
0,
0,
0,
0,
0,
0,
0,
0,
0,
0,
0,
0,
0,
0,
0,
0,
0,
0,
0,
0,
0,
0,
0,
0,
0,
0,
0,
0,
0,
0,
0,
0,
0,
0,
0,
0,
0,
0,
0,
0,
0,
0,
0,
0,
0,
0,
0,
0,
0,
0,
0,
0,
0,
0,
0,
0,
0,
0,
0,
0,
0,
0,
0,
0,
0,
0,
0,
0,
0,
0,
0,
0,
0,
0,
0,
0,
0,
0,
0,
0,
0,
0,
0,
0,
0,
0,
0,
0,
0,
0,
0,
0,
0,
0,
0,
0,
0,
0,
0,
0,
0,
0,
0,
0,
0,
0,
0,
0,
0,
0,
0,
0,
0,
0,
0,
0,
0,
0,
0,
0,
0,
0,
0,
0,
0,
0,
0,
0,
0,
0,
0,
0,
0,
0,
0,
0,
0,
0,
0,
0,
0,
0,
0,
0,
0,
0,
0,
0,
0,
0,
0,
0,
0,
0,
0,
0,
0,
0,
0,
0,
0,
0,
0,
0,
0,
0,
0,
0,
0,
0,
0,
0,
0,
0,
0,
0,
0,
0,
0,
0,
0,
0,
0,
0,
0,
0,
0,
0,
0,
0,
0,
0,
0,
0,
0,
0,
0,
0,
0,
0,
0,
0,
0,
0,
0,
0,
0,
0,
0,
0,
0,
0,
0,
0,
0,
0,
0,
0,
0,
0,
0,
0,
0,
0,
0,
0,
0,
0,
0,
0,
0,
0,
0,
0,
0,
0,
0,
0,
0,
0,
0,
0,
0,
0,
0,
0,
0,
0,
0,
0,
0,
0,
0,
0,
0,
0,
0,
0,
0,
0,
0,
0,
0,
0,
0,
0,
0,
0,
0,
0,
0,
0,
0,
0,
0,
0,
0,
0,
0,
0,
0,
0,
0,
0,
0,
0,
0,
0,
0,
0,
0,
0,
0,
0,
0,
0,
0,
0,
0,
0,
0,
0,
0,
0,
0,
0,
0,
0,
0,
0,
0,
0,
0,
0,
0,
0,
0,
0,
0,
0,
0,
0,
0,
0,
0,
0,
0,
0,
0,
0,
0,
#ENDOFDATA   :