File: N132962/Quantification/15 keV/GMIIIA/GMIIIA K230[1][4].msa
#FORMAT      : EMSA/MAS Spectral Data File
#VERSION     : 1.0
#TITLE       : GMIIIA K230[1][all]
#DATE        : 22-SEP-2025
#TIME        : 14:32
#OWNER       : Unknown
#NPOINTS     : 4096
#NCOLUMNS    : 1
#XUNITS      : eV
#YUNITS      : counts
#DATATYPE    : Y
#XPERCHAN    : 9.99778
#OFFSET      : 1.69135
#BEAMKV      : 15
#SIGNALTYPE  : EDS
#ELEVANGLE   : 35
#AZIMANGLE   : 0
#LIVETIME    : 239.831
#REALTIME    : 258.577
#PROBECUR    : 1.21983
#TAUWIND     : 0
#TDEADLYR    : 0
#TACTLYR     : 0.045
#TALWIND     : 0.025
#CHOFFSET    : 0.0
#XLABEL      : Energy (eV)
#YLABEL      : Counts
#XPOSITION   : 3.8564
#YPOSITION   : 0.84958
#ZPOSITION   : 37.36299
#EDSDET      : SD
##SPECIMEN   : GMIIIA K230[1][all]
##D2STDCMP   : K230,(O:24.49),(Al:2.65),(Si:14.02),(Zn:4.02),(Ba:8.96),(Ta:4.09),(Pb:41.77)
##DET_HASH   : 12273538-fd48-a23f-0a19-f1e6fa85caef
##CALIB_HASH : 6abaa72c-aa41-8738-0be9-f592914732f3
##WORKING    : 15.0 mm
##DET_NAME   : EDAX All
##DET_MODE   : MediumLE
#SPECTRUM    :
28,
31,
17,
29,
189,
695,
2065,
5098,
11160,
14061,
9289,
6684,
6700,
7274,
9257,
21206,
66526,
120610,
88864,
28033,
9950,
7652,
7552,
7686,
7469,
7293,
7705,
7542,
7652,
7671,
7923,
8447,
12150,
20032,
25041,
19516,
11640,
8182,
7418,
7537,
7636,
7860,
8009,
8388,
8694,
8843,
8884,
10598,
17141,
27486,
28006,
18072,
11204,
9250,
10209,
17519,
47991,
105717,
135924,
98772,
47104,
22995,
13960,
9372,
7580,
7352,
8089,
8605,
7666,
6776,
6590,
6784,
7450,
8070,
9265,
12859,
26318,
54000,
77410,
74172,
59520,
53689,
46030,
28605,
13183,
6984,
6337,
7279,
8288,
8178,
6574,
5325,
4802,
4636,
4520,
4503,
4564,
4825,
4781,
4937,
4860,
5166,
5267,
5421,
5297,
4825,
4680,
4351,
4393,
4131,
4131,
4111,
4061,
4120,
4002,
4022,
4137,
4081,
4104,
3910,
3982,
3901,
3822,
3980,
3938,
3980,
3874,
3761,
3738,
3753,
3899,
3891,
3946,
3824,
3760,
3659,
3714,
3654,
3717,
3603,
3767,
3467,
3648,
3562,
3719,
4064,
5314,
7665,
10300,
11344,
9838,
7167,
4740,
3832,
3360,
3248,
3355,
3440,
4057,
4899,
6206,
6835,
6528,
5581,
4722,
3983,
3581,
3398,
3260,
3323,
3724,
4211,
4184,
4206,
3585,
3228,
2961,
2768,
2717,
2801,
2868,
2881,
3017,
3082,
3256,
3089,
3041,
2811,
2722,
2624,
2710,
2708,
2820,
2723,
2782,
2546,
2518,
2517,
2467,
2460,
2444,
2401,
2445,
2354,
2305,
2338,
2359,
2292,
2311,
2264,
2255,
2294,
2364,
2350,
2365,
2282,
2154,
2187,
2132,
2267,
2136,
2109,
2152,
2077,
2082,
2051,
2021,
2049,
2027,
2022,
2047,
1859,
1951,
1899,
1964,
1857,
1937,
1915,
1912,
1896,
1806,
1897,
1835,
1783,
1835,
1744,
1736,
1810,
1777,
1827,
1771,
1752,
1726,
1699,
1611,
1649,
1598,
1666,
1614,
1674,
1584,
1625,
1674,
1526,
1587,
1589,
1503,
1697,
1732,
1846,
2058,
2142,
2100,
1995,
1735,
1655,
1503,
1500,
1395,
1348,
1356,
1446,
1479,
1513,
1775,
2124,
2480,
2808,
2751,
2445,
2118,
1726,
1487,
1380,
1258,
1290,
1272,
1193,
1178,
1172,
1128,
1210,
1132,
1216,
1218,
1219,
1253,
1215,
1199,
1251,
1353,
1226,
1280,
1231,
1224,
1147,
1223,
1265,
1285,
1272,
1233,
1287,
1163,
1131,
1015,
1040,
1006,
942,
956,
953,
942,
878,
896,
880,
882,
881,
884,
870,
892,
881,
828,
784,
860,
828,
853,
869,
887,
1018,
1122,
1328,
1444,
1593,
1489,
1398,
1187,
994,
830,
738,
734,
674,
701,
709,
704,
714,
671,
644,
729,
665,
618,
651,
646,
634,
618,
594,
620,
617,
595,
593,
583,
571,
544,
558,
543,
536,
545,
526,
545,
523,
509,
481,
450,
478,
473,
453,
466,
462,
475,
459,
441,
454,
443,
416,
444,
404,
399,
370,
422,
382,
400,
380,
349,
360,
361,
358,
332,
374,
412,
407,
410,
439,
455,
402,
442,
392,
338,
336,
312,
329,
303,
271,
271,
273,
255,
279,
264,
264,
246,
266,
231,
215,
197,
209,
225,
213,
206,
192,
184,
189,
206,
179,
155,
180,
180,
142,
156,
160,
171,
160,
152,
145,
131,
134,
144,
131,
137,
117,
114,
108,
91,
100,
98,
88,
93,
99,
77,
83,
92,
83,
63,
57,
65,
60,
57,
49,
47,
50,
42,
22,
31,
44,
23,
26,
29,
23,
25,
13,
15,
8,
10,
9,
8,
4,
4,
4,
2,
1,
3,
3,
1,
3,
4,
3,
1,
2,
2,
2,
5,
1,
2,
1,
2,
0,
0,
4,
1,
3,
0,
2,
1,
1,
3,
1,
0,
0,
1,
2,
0,
3,
2,
0,
1,
2,
2,
2,
0,
0,
2,
2,
0,
2,
1,
3,
3,
1,
0,
2,
1,
2,
0,
3,
0,
0,
3,
2,
0,
1,
1,
3,
1,
2,
3,
0,
0,
2,
0,
2,
0,
0,
1,
3,
2,
1,
0,
1,
0,
0,
0,
0,
1,
4,
0,
0,
2,
1,
0,
0,
0,
0,
1,
2,
1,
1,
0,
1,
2,
0,
0,
1,
0,
0,
0,
1,
0,
1,
2,
0,
2,
0,
1,
0,
1,
2,
0,
1,
0,
1,
0,
1,
0,
1,
0,
0,
1,
0,
1,
0,
0,
1,
1,
0,
0,
0,
2,
0,
1,
0,
0,
0,
0,
4,
2,
0,
0,
1,
1,
0,
0,
0,
1,
1,
0,
0,
1,
0,
0,
1,
0,
0,
0,
1,
0,
0,
0,
1,
0,
0,
0,
0,
0,
0,
0,
1,
0,
1,
0,
1,
0,
1,
0,
0,
1,
0,
0,
0,
0,
0,
0,
0,
1,
0,
0,
0,
0,
0,
0,
0,
0,
0,
0,
0,
0,
0,
0,
0,
0,
0,
0,
0,
0,
0,
0,
0,
0,
0,
0,
1,
1,
0,
0,
0,
0,
0,
1,
0,
1,
0,
0,
0,
0,
0,
0,
0,
0,
0,
0,
0,
0,
0,
0,
0,
0,
0,
0,
0,
0,
0,
0,
0,
1,
0,
0,
0,
0,
0,
0,
1,
0,
0,
0,
0,
0,
2,
0,
0,
0,
0,
0,
0,
0,
1,
0,
0,
0,
0,
0,
0,
0,
0,
0,
0,
0,
0,
0,
0,
0,
0,
0,
0,
0,
0,
0,
0,
0,
0,
0,
0,
0,
0,
0,
0,
0,
0,
0,
0,
0,
0,
0,
0,
0,
0,
0,
0,
0,
0,
0,
0,
0,
0,
0,
0,
0,
0,
0,
0,
0,
0,
0,
0,
0,
0,
0,
0,
0,
0,
0,
0,
0,
0,
0,
0,
0,
0,
0,
0,
0,
0,
0,
0,
0,
0,
0,
0,
0,
0,
0,
0,
0,
0,
0,
0,
0,
0,
0,
0,
0,
0,
0,
0,
0,
0,
0,
0,
0,
0,
0,
0,
0,
0,
0,
0,
0,
0,
0,
0,
0,
0,
0,
0,
0,
0,
0,
0,
0,
0,
0,
0,
0,
0,
0,
0,
0,
0,
0,
0,
0,
0,
0,
0,
0,
0,
0,
0,
0,
0,
0,
0,
0,
0,
0,
0,
0,
0,
0,
0,
0,
0,
0,
0,
0,
0,
0,
0,
0,
0,
0,
0,
0,
0,
0,
0,
0,
0,
0,
0,
0,
0,
0,
0,
0,
0,
0,
0,
0,
0,
0,
0,
0,
0,
0,
0,
0,
0,
0,
0,
0,
0,
0,
0,
0,
0,
0,
0,
0,
0,
0,
0,
0,
0,
0,
0,
0,
0,
0,
0,
0,
0,
0,
0,
0,
0,
0,
0,
0,
0,
0,
0,
0,
0,
0,
0,
0,
0,
0,
0,
0,
0,
0,
0,
0,
0,
0,
0,
0,
0,
0,
0,
0,
0,
0,
0,
0,
0,
0,
0,
0,
0,
0,
0,
0,
0,
0,
0,
0,
0,
0,
0,
0,
0,
0,
0,
0,
0,
0,
0,
0,
0,
0,
0,
0,
0,
0,
0,
0,
0,
0,
0,
0,
0,
0,
0,
0,
0,
0,
0,
0,
0,
0,
0,
0,
0,
0,
0,
0,
0,
0,
0,
0,
0,
0,
0,
0,
0,
0,
0,
0,
0,
0,
0,
0,
0,
0,
0,
0,
0,
0,
0,
0,
0,
0,
0,
0,
0,
0,
0,
0,
0,
0,
0,
0,
0,
0,
0,
0,
0,
0,
0,
0,
0,
0,
0,
0,
0,
0,
0,
0,
0,
0,
0,
0,
0,
0,
0,
0,
0,
0,
0,
0,
0,
0,
0,
0,
0,
0,
0,
0,
0,
0,
0,
0,
0,
0,
0,
0,
0,
0,
0,
0,
0,
0,
0,
0,
0,
0,
0,
0,
0,
0,
0,
0,
0,
0,
0,
0,
0,
0,
0,
0,
0,
0,
0,
0,
0,
0,
0,
0,
0,
0,
0,
0,
0,
0,
0,
0,
0,
0,
0,
0,
0,
0,
0,
0,
0,
0,
0,
0,
0,
0,
0,
0,
0,
0,
0,
0,
0,
0,
0,
0,
0,
0,
0,
0,
0,
0,
0,
0,
0,
0,
0,
0,
0,
0,
0,
0,
0,
0,
0,
0,
0,
0,
0,
0,
0,
0,
0,
0,
0,
0,
0,
0,
0,
0,
0,
0,
0,
0,
0,
0,
0,
0,
0,
0,
0,
0,
0,
0,
0,
0,
0,
0,
0,
0,
0,
0,
0,
0,
0,
0,
0,
0,
0,
0,
0,
0,
0,
0,
0,
0,
0,
0,
0,
0,
0,
0,
0,
0,
0,
0,
0,
0,
0,
0,
0,
0,
0,
0,
0,
0,
0,
0,
0,
0,
0,
0,
0,
0,
0,
0,
0,
0,
0,
0,
0,
0,
0,
0,
0,
0,
0,
0,
0,
0,
0,
0,
0,
0,
0,
0,
0,
0,
0,
0,
0,
0,
0,
0,
0,
0,
0,
0,
0,
0,
0,
0,
0,
0,
0,
#ENDOFDATA   :