File: N132962/Quantification/15 keV/GMIIIA/GMIIIA K229[3][4].msa
#FORMAT      : EMSA/MAS Spectral Data File
#VERSION     : 1.0
#TITLE       : GMIIIA K229[3][all]
#DATE        : 22-SEP-2025
#TIME        : 14:27
#OWNER       : Unknown
#NPOINTS     : 4096
#NCOLUMNS    : 1
#XUNITS      : eV
#YUNITS      : counts
#DATATYPE    : Y
#XPERCHAN    : 9.99778
#OFFSET      : 1.69135
#BEAMKV      : 15
#SIGNALTYPE  : EDS
#ELEVANGLE   : 35
#AZIMANGLE   : 0
#LIVETIME    : 239.796
#REALTIME    : 260.007
#PROBECUR    : 1.21983
#TAUWIND     : 0
#TDEADLYR    : 0
#TACTLYR     : 0.045
#TALWIND     : 0.025
#CHOFFSET    : 0.0
#XLABEL      : Energy (eV)
#YLABEL      : Counts
#XPOSITION   : 5.9593
#YPOSITION   : 0.64671
#ZPOSITION   : 37.36299
#EDSDET      : SD
##SPECIMEN   : GMIIIA K229[3][all]
##D2STDCMP   : K229,(O:20.99),(Si:14.02),(Pb:64.98)
##DET_HASH   : 12273538-fd48-a23f-0a19-f1e6fa85caef
##CALIB_HASH : 6abaa72c-aa41-8738-0be9-f592914732f3
##WORKING    : 15.0 mm
##DET_NAME   : EDAX All
##DET_MODE   : MediumLE
#SPECTRUM    :
34,
28,
10,
63,
235,
920,
2612,
5779,
11685,
14443,
9907,
7127,
6803,
7237,
8512,
17517,
51034,
90572,
67003,
22156,
9591,
8036,
8116,
8658,
7934,
6974,
6730,
7018,
7548,
7503,
7665,
7694,
7948,
8153,
8498,
8660,
8530,
8481,
8746,
9047,
9064,
9068,
9186,
9272,
9214,
9399,
9520,
9672,
9955,
10271,
10298,
10262,
10166,
10030,
10617,
17215,
45540,
104320,
138373,
102931,
51285,
28371,
18710,
11845,
8679,
7909,
7431,
7415,
7437,
7676,
7818,
8456,
9407,
10319,
12220,
18778,
42147,
87850,
128991,
124207,
99072,
88914,
76588,
45503,
19523,
9019,
7459,
8675,
10357,
10070,
7926,
5932,
5040,
4763,
4890,
4904,
5064,
5112,
5191,
5304,
5413,
5891,
6070,
6237,
6038,
5687,
5067,
4769,
4668,
4498,
4413,
4350,
4320,
4484,
4404,
4412,
4581,
4495,
4569,
4376,
4347,
4210,
4170,
4212,
4353,
4246,
4188,
4284,
4085,
4045,
4028,
3979,
4106,
4003,
4066,
4135,
4246,
4216,
4108,
4123,
4134,
4031,
3806,
3862,
3833,
3834,
3877,
3885,
3840,
3847,
3867,
4037,
3888,
3667,
3865,
3884,
3785,
3824,
3711,
3722,
3602,
3667,
3664,
3573,
3517,
3577,
3522,
3476,
3372,
3337,
3307,
3522,
3307,
3301,
3336,
3259,
3226,
3378,
3206,
3266,
3164,
3232,
3217,
3252,
2978,
3094,
3149,
2989,
3010,
3085,
2984,
2953,
3011,
2949,
2868,
3026,
2979,
2913,
2913,
2775,
2911,
2822,
2829,
2802,
2762,
2783,
2760,
2657,
2718,
2729,
2730,
2702,
2824,
2731,
2713,
2612,
2653,
2578,
2535,
2492,
2439,
2524,
2404,
2503,
2431,
2447,
2376,
2383,
2473,
2384,
2400,
2385,
2402,
2259,
2220,
2353,
2321,
2302,
2135,
2207,
2169,
2248,
2119,
2082,
2113,
2124,
2071,
2173,
2122,
2109,
2059,
2048,
2033,
2025,
2002,
1950,
1932,
1950,
1976,
1923,
1947,
1904,
1984,
1849,
1881,
1856,
1821,
1859,
1853,
1748,
1841,
1820,
1797,
1786,
1820,
1768,
1767,
1708,
1697,
1674,
1691,
1778,
1685,
1636,
1568,
1609,
1567,
1589,
1607,
1568,
1576,
1591,
1451,
1534,
1538,
1519,
1494,
1533,
1430,
1429,
1448,
1448,
1505,
1463,
1532,
1496,
1458,
1461,
1456,
1340,
1379,
1274,
1360,
1323,
1258,
1222,
1290,
1228,
1318,
1280,
1298,
1243,
1203,
1234,
1237,
1195,
1182,
1138,
1148,
1168,
1176,
1135,
1148,
1103,
1114,
1095,
1022,
1105,
1089,
1088,
1052,
1076,
1006,
1003,
1117,
1068,
1196,
1364,
1527,
1806,
2196,
2161,
2132,
1896,
1645,
1333,
1113,
1016,
874,
907,
869,
831,
811,
868,
822,
770,
877,
786,
749,
769,
742,
780,
752,
734,
709,
752,
732,
750,
717,
745,
702,
718,
692,
701,
666,
668,
707,
667,
633,
639,
635,
656,
622,
613,
558,
577,
580,
558,
551,
538,
584,
563,
560,
559,
521,
527,
513,
536,
467,
498,
485,
471,
483,
472,
471,
458,
507,
535,
539,
599,
623,
629,
617,
522,
441,
376,
394,
383,
375,
357,
366,
348,
361,
359,
363,
320,
308,
291,
292,
259,
297,
249,
256,
249,
277,
269,
235,
246,
241,
216,
242,
259,
209,
209,
222,
176,
201,
168,
183,
191,
196,
169,
193,
188,
159,
170,
118,
129,
144,
136,
132,
144,
115,
123,
113,
117,
104,
106,
91,
111,
87,
83,
80,
72,
66,
70,
62,
78,
48,
43,
49,
46,
34,
34,
34,
33,
20,
13,
14,
12,
7,
8,
8,
3,
1,
2,
5,
1,
8,
2,
2,
5,
3,
2,
7,
2,
2,
5,
3,
4,
1,
2,
5,
2,
1,
5,
1,
3,
4,
0,
4,
2,
6,
2,
3,
1,
2,
4,
3,
1,
2,
1,
0,
2,
2,
0,
1,
0,
0,
1,
2,
2,
0,
3,
0,
1,
0,
0,
2,
0,
1,
1,
0,
1,
1,
4,
0,
3,
2,
1,
1,
1,
1,
4,
4,
0,
1,
5,
0,
2,
1,
0,
1,
1,
0,
2,
0,
0,
2,
0,
0,
0,
1,
0,
2,
0,
3,
5,
2,
1,
0,
3,
0,
5,
1,
0,
1,
0,
1,
0,
0,
2,
1,
0,
1,
2,
4,
1,
0,
1,
0,
1,
0,
0,
1,
0,
1,
2,
1,
2,
0,
3,
1,
1,
0,
0,
0,
2,
0,
0,
0,
0,
1,
0,
0,
0,
1,
1,
2,
0,
2,
1,
0,
0,
0,
0,
0,
0,
0,
1,
1,
0,
1,
0,
0,
0,
0,
0,
0,
2,
1,
2,
0,
2,
0,
0,
1,
0,
1,
0,
1,
0,
0,
0,
0,
1,
0,
0,
1,
0,
0,
0,
0,
0,
0,
0,
0,
0,
0,
0,
1,
0,
0,
0,
0,
0,
0,
0,
0,
0,
0,
0,
0,
0,
0,
0,
0,
0,
0,
0,
0,
0,
0,
0,
0,
0,
1,
0,
0,
0,
0,
0,
1,
0,
0,
0,
0,
0,
0,
0,
2,
0,
0,
0,
0,
0,
0,
1,
0,
0,
0,
0,
0,
0,
0,
0,
0,
0,
0,
0,
0,
1,
0,
0,
0,
0,
0,
0,
0,
0,
0,
0,
0,
0,
1,
1,
0,
0,
0,
0,
0,
0,
0,
0,
0,
0,
0,
1,
0,
0,
0,
0,
0,
0,
0,
0,
0,
0,
0,
0,
0,
2,
0,
0,
0,
0,
0,
0,
1,
0,
0,
0,
0,
0,
0,
0,
0,
0,
0,
0,
0,
0,
0,
0,
0,
0,
0,
0,
0,
0,
0,
1,
0,
0,
0,
0,
0,
0,
0,
0,
0,
0,
0,
0,
0,
0,
0,
1,
0,
0,
0,
0,
0,
0,
0,
0,
0,
0,
0,
0,
0,
0,
0,
0,
0,
0,
0,
0,
0,
0,
0,
0,
0,
0,
0,
0,
0,
0,
0,
0,
0,
0,
0,
0,
0,
0,
0,
0,
0,
0,
0,
0,
0,
0,
0,
0,
0,
0,
0,
0,
0,
0,
0,
0,
0,
0,
0,
0,
0,
0,
0,
0,
0,
0,
0,
0,
0,
0,
0,
0,
0,
0,
0,
0,
0,
0,
0,
0,
0,
0,
0,
0,
0,
0,
0,
0,
0,
0,
0,
0,
0,
0,
0,
0,
0,
0,
0,
0,
0,
0,
0,
0,
0,
0,
0,
0,
0,
0,
0,
0,
0,
0,
0,
0,
0,
0,
0,
0,
0,
0,
0,
0,
0,
0,
0,
0,
0,
0,
0,
0,
0,
0,
0,
0,
0,
0,
0,
0,
0,
0,
0,
0,
0,
0,
0,
0,
0,
0,
0,
0,
0,
0,
0,
0,
0,
0,
0,
0,
0,
0,
0,
0,
0,
0,
0,
0,
0,
0,
0,
0,
0,
0,
0,
0,
0,
0,
0,
0,
0,
0,
0,
0,
0,
0,
0,
0,
0,
0,
0,
0,
0,
0,
0,
0,
0,
0,
0,
0,
0,
0,
0,
0,
0,
0,
0,
0,
0,
0,
0,
0,
0,
0,
0,
0,
0,
0,
0,
0,
0,
0,
0,
0,
0,
0,
0,
0,
0,
0,
0,
0,
0,
0,
0,
0,
0,
0,
0,
0,
0,
0,
0,
0,
0,
0,
0,
0,
0,
0,
0,
0,
0,
0,
0,
0,
0,
0,
0,
0,
0,
0,
0,
0,
0,
0,
0,
0,
0,
0,
0,
0,
0,
0,
0,
0,
0,
0,
0,
0,
0,
0,
0,
0,
0,
0,
0,
0,
0,
0,
0,
0,
0,
0,
0,
0,
0,
0,
0,
0,
0,
0,
0,
0,
0,
0,
0,
0,
0,
0,
0,
0,
0,
0,
0,
0,
0,
0,
0,
0,
0,
0,
0,
0,
0,
0,
0,
0,
0,
0,
0,
0,
0,
0,
0,
0,
0,
0,
0,
0,
0,
0,
0,
0,
0,
0,
0,
0,
0,
0,
0,
0,
0,
0,
0,
0,
0,
0,
0,
0,
0,
0,
0,
0,
0,
0,
0,
0,
0,
0,
0,
0,
0,
0,
0,
0,
0,
0,
0,
0,
0,
0,
0,
0,
0,
0,
0,
0,
0,
0,
0,
0,
0,
0,
0,
0,
0,
0,
0,
0,
0,
0,
0,
0,
0,
0,
0,
0,
0,
0,
0,
0,
0,
0,
0,
0,
0,
0,
0,
0,
0,
0,
0,
0,
0,
0,
0,
0,
0,
0,
0,
0,
0,
0,
0,
0,
0,
0,
0,
0,
0,
0,
0,
0,
0,
0,
0,
0,
0,
0,
0,
0,
0,
0,
0,
0,
0,
0,
0,
0,
0,
0,
0,
0,
0,
0,
0,
0,
0,
0,
0,
0,
0,
0,
0,
0,
0,
0,
0,
0,
0,
0,
0,
0,
0,
0,
0,
0,
0,
0,
0,
0,
0,
0,
0,
0,
0,
0,
0,
0,
0,
0,
0,
0,
0,
0,
0,
0,
0,
0,
0,
0,
0,
0,
0,
0,
0,
0,
#ENDOFDATA   :