File: N132962/Quantification/15 keV/GMIIIA/GMIIIA K1053[2][4].msa
#FORMAT      : EMSA/MAS Spectral Data File
#VERSION     : 1.0
#TITLE       : GMIIIA K1053[2][all]
#DATE        : 22-SEP-2025
#TIME        : 21:12
#OWNER       : Unknown
#NPOINTS     : 4096
#NCOLUMNS    : 1
#XUNITS      : eV
#YUNITS      : counts
#DATATYPE    : Y
#XPERCHAN    : 9.99778
#OFFSET      : 1.69135
#BEAMKV      : 15
#SIGNALTYPE  : EDS
#ELEVANGLE   : 35
#AZIMANGLE   : 0
#LIVETIME    : 239.916
#REALTIME    : 261.041
#PROBECUR    : 1.21822
#TAUWIND     : 0
#TDEADLYR    : 0
#TACTLYR     : 0.045
#TALWIND     : 0.025
#CHOFFSET    : 0.0
#XLABEL      : Energy (eV)
#YLABEL      : Counts
#XPOSITION   : 4.4924
#YPOSITION   : 15.46414
#ZPOSITION   : 37.36299
#EDSDET      : SD
##SPECIMEN   : GMIIIA K1053[2][all]
##D2STDCMP   : K1053,(O:16.13),(F:0.39),(Si:9.35),(Cl:0.64),(Br:1.09),(I:1.37),(Pb:71.02)
##DET_HASH   : 12273538-fd48-a23f-0a19-f1e6fa85caef
##CALIB_HASH : 6abaa72c-aa41-8738-0be9-f592914732f3
##WORKING    : 15.0 mm
##DET_NAME   : EDAX All
##DET_MODE   : MediumLE
#SPECTRUM    :
22,
31,
14,
50,
300,
1207,
3083,
6869,
13223,
15940,
10831,
7774,
7432,
7526,
8493,
15469,
41588,
72183,
53088,
19633,
10297,
9822,
10417,
10838,
9076,
7774,
7527,
7809,
8291,
8365,
8245,
8432,
8593,
8904,
8886,
9467,
8967,
9172,
9408,
9594,
9641,
9954,
9984,
10169,
10235,
10217,
10508,
11050,
12945,
15393,
15883,
14097,
11894,
10960,
11303,
15018,
34104,
74450,
98303,
75177,
41632,
26661,
18606,
12530,
9595,
8905,
8524,
8304,
8328,
8437,
8813,
9530,
10633,
11723,
13778,
21030,
47241,
100392,
147113,
142384,
113590,
102903,
86985,
51752,
22406,
10760,
9728,
12290,
13951,
12634,
9269,
6687,
5684,
5342,
5414,
5470,
5480,
5721,
5662,
5649,
5986,
6234,
6788,
6781,
6668,
6123,
5668,
5205,
5081,
5030,
4847,
4917,
4867,
4790,
4795,
4888,
4834,
5023,
4914,
4800,
4768,
4678,
4565,
4682,
4677,
4765,
4600,
4772,
4770,
5049,
5514,
5752,
5666,
5228,
4912,
4699,
4506,
4654,
4603,
4852,
4882,
5178,
4986,
4696,
4559,
4259,
4263,
4377,
4430,
4545,
4625,
4678,
4500,
4291,
4158,
4039,
4156,
4093,
4154,
4196,
4126,
4247,
4121,
3939,
4031,
3996,
3863,
3803,
3906,
3873,
3838,
3709,
3695,
3831,
3673,
3584,
3599,
3582,
3628,
3709,
3580,
3618,
3402,
3523,
3519,
3508,
3449,
3458,
3455,
3379,
3385,
3277,
3271,
3242,
3223,
3329,
3341,
3206,
3223,
3264,
3129,
3224,
3138,
3168,
3045,
3117,
3157,
3072,
3067,
3088,
3052,
2961,
3196,
3097,
3164,
2977,
2915,
2969,
2836,
2892,
2799,
2826,
2813,
2813,
2730,
2759,
2706,
2623,
2649,
2696,
2568,
2673,
2682,
2645,
2630,
2528,
2574,
2524,
2452,
2460,
2484,
2511,
2528,
2428,
2346,
2353,
2357,
2464,
2410,
2383,
2367,
2330,
2293,
2356,
2280,
2182,
2260,
2225,
2171,
2203,
2162,
2184,
2195,
2124,
2180,
2082,
2163,
2021,
2063,
2058,
2011,
2019,
2069,
2040,
2010,
1972,
1926,
1978,
1922,
2018,
1933,
1894,
1895,
1909,
1839,
1821,
1871,
1868,
1842,
1748,
1853,
1800,
1708,
1683,
1705,
1702,
1698,
1684,
1696,
1595,
1650,
1653,
1679,
1635,
1633,
1750,
1712,
1629,
1628,
1628,
1508,
1533,
1504,
1440,
1458,
1440,
1465,
1436,
1440,
1456,
1439,
1413,
1401,
1365,
1390,
1335,
1360,
1329,
1365,
1314,
1361,
1267,
1276,
1220,
1269,
1252,
1269,
1218,
1182,
1164,
1192,
1147,
1190,
1231,
1185,
1264,
1352,
1497,
1783,
2171,
2379,
2521,
2514,
2279,
1834,
1552,
1302,
1140,
1026,
1054,
1063,
1013,
944,
982,
949,
946,
950,
979,
1056,
901,
903,
905,
886,
898,
872,
898,
866,
864,
758,
783,
822,
778,
776,
818,
757,
761,
775,
748,
757,
718,
761,
719,
710,
693,
661,
690,
723,
705,
695,
648,
626,
653,
646,
607,
597,
546,
641,
615,
579,
559,
594,
575,
508,
571,
505,
583,
600,
587,
698,
726,
753,
694,
598,
589,
504,
489,
472,
453,
422,
446,
447,
426,
385,
400,
387,
394,
387,
343,
317,
326,
335,
304,
315,
322,
305,
303,
279,
325,
303,
274,
259,
265,
261,
286,
243,
250,
257,
237,
203,
216,
210,
206,
193,
178,
182,
178,
180,
177,
153,
178,
169,
132,
144,
121,
153,
121,
124,
113,
117,
110,
94,
103,
73,
102,
106,
103,
77,
70,
67,
57,
40,
47,
42,
35,
43,
39,
24,
19,
17,
7,
15,
10,
6,
8,
6,
7,
5,
3,
1,
5,
3,
7,
2,
4,
2,
5,
5,
5,
7,
4,
2,
4,
6,
6,
2,
3,
5,
3,
1,
3,
2,
4,
9,
3,
4,
3,
2,
2,
5,
5,
3,
6,
2,
2,
2,
1,
1,
3,
1,
5,
1,
1,
1,
3,
0,
1,
0,
0,
2,
1,
2,
1,
2,
3,
2,
0,
1,
0,
1,
4,
0,
2,
1,
4,
0,
0,
2,
0,
2,
1,
2,
4,
1,
0,
2,
1,
1,
3,
0,
4,
0,
0,
0,
1,
3,
1,
1,
0,
3,
4,
2,
2,
1,
1,
0,
1,
1,
2,
1,
3,
1,
3,
2,
0,
0,
0,
2,
0,
0,
1,
1,
1,
2,
0,
1,
0,
3,
0,
2,
0,
3,
1,
0,
1,
0,
1,
0,
0,
1,
2,
0,
1,
2,
1,
0,
1,
3,
0,
3,
1,
1,
0,
2,
0,
0,
0,
1,
0,
0,
1,
1,
1,
0,
0,
1,
0,
0,
1,
0,
0,
1,
0,
0,
0,
0,
0,
0,
0,
2,
0,
1,
0,
1,
0,
0,
0,
0,
1,
2,
0,
0,
0,
1,
0,
0,
0,
0,
0,
1,
0,
0,
0,
0,
0,
0,
1,
0,
0,
1,
0,
2,
0,
0,
0,
0,
0,
0,
1,
0,
0,
0,
0,
0,
1,
0,
0,
0,
0,
0,
0,
0,
0,
1,
0,
0,
1,
1,
0,
0,
0,
0,
0,
0,
0,
0,
0,
0,
1,
0,
0,
0,
0,
0,
0,
0,
0,
0,
0,
0,
0,
0,
0,
0,
0,
1,
0,
0,
0,
0,
0,
0,
0,
0,
0,
0,
0,
0,
0,
0,
0,
0,
0,
0,
0,
0,
0,
0,
0,
0,
0,
0,
0,
0,
0,
0,
0,
0,
0,
0,
0,
0,
0,
0,
0,
0,
0,
0,
0,
0,
0,
0,
0,
0,
1,
0,
0,
0,
0,
0,
0,
0,
1,
0,
0,
0,
0,
0,
0,
0,
0,
0,
0,
0,
0,
0,
0,
0,
0,
0,
1,
0,
0,
0,
0,
0,
0,
0,
0,
0,
0,
0,
0,
0,
0,
1,
0,
0,
0,
0,
0,
0,
0,
0,
0,
0,
0,
0,
0,
1,
0,
0,
0,
0,
0,
0,
0,
0,
0,
0,
0,
0,
0,
0,
0,
0,
0,
0,
0,
0,
0,
0,
0,
0,
0,
0,
0,
0,
0,
0,
0,
0,
0,
0,
0,
0,
0,
0,
0,
0,
0,
0,
0,
0,
0,
0,
0,
0,
0,
0,
0,
0,
0,
0,
0,
0,
0,
0,
0,
0,
0,
0,
0,
0,
0,
0,
0,
0,
0,
0,
0,
0,
0,
0,
0,
0,
0,
0,
0,
0,
0,
0,
0,
0,
0,
0,
0,
0,
0,
0,
0,
0,
0,
0,
0,
0,
0,
0,
0,
0,
0,
0,
0,
0,
0,
0,
0,
0,
0,
0,
0,
0,
0,
0,
0,
0,
0,
0,
0,
0,
0,
0,
0,
0,
0,
0,
0,
0,
0,
0,
0,
0,
0,
0,
0,
0,
0,
0,
0,
0,
0,
0,
0,
0,
0,
0,
0,
0,
0,
0,
0,
0,
0,
0,
0,
0,
0,
0,
0,
0,
0,
0,
0,
0,
0,
0,
0,
0,
0,
0,
0,
0,
0,
0,
0,
0,
0,
0,
0,
0,
0,
0,
0,
0,
0,
0,
0,
0,
0,
0,
0,
0,
0,
0,
0,
0,
0,
0,
0,
0,
0,
0,
0,
0,
0,
0,
0,
0,
0,
0,
0,
0,
0,
0,
0,
0,
0,
0,
0,
0,
0,
0,
0,
0,
0,
0,
0,
0,
0,
0,
0,
0,
0,
0,
0,
0,
0,
0,
0,
0,
0,
0,
0,
0,
0,
0,
0,
0,
0,
0,
0,
0,
0,
0,
0,
0,
0,
0,
0,
0,
0,
0,
0,
0,
0,
0,
0,
0,
0,
0,
0,
0,
0,
0,
0,
0,
0,
0,
0,
0,
0,
0,
0,
0,
0,
0,
0,
0,
0,
0,
0,
0,
0,
0,
0,
0,
0,
0,
0,
0,
0,
0,
0,
0,
0,
0,
0,
0,
0,
0,
0,
0,
0,
0,
0,
0,
0,
0,
0,
0,
0,
0,
0,
0,
0,
0,
0,
0,
0,
0,
0,
0,
0,
0,
0,
0,
0,
0,
0,
0,
0,
0,
0,
0,
0,
0,
0,
0,
0,
0,
0,
0,
0,
0,
0,
0,
0,
0,
0,
0,
0,
0,
0,
0,
0,
0,
0,
0,
0,
0,
0,
0,
0,
0,
0,
0,
0,
0,
0,
0,
0,
0,
0,
0,
0,
0,
0,
0,
0,
0,
0,
0,
0,
0,
0,
0,
0,
0,
0,
0,
0,
0,
0,
0,
0,
0,
0,
0,
0,
0,
0,
0,
0,
0,
0,
0,
0,
0,
0,
0,
0,
0,
0,
0,
0,
0,
0,
0,
0,
0,
0,
0,
0,
0,
0,
0,
0,
0,
0,
0,
0,
0,
0,
0,
0,
0,
0,
0,
0,
0,
0,
0,
0,
0,
0,
0,
0,
0,
0,
0,
0,
0,
0,
0,
0,
0,
0,
0,
0,
0,
0,
0,
0,
0,
0,
0,
0,
0,
0,
0,
0,
0,
0,
0,
0,
0,
0,
0,
0,
0,
0,
0,
0,
0,
0,
0,
0,
#ENDOFDATA   :