File: N132962/Quantification/15 keV/GMIIIA/GMIIIA K1010[2][4].msa
#FORMAT      : EMSA/MAS Spectral Data File
#VERSION     : 1.0
#TITLE       : GMIIIA K1010[2][all]
#DATE        : 22-SEP-2025
#TIME        : 21:33
#OWNER       : Unknown
#NPOINTS     : 4096
#NCOLUMNS    : 1
#XUNITS      : eV
#YUNITS      : counts
#DATATYPE    : Y
#XPERCHAN    : 9.99778
#OFFSET      : 1.69135
#BEAMKV      : 15
#SIGNALTYPE  : EDS
#ELEVANGLE   : 35
#AZIMANGLE   : 0
#LIVETIME    : 239.996
#REALTIME    : 256.229
#PROBECUR    : 1.21615
#TAUWIND     : 0
#TDEADLYR    : 0
#TACTLYR     : 0.045
#TALWIND     : 0.025
#CHOFFSET    : 0.0
#XLABEL      : Energy (eV)
#YLABEL      : Counts
#XPOSITION   : 8.91141
#YPOSITION   : 15.45938
#ZPOSITION   : 37.36299
#EDSDET      : SD
##SPECIMEN   : GMIIIA K1010[2][all]
##D2STDCMP   : K1010,(O:38.96),(Al:8.92),(Si:21.02),(K:1.87),(Ca:6.75),(Ge:1.56),(Rb:2.06),(Sr:10.05),(Te:0.9),(Cs:2.12),(La:1.92),(Eu:1.94),(Gd:1.95)
##DET_HASH   : 12273538-fd48-a23f-0a19-f1e6fa85caef
##CALIB_HASH : 6abaa72c-aa41-8738-0be9-f592914732f3
##WORKING    : 15.0 mm
##DET_NAME   : EDAX All
##DET_MODE   : MediumLE
#SPECTRUM    :
23,
29,
7,
30,
115,
393,
1040,
2693,
6321,
8540,
6493,
4965,
4744,
5164,
7920,
24790,
90933,
170878,
124477,
33740,
6137,
3771,
4095,
4335,
4170,
4089,
4506,
5116,
5641,
5816,
5830,
5735,
5419,
5978,
6440,
6590,
6887,
8176,
11032,
14628,
15405,
11684,
7936,
6342,
6262,
6529,
7650,
14044,
38702,
74380,
75709,
41430,
17080,
10055,
9526,
18565,
57152,
133499,
182062,
144343,
84574,
50010,
28928,
16748,
9529,
6040,
4669,
3901,
3509,
3233,
3233,
3196,
3326,
3387,
3591,
3623,
3615,
3363,
3226,
3123,
3165,
3047,
3098,
3017,
3040,
2921,
3053,
2977,
2904,
2877,
3025,
3010,
2927,
2923,
2702,
2879,
2849,
2803,
2901,
2823,
2811,
2730,
2844,
2771,
2637,
2820,
2924,
3302,
4537,
6764,
9047,
9039,
6741,
4223,
3015,
2686,
2764,
2880,
3295,
4196,
6509,
11900,
19913,
24207,
20926,
12876,
6473,
3599,
2564,
2347,
2365,
2731,
3537,
4643,
4836,
4342,
3309,
2638,
2254,
2288,
2519,
3016,
3625,
3826,
3508,
2709,
2171,
1899,
1898,
1926,
1982,
2128,
2531,
3131,
3761,
3786,
3420,
2749,
2182,
1889,
1762,
1723,
1709,
1804,
1956,
2003,
2120,
2147,
2163,
2092,
1936,
1816,
1770,
1604,
1668,
1591,
1598,
1696,
1667,
1721,
1732,
1636,
1531,
1481,
1455,
1414,
1461,
1372,
1294,
1344,
1371,
1527,
1623,
1980,
2176,
2257,
2042,
1731,
1528,
1586,
1785,
1953,
2012,
1850,
1604,
1362,
1169,
1079,
1094,
1072,
1102,
1175,
1311,
1350,
1483,
1498,
1437,
1343,
1217,
1173,
1167,
1209,
1285,
1343,
1409,
1303,
1227,
1251,
1163,
1150,
1063,
984,
1013,
933,
978,
1041,
988,
991,
948,
936,
946,
897,
893,
853,
840,
839,
804,
889,
865,
832,
848,
811,
768,
821,
771,
763,
771,
820,
796,
787,
800,
811,
756,
714,
730,
691,
740,
702,
692,
733,
693,
710,
685,
652,
650,
624,
640,
569,
598,
599,
597,
548,
615,
602,
610,
583,
544,
540,
564,
520,
555,
561,
512,
567,
530,
528,
545,
537,
488,
522,
568,
502,
515,
458,
475,
484,
465,
460,
470,
472,
487,
479,
434,
453,
454,
483,
449,
435,
415,
432,
412,
416,
424,
405,
423,
462,
530,
553,
615,
617,
574,
579,
481,
451,
391,
376,
380,
351,
347,
356,
337,
362,
344,
331,
324,
350,
341,
345,
332,
308,
315,
308,
282,
334,
294,
310,
302,
303,
276,
277,
276,
272,
260,
284,
311,
268,
307,
249,
292,
260,
270,
251,
221,
254,
244,
224,
219,
223,
257,
226,
203,
185,
198,
194,
240,
163,
208,
222,
227,
201,
214,
189,
183,
166,
199,
178,
168,
155,
164,
186,
162,
176,
149,
136,
157,
149,
141,
142,
131,
151,
131,
136,
132,
139,
125,
144,
131,
118,
115,
114,
113,
94,
128,
121,
124,
104,
112,
95,
95,
105,
89,
96,
95,
97,
89,
105,
88,
98,
87,
65,
77,
71,
75,
79,
78,
78,
72,
74,
63,
66,
75,
56,
78,
56,
58,
60,
46,
54,
40,
42,
48,
58,
37,
45,
47,
35,
44,
45,
41,
33,
42,
34,
29,
40,
23,
32,
32,
27,
27,
18,
14,
22,
12,
25,
12,
19,
20,
14,
9,
10,
10,
10,
3,
7,
7,
3,
7,
3,
2,
2,
2,
2,
2,
0,
0,
3,
1,
0,
1,
1,
1,
0,
1,
0,
1,
0,
0,
0,
1,
0,
1,
1,
0,
1,
0,
0,
0,
2,
1,
0,
0,
1,
1,
0,
3,
0,
0,
1,
0,
0,
0,
0,
2,
0,
1,
0,
0,
0,
0,
0,
0,
0,
0,
0,
0,
0,
0,
0,
1,
0,
0,
0,
0,
0,
0,
0,
0,
0,
0,
0,
0,
0,
0,
0,
0,
0,
0,
0,
0,
0,
0,
0,
0,
0,
0,
0,
0,
0,
0,
0,
0,
0,
0,
0,
1,
0,
1,
0,
0,
0,
0,
0,
0,
0,
0,
1,
0,
0,
0,
0,
1,
0,
1,
0,
0,
0,
1,
1,
0,
0,
0,
0,
0,
0,
0,
0,
0,
1,
0,
1,
2,
0,
0,
0,
0,
0,
0,
0,
0,
0,
0,
0,
0,
1,
0,
0,
0,
1,
0,
0,
0,
0,
0,
0,
0,
0,
0,
0,
0,
0,
0,
0,
0,
0,
0,
0,
0,
0,
0,
0,
0,
0,
0,
0,
0,
0,
0,
0,
0,
0,
0,
0,
1,
1,
0,
0,
0,
0,
0,
0,
0,
0,
0,
0,
0,
0,
0,
0,
0,
0,
0,
0,
0,
0,
0,
0,
0,
0,
0,
0,
0,
0,
0,
0,
0,
0,
0,
1,
0,
0,
0,
0,
0,
0,
0,
0,
0,
0,
0,
0,
0,
0,
0,
0,
0,
0,
0,
0,
0,
0,
0,
0,
0,
0,
0,
0,
0,
0,
1,
0,
0,
0,
0,
0,
0,
0,
0,
0,
0,
0,
0,
0,
0,
0,
0,
0,
0,
0,
0,
0,
0,
0,
0,
0,
0,
0,
0,
0,
0,
0,
0,
0,
0,
0,
0,
0,
0,
0,
0,
0,
0,
0,
0,
0,
0,
0,
0,
0,
0,
0,
0,
0,
0,
0,
0,
0,
0,
0,
0,
0,
0,
0,
0,
0,
0,
0,
0,
0,
0,
0,
0,
0,
0,
0,
0,
0,
0,
0,
0,
0,
0,
0,
0,
0,
0,
0,
0,
0,
0,
0,
0,
0,
0,
0,
0,
0,
0,
0,
0,
0,
0,
0,
0,
0,
0,
0,
0,
0,
0,
0,
0,
0,
0,
0,
0,
0,
0,
0,
0,
0,
0,
0,
0,
0,
0,
0,
0,
0,
0,
0,
0,
0,
0,
0,
0,
0,
0,
0,
0,
0,
0,
0,
0,
0,
0,
0,
0,
0,
0,
0,
0,
0,
0,
0,
0,
0,
0,
0,
0,
0,
0,
0,
0,
0,
0,
0,
0,
0,
0,
0,
0,
0,
0,
0,
0,
0,
0,
0,
0,
0,
0,
0,
0,
0,
0,
0,
0,
0,
0,
0,
0,
0,
0,
0,
0,
0,
0,
0,
0,
0,
0,
0,
0,
0,
0,
0,
0,
0,
0,
0,
0,
0,
0,
0,
0,
0,
0,
0,
0,
0,
0,
0,
0,
0,
0,
0,
0,
0,
0,
0,
0,
0,
0,
0,
0,
0,
0,
0,
0,
0,
0,
0,
0,
0,
0,
0,
0,
0,
0,
0,
0,
0,
0,
0,
0,
0,
0,
0,
0,
0,
0,
0,
0,
0,
0,
0,
0,
0,
0,
0,
0,
0,
0,
0,
0,
0,
0,
0,
0,
0,
0,
0,
0,
0,
0,
0,
0,
0,
0,
0,
0,
0,
0,
0,
0,
0,
0,
0,
0,
0,
0,
0,
0,
0,
0,
0,
0,
0,
0,
0,
0,
0,
0,
0,
0,
0,
0,
0,
0,
0,
0,
0,
0,
0,
0,
0,
0,
0,
0,
0,
0,
0,
0,
0,
0,
0,
0,
0,
0,
0,
0,
0,
0,
0,
0,
0,
0,
0,
0,
0,
0,
0,
0,
0,
0,
0,
0,
0,
0,
0,
0,
0,
0,
0,
0,
0,
0,
0,
0,
0,
0,
0,
0,
0,
0,
0,
0,
0,
0,
0,
0,
0,
0,
0,
0,
0,
0,
0,
0,
0,
0,
0,
0,
0,
0,
0,
0,
0,
0,
0,
0,
0,
0,
0,
0,
0,
0,
0,
0,
0,
0,
0,
0,
0,
0,
0,
0,
0,
0,
0,
0,
0,
0,
0,
0,
0,
0,
0,
0,
0,
0,
0,
0,
0,
0,
0,
0,
0,
0,
0,
0,
0,
0,
0,
0,
0,
0,
0,
0,
0,
0,
0,
0,
0,
0,
0,
0,
0,
0,
0,
0,
0,
0,
0,
0,
0,
0,
0,
0,
0,
0,
0,
0,
0,
0,
0,
0,
0,
0,
0,
0,
0,
0,
0,
0,
0,
0,
0,
0,
0,
0,
0,
0,
0,
0,
0,
0,
0,
0,
0,
0,
0,
0,
0,
0,
0,
0,
0,
0,
0,
0,
0,
0,
0,
0,
0,
0,
0,
0,
0,
0,
0,
0,
0,
0,
0,
0,
0,
0,
0,
0,
0,
0,
0,
0,
0,
0,
0,
0,
0,
0,
0,
0,
0,
0,
0,
0,
0,
0,
0,
0,
0,
0,
0,
0,
0,
0,
0,
0,
0,
0,
0,
0,
0,
0,
0,
0,
0,
0,
0,
0,
0,
0,
0,
0,
0,
0,
0,
0,
0,
0,
0,
0,
0,
0,
0,
0,
0,
0,
0,
0,
0,
0,
0,
0,
0,
0,
0,
0,
0,
0,
0,
0,
0,
0,
0,
0,
0,
0,
0,
0,
0,
0,
0,
0,
0,
#ENDOFDATA   :