File: N132962/Quantification/15 keV/GMIIIA/GMIIIA K1008[8][4].msa
#FORMAT      : EMSA/MAS Spectral Data File
#VERSION     : 1.0
#TITLE       : GMIIIA K1008[8][all]
#DATE        : 22-SEP-2025
#TIME        : 21:50
#OWNER       : Unknown
#NPOINTS     : 4096
#NCOLUMNS    : 1
#XUNITS      : eV
#YUNITS      : counts
#DATATYPE    : Y
#XPERCHAN    : 9.99778
#OFFSET      : 1.69135
#BEAMKV      : 15
#SIGNALTYPE  : EDS
#ELEVANGLE   : 35
#AZIMANGLE   : 0
#LIVETIME    : 239.976
#REALTIME    : 256.492
#PROBECUR    : 1.21615
#TAUWIND     : 0
#TDEADLYR    : 0
#TACTLYR     : 0.045
#TALWIND     : 0.025
#CHOFFSET    : 0.0
#XLABEL      : Energy (eV)
#YLABEL      : Counts
#XPOSITION   : 11.42946
#YPOSITION   : 15.08826
#ZPOSITION   : 37.36299
#EDSDET      : SD
##SPECIMEN   : GMIIIA K1008[8][all]
##D2STDCMP   : K1008,(O:38.68),(Na:1.67),(Al:8.92),(Si:21.02),(Ca:6.75),(Rb:2.06),(Sr:10.05),(Zr:0.83),(Cs:2.12),(Ba:2.02),(Ho:1.96),(Tm:1.97),(Yb:1.98)
##DET_HASH   : 12273538-fd48-a23f-0a19-f1e6fa85caef
##CALIB_HASH : 6abaa72c-aa41-8738-0be9-f592914732f3
##WORKING    : 15.0 mm
##DET_NAME   : EDAX All
##DET_MODE   : MediumLE
#SPECTRUM    :
26,
22,
16,
26,
125,
426,
1092,
2885,
6436,
8839,
6676,
4915,
4829,
5308,
8081,
24938,
90653,
171009,
124794,
34146,
6268,
3665,
4117,
4305,
4234,
4461,
4631,
4751,
4877,
4942,
5195,
5486,
6409,
9690,
15988,
17654,
11310,
7441,
6518,
6518,
6489,
6290,
6382,
7010,
8565,
10091,
11498,
17874,
44593,
83235,
85966,
50618,
22346,
12519,
10318,
19101,
57063,
133159,
180207,
143318,
83779,
48760,
29217,
16439,
9578,
6287,
5144,
5103,
5072,
4617,
4260,
4039,
3888,
3571,
3689,
3617,
3642,
3567,
3400,
3177,
3143,
3132,
3038,
3074,
3001,
2989,
3088,
3033,
2977,
2897,
2930,
2899,
2918,
2885,
2843,
2787,
2846,
2755,
2787,
2820,
2792,
2852,
2722,
2780,
2822,
2755,
2678,
2812,
2893,
2847,
2747,
2653,
2537,
2652,
2594,
2715,
2783,
2758,
2958,
3490,
5714,
11431,
19735,
24375,
20680,
12370,
6016,
3261,
2516,
2370,
2585,
2886,
3665,
4509,
4936,
4082,
3181,
2443,
2158,
2106,
2438,
3077,
3777,
3889,
3504,
2917,
2690,
2914,
3400,
3784,
3331,
2875,
2553,
2626,
2710,
2631,
2405,
2096,
2076,
2150,
2440,
2570,
2451,
2270,
2296,
2118,
2050,
1830,
1669,
1667,
1739,
1858,
1804,
1787,
1702,
1619,
1646,
1579,
1573,
1492,
1509,
1439,
1446,
1511,
1593,
1546,
1452,
1364,
1382,
1369,
1320,
1396,
1347,
1344,
1326,
1282,
1329,
1234,
1351,
1287,
1251,
1237,
1198,
1221,
1167,
1186,
1195,
1173,
1182,
1157,
1149,
1163,
1146,
1099,
1157,
1211,
1084,
1099,
1117,
1077,
1194,
1309,
1424,
1662,
1595,
1525,
1338,
1082,
1009,
1040,
950,
987,
959,
923,
964,
1029,
1095,
1259,
1366,
1416,
1355,
1281,
1077,
1055,
1072,
1128,
1324,
1356,
1384,
1281,
1186,
1141,
1002,
951,
867,
868,
788,
809,
749,
760,
780,
826,
782,
884,
833,
825,
763,
785,
824,
911,
854,
925,
782,
756,
780,
706,
717,
783,
737,
804,
901,
892,
829,
786,
752,
663,
669,
614,
604,
624,
703,
688,
739,
647,
631,
593,
570,
510,
540,
521,
566,
510,
478,
499,
517,
533,
485,
500,
523,
478,
490,
478,
475,
494,
515,
518,
483,
487,
432,
430,
432,
436,
402,
449,
468,
437,
454,
464,
415,
404,
395,
413,
402,
433,
369,
362,
378,
397,
363,
386,
358,
348,
371,
350,
355,
347,
317,
358,
315,
334,
336,
358,
316,
286,
323,
303,
350,
309,
289,
293,
289,
293,
271,
277,
261,
298,
275,
265,
312,
305,
254,
238,
276,
226,
247,
254,
250,
234,
232,
243,
233,
227,
217,
183,
223,
204,
213,
193,
192,
207,
183,
196,
206,
204,
187,
168,
192,
185,
163,
190,
186,
173,
162,
164,
159,
195,
173,
143,
149,
153,
131,
146,
151,
147,
138,
142,
120,
134,
132,
109,
130,
134,
124,
141,
118,
109,
127,
110,
102,
122,
109,
104,
87,
107,
87,
118,
100,
82,
98,
90,
83,
92,
72,
62,
94,
73,
67,
71,
75,
70,
50,
64,
63,
58,
70,
61,
58,
52,
43,
53,
44,
44,
52,
58,
48,
42,
45,
33,
43,
46,
40,
39,
29,
31,
35,
30,
28,
27,
28,
13,
27,
22,
19,
20,
22,
12,
25,
16,
14,
9,
9,
17,
5,
3,
8,
5,
5,
2,
2,
1,
3,
0,
4,
2,
2,
1,
1,
0,
1,
2,
1,
1,
1,
0,
1,
1,
0,
0,
1,
1,
0,
0,
2,
1,
0,
1,
0,
0,
1,
0,
1,
1,
0,
0,
0,
1,
1,
0,
0,
1,
0,
0,
0,
0,
0,
0,
0,
0,
1,
0,
0,
1,
0,
0,
1,
0,
0,
0,
0,
0,
0,
1,
0,
1,
1,
0,
0,
0,
0,
0,
0,
0,
0,
0,
0,
0,
0,
0,
0,
0,
0,
0,
0,
1,
0,
0,
0,
0,
0,
0,
0,
0,
1,
0,
0,
0,
0,
1,
1,
0,
0,
0,
0,
0,
0,
0,
0,
1,
0,
0,
0,
0,
0,
1,
0,
0,
0,
0,
0,
0,
0,
0,
0,
0,
0,
0,
0,
0,
0,
0,
0,
0,
0,
0,
0,
0,
0,
0,
0,
0,
0,
0,
0,
0,
0,
0,
0,
1,
0,
0,
0,
1,
0,
1,
0,
0,
1,
1,
0,
0,
0,
0,
0,
0,
1,
0,
0,
0,
0,
0,
0,
0,
0,
0,
0,
0,
0,
0,
0,
0,
0,
0,
0,
0,
0,
0,
0,
0,
1,
0,
0,
0,
0,
0,
0,
0,
0,
0,
0,
0,
0,
0,
0,
0,
0,
0,
0,
0,
0,
0,
1,
0,
0,
0,
0,
0,
0,
0,
0,
0,
0,
0,
0,
0,
0,
0,
0,
0,
0,
0,
0,
0,
0,
0,
0,
0,
0,
0,
0,
0,
0,
0,
0,
0,
0,
0,
0,
0,
0,
0,
0,
0,
0,
0,
0,
0,
0,
0,
0,
0,
0,
0,
0,
0,
0,
0,
0,
0,
0,
0,
0,
0,
0,
0,
0,
0,
0,
0,
0,
0,
0,
0,
0,
0,
0,
0,
0,
0,
0,
0,
0,
0,
0,
0,
0,
0,
0,
0,
0,
0,
0,
0,
0,
0,
0,
0,
0,
0,
0,
0,
0,
0,
0,
0,
0,
0,
0,
0,
1,
0,
0,
0,
0,
0,
0,
0,
0,
0,
0,
0,
0,
0,
0,
0,
0,
0,
0,
0,
0,
0,
0,
0,
0,
0,
0,
0,
0,
0,
0,
0,
0,
0,
0,
1,
0,
0,
0,
0,
0,
0,
0,
0,
0,
0,
0,
0,
0,
0,
0,
0,
0,
0,
0,
0,
0,
0,
0,
0,
0,
0,
0,
0,
0,
0,
0,
0,
0,
0,
0,
0,
0,
0,
0,
0,
0,
0,
0,
0,
0,
0,
0,
0,
0,
0,
0,
0,
0,
0,
0,
0,
0,
0,
0,
0,
0,
0,
0,
0,
0,
0,
0,
0,
0,
0,
0,
0,
0,
0,
0,
0,
0,
0,
0,
0,
0,
0,
0,
0,
0,
0,
0,
0,
0,
0,
0,
0,
0,
0,
0,
0,
0,
0,
0,
0,
0,
0,
0,
0,
0,
0,
0,
0,
0,
0,
0,
0,
0,
0,
0,
0,
0,
0,
0,
0,
0,
0,
0,
0,
0,
0,
0,
0,
0,
0,
0,
0,
0,
0,
0,
0,
0,
0,
0,
0,
0,
0,
0,
0,
0,
0,
0,
0,
0,
0,
0,
0,
0,
0,
0,
0,
0,
0,
0,
0,
0,
0,
0,
0,
0,
0,
0,
0,
0,
0,
0,
0,
0,
0,
0,
0,
0,
0,
0,
0,
0,
0,
0,
0,
0,
0,
0,
0,
0,
0,
0,
0,
0,
0,
0,
0,
0,
0,
0,
0,
0,
0,
0,
0,
0,
0,
0,
0,
0,
0,
0,
0,
0,
0,
0,
0,
0,
0,
0,
0,
0,
0,
0,
0,
0,
0,
0,
0,
0,
0,
0,
0,
0,
0,
0,
0,
0,
0,
0,
0,
0,
0,
0,
0,
0,
0,
0,
0,
0,
0,
0,
0,
0,
0,
0,
0,
0,
0,
0,
0,
0,
0,
0,
0,
0,
0,
0,
0,
0,
0,
0,
0,
0,
0,
0,
0,
0,
0,
0,
0,
0,
0,
0,
0,
0,
0,
0,
0,
0,
0,
0,
0,
0,
0,
0,
0,
0,
0,
0,
0,
0,
0,
0,
0,
0,
0,
0,
0,
0,
0,
0,
0,
0,
0,
0,
0,
0,
0,
0,
0,
0,
0,
0,
0,
0,
0,
0,
0,
0,
0,
0,
0,
0,
0,
0,
0,
0,
0,
0,
0,
0,
0,
0,
0,
0,
0,
0,
0,
0,
0,
0,
0,
0,
0,
0,
0,
0,
0,
0,
0,
0,
0,
0,
0,
0,
0,
0,
0,
0,
0,
0,
0,
0,
0,
0,
0,
0,
0,
0,
0,
0,
0,
0,
0,
0,
0,
0,
0,
0,
0,
0,
0,
0,
0,
0,
0,
0,
0,
0,
0,
0,
0,
0,
0,
0,
0,
0,
0,
0,
0,
0,
0,
0,
0,
0,
0,
0,
0,
0,
0,
0,
0,
0,
0,
0,
0,
0,
0,
0,
0,
0,
0,
0,
0,
0,
0,
0,
0,
0,
0,
0,
0,
0,
0,
0,
0,
0,
0,
0,
0,
0,
0,
0,
0,
0,
0,
0,
0,
0,
0,
0,
0,
0,
0,
0,
0,
0,
0,
0,
0,
0,
0,
0,
0,
0,
0,
0,
0,
0,
0,
0,
0,
0,
0,
0,
0,
0,
0,
0,
0,
0,
0,
0,
0,
0,
0,
0,
0,
0,
0,
0,
0,
0,
0,
0,
0,
0,
0,
0,
0,
0,
0,
#ENDOFDATA   :