File: N132962/Quantification/15 keV/GMIIIA/GMIIIA K1132[6][4].msa
#FORMAT      : EMSA/MAS Spectral Data File
#VERSION     : 1.0
#TITLE       : GMIIIA K1132[6][all]
#DATE        : 22-SEP-2025
#TIME        : 22:29
#OWNER       : Unknown
#NPOINTS     : 4096
#NCOLUMNS    : 1
#XUNITS      : eV
#YUNITS      : counts
#DATATYPE    : Y
#XPERCHAN    : 9.99778
#OFFSET      : 1.69135
#BEAMKV      : 15
#SIGNALTYPE  : EDS
#ELEVANGLE   : 35
#AZIMANGLE   : 0
#LIVETIME    : 239.979
#REALTIME    : 255.396
#PROBECUR    : 1.21595
#TAUWIND     : 0
#TDEADLYR    : 0
#TACTLYR     : 0.045
#TALWIND     : 0.025
#CHOFFSET    : 0.0
#XLABEL      : Energy (eV)
#YLABEL      : Counts
#XPOSITION   : 8.35029
#YPOSITION   : 17.44148
#ZPOSITION   : 37.36299
#EDSDET      : SD
##SPECIMEN   : GMIIIA K1132[6][all]
##D2STDCMP   : K1132,(Li:2.32),(O:41.34),(Al:7.94),(Si:21.39),(Ca:10.72),(Cr:0.51),(Ni:1.18),(Mo:1.67),(Ba:13.43)
##DET_HASH   : 12273538-fd48-a23f-0a19-f1e6fa85caef
##CALIB_HASH : 6abaa72c-aa41-8738-0be9-f592914732f3
##WORKING    : 15.0 mm
##DET_NAME   : EDAX All
##DET_MODE   : MediumLE
#SPECTRUM    :
38,
19,
10,
19,
112,
413,
1217,
2955,
6780,
9931,
8443,
6378,
5387,
5657,
8589,
28341,
104572,
198408,
144256,
39686,
7971,
4383,
4417,
4429,
4407,
5135,
6056,
6300,
7276,
6708,
5103,
4807,
5204,
5486,
5975,
5974,
5324,
4880,
4753,
4784,
4900,
5200,
5197,
5263,
5494,
5594,
6459,
11874,
32286,
61787,
63104,
34104,
13564,
7236,
6582,
13806,
48213,
121109,
164637,
115823,
47445,
17476,
8841,
5341,
4019,
3803,
3960,
3800,
3678,
3427,
3453,
3381,
3384,
3605,
4233,
5645,
7146,
6988,
5812,
4975,
4644,
4245,
3811,
3468,
3323,
3099,
3041,
3057,
3017,
2993,
2977,
2927,
3039,
2853,
2852,
2795,
2760,
2803,
2752,
2775,
2749,
2749,
2786,
2610,
2630,
2673,
2715,
2685,
2583,
2528,
2519,
2549,
2435,
2395,
2402,
2497,
2595,
2721,
2810,
3827,
7433,
16533,
29457,
37196,
30992,
17905,
8027,
3614,
2479,
2405,
2689,
3379,
4637,
6175,
6393,
5296,
3651,
2555,
2111,
1912,
1958,
1902,
1883,
1928,
2150,
2828,
4423,
7841,
11461,
12885,
10512,
6789,
3769,
2284,
1824,
1686,
1720,
1937,
2590,
4051,
5749,
6649,
6132,
4892,
3666,
2763,
2314,
1954,
1871,
2003,
2509,
3016,
3222,
2923,
2318,
1806,
1558,
1557,
1702,
1956,
2112,
2172,
2094,
2093,
2062,
1879,
1777,
1515,
1355,
1214,
1227,
1337,
1453,
1531,
1480,
1355,
1294,
1192,
1267,
1298,
1233,
1127,
1125,
1118,
1017,
1061,
1054,
1025,
965,
1037,
1045,
984,
1001,
1027,
1023,
972,
966,
959,
1004,
989,
939,
991,
913,
923,
897,
914,
866,
868,
857,
896,
884,
822,
822,
834,
854,
806,
843,
819,
835,
851,
754,
803,
775,
802,
810,
872,
967,
1130,
1443,
1427,
1418,
1143,
961,
860,
742,
730,
728,
723,
660,
645,
721,
698,
660,
632,
639,
674,
620,
628,
643,
621,
636,
628,
605,
647,
704,
672,
685,
669,
581,
612,
591,
570,
571,
534,
606,
555,
524,
549,
533,
513,
529,
559,
505,
492,
484,
519,
504,
480,
519,
482,
483,
447,
447,
479,
494,
423,
441,
444,
425,
489,
413,
435,
425,
419,
420,
438,
448,
422,
449,
402,
360,
377,
400,
363,
376,
395,
387,
350,
395,
360,
346,
336,
345,
344,
350,
357,
353,
319,
359,
314,
313,
297,
322,
321,
295,
296,
303,
281,
278,
299,
292,
299,
268,
268,
251,
266,
276,
239,
253,
276,
252,
261,
244,
249,
248,
247,
239,
230,
237,
230,
237,
226,
213,
205,
252,
209,
238,
234,
209,
211,
213,
199,
202,
186,
190,
186,
167,
190,
155,
176,
177,
173,
150,
162,
176,
153,
160,
193,
184,
169,
145,
152,
147,
159,
152,
151,
125,
132,
139,
135,
115,
125,
132,
135,
115,
107,
98,
107,
108,
114,
108,
112,
107,
110,
103,
94,
103,
103,
85,
89,
79,
96,
90,
75,
65,
93,
77,
84,
86,
67,
66,
64,
68,
69,
58,
58,
67,
60,
60,
66,
54,
73,
47,
56,
55,
48,
63,
44,
55,
46,
44,
43,
34,
47,
34,
27,
41,
37,
38,
30,
25,
29,
30,
31,
17,
25,
19,
17,
18,
22,
20,
15,
21,
16,
15,
17,
17,
24,
13,
5,
11,
2,
10,
11,
5,
7,
4,
7,
2,
1,
0,
1,
3,
1,
3,
1,
1,
0,
0,
0,
1,
1,
0,
0,
2,
0,
0,
0,
0,
1,
0,
0,
0,
0,
0,
0,
0,
0,
0,
0,
1,
0,
0,
0,
1,
0,
0,
0,
0,
0,
1,
1,
1,
0,
1,
0,
1,
0,
1,
0,
0,
0,
0,
0,
0,
0,
0,
0,
0,
0,
0,
1,
0,
1,
0,
0,
0,
0,
0,
2,
0,
2,
2,
0,
0,
0,
0,
0,
0,
0,
0,
0,
0,
0,
0,
1,
0,
1,
0,
0,
0,
0,
0,
0,
1,
0,
0,
1,
0,
0,
0,
0,
0,
0,
1,
0,
1,
0,
0,
0,
0,
0,
0,
0,
0,
0,
0,
0,
0,
0,
1,
0,
0,
0,
0,
0,
0,
0,
0,
0,
1,
0,
0,
0,
0,
0,
0,
0,
0,
1,
0,
0,
0,
0,
0,
0,
0,
0,
0,
0,
0,
0,
0,
0,
0,
0,
0,
0,
0,
0,
0,
0,
0,
0,
0,
0,
0,
0,
0,
0,
0,
0,
0,
0,
0,
0,
0,
0,
0,
0,
0,
0,
0,
0,
0,
0,
0,
0,
0,
0,
0,
0,
0,
0,
0,
0,
0,
0,
0,
0,
0,
0,
0,
0,
0,
0,
0,
0,
0,
0,
0,
0,
0,
0,
0,
0,
0,
0,
0,
0,
0,
0,
0,
0,
0,
0,
0,
0,
0,
0,
0,
0,
0,
0,
0,
0,
0,
0,
0,
0,
0,
0,
0,
0,
0,
0,
0,
0,
0,
0,
0,
0,
0,
0,
0,
0,
0,
1,
0,
0,
0,
0,
0,
0,
1,
0,
0,
0,
0,
0,
0,
0,
0,
0,
0,
0,
0,
0,
0,
0,
0,
0,
0,
1,
0,
0,
0,
0,
0,
0,
0,
0,
0,
0,
0,
0,
0,
0,
0,
0,
0,
0,
0,
0,
0,
0,
0,
0,
0,
0,
0,
0,
0,
0,
0,
0,
0,
0,
0,
0,
0,
0,
0,
0,
0,
0,
0,
0,
0,
0,
0,
0,
0,
0,
0,
0,
0,
0,
0,
0,
0,
0,
0,
0,
0,
0,
0,
0,
0,
0,
0,
0,
0,
0,
1,
0,
0,
0,
0,
0,
0,
0,
0,
0,
0,
0,
0,
0,
0,
0,
0,
0,
0,
0,
0,
0,
0,
0,
0,
0,
0,
0,
0,
0,
0,
0,
0,
0,
0,
0,
0,
0,
0,
0,
0,
0,
0,
0,
0,
0,
0,
0,
0,
0,
0,
0,
0,
0,
0,
0,
0,
0,
0,
0,
0,
0,
0,
0,
0,
0,
0,
0,
0,
0,
0,
0,
0,
0,
0,
0,
0,
0,
0,
0,
0,
0,
0,
0,
0,
0,
0,
0,
0,
0,
0,
0,
0,
0,
0,
0,
0,
0,
0,
0,
0,
0,
0,
0,
0,
0,
0,
0,
0,
0,
0,
0,
0,
0,
0,
0,
0,
0,
0,
0,
0,
0,
0,
0,
0,
0,
0,
0,
0,
0,
0,
0,
0,
0,
0,
0,
0,
0,
0,
0,
0,
0,
0,
0,
0,
0,
0,
0,
0,
0,
0,
0,
0,
0,
0,
0,
0,
0,
0,
0,
0,
0,
0,
0,
0,
0,
0,
0,
0,
0,
0,
0,
0,
0,
0,
0,
0,
0,
0,
0,
0,
0,
0,
0,
0,
0,
0,
0,
0,
0,
0,
0,
0,
0,
0,
0,
0,
0,
0,
0,
0,
0,
0,
0,
0,
0,
0,
0,
0,
0,
0,
0,
0,
0,
0,
0,
0,
0,
0,
0,
0,
0,
0,
0,
0,
0,
0,
0,
0,
0,
0,
0,
0,
0,
0,
0,
0,
0,
0,
0,
0,
0,
0,
0,
0,
0,
0,
0,
0,
0,
0,
0,
0,
0,
0,
0,
0,
0,
0,
0,
0,
0,
0,
0,
0,
0,
0,
0,
0,
0,
0,
0,
0,
0,
0,
0,
0,
0,
0,
0,
0,
0,
0,
0,
0,
0,
0,
0,
0,
0,
0,
0,
0,
0,
0,
0,
0,
0,
0,
0,
0,
0,
0,
0,
0,
0,
0,
0,
0,
0,
0,
0,
0,
0,
0,
0,
0,
0,
0,
0,
0,
0,
0,
0,
0,
0,
0,
0,
0,
0,
0,
0,
0,
0,
0,
0,
0,
0,
0,
0,
0,
0,
0,
0,
0,
0,
0,
0,
0,
0,
0,
0,
0,
0,
0,
0,
0,
0,
0,
0,
0,
0,
0,
0,
0,
0,
0,
0,
0,
0,
0,
0,
0,
0,
0,
0,
0,
0,
0,
0,
0,
0,
0,
0,
0,
0,
0,
0,
0,
0,
0,
0,
0,
0,
0,
0,
0,
0,
0,
0,
0,
0,
0,
0,
0,
0,
0,
0,
0,
0,
0,
0,
0,
0,
0,
0,
0,
0,
0,
0,
0,
0,
0,
0,
0,
0,
0,
0,
0,
0,
0,
0,
0,
0,
0,
0,
0,
0,
0,
0,
0,
0,
0,
0,
0,
0,
0,
0,
0,
0,
0,
0,
0,
0,
0,
0,
0,
0,
0,
0,
0,
0,
0,
0,
0,
0,
0,
0,
0,
0,
0,
0,
0,
0,
0,
0,
0,
0,
0,
0,
0,
0,
0,
0,
0,
0,
0,
0,
0,
0,
0,
0,
0,
0,
0,
0,
0,
0,
0,
0,
0,
0,
0,
0,
0,
0,
0,
0,
0,
0,
0,
0,
#ENDOFDATA   :