File: N132962/Quantification/15 keV/GMIIIA/GMIIIA K1229[7][4].msa
#FORMAT      : EMSA/MAS Spectral Data File
#VERSION     : 1.0
#TITLE       : GMIIIA K1229[7][all]
#DATE        : 22-SEP-2025
#TIME        : 22:51
#OWNER       : Unknown
#NPOINTS     : 4096
#NCOLUMNS    : 1
#XUNITS      : eV
#YUNITS      : counts
#DATATYPE    : Y
#XPERCHAN    : 9.99778
#OFFSET      : 1.69135
#BEAMKV      : 15
#SIGNALTYPE  : EDS
#ELEVANGLE   : 35
#AZIMANGLE   : 0
#LIVETIME    : 239.971
#REALTIME    : 256.047
#PROBECUR    : 1.21591
#TAUWIND     : 0
#TDEADLYR    : 0
#TACTLYR     : 0.045
#TALWIND     : 0.025
#CHOFFSET    : 0.0
#XLABEL      : Energy (eV)
#YLABEL      : Counts
#XPOSITION   : 3.93555
#YPOSITION   : 17.40822
#ZPOSITION   : 37.36299
#EDSDET      : SD
##SPECIMEN   : GMIIIA K1229[7][all]
##D2STDCMP   : K1229,(O:41.02),(Mg:1.77),(Al:9.34),(Si:22.0),(Ca:10.51),(Sr:7.46),(Ba:7.9)
##DET_HASH   : 12273538-fd48-a23f-0a19-f1e6fa85caef
##CALIB_HASH : 6abaa72c-aa41-8738-0be9-f592914732f3
##WORKING    : 15.0 mm
##DET_NAME   : EDAX All
##DET_MODE   : MediumLE
#SPECTRUM    :
22,
27,
9,
21,
105,
424,
1056,
2751,
6337,
9217,
7520,
5702,
4886,
5180,
7974,
25910,
95096,
178970,
131085,
35932,
6647,
3761,
3756,
3958,
3889,
4552,
5044,
4912,
4550,
4495,
4416,
4635,
5268,
5360,
5926,
5846,
5541,
5347,
5438,
6075,
9548,
16101,
18687,
12930,
7718,
6283,
6963,
13822,
39472,
75417,
76943,
41553,
16753,
8974,
7989,
15436,
52018,
129997,
180939,
140399,
75879,
40924,
23941,
13758,
8106,
5467,
4426,
3705,
3332,
3131,
3158,
3044,
3250,
3319,
3461,
3658,
3532,
3340,
3124,
3015,
3001,
2845,
2960,
2911,
2986,
2957,
2829,
2826,
2820,
2903,
2811,
2752,
2856,
2691,
2651,
2715,
2756,
2658,
2672,
2863,
2687,
2680,
2635,
2488,
2535,
2589,
2547,
2640,
2652,
2580,
2483,
2483,
2450,
2377,
2418,
2565,
2672,
2723,
3006,
3821,
7404,
16247,
29048,
35885,
30649,
18163,
7948,
3489,
2318,
2342,
2532,
3190,
4516,
5744,
6285,
5138,
3610,
2497,
2078,
1861,
1877,
1780,
1911,
1871,
1941,
2241,
3225,
5095,
7315,
8352,
6991,
4733,
2873,
1998,
1693,
1669,
1656,
1833,
2202,
2959,
4059,
4507,
4224,
3522,
2663,
2170,
1911,
1718,
1613,
1739,
2098,
2251,
2424,
2266,
1965,
1575,
1415,
1309,
1295,
1344,
1383,
1490,
1496,
1622,
1656,
1727,
1517,
1374,
1207,
1230,
1258,
1238,
1343,
1322,
1267,
1301,
1130,
1178,
1131,
1138,
1133,
1086,
1062,
1033,
1042,
1069,
1056,
1093,
1024,
988,
1053,
968,
995,
1015,
1020,
1060,
961,
918,
915,
901,
899,
940,
866,
867,
873,
965,
906,
882,
873,
865,
869,
802,
855,
821,
823,
748,
785,
822,
795,
787,
796,
782,
739,
765,
753,
707,
765,
746,
723,
759,
702,
725,
720,
726,
716,
724,
719,
734,
694,
707,
712,
618,
626,
601,
645,
617,
587,
664,
558,
607,
638,
626,
569,
609,
606,
572,
586,
614,
539,
536,
560,
549,
540,
561,
533,
536,
507,
473,
543,
545,
497,
529,
516,
474,
470,
509,
467,
481,
441,
444,
439,
486,
424,
463,
437,
407,
445,
449,
438,
439,
435,
421,
419,
395,
403,
386,
383,
404,
397,
407,
380,
386,
383,
359,
381,
378,
362,
364,
368,
351,
359,
334,
381,
342,
312,
335,
365,
309,
330,
335,
307,
274,
300,
318,
296,
307,
300,
286,
251,
286,
309,
270,
283,
254,
289,
252,
242,
272,
239,
270,
278,
265,
222,
256,
225,
234,
233,
211,
233,
202,
235,
208,
229,
232,
202,
234,
220,
214,
208,
224,
204,
193,
189,
175,
217,
184,
173,
167,
190,
171,
173,
179,
177,
160,
153,
176,
142,
178,
160,
147,
165,
151,
133,
138,
153,
129,
135,
123,
132,
127,
131,
120,
144,
120,
130,
130,
136,
108,
108,
112,
110,
113,
102,
103,
88,
94,
104,
86,
106,
90,
84,
72,
90,
87,
68,
99,
81,
74,
78,
67,
75,
77,
75,
67,
68,
54,
66,
61,
41,
73,
61,
72,
43,
51,
48,
40,
39,
48,
45,
48,
36,
33,
30,
34,
40,
38,
42,
30,
33,
27,
36,
26,
31,
29,
23,
27,
24,
20,
25,
19,
27,
16,
18,
17,
15,
9,
12,
16,
13,
14,
12,
10,
14,
3,
4,
4,
6,
6,
3,
2,
6,
0,
1,
0,
1,
0,
0,
0,
0,
0,
1,
2,
3,
0,
0,
0,
0,
0,
0,
2,
0,
0,
1,
1,
1,
3,
1,
0,
1,
0,
0,
0,
0,
0,
0,
0,
0,
0,
1,
0,
0,
1,
0,
0,
0,
0,
0,
1,
0,
0,
0,
0,
0,
2,
0,
1,
0,
0,
0,
1,
0,
0,
1,
0,
0,
0,
0,
1,
1,
0,
1,
0,
0,
0,
0,
0,
0,
0,
0,
0,
0,
0,
0,
0,
0,
0,
0,
0,
0,
0,
1,
0,
0,
0,
0,
0,
0,
1,
0,
0,
0,
1,
0,
0,
0,
0,
0,
0,
0,
0,
1,
0,
0,
0,
1,
0,
0,
0,
0,
0,
1,
0,
0,
0,
0,
0,
0,
0,
0,
0,
0,
0,
0,
0,
0,
0,
0,
0,
0,
0,
0,
0,
1,
0,
1,
0,
0,
0,
0,
0,
0,
0,
0,
0,
0,
0,
0,
1,
0,
0,
0,
1,
0,
0,
0,
0,
0,
0,
0,
0,
0,
0,
0,
0,
0,
0,
0,
0,
0,
0,
0,
1,
0,
0,
0,
0,
0,
0,
0,
0,
0,
0,
0,
0,
0,
0,
0,
0,
0,
0,
0,
0,
0,
0,
0,
0,
0,
0,
0,
0,
0,
0,
0,
0,
0,
0,
0,
0,
0,
0,
0,
0,
0,
0,
0,
0,
0,
0,
0,
0,
0,
0,
0,
0,
0,
0,
0,
0,
0,
0,
0,
0,
0,
0,
0,
0,
0,
0,
0,
0,
0,
0,
0,
0,
0,
0,
0,
0,
0,
0,
0,
0,
0,
0,
0,
0,
0,
0,
0,
0,
0,
0,
0,
0,
0,
0,
0,
0,
0,
0,
0,
0,
0,
0,
0,
0,
0,
0,
0,
0,
0,
0,
0,
0,
0,
0,
0,
0,
0,
0,
0,
0,
0,
0,
0,
0,
0,
0,
0,
0,
0,
0,
0,
0,
0,
0,
0,
0,
0,
0,
0,
0,
0,
0,
0,
0,
0,
0,
0,
0,
0,
0,
0,
0,
0,
0,
0,
0,
0,
0,
0,
0,
0,
0,
0,
0,
0,
0,
0,
0,
0,
0,
0,
0,
0,
0,
0,
0,
0,
0,
0,
0,
0,
0,
0,
0,
0,
0,
0,
0,
0,
0,
0,
0,
0,
0,
0,
0,
0,
0,
0,
0,
0,
0,
0,
0,
0,
0,
0,
0,
0,
0,
0,
0,
0,
0,
0,
0,
0,
0,
0,
0,
0,
0,
0,
0,
0,
0,
0,
0,
0,
0,
0,
0,
0,
0,
0,
0,
0,
0,
0,
0,
0,
0,
0,
0,
0,
0,
0,
0,
0,
0,
0,
0,
0,
0,
0,
0,
0,
0,
0,
0,
0,
0,
0,
0,
0,
0,
0,
0,
0,
0,
0,
0,
0,
0,
0,
0,
0,
0,
0,
0,
0,
0,
0,
0,
0,
0,
0,
0,
0,
0,
0,
0,
0,
0,
0,
0,
0,
0,
0,
0,
0,
0,
0,
0,
0,
0,
0,
0,
0,
0,
0,
0,
0,
0,
0,
0,
0,
0,
0,
0,
0,
0,
0,
0,
0,
0,
0,
0,
0,
0,
0,
0,
0,
0,
0,
0,
0,
0,
0,
0,
0,
0,
0,
0,
0,
0,
0,
0,
0,
0,
0,
0,
0,
0,
0,
0,
0,
0,
0,
0,
0,
0,
0,
0,
0,
0,
0,
0,
0,
0,
0,
0,
0,
0,
0,
0,
0,
0,
0,
0,
0,
0,
0,
0,
0,
0,
0,
0,
0,
0,
0,
0,
0,
0,
0,
0,
0,
0,
0,
0,
0,
0,
0,
0,
0,
0,
0,
0,
0,
0,
0,
0,
0,
0,
0,
0,
0,
0,
0,
0,
0,
0,
0,
0,
0,
0,
0,
0,
0,
0,
0,
0,
0,
0,
0,
0,
0,
0,
0,
0,
0,
0,
0,
0,
0,
0,
0,
0,
0,
0,
0,
0,
0,
0,
0,
0,
0,
0,
0,
0,
0,
0,
0,
0,
0,
0,
0,
0,
0,
0,
0,
0,
0,
0,
0,
0,
0,
0,
0,
0,
0,
0,
0,
0,
0,
0,
0,
0,
0,
0,
0,
0,
0,
0,
0,
0,
0,
0,
0,
0,
0,
0,
0,
0,
0,
0,
0,
0,
0,
0,
0,
0,
0,
0,
0,
0,
0,
0,
0,
0,
0,
0,
0,
0,
0,
0,
0,
0,
0,
0,
0,
0,
0,
0,
0,
0,
0,
0,
0,
0,
0,
0,
0,
0,
0,
0,
0,
0,
0,
0,
0,
0,
0,
0,
0,
0,
0,
0,
0,
0,
0,
0,
0,
0,
0,
0,
0,
0,
0,
0,
0,
0,
0,
0,
0,
0,
0,
0,
0,
0,
0,
0,
0,
0,
0,
0,
0,
0,
0,
0,
0,
0,
0,
0,
0,
0,
0,
0,
0,
0,
0,
0,
0,
0,
0,
0,
0,
0,
0,
0,
0,
0,
0,
0,
0,
0,
0,
0,
0,
0,
0,
0,
0,
0,
0,
0,
0,
0,
0,
0,
0,
0,
0,
0,
0,
0,
0,
0,
0,
0,
0,
0,
0,
0,
0,
0,
0,
0,
0,
0,
0,
0,
0,
0,
0,
0,
0,
0,
0,
0,
0,
0,
0,
0,
0,
0,
0,
0,
0,
0,
0,
0,
0,
0,
0,
0,
0,
0,
0,
0,
0,
0,
0,
0,
#ENDOFDATA   :