File: N132962/Quantification/15 keV/GMIIIA/GMIIIA K1236[2][4].msa
#FORMAT      : EMSA/MAS Spectral Data File
#VERSION     : 1.0
#TITLE       : GMIIIA K1236[2][all]
#DATE        : 22-SEP-2025
#TIME        : 23:06
#OWNER       : Unknown
#NPOINTS     : 4096
#NCOLUMNS    : 1
#XUNITS      : eV
#YUNITS      : counts
#DATATYPE    : Y
#XPERCHAN    : 9.99778
#OFFSET      : 1.69135
#BEAMKV      : 15
#SIGNALTYPE  : EDS
#ELEVANGLE   : 35
#AZIMANGLE   : 0
#LIVETIME    : 239.913
#REALTIME    : 258.861
#PROBECUR    : 1.21388
#TAUWIND     : 0
#TDEADLYR    : 0
#TACTLYR     : 0.045
#TALWIND     : 0.025
#CHOFFSET    : 0.0
#XLABEL      : Energy (eV)
#YLABEL      : Counts
#XPOSITION   : 7.20591
#YPOSITION   : 18.91664
#ZPOSITION   : 37.36299
#EDSDET      : SD
##SPECIMEN   : GMIIIA K1236[2][all]
##D2STDCMP   : K1236,(O:21.27),(Sc:0.65),(Ge:40.95),(Pb:37.13)
##DET_HASH   : 12273538-fd48-a23f-0a19-f1e6fa85caef
##CALIB_HASH : 6abaa72c-aa41-8738-0be9-f592914732f3
##WORKING    : 15.0 mm
##DET_NAME   : EDAX All
##DET_MODE   : MediumLE
#SPECTRUM    :
32,
27,
14,
38,
170,
708,
1930,
4589,
9994,
12322,
8578,
6689,
6865,
7276,
8783,
18823,
55601,
99944,
73510,
23190,
8760,
7172,
7070,
7686,
7417,
7298,
7586,
7879,
8251,
8523,
8598,
9074,
10066,
12973,
18221,
20129,
18279,
25899,
74484,
171818,
211614,
138219,
53279,
17525,
8700,
6903,
6500,
6326,
6410,
6480,
6524,
6496,
6423,
6408,
6430,
6758,
7121,
7722,
8072,
9076,
10472,
11232,
9565,
7498,
6616,
6387,
6378,
6395,
6213,
6339,
6478,
6774,
7152,
7697,
8842,
12000,
24159,
48729,
71050,
68147,
54647,
49933,
43067,
26365,
12379,
7160,
6323,
7103,
8263,
7991,
6663,
5441,
4958,
4802,
4835,
4817,
4850,
4856,
4967,
4990,
5171,
5249,
5366,
5486,
5550,
4964,
4822,
4563,
4474,
4407,
4307,
4250,
4269,
4322,
4214,
4214,
4242,
4450,
4430,
4461,
4204,
4236,
4086,
4075,
4102,
4084,
4084,
4190,
3988,
3952,
3864,
3919,
3840,
4050,
4488,
4995,
5569,
5166,
4843,
4150,
3808,
3642,
3702,
3705,
3631,
3646,
3674,
3642,
3812,
3999,
3918,
3729,
3588,
3437,
3406,
3424,
3461,
3407,
3259,
3311,
3290,
3201,
3337,
3243,
3286,
3270,
3140,
3177,
3181,
3050,
3110,
3054,
3115,
3014,
2954,
3054,
2869,
2889,
2938,
2949,
2815,
2950,
2873,
2799,
2791,
2777,
2761,
2707,
2752,
2698,
2669,
2662,
2655,
2711,
2565,
2641,
2537,
2630,
2583,
2580,
2608,
2504,
2478,
2492,
2387,
2449,
2401,
2326,
2419,
2385,
2388,
2454,
2516,
2378,
2465,
2407,
2330,
2252,
2248,
2253,
2220,
2195,
2121,
2238,
2190,
2193,
2039,
2100,
2050,
2117,
2092,
2022,
2101,
2008,
1998,
2001,
2031,
1986,
1995,
1995,
1892,
1883,
1943,
2021,
1891,
1870,
1902,
1905,
1911,
1815,
1795,
1884,
1734,
1794,
1731,
1763,
1719,
1767,
1689,
1772,
1686,
1667,
1670,
1678,
1619,
1585,
1590,
1516,
1651,
1526,
1528,
1568,
1479,
1536,
1487,
1508,
1425,
1465,
1447,
1428,
1395,
1420,
1391,
1351,
1392,
1372,
1448,
1375,
1345,
1328,
1414,
1301,
1335,
1359,
1280,
1225,
1236,
1296,
1270,
1270,
1258,
1203,
1334,
1239,
1211,
1217,
1246,
1174,
1205,
1144,
1194,
1116,
1149,
1117,
1129,
1129,
1083,
1113,
1106,
1073,
1044,
1132,
1130,
1363,
1831,
2671,
4248,
5996,
7365,
7925,
7429,
5794,
4120,
2590,
1712,
1198,
1016,
900,
851,
875,
912,
917,
867,
885,
908,
936,
890,
962,
1152,
1316,
1441,
1479,
1496,
1376,
1150,
1052,
908,
809,
760,
797,
781,
846,
1056,
1185,
1431,
1533,
1662,
1564,
1322,
1118,
893,
822,
646,
660,
686,
622,
601,
622,
530,
589,
543,
542,
557,
545,
527,
579,
518,
559,
523,
490,
470,
489,
479,
499,
482,
485,
444,
478,
453,
454,
462,
445,
454,
465,
437,
472,
397,
421,
412,
384,
427,
385,
373,
386,
357,
372,
391,
393,
437,
447,
449,
445,
415,
353,
358,
327,
331,
304,
296,
311,
277,
281,
304,
304,
238,
274,
271,
248,
251,
230,
236,
232,
216,
200,
200,
202,
204,
205,
198,
169,
187,
187,
186,
194,
177,
164,
174,
157,
147,
159,
178,
128,
145,
135,
132,
139,
134,
116,
115,
122,
100,
96,
109,
106,
83,
90,
78,
92,
85,
90,
73,
75,
72,
64,
56,
61,
51,
43,
49,
43,
30,
34,
29,
28,
25,
27,
22,
12,
13,
4,
11,
8,
2,
0,
2,
4,
6,
4,
6,
1,
0,
0,
3,
1,
3,
2,
4,
4,
5,
1,
3,
1,
1,
0,
2,
2,
1,
4,
0,
2,
2,
0,
0,
0,
0,
1,
2,
3,
3,
1,
0,
2,
1,
0,
3,
2,
1,
2,
1,
2,
1,
1,
1,
1,
2,
2,
2,
3,
1,
0,
0,
1,
2,
2,
1,
0,
0,
2,
1,
2,
1,
1,
2,
0,
2,
0,
0,
1,
2,
3,
1,
1,
2,
0,
1,
2,
1,
3,
0,
0,
2,
1,
2,
0,
0,
1,
1,
3,
0,
3,
1,
0,
1,
0,
0,
1,
0,
0,
1,
0,
2,
2,
1,
2,
1,
3,
1,
0,
2,
0,
1,
4,
0,
0,
1,
0,
1,
0,
0,
0,
0,
1,
2,
1,
0,
0,
1,
3,
1,
1,
0,
0,
1,
0,
1,
1,
0,
0,
1,
1,
0,
1,
1,
1,
2,
0,
1,
0,
1,
1,
2,
1,
0,
0,
0,
1,
2,
1,
0,
1,
1,
1,
1,
1,
0,
0,
1,
0,
1,
0,
0,
0,
1,
0,
0,
2,
1,
0,
0,
0,
0,
0,
2,
0,
0,
1,
0,
1,
1,
1,
1,
0,
1,
0,
0,
0,
1,
2,
0,
0,
0,
0,
1,
0,
1,
0,
0,
0,
0,
0,
0,
1,
1,
0,
0,
1,
0,
0,
1,
0,
1,
0,
0,
0,
0,
0,
0,
0,
0,
1,
1,
0,
1,
0,
0,
1,
0,
0,
0,
0,
0,
2,
0,
0,
0,
0,
0,
0,
0,
1,
0,
0,
0,
0,
0,
1,
0,
0,
0,
1,
0,
0,
0,
0,
0,
0,
0,
0,
0,
0,
0,
0,
0,
0,
0,
0,
0,
0,
0,
0,
0,
0,
0,
0,
0,
0,
0,
0,
1,
0,
0,
0,
0,
0,
0,
0,
0,
0,
0,
0,
0,
0,
0,
0,
0,
0,
0,
1,
0,
0,
0,
0,
0,
0,
0,
0,
0,
0,
0,
1,
0,
0,
0,
0,
0,
0,
0,
0,
0,
0,
0,
0,
0,
0,
0,
0,
0,
0,
0,
0,
0,
0,
0,
0,
0,
0,
0,
0,
0,
0,
0,
0,
0,
0,
0,
0,
0,
0,
0,
0,
0,
0,
0,
0,
0,
0,
0,
0,
0,
0,
0,
0,
0,
0,
0,
0,
0,
0,
0,
0,
0,
0,
0,
0,
0,
0,
0,
0,
0,
0,
0,
0,
0,
0,
0,
0,
0,
0,
0,
0,
0,
0,
0,
0,
0,
0,
0,
0,
0,
0,
0,
0,
0,
0,
0,
0,
0,
0,
0,
0,
0,
0,
0,
0,
0,
0,
0,
0,
0,
0,
0,
0,
0,
0,
0,
0,
0,
0,
0,
0,
0,
0,
0,
0,
0,
0,
0,
0,
0,
0,
0,
0,
0,
0,
0,
0,
0,
0,
0,
0,
0,
0,
0,
0,
0,
0,
0,
0,
0,
0,
0,
0,
0,
0,
0,
0,
0,
0,
0,
0,
0,
0,
0,
0,
0,
0,
0,
0,
0,
0,
0,
0,
0,
0,
0,
0,
0,
0,
0,
0,
0,
0,
0,
0,
0,
0,
0,
0,
0,
0,
0,
0,
0,
0,
0,
0,
0,
0,
0,
0,
0,
0,
0,
0,
0,
0,
0,
0,
0,
0,
0,
0,
0,
0,
0,
0,
0,
0,
0,
0,
0,
0,
0,
0,
0,
0,
0,
0,
0,
0,
0,
0,
0,
0,
0,
0,
0,
0,
0,
0,
0,
0,
0,
0,
0,
0,
0,
0,
0,
0,
0,
0,
0,
0,
0,
0,
0,
0,
0,
0,
0,
0,
0,
0,
0,
0,
0,
0,
0,
0,
0,
0,
0,
0,
0,
0,
0,
0,
0,
0,
0,
0,
0,
0,
0,
0,
0,
0,
0,
0,
0,
0,
0,
0,
0,
0,
0,
0,
0,
0,
0,
0,
0,
0,
0,
0,
0,
0,
0,
0,
0,
0,
0,
0,
0,
0,
0,
0,
0,
0,
0,
0,
0,
0,
0,
0,
0,
0,
0,
0,
0,
0,
0,
0,
0,
0,
0,
0,
0,
0,
0,
0,
0,
0,
0,
0,
0,
0,
0,
0,
0,
0,
0,
0,
0,
0,
0,
0,
0,
0,
0,
0,
0,
0,
0,
0,
0,
0,
0,
0,
0,
0,
0,
0,
0,
0,
0,
0,
0,
0,
0,
0,
0,
0,
0,
0,
0,
0,
0,
0,
0,
0,
0,
0,
0,
0,
0,
0,
0,
0,
0,
0,
0,
0,
0,
0,
0,
0,
0,
0,
0,
0,
0,
0,
0,
0,
0,
0,
0,
0,
0,
0,
0,
0,
0,
0,
0,
0,
0,
0,
0,
0,
0,
0,
0,
0,
0,
0,
0,
0,
0,
0,
0,
0,
0,
0,
0,
0,
0,
0,
0,
0,
0,
0,
0,
0,
0,
0,
0,
0,
0,
0,
0,
0,
0,
0,
0,
0,
0,
0,
0,
0,
0,
0,
0,
0,
0,
0,
0,
0,
0,
0,
0,
0,
0,
0,
0,
0,
0,
0,
0,
0,
0,
0,
0,
0,
0,
0,
0,
0,
0,
0,
0,
0,
0,
0,
0,
0,
0,
0,
0,
0,
0,
0,
0,
0,
0,
0,
0,
0,
0,
0,
0,
0,
0,
0,
0,
0,
0,
0,
0,
0,
0,
0,
0,
0,
#ENDOFDATA   :