File: N132962/Quantification/15 keV/GMIIIA/GMIIIA K1012[6][4].msa
#FORMAT      : EMSA/MAS Spectral Data File
#VERSION     : 1.0
#TITLE       : GMIIIA K1012[6][all]
#DATE        : 22-SEP-2025
#TIME        : 21:27
#OWNER       : Unknown
#NPOINTS     : 4096
#NCOLUMNS    : 1
#XUNITS      : eV
#YUNITS      : counts
#DATATYPE    : Y
#XPERCHAN    : 9.99778
#OFFSET      : 1.69135
#BEAMKV      : 15
#SIGNALTYPE  : EDS
#ELEVANGLE   : 35
#AZIMANGLE   : 0
#LIVETIME    : 239.951
#REALTIME    : 256.611
#PROBECUR    : 1.21822
#TAUWIND     : 0
#TDEADLYR    : 0
#TACTLYR     : 0.045
#TALWIND     : 0.025
#CHOFFSET    : 0.0
#XLABEL      : Energy (eV)
#YLABEL      : Counts
#XPOSITION   : 6.91729
#YPOSITION   : 15.49306
#ZPOSITION   : 37.36299
#EDSDET      : SD
##SPECIMEN   : GMIIIA K1012[6][all]
##D2STDCMP   : K1012,(O:39.34),(Na:1.48),(Mg:9.05),(Al:7.94),(Si:18.7),(P:0.63),(K:1.66),(Ca:0.4),(Ga:1.49),(Se:0.71),(In:1.65),(Cs:1.89),(Ba:13.43),(Ce:1.63)
##DET_HASH   : 12273538-fd48-a23f-0a19-f1e6fa85caef
##CALIB_HASH : 6abaa72c-aa41-8738-0be9-f592914732f3
##WORKING    : 15.0 mm
##DET_NAME   : EDAX All
##DET_MODE   : MediumLE
#SPECTRUM    :
32,
29,
7,
25,
108,
424,
1170,
2889,
6245,
7798,
5584,
4976,
5626,
6845,
10972,
35476,
129913,
245485,
178899,
48503,
9022,
4727,
4691,
4761,
4898,
5304,
5953,
5613,
5005,
5276,
5504,
5701,
6769,
9735,
15618,
18109,
15554,
12615,
9816,
10244,
24505,
55991,
66481,
38974,
13980,
6247,
6002,
10912,
29212,
56369,
57023,
31379,
12423,
6760,
6442,
12510,
42729,
107101,
145686,
103238,
43040,
15824,
8288,
5150,
3983,
4315,
5569,
6539,
5624,
4250,
3503,
3423,
3387,
3364,
3549,
3731,
3691,
3497,
3308,
3219,
3182,
3050,
3117,
3101,
3010,
2957,
3035,
2910,
3033,
2996,
2883,
3034,
3016,
2869,
2879,
2822,
2900,
2937,
2842,
2859,
2891,
2805,
2702,
2745,
2773,
2816,
2919,
3684,
5747,
8822,
11096,
10430,
7166,
4353,
3294,
3179,
3546,
3601,
3512,
3467,
3483,
3515,
3737,
3936,
3772,
3122,
2623,
2335,
2196,
2297,
2416,
2513,
2587,
2524,
2275,
2136,
2086,
2068,
2068,
2052,
2336,
2919,
3521,
3848,
3754,
3601,
4633,
7469,
10641,
11781,
10281,
6570,
4055,
2909,
2657,
2543,
2362,
2424,
3047,
4625,
6313,
7529,
7193,
5506,
4196,
3147,
2412,
2005,
1938,
1978,
2406,
2864,
3079,
2988,
2587,
2453,
2146,
1932,
1726,
1533,
1514,
1493,
1576,
1809,
1925,
1980,
1897,
1734,
1608,
1375,
1348,
1377,
1442,
1473,
1353,
1326,
1284,
1238,
1232,
1133,
1209,
1233,
1179,
1137,
1092,
1080,
1114,
1057,
1084,
1104,
1111,
1005,
1123,
990,
1065,
1045,
998,
1002,
936,
945,
1019,
964,
906,
940,
877,
854,
901,
835,
891,
856,
915,
878,
871,
908,
839,
821,
803,
787,
824,
821,
813,
768,
770,
783,
804,
828,
726,
758,
769,
767,
768,
748,
747,
760,
732,
731,
707,
756,
688,
682,
705,
680,
693,
681,
658,
669,
620,
670,
668,
656,
629,
600,
676,
622,
570,
583,
597,
596,
585,
566,
627,
585,
553,
611,
588,
548,
570,
540,
548,
625,
498,
558,
531,
522,
517,
533,
552,
533,
488,
539,
512,
500,
515,
515,
543,
627,
704,
785,
847,
799,
677,
558,
504,
485,
441,
422,
396,
443,
433,
415,
413,
369,
409,
385,
371,
411,
364,
411,
351,
381,
377,
357,
336,
353,
361,
335,
373,
349,
325,
341,
371,
353,
371,
351,
360,
362,
301,
332,
327,
301,
317,
295,
297,
275,
278,
298,
262,
279,
273,
295,
265,
252,
258,
264,
261,
245,
276,
246,
244,
237,
222,
233,
254,
211,
243,
233,
224,
208,
196,
204,
178,
181,
199,
232,
186,
177,
194,
173,
179,
178,
171,
168,
167,
169,
148,
171,
168,
174,
157,
154,
166,
153,
128,
168,
153,
141,
137,
136,
116,
138,
156,
146,
137,
127,
109,
145,
123,
115,
124,
107,
119,
118,
113,
100,
108,
84,
116,
100,
85,
89,
102,
96,
83,
78,
99,
91,
86,
85,
80,
93,
83,
57,
84,
69,
75,
78,
62,
61,
68,
52,
59,
64,
61,
57,
51,
64,
53,
59,
53,
35,
46,
33,
31,
37,
39,
37,
33,
41,
38,
29,
29,
28,
26,
24,
38,
32,
33,
26,
23,
31,
18,
21,
21,
16,
13,
18,
13,
17,
17,
13,
8,
8,
12,
3,
8,
7,
7,
1,
3,
5,
1,
1,
1,
0,
1,
1,
1,
0,
0,
1,
0,
1,
0,
1,
0,
1,
2,
1,
0,
0,
1,
1,
1,
0,
0,
0,
0,
2,
0,
0,
0,
0,
0,
1,
2,
0,
0,
0,
0,
0,
0,
0,
0,
1,
0,
0,
2,
1,
0,
0,
0,
0,
1,
0,
0,
1,
1,
0,
0,
0,
0,
0,
0,
0,
0,
0,
1,
0,
0,
0,
0,
0,
0,
0,
0,
0,
0,
0,
0,
0,
0,
0,
0,
0,
0,
0,
1,
0,
0,
0,
0,
0,
0,
0,
0,
0,
0,
0,
0,
0,
0,
0,
1,
0,
0,
0,
0,
0,
0,
0,
0,
0,
0,
0,
0,
0,
0,
0,
0,
0,
0,
0,
0,
0,
0,
0,
0,
0,
0,
1,
0,
0,
0,
0,
0,
0,
0,
1,
0,
0,
0,
0,
0,
1,
0,
0,
0,
0,
0,
0,
0,
1,
0,
0,
0,
0,
0,
0,
0,
0,
0,
0,
0,
0,
0,
0,
0,
0,
0,
0,
0,
0,
0,
0,
0,
0,
0,
0,
0,
0,
0,
0,
0,
0,
0,
0,
1,
0,
0,
0,
0,
0,
0,
0,
0,
0,
0,
0,
0,
0,
0,
0,
0,
0,
0,
0,
0,
0,
0,
0,
0,
1,
0,
0,
0,
0,
0,
0,
0,
0,
0,
0,
0,
0,
0,
0,
0,
0,
0,
0,
0,
0,
0,
0,
0,
0,
0,
0,
0,
0,
0,
0,
0,
0,
0,
0,
0,
1,
0,
0,
0,
0,
0,
0,
0,
0,
0,
0,
0,
0,
0,
0,
0,
0,
0,
0,
0,
0,
0,
0,
0,
0,
0,
0,
0,
0,
0,
0,
0,
0,
0,
0,
0,
0,
0,
0,
0,
0,
0,
0,
0,
0,
0,
0,
0,
0,
0,
0,
0,
0,
0,
0,
0,
0,
0,
0,
0,
0,
0,
0,
0,
0,
0,
0,
0,
0,
0,
0,
0,
0,
0,
0,
0,
0,
0,
0,
0,
0,
0,
0,
0,
0,
0,
0,
0,
0,
0,
0,
0,
0,
0,
0,
0,
0,
0,
0,
0,
0,
0,
0,
0,
0,
0,
0,
0,
0,
0,
0,
0,
0,
0,
0,
0,
0,
0,
0,
0,
0,
0,
0,
0,
0,
0,
0,
0,
0,
0,
1,
0,
0,
0,
0,
0,
0,
0,
0,
0,
0,
0,
0,
0,
0,
0,
0,
0,
0,
0,
0,
0,
0,
0,
0,
0,
0,
0,
0,
0,
0,
0,
0,
0,
0,
0,
0,
0,
0,
0,
0,
0,
0,
0,
0,
0,
0,
0,
0,
0,
0,
0,
0,
0,
0,
0,
0,
0,
0,
0,
0,
0,
0,
0,
0,
0,
0,
0,
0,
0,
0,
0,
0,
0,
0,
0,
0,
0,
0,
0,
0,
0,
0,
0,
0,
0,
0,
0,
0,
0,
0,
0,
0,
0,
0,
0,
0,
0,
0,
0,
0,
0,
0,
0,
0,
0,
0,
0,
0,
0,
0,
0,
0,
0,
0,
0,
0,
0,
0,
0,
0,
0,
0,
0,
0,
0,
0,
0,
0,
0,
0,
0,
0,
0,
0,
0,
0,
0,
0,
0,
0,
0,
0,
0,
0,
0,
0,
0,
0,
0,
0,
0,
0,
0,
0,
0,
0,
0,
0,
0,
0,
0,
0,
0,
0,
0,
0,
0,
0,
0,
0,
0,
0,
0,
0,
0,
0,
0,
0,
0,
0,
0,
0,
0,
0,
0,
0,
0,
0,
0,
0,
0,
0,
0,
0,
0,
0,
0,
0,
0,
0,
0,
0,
0,
0,
0,
0,
0,
0,
0,
0,
0,
0,
0,
0,
0,
0,
0,
0,
0,
0,
0,
0,
0,
0,
0,
0,
0,
0,
0,
0,
0,
0,
0,
0,
0,
0,
0,
0,
0,
0,
0,
0,
0,
0,
0,
0,
0,
0,
0,
0,
0,
0,
0,
0,
0,
0,
0,
0,
0,
0,
0,
0,
0,
0,
0,
0,
0,
0,
0,
0,
0,
0,
0,
0,
0,
0,
0,
0,
0,
0,
0,
0,
0,
0,
0,
0,
0,
0,
0,
0,
0,
0,
0,
0,
0,
0,
0,
0,
0,
0,
0,
0,
0,
0,
0,
0,
0,
0,
0,
0,
0,
0,
0,
0,
0,
0,
0,
0,
0,
0,
0,
0,
0,
0,
0,
0,
0,
0,
0,
0,
0,
0,
0,
0,
0,
0,
0,
0,
0,
0,
0,
0,
0,
0,
0,
0,
0,
0,
0,
0,
0,
0,
0,
0,
0,
0,
0,
0,
0,
0,
0,
0,
0,
0,
0,
0,
0,
0,
0,
0,
0,
0,
0,
0,
0,
0,
0,
0,
0,
0,
0,
0,
0,
0,
0,
0,
0,
0,
0,
0,
0,
0,
0,
0,
0,
0,
0,
0,
0,
0,
0,
0,
0,
0,
0,
0,
0,
0,
0,
0,
0,
0,
0,
0,
0,
0,
0,
0,
0,
0,
0,
0,
0,
0,
0,
0,
0,
0,
0,
0,
0,
0,
0,
0,
0,
0,
0,
0,
0,
0,
0,
0,
0,
0,
0,
0,
0,
0,
0,
0,
0,
0,
0,
0,
0,
0,
0,
0,
0,
0,
0,
0,
0,
0,
0,
0,
0,
0,
0,
0,
0,
0,
0,
0,
0,
0,
0,
0,
0,
0,
0,
0,
0,
0,
0,
0,
0,
0,
#ENDOFDATA   :