File: N132962/Quantification/15 keV/GMIIIA/GMIIIA K1001[6][4].msa
#FORMAT      : EMSA/MAS Spectral Data File
#VERSION     : 1.0
#TITLE       : GMIIIA K1001[6][all]
#DATE        : 22-SEP-2025
#TIME        : 21:58
#OWNER       : Unknown
#NPOINTS     : 4096
#NCOLUMNS    : 1
#XUNITS      : eV
#YUNITS      : counts
#DATATYPE    : Y
#XPERCHAN    : 9.99778
#OFFSET      : 1.69135
#BEAMKV      : 15
#SIGNALTYPE  : EDS
#ELEVANGLE   : 35
#AZIMANGLE   : 0
#LIVETIME    : 240
#REALTIME    : 256.29
#PROBECUR    : 1.21615
#TAUWIND     : 0
#TDEADLYR    : 0
#TACTLYR     : 0.045
#TALWIND     : 0.025
#CHOFFSET    : 0.0
#XLABEL      : Energy (eV)
#YLABEL      : Counts
#XPOSITION   : 13.50274
#YPOSITION   : 15.17561
#ZPOSITION   : 37.36299
#EDSDET      : SD
##SPECIMEN   : GMIIIA K1001[6][all]
##D2STDCMP   : K1001,(O:39.47),(Na:1.67),(Mg:1.36),(Al:8.92),(Si:21.02),(K:1.87),(Ca:6.75),(Rb:2.06),(Sr:10.05),(Pr:1.92),(Nd:1.93),(Er:1.97),(Pb:1.04)
##DET_HASH   : 12273538-fd48-a23f-0a19-f1e6fa85caef
##CALIB_HASH : 6abaa72c-aa41-8738-0be9-f592914732f3
##WORKING    : 15.0 mm
##DET_NAME   : EDAX All
##DET_MODE   : MediumLE
#SPECTRUM    :
18,
23,
15,
24,
119,
419,
1112,
3054,
7584,
9930,
6827,
4824,
4488,
4877,
7798,
24376,
87908,
167605,
122513,
33186,
5576,
3481,
4237,
4625,
4463,
4404,
4167,
4499,
4816,
5141,
5862,
6980,
7820,
10818,
16004,
17077,
11405,
7237,
6281,
6575,
9360,
15040,
16624,
12085,
7948,
7557,
10299,
18087,
42197,
76603,
75820,
41187,
17187,
9790,
9601,
18567,
57315,
134347,
182651,
144262,
84611,
49107,
29252,
16630,
9511,
6004,
4570,
3750,
3261,
3204,
3175,
3190,
3249,
3315,
3598,
3736,
3856,
4194,
4564,
4318,
4054,
3892,
3703,
3442,
3071,
2871,
2947,
2916,
2886,
2900,
2743,
2828,
2830,
2846,
2669,
2683,
2666,
2719,
2820,
2762,
2741,
2676,
2622,
2685,
2722,
2613,
2754,
3159,
4385,
6696,
8795,
8697,
6336,
4057,
2921,
2744,
2712,
2855,
3239,
4080,
6432,
11864,
19508,
23844,
20149,
12337,
5723,
3054,
2257,
2177,
2321,
2687,
3389,
4359,
4538,
3992,
2913,
2258,
2048,
1949,
1942,
1830,
1848,
1921,
1741,
1804,
1724,
1859,
1806,
1849,
1861,
1860,
1812,
1793,
1709,
1624,
1777,
1648,
1612,
1601,
1521,
1515,
1585,
1561,
1738,
1960,
2328,
2776,
2847,
2668,
2133,
1985,
1951,
2219,
2442,
2319,
2112,
1669,
1500,
1448,
1538,
1749,
1893,
2027,
1893,
1680,
1542,
1503,
1545,
1614,
1672,
1663,
1682,
1616,
1597,
1517,
1406,
1319,
1266,
1235,
1225,
1265,
1222,
1264,
1262,
1231,
1173,
1133,
1144,
1167,
1133,
1182,
1130,
1126,
1117,
1087,
1053,
1065,
1120,
1067,
1066,
1080,
1094,
939,
960,
940,
963,
967,
1053,
1212,
1373,
1421,
1392,
1248,
1115,
967,
889,
867,
773,
842,
813,
869,
770,
755,
786,
805,
834,
756,
755,
753,
697,
741,
755,
740,
802,
718,
754,
767,
828,
943,
931,
928,
854,
750,
757,
723,
713,
701,
711,
664,
717,
724,
744,
706,
715,
660,
633,
634,
594,
577,
635,
572,
561,
584,
552,
539,
533,
534,
547,
531,
543,
564,
559,
537,
553,
521,
484,
476,
513,
504,
514,
484,
514,
520,
450,
473,
482,
497,
433,
441,
454,
479,
409,
458,
467,
402,
427,
448,
417,
416,
445,
406,
396,
412,
411,
378,
391,
384,
398,
371,
360,
371,
390,
382,
318,
343,
363,
317,
338,
356,
314,
327,
343,
329,
318,
314,
300,
333,
293,
333,
295,
305,
293,
303,
288,
280,
270,
268,
255,
265,
285,
264,
275,
258,
233,
250,
240,
246,
244,
237,
217,
230,
238,
216,
206,
220,
214,
217,
208,
208,
218,
202,
196,
197,
189,
187,
164,
194,
181,
188,
173,
184,
206,
169,
146,
176,
172,
171,
186,
157,
158,
163,
137,
158,
132,
146,
139,
148,
140,
132,
126,
118,
123,
123,
122,
123,
132,
111,
108,
120,
100,
118,
121,
115,
91,
103,
92,
97,
87,
97,
102,
100,
84,
79,
109,
98,
77,
82,
81,
81,
71,
78,
62,
63,
72,
67,
62,
64,
53,
55,
54,
51,
50,
42,
62,
64,
43,
52,
46,
40,
43,
51,
44,
47,
39,
37,
30,
29,
44,
25,
36,
31,
24,
22,
28,
33,
29,
14,
39,
19,
28,
18,
17,
26,
23,
14,
23,
13,
10,
9,
10,
13,
5,
4,
5,
8,
5,
3,
2,
2,
1,
2,
1,
2,
0,
1,
1,
0,
1,
0,
1,
0,
0,
0,
0,
0,
0,
0,
0,
0,
0,
3,
3,
0,
1,
1,
0,
1,
0,
0,
0,
1,
0,
0,
0,
0,
0,
0,
1,
1,
0,
0,
0,
0,
0,
0,
0,
0,
0,
0,
0,
0,
0,
0,
0,
0,
0,
0,
0,
1,
0,
0,
0,
1,
0,
2,
0,
0,
0,
0,
0,
1,
0,
0,
1,
1,
0,
0,
0,
0,
0,
0,
0,
0,
0,
0,
0,
0,
0,
0,
0,
0,
0,
0,
0,
0,
0,
0,
0,
0,
1,
0,
0,
0,
1,
0,
0,
0,
0,
0,
1,
0,
0,
0,
0,
0,
0,
0,
0,
0,
0,
0,
0,
0,
1,
0,
0,
0,
0,
1,
0,
0,
0,
0,
0,
0,
0,
0,
0,
0,
0,
0,
0,
0,
0,
0,
0,
0,
0,
0,
0,
0,
0,
0,
0,
0,
0,
0,
0,
0,
0,
0,
0,
0,
0,
0,
0,
0,
0,
0,
0,
0,
0,
0,
0,
0,
0,
0,
0,
0,
0,
0,
0,
0,
0,
0,
0,
0,
0,
0,
0,
0,
0,
0,
0,
0,
0,
0,
0,
0,
0,
0,
0,
0,
0,
0,
0,
0,
0,
0,
0,
0,
0,
0,
0,
0,
0,
0,
0,
0,
0,
0,
0,
0,
0,
0,
0,
0,
0,
0,
0,
0,
0,
0,
0,
0,
0,
0,
0,
0,
0,
0,
0,
0,
0,
0,
0,
0,
0,
0,
0,
0,
0,
0,
0,
0,
0,
0,
0,
0,
0,
0,
0,
0,
0,
0,
0,
0,
0,
0,
0,
0,
0,
0,
0,
0,
0,
0,
0,
0,
0,
0,
0,
0,
0,
0,
0,
0,
0,
0,
0,
0,
0,
0,
0,
0,
0,
0,
0,
0,
0,
0,
0,
0,
0,
0,
0,
0,
0,
0,
0,
0,
0,
0,
0,
0,
0,
0,
0,
0,
0,
0,
0,
0,
0,
0,
0,
0,
0,
0,
0,
0,
0,
0,
0,
0,
0,
0,
0,
0,
0,
0,
0,
0,
0,
0,
0,
0,
0,
0,
0,
0,
0,
0,
0,
0,
0,
0,
0,
0,
0,
0,
0,
0,
0,
0,
0,
0,
0,
0,
0,
0,
0,
0,
0,
0,
0,
0,
0,
0,
0,
0,
0,
0,
0,
0,
0,
0,
0,
0,
0,
0,
0,
0,
0,
0,
0,
0,
0,
0,
0,
0,
0,
0,
0,
0,
0,
0,
0,
0,
0,
0,
0,
0,
0,
0,
0,
0,
0,
0,
0,
0,
0,
0,
0,
0,
0,
0,
0,
0,
0,
0,
0,
0,
0,
0,
0,
0,
0,
0,
0,
0,
0,
0,
0,
0,
0,
0,
0,
0,
0,
0,
0,
0,
0,
0,
0,
0,
0,
0,
0,
0,
0,
0,
0,
0,
0,
0,
0,
0,
0,
0,
0,
0,
0,
0,
0,
0,
0,
0,
0,
0,
0,
0,
0,
0,
0,
0,
0,
0,
0,
0,
0,
0,
0,
0,
0,
0,
0,
0,
0,
0,
0,
0,
0,
0,
0,
0,
0,
0,
0,
0,
0,
0,
0,
0,
0,
0,
0,
0,
0,
0,
0,
0,
0,
0,
0,
0,
0,
0,
0,
0,
0,
0,
0,
0,
0,
0,
0,
0,
0,
0,
0,
0,
0,
0,
0,
0,
0,
0,
0,
0,
0,
0,
0,
0,
0,
0,
0,
0,
0,
0,
0,
0,
0,
0,
0,
0,
0,
0,
0,
0,
0,
0,
0,
0,
0,
0,
0,
0,
0,
0,
0,
0,
0,
0,
0,
0,
0,
0,
0,
0,
0,
0,
0,
0,
0,
0,
0,
0,
0,
0,
0,
0,
0,
0,
0,
0,
0,
0,
0,
0,
0,
0,
0,
0,
0,
0,
0,
0,
0,
0,
0,
0,
0,
0,
0,
0,
0,
0,
0,
0,
0,
0,
0,
0,
0,
0,
0,
0,
0,
0,
0,
0,
0,
0,
0,
0,
0,
0,
0,
0,
0,
0,
0,
0,
0,
0,
0,
0,
0,
0,
0,
0,
0,
0,
0,
0,
0,
0,
0,
0,
0,
0,
0,
0,
0,
0,
0,
0,
0,
0,
0,
0,
0,
0,
0,
0,
0,
0,
0,
0,
0,
0,
0,
0,
0,
0,
0,
0,
0,
0,
0,
0,
0,
0,
0,
0,
0,
0,
0,
0,
0,
0,
0,
0,
0,
0,
0,
0,
0,
0,
0,
0,
0,
0,
0,
0,
0,
0,
0,
0,
0,
0,
0,
0,
0,
0,
0,
0,
0,
0,
0,
0,
0,
0,
0,
0,
0,
0,
0,
0,
0,
0,
0,
0,
0,
0,
0,
0,
0,
0,
0,
0,
0,
0,
0,
0,
0,
0,
0,
0,
0,
0,
0,
0,
0,
0,
0,
0,
0,
0,
0,
0,
0,
0,
0,
0,
0,
0,
0,
0,
0,
0,
0,
0,
0,
0,
0,
0,
0,
0,
0,
0,
0,
0,
0,
0,
0,
0,
0,
0,
0,
0,
0,
0,
0,
0,
0,
0,
0,
0,
0,
0,
0,
0,
0,
0,
0,
0,
0,
0,
0,
0,
0,
0,
0,
0,
0,
0,
0,
0,
0,
0,
0,
0,
0,
0,
0,
0,
0,
0,
0,
0,
0,
0,
0,
0,
0,
0,
0,
0,
0,
0,
0,
0,
#ENDOFDATA   :