File: N132962/Quantification/15 keV/GMIIIA/GMIIIA K1229[3][4].msa
#FORMAT      : EMSA/MAS Spectral Data File
#VERSION     : 1.0
#TITLE       : GMIIIA K1229[3][all]
#DATE        : 22-SEP-2025
#TIME        : 22:47
#OWNER       : Unknown
#NPOINTS     : 4096
#NCOLUMNS    : 1
#XUNITS      : eV
#YUNITS      : counts
#DATATYPE    : Y
#XPERCHAN    : 9.99778
#OFFSET      : 1.69135
#BEAMKV      : 15
#SIGNALTYPE  : EDS
#ELEVANGLE   : 35
#AZIMANGLE   : 0
#LIVETIME    : 239.9258
#REALTIME    : 255.981
#PROBECUR    : 1.21591
#TAUWIND     : 0
#TDEADLYR    : 0
#TACTLYR     : 0.045
#TALWIND     : 0.025
#CHOFFSET    : 0.0
#XLABEL      : Energy (eV)
#YLABEL      : Counts
#XPOSITION   : 3.98419
#YPOSITION   : 17.4122
#ZPOSITION   : 37.36299
#EDSDET      : SD
##SPECIMEN   : GMIIIA K1229[3][all]
##D2STDCMP   : K1229,(O:41.02),(Mg:1.77),(Al:9.34),(Si:22.0),(Ca:10.51),(Sr:7.46),(Ba:7.9)
##DET_HASH   : 12273538-fd48-a23f-0a19-f1e6fa85caef
##CALIB_HASH : 6abaa72c-aa41-8738-0be9-f592914732f3
##WORKING    : 15.0 mm
##DET_NAME   : EDAX All
##DET_MODE   : MediumLE
#SPECTRUM    :
31,
21,
12,
25,
118,
429,
1133,
2669,
6279,
9063,
7336,
5565,
5004,
5187,
7811,
25549,
94119,
180852,
130726,
35325,
6604,
3711,
3772,
3828,
3942,
4505,
4951,
4966,
4491,
4326,
4361,
4723,
5077,
5647,
5889,
5939,
5507,
5251,
5409,
6004,
9296,
16131,
18447,
12820,
7718,
6323,
6973,
13727,
39203,
76098,
76891,
41338,
16531,
8927,
7793,
15238,
52269,
130976,
181222,
140015,
75619,
41206,
23734,
13639,
7930,
5455,
4439,
3714,
3314,
3253,
3081,
3180,
3220,
3279,
3457,
3459,
3358,
3455,
3203,
2977,
2960,
2969,
3026,
2935,
3005,
2934,
2775,
2843,
2962,
2734,
2916,
2792,
2644,
2781,
2695,
2625,
2691,
2637,
2693,
2707,
2656,
2716,
2612,
2484,
2534,
2513,
2584,
2681,
2612,
2491,
2505,
2457,
2263,
2424,
2321,
2467,
2569,
2731,
2924,
3894,
7378,
16169,
28940,
35752,
30957,
18069,
7911,
3515,
2366,
2223,
2548,
3238,
4530,
5735,
6115,
5190,
3560,
2479,
2050,
1890,
1895,
1878,
1924,
1805,
1950,
2364,
3378,
5278,
7440,
8229,
7085,
4601,
2902,
1925,
1653,
1608,
1588,
1779,
2162,
3015,
4009,
4491,
4313,
3330,
2575,
2256,
1930,
1642,
1569,
1709,
1964,
2330,
2552,
2300,
1911,
1588,
1440,
1265,
1362,
1336,
1382,
1345,
1526,
1636,
1682,
1651,
1547,
1370,
1319,
1196,
1154,
1274,
1326,
1281,
1295,
1247,
1177,
1193,
1172,
1139,
1090,
1099,
1083,
1020,
1039,
1043,
1036,
1032,
1044,
1019,
1058,
982,
1015,
989,
1002,
1031,
943,
971,
953,
962,
940,
947,
926,
924,
886,
898,
917,
819,
904,
878,
847,
834,
895,
849,
851,
835,
760,
787,
813,
793,
757,
764,
798,
789,
754,
790,
750,
764,
723,
711,
724,
752,
741,
680,
683,
709,
707,
697,
691,
680,
652,
649,
623,
627,
616,
661,
598,
640,
610,
616,
639,
578,
613,
585,
666,
566,
611,
553,
541,
556,
522,
549,
536,
510,
552,
547,
540,
550,
549,
531,
504,
489,
488,
468,
503,
482,
483,
465,
468,
467,
460,
451,
465,
460,
453,
447,
413,
468,
456,
454,
473,
389,
427,
421,
437,
395,
421,
413,
376,
389,
390,
420,
380,
362,
367,
343,
390,
401,
377,
323,
345,
370,
349,
375,
355,
348,
317,
326,
314,
314,
299,
329,
316,
303,
279,
298,
318,
310,
288,
285,
302,
275,
255,
275,
293,
286,
268,
242,
246,
267,
252,
257,
244,
268,
276,
232,
225,
243,
220,
221,
231,
226,
203,
229,
208,
221,
221,
213,
211,
221,
209,
194,
177,
195,
188,
188,
166,
178,
168,
172,
165,
170,
174,
148,
173,
141,
164,
155,
145,
155,
143,
131,
166,
156,
131,
132,
141,
116,
111,
145,
127,
139,
124,
119,
114,
125,
119,
135,
119,
100,
109,
101,
92,
96,
111,
97,
106,
86,
85,
94,
80,
104,
96,
91,
76,
79,
73,
79,
93,
82,
80,
65,
66,
70,
59,
65,
76,
57,
62,
46,
46,
43,
62,
55,
59,
45,
37,
41,
38,
44,
48,
31,
49,
41,
39,
43,
37,
29,
38,
36,
37,
29,
29,
30,
24,
33,
30,
31,
26,
23,
15,
17,
18,
14,
18,
12,
14,
9,
10,
9,
3,
9,
5,
2,
3,
5,
3,
3,
2,
1,
2,
1,
0,
4,
0,
1,
2,
2,
0,
1,
1,
0,
0,
0,
3,
0,
0,
0,
2,
0,
0,
0,
1,
1,
0,
0,
0,
1,
0,
0,
0,
1,
1,
0,
0,
0,
0,
1,
0,
0,
0,
0,
0,
0,
1,
0,
1,
0,
0,
0,
1,
0,
0,
0,
0,
0,
0,
1,
0,
0,
0,
0,
0,
1,
1,
0,
0,
1,
1,
0,
0,
1,
1,
0,
0,
0,
0,
0,
0,
0,
1,
0,
0,
0,
1,
0,
0,
1,
0,
1,
0,
0,
0,
0,
0,
0,
0,
0,
0,
1,
0,
0,
0,
0,
0,
1,
0,
0,
0,
0,
0,
0,
0,
0,
0,
0,
1,
0,
0,
0,
0,
0,
1,
0,
0,
0,
0,
0,
0,
0,
0,
0,
0,
0,
0,
0,
0,
0,
0,
0,
0,
0,
1,
0,
0,
0,
0,
0,
0,
1,
0,
0,
0,
0,
1,
0,
0,
0,
0,
0,
0,
0,
0,
0,
0,
0,
0,
0,
0,
0,
0,
0,
0,
0,
0,
0,
0,
0,
0,
0,
0,
0,
0,
0,
0,
0,
1,
0,
0,
0,
0,
0,
0,
0,
0,
0,
0,
0,
0,
0,
0,
0,
0,
0,
0,
0,
0,
0,
0,
0,
0,
0,
0,
0,
0,
0,
0,
0,
0,
0,
0,
0,
0,
0,
0,
0,
0,
0,
0,
0,
0,
0,
0,
0,
0,
0,
0,
0,
0,
0,
0,
0,
0,
0,
0,
0,
0,
0,
0,
0,
0,
0,
0,
0,
0,
0,
0,
0,
0,
0,
0,
0,
0,
0,
0,
0,
0,
0,
0,
0,
0,
0,
0,
0,
0,
0,
0,
0,
0,
0,
0,
0,
0,
0,
0,
0,
0,
0,
0,
0,
0,
0,
0,
0,
0,
0,
0,
0,
0,
0,
0,
0,
0,
0,
0,
0,
0,
0,
0,
0,
0,
0,
0,
0,
0,
0,
0,
0,
0,
0,
0,
0,
0,
0,
0,
0,
0,
0,
0,
0,
0,
0,
0,
0,
0,
0,
0,
0,
0,
0,
0,
0,
0,
0,
0,
0,
0,
0,
0,
0,
0,
0,
0,
0,
0,
0,
0,
0,
0,
0,
0,
0,
0,
0,
0,
0,
0,
0,
0,
0,
0,
0,
0,
0,
0,
0,
0,
0,
0,
0,
0,
0,
0,
0,
0,
0,
0,
0,
0,
0,
0,
0,
0,
0,
0,
0,
0,
0,
0,
0,
0,
0,
0,
0,
0,
0,
0,
0,
0,
0,
0,
0,
0,
0,
0,
0,
0,
0,
0,
0,
0,
0,
0,
0,
0,
0,
0,
0,
0,
0,
0,
0,
0,
0,
0,
0,
0,
0,
0,
0,
0,
0,
0,
0,
0,
0,
0,
0,
0,
0,
0,
0,
0,
0,
0,
0,
0,
0,
0,
0,
0,
0,
0,
0,
0,
0,
0,
0,
0,
0,
0,
0,
0,
0,
0,
0,
0,
0,
0,
0,
0,
0,
0,
0,
0,
0,
0,
0,
0,
0,
0,
0,
0,
0,
0,
0,
0,
0,
0,
0,
0,
0,
0,
0,
0,
0,
0,
0,
0,
0,
0,
0,
0,
0,
0,
0,
0,
0,
0,
0,
0,
0,
0,
0,
0,
0,
0,
0,
0,
0,
0,
0,
0,
0,
0,
0,
0,
0,
0,
0,
0,
0,
0,
0,
0,
0,
0,
0,
0,
0,
0,
0,
0,
0,
0,
0,
0,
0,
0,
0,
0,
0,
0,
0,
0,
0,
0,
0,
0,
0,
0,
0,
0,
0,
0,
0,
0,
0,
0,
0,
0,
0,
0,
0,
0,
0,
0,
0,
0,
0,
0,
0,
0,
0,
0,
0,
0,
0,
0,
0,
0,
0,
0,
0,
0,
0,
0,
0,
0,
0,
0,
0,
0,
0,
0,
0,
0,
0,
0,
0,
0,
0,
0,
0,
0,
0,
0,
0,
0,
0,
0,
0,
0,
0,
0,
0,
0,
0,
0,
0,
0,
0,
0,
0,
0,
0,
0,
0,
0,
0,
0,
0,
0,
0,
0,
0,
0,
0,
0,
0,
0,
0,
0,
0,
0,
0,
0,
0,
0,
0,
0,
0,
0,
0,
0,
0,
0,
0,
0,
0,
0,
0,
0,
0,
0,
0,
0,
0,
0,
0,
0,
0,
0,
0,
0,
0,
0,
0,
0,
0,
0,
0,
0,
0,
0,
0,
0,
0,
0,
0,
0,
0,
0,
0,
0,
0,
0,
0,
0,
0,
0,
0,
0,
0,
0,
0,
0,
0,
0,
0,
0,
0,
0,
0,
0,
0,
0,
0,
0,
0,
0,
0,
0,
0,
0,
0,
0,
0,
0,
0,
0,
0,
0,
0,
0,
0,
0,
0,
0,
0,
0,
0,
0,
0,
0,
0,
0,
0,
0,
0,
0,
0,
0,
0,
0,
0,
0,
0,
0,
0,
0,
0,
0,
0,
0,
0,
0,
0,
0,
0,
0,
0,
0,
0,
0,
0,
0,
0,
0,
0,
0,
0,
0,
0,
0,
0,
0,
0,
0,
0,
0,
0,
0,
0,
0,
0,
0,
0,
0,
0,
0,
0,
0,
0,
0,
0,
0,
0,
0,
0,
0,
0,
0,
0,
0,
0,
0,
0,
0,
0,
0,
0,
0,
0,
0,
0,
0,
0,
0,
0,
0,
0,
0,
0,
0,
0,
0,
0,
0,
0,
0,
0,
0,
0,
0,
0,
#ENDOFDATA   :