File: N132962/Quantification/15 keV/GMIIIA/GMIIIA K230[5][4].msa
#FORMAT      : EMSA/MAS Spectral Data File
#VERSION     : 1.0
#TITLE       : GMIIIA K230[5][all]
#DATE        : 22-SEP-2025
#TIME        : 14:37
#OWNER       : Unknown
#NPOINTS     : 4096
#NCOLUMNS    : 1
#XUNITS      : eV
#YUNITS      : counts
#DATATYPE    : Y
#XPERCHAN    : 9.99778
#OFFSET      : 1.69135
#BEAMKV      : 15
#SIGNALTYPE  : EDS
#ELEVANGLE   : 35
#AZIMANGLE   : 0
#LIVETIME    : 239.795
#REALTIME    : 258.53
#PROBECUR    : 1.21983
#TAUWIND     : 0
#TDEADLYR    : 0
#TACTLYR     : 0.045
#TALWIND     : 0.025
#CHOFFSET    : 0.0
#XLABEL      : Energy (eV)
#YLABEL      : Counts
#XPOSITION   : 3.91829
#YPOSITION   : 0.86622
#ZPOSITION   : 37.36299
#EDSDET      : SD
##SPECIMEN   : GMIIIA K230[5][all]
##D2STDCMP   : K230,(O:24.49),(Al:2.65),(Si:14.02),(Zn:4.02),(Ba:8.96),(Ta:4.09),(Pb:41.77)
##DET_HASH   : 12273538-fd48-a23f-0a19-f1e6fa85caef
##CALIB_HASH : 6abaa72c-aa41-8738-0be9-f592914732f3
##WORKING    : 15.0 mm
##DET_NAME   : EDAX All
##DET_MODE   : MediumLE
#SPECTRUM    :
30,
30,
7,
36,
195,
745,
2032,
4851,
10565,
13130,
8830,
6539,
6844,
7465,
9121,
21221,
67095,
120608,
88272,
28153,
10114,
7621,
7365,
7839,
7441,
7425,
7755,
7460,
7565,
7750,
7870,
8484,
11866,
20294,
25079,
19102,
11446,
8079,
7665,
7428,
7650,
7546,
7953,
8478,
8764,
8826,
8813,
10553,
17449,
27634,
27748,
18126,
11186,
9142,
10057,
17599,
47994,
105149,
135187,
98768,
47293,
22861,
14183,
9104,
7399,
7290,
8028,
8230,
7573,
6874,
6493,
6820,
7309,
7979,
9244,
13280,
26492,
53458,
76923,
74127,
59396,
53911,
45996,
28338,
13213,
7054,
6164,
7231,
8309,
8061,
6688,
5329,
4711,
4521,
4472,
4535,
4583,
4628,
4621,
4684,
4978,
5161,
5308,
5288,
5221,
4908,
4707,
4377,
4334,
4266,
4153,
4203,
4231,
4086,
4197,
4047,
4188,
4128,
4016,
3991,
3946,
3968,
3958,
3877,
4038,
3899,
3851,
3823,
3740,
3807,
3791,
3867,
4013,
3990,
3873,
3729,
3742,
3709,
3576,
3587,
3745,
3625,
3745,
3597,
3705,
4056,
5320,
7805,
10342,
11328,
10003,
7167,
4883,
3778,
3425,
3286,
3344,
3465,
4030,
5010,
6152,
6820,
6502,
5554,
4536,
4017,
3542,
3350,
3270,
3341,
3664,
4052,
4215,
3921,
3531,
3178,
2976,
2874,
2792,
2794,
2791,
2845,
2939,
3092,
3229,
3186,
3050,
2766,
2657,
2754,
2563,
2567,
2666,
2767,
2687,
2663,
2542,
2594,
2538,
2483,
2416,
2515,
2417,
2347,
2408,
2461,
2315,
2191,
2389,
2299,
2333,
2300,
2313,
2264,
2322,
2317,
2184,
2253,
2142,
2098,
2178,
2140,
2135,
2016,
2081,
2031,
2017,
2060,
2154,
2046,
1947,
1969,
2056,
2040,
2044,
1982,
1981,
1949,
1832,
1955,
1918,
1863,
1812,
1776,
1761,
1772,
1753,
1844,
1768,
1778,
1805,
1731,
1735,
1699,
1606,
1639,
1637,
1658,
1655,
1659,
1630,
1532,
1565,
1601,
1514,
1567,
1686,
1642,
1751,
1901,
2074,
2231,
2209,
1949,
1791,
1609,
1512,
1452,
1399,
1381,
1393,
1412,
1426,
1516,
1778,
2065,
2474,
2710,
2723,
2534,
2122,
1738,
1436,
1352,
1299,
1202,
1157,
1240,
1188,
1210,
1184,
1146,
1140,
1158,
1146,
1216,
1228,
1221,
1294,
1294,
1237,
1239,
1292,
1227,
1180,
1159,
1243,
1267,
1227,
1277,
1345,
1250,
1217,
1120,
1076,
957,
987,
910,
955,
903,
948,
952,
935,
917,
893,
882,
859,
844,
826,
795,
897,
843,
804,
803,
873,
870,
938,
1011,
1128,
1219,
1468,
1563,
1461,
1325,
1172,
980,
897,
758,
723,
717,
695,
712,
743,
704,
663,
664,
688,
679,
591,
623,
634,
621,
610,
627,
569,
531,
650,
572,
580,
609,
603,
526,
607,
528,
527,
491,
526,
552,
508,
530,
498,
536,
452,
491,
481,
471,
460,
439,
504,
413,
457,
405,
429,
419,
402,
413,
390,
416,
387,
379,
393,
346,
370,
344,
338,
396,
383,
412,
382,
411,
407,
437,
403,
375,
345,
303,
312,
280,
290,
259,
281,
293,
280,
266,
266,
257,
249,
242,
247,
236,
221,
232,
220,
214,
195,
205,
177,
203,
175,
157,
164,
166,
197,
165,
153,
153,
163,
142,
136,
150,
131,
150,
141,
123,
127,
119,
89,
100,
119,
114,
92,
97,
111,
76,
77,
85,
88,
77,
61,
77,
63,
65,
51,
69,
61,
56,
41,
44,
34,
31,
25,
23,
19,
20,
19,
19,
13,
8,
15,
13,
8,
8,
5,
3,
3,
1,
2,
2,
2,
1,
2,
5,
1,
3,
3,
3,
1,
0,
1,
2,
2,
2,
0,
3,
1,
1,
2,
2,
2,
2,
2,
0,
3,
2,
2,
0,
0,
1,
3,
0,
2,
0,
2,
0,
0,
1,
2,
0,
2,
1,
2,
1,
3,
1,
1,
0,
0,
1,
0,
3,
1,
1,
3,
2,
0,
2,
1,
0,
3,
1,
1,
2,
2,
0,
0,
1,
1,
4,
1,
4,
0,
0,
2,
0,
2,
0,
1,
3,
0,
2,
2,
1,
1,
0,
2,
2,
1,
0,
0,
0,
1,
1,
1,
1,
0,
3,
0,
0,
0,
1,
0,
1,
1,
0,
0,
1,
0,
0,
1,
0,
2,
0,
0,
1,
0,
0,
1,
1,
1,
0,
0,
0,
0,
0,
0,
1,
1,
0,
0,
0,
1,
2,
0,
0,
0,
0,
1,
0,
1,
1,
2,
1,
0,
0,
1,
1,
1,
0,
0,
0,
0,
1,
0,
1,
0,
0,
0,
0,
0,
0,
0,
0,
0,
1,
0,
0,
0,
0,
1,
0,
0,
0,
0,
0,
0,
0,
0,
1,
0,
0,
0,
0,
0,
1,
0,
0,
0,
0,
1,
0,
0,
0,
0,
0,
0,
1,
0,
0,
0,
0,
0,
0,
0,
0,
0,
0,
0,
0,
0,
0,
0,
0,
0,
0,
0,
0,
0,
0,
0,
0,
1,
0,
0,
0,
0,
0,
0,
0,
0,
0,
1,
1,
0,
0,
0,
0,
0,
0,
0,
0,
0,
0,
1,
0,
0,
0,
0,
0,
0,
0,
0,
0,
0,
0,
0,
0,
0,
0,
0,
0,
0,
0,
0,
0,
0,
0,
0,
0,
0,
0,
0,
0,
0,
0,
0,
0,
0,
0,
0,
0,
0,
0,
0,
0,
0,
0,
0,
0,
1,
0,
0,
0,
0,
0,
0,
0,
0,
0,
0,
0,
0,
0,
0,
0,
0,
0,
0,
0,
0,
0,
0,
0,
0,
0,
0,
0,
0,
0,
0,
0,
0,
0,
0,
0,
0,
0,
0,
0,
0,
0,
0,
0,
0,
0,
0,
0,
0,
0,
0,
0,
0,
0,
0,
0,
0,
0,
0,
0,
0,
0,
0,
0,
0,
0,
0,
0,
0,
0,
0,
0,
0,
0,
0,
0,
0,
0,
0,
0,
0,
0,
0,
0,
0,
0,
0,
0,
0,
0,
0,
0,
0,
0,
0,
0,
0,
0,
0,
0,
0,
0,
0,
0,
0,
0,
0,
0,
0,
0,
0,
0,
0,
1,
0,
0,
0,
0,
0,
0,
0,
0,
0,
0,
0,
0,
0,
0,
0,
0,
0,
0,
0,
0,
0,
0,
0,
0,
0,
0,
0,
0,
0,
0,
0,
0,
0,
0,
0,
0,
0,
0,
0,
0,
0,
0,
0,
0,
0,
0,
0,
0,
0,
0,
0,
0,
0,
0,
0,
0,
0,
0,
0,
0,
0,
0,
0,
0,
0,
0,
0,
0,
0,
0,
0,
0,
0,
0,
0,
0,
0,
0,
0,
0,
0,
0,
0,
0,
0,
0,
0,
0,
0,
0,
0,
0,
0,
0,
0,
0,
0,
0,
0,
0,
0,
0,
0,
0,
0,
0,
0,
0,
0,
0,
0,
0,
0,
0,
0,
0,
0,
0,
0,
0,
0,
0,
0,
0,
0,
0,
0,
0,
0,
0,
0,
0,
0,
0,
0,
0,
0,
0,
0,
0,
0,
0,
0,
0,
0,
0,
0,
0,
0,
0,
0,
0,
0,
0,
0,
0,
0,
0,
0,
0,
0,
0,
0,
0,
0,
0,
0,
0,
0,
0,
0,
0,
0,
0,
0,
0,
0,
0,
0,
0,
0,
0,
0,
0,
0,
0,
0,
0,
0,
0,
0,
0,
0,
0,
0,
0,
0,
0,
0,
0,
0,
0,
0,
0,
0,
0,
0,
0,
0,
0,
0,
0,
0,
0,
0,
0,
0,
0,
0,
0,
0,
0,
0,
0,
0,
0,
0,
0,
0,
0,
0,
0,
0,
0,
0,
0,
0,
0,
0,
0,
0,
0,
0,
0,
0,
0,
0,
0,
0,
0,
0,
0,
0,
0,
0,
0,
0,
0,
0,
0,
0,
0,
0,
0,
0,
0,
0,
0,
0,
0,
0,
0,
0,
0,
0,
0,
0,
0,
0,
0,
0,
0,
0,
0,
0,
0,
0,
0,
0,
0,
0,
0,
0,
0,
0,
0,
0,
0,
0,
0,
0,
0,
0,
0,
0,
0,
0,
0,
0,
0,
0,
0,
0,
0,
0,
0,
0,
0,
0,
0,
0,
0,
0,
0,
0,
0,
0,
0,
0,
0,
0,
0,
0,
0,
0,
0,
0,
0,
0,
0,
0,
0,
0,
0,
0,
0,
0,
0,
0,
0,
0,
0,
0,
0,
0,
0,
0,
0,
0,
0,
0,
0,
0,
0,
0,
0,
0,
0,
0,
0,
0,
0,
0,
0,
0,
0,
0,
0,
0,
0,
0,
0,
0,
0,
0,
0,
0,
0,
0,
0,
0,
0,
0,
0,
0,
0,
0,
0,
0,
0,
0,
0,
0,
0,
0,
0,
0,
0,
0,
0,
0,
0,
0,
0,
0,
0,
0,
0,
0,
0,
0,
0,
0,
0,
0,
0,
0,
0,
0,
0,
0,
0,
0,
0,
0,
0,
0,
0,
0,
0,
0,
0,
0,
0,
0,
0,
0,
0,
0,
0,
0,
0,
0,
0,
#ENDOFDATA   :