File: N132962/Quantification/15 keV/GMIIIA/GMIIIA K1008[7][4].msa
#FORMAT      : EMSA/MAS Spectral Data File
#VERSION     : 1.0
#TITLE       : GMIIIA K1008[7][all]
#DATE        : 22-SEP-2025
#TIME        : 21:49
#OWNER       : Unknown
#NPOINTS     : 4096
#NCOLUMNS    : 1
#XUNITS      : eV
#YUNITS      : counts
#DATATYPE    : Y
#XPERCHAN    : 9.99778
#OFFSET      : 1.69135
#BEAMKV      : 15
#SIGNALTYPE  : EDS
#ELEVANGLE   : 35
#AZIMANGLE   : 0
#LIVETIME    : 239.978
#REALTIME    : 256.491
#PROBECUR    : 1.21615
#TAUWIND     : 0
#TDEADLYR    : 0
#TACTLYR     : 0.045
#TALWIND     : 0.025
#CHOFFSET    : 0.0
#XLABEL      : Energy (eV)
#YLABEL      : Counts
#XPOSITION   : 11.40528
#YPOSITION   : 15.12414
#ZPOSITION   : 37.36299
#EDSDET      : SD
##SPECIMEN   : GMIIIA K1008[7][all]
##D2STDCMP   : K1008,(O:38.68),(Na:1.67),(Al:8.92),(Si:21.02),(Ca:6.75),(Rb:2.06),(Sr:10.05),(Zr:0.83),(Cs:2.12),(Ba:2.02),(Ho:1.96),(Tm:1.97),(Yb:1.98)
##DET_HASH   : 12273538-fd48-a23f-0a19-f1e6fa85caef
##CALIB_HASH : 6abaa72c-aa41-8738-0be9-f592914732f3
##WORKING    : 15.0 mm
##DET_NAME   : EDAX All
##DET_MODE   : MediumLE
#SPECTRUM    :
17,
34,
8,
29,
134,
402,
1193,
2714,
6433,
8681,
6661,
5043,
4856,
5284,
7803,
25281,
91462,
172157,
125134,
33845,
6169,
3680,
4095,
4302,
4273,
4406,
4791,
4801,
4929,
5022,
5106,
5549,
6504,
9820,
16013,
17310,
11444,
7141,
6630,
6468,
6360,
6285,
6415,
6940,
8631,
10236,
11424,
17837,
44484,
82996,
86269,
50335,
22396,
12180,
10202,
18672,
57047,
133209,
180996,
142601,
83840,
48930,
29134,
16684,
9575,
6371,
5199,
5010,
4999,
4659,
4143,
3872,
3860,
3785,
3778,
3701,
3606,
3408,
3350,
3227,
3132,
3099,
2995,
2962,
3072,
3018,
2963,
2925,
2921,
2874,
2938,
2996,
2941,
2864,
2968,
2938,
2915,
2795,
2973,
2810,
2819,
2710,
2747,
2775,
2794,
2773,
2783,
2812,
2853,
2766,
2742,
2679,
2615,
2660,
2565,
2685,
2771,
2787,
2887,
3499,
5750,
11453,
19457,
24549,
20880,
12328,
5843,
3327,
2527,
2337,
2450,
2939,
3779,
4600,
4765,
4160,
3180,
2521,
2192,
2198,
2470,
3050,
3657,
3883,
3490,
2915,
2524,
2866,
3369,
3619,
3342,
2839,
2552,
2670,
2686,
2601,
2428,
2168,
2064,
2235,
2381,
2493,
2436,
2305,
2296,
2149,
1946,
1818,
1674,
1586,
1737,
1799,
1781,
1781,
1707,
1688,
1701,
1597,
1522,
1463,
1536,
1531,
1511,
1527,
1590,
1590,
1563,
1388,
1336,
1389,
1297,
1378,
1315,
1400,
1299,
1253,
1330,
1322,
1274,
1327,
1231,
1184,
1159,
1223,
1133,
1161,
1126,
1160,
1135,
1123,
1190,
1121,
1197,
1178,
1141,
1123,
1090,
1094,
1149,
1058,
1232,
1271,
1442,
1641,
1648,
1537,
1350,
1179,
1031,
972,
1008,
955,
888,
944,
987,
1002,
1113,
1201,
1355,
1451,
1294,
1203,
1133,
1030,
1032,
1220,
1308,
1372,
1400,
1290,
1130,
1053,
1011,
937,
900,
840,
796,
791,
763,
772,
829,
794,
811,
833,
806,
817,
795,
797,
827,
867,
821,
864,
827,
714,
745,
763,
685,
738,
784,
865,
833,
910,
843,
780,
687,
694,
646,
618,
644,
657,
689,
713,
632,
684,
642,
564,
537,
533,
525,
517,
516,
540,
538,
474,
499,
514,
472,
544,
515,
520,
509,
505,
540,
454,
510,
481,
457,
483,
471,
460,
481,
441,
472,
468,
476,
452,
436,
444,
432,
396,
405,
393,
390,
364,
356,
371,
388,
353,
358,
357,
394,
360,
383,
333,
352,
339,
345,
341,
341,
327,
301,
332,
293,
321,
308,
286,
287,
307,
310,
280,
291,
280,
274,
310,
270,
253,
269,
284,
306,
272,
227,
266,
245,
200,
246,
251,
253,
196,
196,
244,
228,
228,
206,
221,
210,
187,
203,
216,
214,
209,
215,
183,
183,
190,
187,
186,
177,
197,
166,
182,
167,
174,
175,
156,
163,
152,
136,
158,
157,
137,
165,
152,
148,
120,
149,
125,
152,
129,
124,
126,
124,
122,
117,
106,
123,
102,
117,
114,
115,
109,
122,
114,
110,
98,
92,
95,
86,
89,
90,
71,
88,
89,
89,
80,
77,
86,
87,
94,
60,
85,
66,
70,
51,
57,
72,
70,
64,
57,
43,
59,
38,
57,
52,
45,
40,
42,
40,
46,
46,
39,
36,
35,
34,
24,
14,
19,
30,
36,
22,
22,
27,
27,
23,
16,
25,
15,
19,
19,
16,
12,
11,
15,
9,
2,
4,
3,
6,
7,
8,
7,
1,
2,
0,
0,
0,
0,
0,
1,
1,
0,
0,
3,
1,
1,
1,
0,
1,
1,
0,
0,
0,
0,
0,
0,
0,
1,
0,
1,
0,
0,
0,
0,
0,
0,
0,
0,
0,
0,
0,
0,
1,
0,
0,
1,
0,
1,
0,
0,
2,
0,
0,
0,
0,
0,
2,
0,
0,
0,
0,
1,
0,
1,
1,
0,
0,
1,
0,
0,
0,
0,
0,
0,
0,
0,
1,
0,
0,
0,
0,
0,
0,
0,
0,
0,
0,
0,
0,
1,
0,
0,
0,
0,
0,
0,
0,
1,
0,
0,
0,
0,
1,
0,
1,
0,
1,
1,
0,
0,
0,
0,
0,
0,
0,
0,
0,
0,
1,
0,
0,
0,
0,
0,
0,
0,
0,
0,
0,
0,
0,
1,
1,
0,
0,
0,
0,
0,
0,
0,
0,
0,
0,
0,
0,
0,
0,
1,
0,
0,
1,
0,
1,
0,
0,
0,
0,
0,
0,
0,
0,
0,
0,
0,
0,
0,
1,
0,
0,
0,
0,
0,
0,
0,
0,
0,
0,
1,
0,
0,
0,
0,
0,
0,
0,
0,
0,
0,
0,
0,
0,
0,
0,
0,
0,
0,
0,
0,
0,
0,
0,
0,
0,
0,
0,
0,
0,
0,
0,
0,
0,
0,
0,
0,
0,
0,
0,
0,
0,
1,
0,
0,
0,
0,
0,
0,
0,
0,
0,
0,
0,
0,
0,
0,
0,
0,
0,
0,
0,
0,
0,
0,
0,
0,
0,
0,
0,
0,
0,
0,
0,
0,
0,
0,
0,
0,
0,
0,
0,
0,
0,
0,
0,
0,
0,
0,
0,
0,
0,
0,
0,
0,
0,
0,
0,
0,
0,
0,
0,
0,
0,
0,
0,
0,
0,
0,
0,
0,
0,
0,
0,
0,
0,
0,
0,
0,
0,
0,
0,
0,
0,
0,
0,
0,
0,
0,
0,
0,
0,
0,
0,
0,
0,
0,
0,
0,
0,
0,
0,
0,
0,
0,
0,
0,
0,
0,
0,
0,
0,
0,
0,
0,
0,
0,
0,
0,
0,
0,
0,
0,
0,
0,
0,
0,
0,
0,
0,
0,
0,
0,
0,
0,
0,
0,
0,
0,
0,
0,
0,
0,
0,
0,
0,
0,
0,
0,
0,
0,
0,
0,
0,
0,
0,
0,
0,
0,
0,
0,
0,
0,
0,
0,
0,
0,
0,
0,
0,
0,
0,
0,
0,
0,
0,
0,
0,
0,
0,
0,
0,
0,
0,
0,
0,
0,
0,
0,
0,
0,
0,
0,
0,
0,
0,
0,
0,
0,
0,
0,
0,
0,
0,
0,
0,
0,
0,
0,
0,
0,
0,
0,
0,
0,
0,
0,
0,
0,
0,
0,
0,
0,
0,
0,
0,
0,
0,
0,
0,
0,
0,
0,
0,
0,
0,
0,
0,
0,
0,
0,
0,
0,
0,
0,
0,
0,
0,
0,
0,
0,
0,
0,
0,
0,
0,
0,
0,
0,
0,
0,
0,
0,
0,
0,
0,
0,
0,
0,
0,
0,
0,
0,
0,
0,
0,
0,
0,
0,
0,
0,
0,
0,
0,
0,
0,
0,
0,
0,
0,
0,
0,
0,
0,
0,
0,
0,
0,
0,
0,
0,
0,
0,
0,
0,
0,
0,
0,
0,
0,
0,
0,
0,
0,
0,
0,
0,
0,
0,
0,
0,
0,
0,
0,
0,
0,
0,
0,
0,
0,
0,
0,
0,
0,
0,
0,
0,
0,
0,
0,
0,
0,
0,
0,
0,
0,
0,
0,
0,
0,
0,
0,
0,
0,
0,
0,
0,
0,
0,
0,
0,
0,
0,
0,
0,
0,
0,
0,
0,
0,
0,
0,
0,
0,
0,
0,
0,
0,
0,
0,
0,
0,
0,
0,
0,
0,
0,
0,
0,
0,
0,
0,
0,
0,
0,
0,
0,
0,
0,
0,
0,
0,
0,
0,
0,
0,
0,
0,
0,
0,
0,
0,
0,
0,
0,
0,
0,
0,
0,
0,
0,
0,
0,
0,
0,
0,
0,
0,
0,
0,
0,
0,
0,
0,
0,
0,
0,
0,
0,
0,
0,
0,
0,
0,
0,
0,
0,
0,
0,
0,
0,
0,
0,
0,
0,
0,
0,
0,
0,
0,
0,
0,
0,
0,
0,
0,
0,
0,
0,
0,
0,
0,
0,
0,
0,
0,
0,
0,
0,
0,
0,
0,
0,
0,
0,
0,
0,
0,
0,
0,
0,
0,
0,
0,
0,
0,
0,
0,
0,
0,
0,
0,
0,
0,
0,
0,
0,
0,
0,
0,
0,
0,
0,
0,
0,
0,
0,
0,
0,
0,
0,
0,
0,
0,
0,
0,
0,
0,
0,
0,
0,
0,
0,
0,
0,
0,
0,
0,
0,
0,
0,
0,
0,
0,
0,
0,
0,
0,
0,
0,
0,
0,
0,
0,
0,
0,
0,
0,
0,
0,
0,
0,
0,
0,
0,
0,
0,
0,
0,
0,
0,
0,
0,
0,
0,
0,
0,
0,
0,
0,
0,
0,
0,
0,
0,
0,
0,
0,
0,
0,
0,
0,
0,
0,
0,
0,
0,
0,
0,
0,
0,
0,
0,
0,
0,
0,
0,
0,
0,
0,
0,
0,
0,
0,
0,
0,
0,
0,
0,
0,
0,
0,
0,
0,
0,
0,
0,
0,
0,
0,
0,
0,
0,
0,
0,
0,
0,
0,
0,
0,
0,
0,
0,
0,
0,
0,
0,
0,
0,
0,
0,
#ENDOFDATA   :