File: N132962/Quantification/15 keV/GMIIIA/GMIIIA K1235[3][4].msa
#FORMAT      : EMSA/MAS Spectral Data File
#VERSION     : 1.0
#TITLE       : GMIIIA K1235[3][all]
#DATE        : 22-SEP-2025
#TIME        : 23:18
#OWNER       : Unknown
#NPOINTS     : 4096
#NCOLUMNS    : 1
#XUNITS      : eV
#YUNITS      : counts
#DATATYPE    : Y
#XPERCHAN    : 9.99778
#OFFSET      : 1.69135
#BEAMKV      : 15
#SIGNALTYPE  : EDS
#ELEVANGLE   : 35
#AZIMANGLE   : 0
#LIVETIME    : 240.063
#REALTIME    : 255.983
#PROBECUR    : 1.21388
#TAUWIND     : 0
#TDEADLYR    : 0
#TACTLYR     : 0.045
#TALWIND     : 0.025
#CHOFFSET    : 0.0
#XLABEL      : Energy (eV)
#YLABEL      : Counts
#XPOSITION   : 9.18406
#YPOSITION   : 18.99161
#ZPOSITION   : 37.36299
#EDSDET      : SD
##SPECIMEN   : GMIIIA K1235[3][all]
##D2STDCMP   : K1235,(O:39.17),(Al:8.86),(Si:21.16),(Ca:12.15),(Pd:1.74),(Ba:15.23),(Hf:1.7)
##DET_HASH   : 12273538-fd48-a23f-0a19-f1e6fa85caef
##CALIB_HASH : 6abaa72c-aa41-8738-0be9-f592914732f3
##WORKING    : 15.0 mm
##DET_NAME   : EDAX All
##DET_MODE   : MediumLE
#SPECTRUM    :
24,
25,
7,
15,
90,
376,
1270,
3044,
7282,
11103,
9226,
6588,
5522,
5591,
8468,
27172,
98382,
185299,
134867,
38222,
8071,
4515,
4212,
4157,
4440,
5326,
6149,
5527,
4832,
4381,
4424,
4786,
5634,
5971,
6007,
6172,
5552,
5187,
5048,
5105,
5250,
5425,
5832,
5838,
5974,
6012,
6902,
13128,
36201,
69980,
70704,
38529,
15319,
9032,
10353,
18454,
53138,
124639,
166413,
118395,
48820,
17514,
9197,
5665,
4482,
3889,
3906,
3767,
3638,
3496,
3364,
3389,
3480,
3627,
3663,
3868,
3896,
3633,
3464,
3365,
3422,
3145,
3237,
3170,
3289,
3215,
3187,
3166,
3123,
3024,
3084,
3073,
3097,
3078,
2943,
3041,
3078,
2837,
2852,
2933,
2962,
2783,
2842,
2806,
2827,
2771,
2908,
2838,
2815,
2681,
2727,
2658,
2566,
2630,
2542,
2707,
2873,
2818,
3153,
4286,
8485,
18645,
33647,
42323,
35735,
20926,
9271,
3884,
2662,
2509,
2822,
3675,
5384,
7027,
7321,
6051,
4180,
2867,
2315,
2055,
2010,
2038,
2101,
2061,
2378,
3153,
5029,
8833,
13091,
14871,
12432,
7822,
4293,
2552,
1993,
1882,
1892,
2124,
3041,
4614,
6633,
7684,
7103,
5659,
4082,
3158,
2580,
2112,
1991,
2117,
2715,
3414,
3586,
3276,
2625,
2078,
1526,
1497,
1499,
1435,
1499,
1656,
1760,
1998,
2220,
2129,
1882,
1547,
1453,
1398,
1265,
1438,
1546,
1630,
1489,
1467,
1337,
1241,
1280,
1293,
1177,
1204,
1136,
1108,
1115,
1185,
1062,
1112,
1098,
1075,
1087,
1138,
1058,
1159,
1060,
1051,
1008,
989,
994,
1006,
1015,
1028,
973,
965,
956,
925,
935,
961,
945,
990,
937,
889,
946,
887,
874,
899,
906,
862,
844,
874,
846,
816,
819,
844,
848,
851,
823,
851,
833,
846,
791,
786,
781,
783,
767,
756,
786,
728,
713,
789,
825,
922,
1016,
947,
885,
872,
779,
740,
650,
687,
655,
681,
714,
680,
665,
632,
612,
608,
631,
628,
618,
618,
581,
592,
637,
590,
664,
615,
579,
598,
558,
550,
583,
579,
539,
528,
552,
601,
609,
598,
568,
596,
549,
586,
544,
501,
466,
497,
520,
519,
532,
520,
496,
489,
487,
458,
462,
449,
425,
447,
417,
460,
411,
424,
430,
410,
445,
436,
372,
365,
400,
421,
378,
369,
423,
389,
363,
329,
340,
353,
342,
348,
367,
339,
357,
331,
313,
310,
334,
335,
358,
342,
337,
297,
331,
307,
322,
278,
293,
286,
276,
258,
266,
280,
271,
269,
269,
256,
223,
258,
243,
250,
254,
256,
248,
250,
265,
236,
210,
229,
238,
235,
207,
208,
221,
198,
226,
191,
218,
232,
189,
200,
173,
183,
175,
187,
184,
162,
163,
163,
168,
170,
158,
162,
149,
157,
165,
157,
141,
158,
165,
135,
151,
146,
131,
140,
142,
107,
126,
115,
139,
138,
101,
134,
122,
119,
103,
106,
104,
118,
91,
107,
90,
107,
94,
112,
86,
86,
80,
93,
70,
93,
83,
72,
64,
55,
66,
78,
73,
74,
69,
59,
59,
93,
56,
60,
75,
66,
46,
55,
55,
36,
31,
45,
52,
42,
41,
48,
38,
36,
34,
37,
47,
34,
30,
32,
26,
20,
30,
25,
26,
19,
24,
26,
15,
18,
19,
12,
15,
19,
7,
8,
4,
14,
12,
6,
8,
5,
3,
1,
3,
3,
3,
0,
2,
1,
1,
1,
2,
1,
1,
1,
0,
0,
2,
1,
1,
0,
1,
2,
0,
0,
2,
1,
0,
1,
0,
0,
0,
0,
0,
0,
1,
0,
0,
1,
0,
0,
0,
0,
1,
0,
0,
1,
0,
0,
2,
1,
0,
1,
0,
0,
0,
0,
1,
0,
0,
0,
0,
0,
0,
1,
0,
0,
0,
1,
1,
0,
0,
0,
0,
1,
0,
0,
0,
0,
2,
1,
0,
0,
0,
0,
1,
0,
0,
0,
0,
0,
0,
0,
0,
0,
0,
0,
0,
1,
0,
1,
0,
0,
0,
1,
0,
0,
0,
0,
0,
0,
0,
0,
0,
0,
0,
1,
1,
0,
0,
0,
1,
0,
1,
0,
0,
0,
0,
0,
0,
0,
0,
0,
0,
0,
0,
0,
0,
0,
0,
0,
0,
0,
0,
0,
0,
0,
0,
0,
0,
0,
0,
0,
0,
1,
0,
0,
0,
0,
0,
1,
0,
1,
0,
0,
0,
0,
0,
0,
0,
0,
0,
0,
0,
0,
0,
0,
0,
0,
0,
0,
0,
0,
0,
0,
0,
0,
0,
0,
0,
0,
0,
0,
0,
0,
0,
0,
0,
0,
0,
0,
0,
0,
1,
0,
0,
0,
0,
0,
0,
1,
1,
0,
0,
0,
0,
0,
0,
0,
0,
0,
0,
0,
1,
0,
0,
0,
0,
0,
0,
0,
0,
0,
0,
0,
0,
0,
0,
0,
0,
0,
0,
0,
0,
0,
0,
0,
0,
0,
0,
0,
0,
0,
0,
0,
0,
0,
1,
0,
0,
0,
0,
0,
0,
0,
0,
0,
0,
0,
0,
0,
0,
0,
0,
0,
0,
0,
0,
0,
0,
0,
0,
0,
0,
0,
0,
0,
0,
0,
0,
0,
0,
0,
0,
0,
0,
1,
0,
0,
0,
0,
0,
0,
0,
0,
0,
0,
0,
0,
0,
0,
0,
0,
0,
0,
0,
0,
0,
0,
0,
0,
0,
0,
0,
0,
0,
0,
0,
0,
0,
0,
0,
0,
0,
0,
0,
0,
0,
0,
0,
0,
0,
0,
0,
0,
0,
0,
0,
0,
0,
0,
0,
0,
0,
0,
0,
0,
0,
0,
0,
0,
0,
0,
0,
0,
0,
0,
0,
0,
0,
0,
0,
0,
0,
0,
0,
0,
0,
0,
0,
0,
0,
0,
0,
0,
0,
0,
0,
0,
0,
0,
0,
0,
0,
0,
0,
0,
0,
0,
0,
0,
0,
0,
0,
0,
0,
0,
0,
0,
0,
0,
0,
0,
0,
0,
0,
0,
0,
0,
0,
0,
0,
0,
0,
0,
0,
0,
0,
0,
0,
0,
0,
0,
0,
0,
0,
0,
0,
0,
0,
0,
0,
0,
0,
0,
0,
0,
0,
0,
0,
0,
0,
0,
0,
0,
0,
0,
0,
0,
0,
0,
0,
0,
0,
0,
0,
0,
0,
0,
0,
0,
0,
0,
0,
0,
0,
0,
0,
0,
0,
0,
0,
0,
0,
0,
0,
0,
0,
0,
0,
0,
0,
0,
0,
0,
0,
0,
0,
0,
0,
0,
0,
0,
0,
0,
0,
0,
0,
0,
0,
0,
0,
0,
0,
0,
0,
0,
0,
0,
0,
0,
0,
0,
0,
0,
0,
0,
0,
0,
0,
0,
0,
0,
0,
0,
0,
0,
0,
0,
0,
0,
0,
0,
0,
0,
0,
0,
0,
0,
0,
0,
0,
0,
0,
0,
0,
0,
0,
0,
0,
0,
0,
0,
0,
0,
0,
0,
0,
0,
0,
0,
0,
0,
0,
0,
0,
0,
0,
0,
0,
0,
0,
0,
0,
0,
0,
0,
0,
0,
0,
0,
0,
0,
0,
0,
0,
0,
0,
0,
0,
0,
0,
0,
0,
0,
0,
0,
0,
0,
0,
0,
0,
0,
0,
0,
0,
0,
0,
0,
0,
0,
0,
0,
0,
0,
0,
0,
0,
0,
0,
0,
0,
0,
0,
0,
0,
0,
0,
0,
0,
0,
0,
0,
0,
0,
0,
0,
0,
0,
0,
0,
0,
0,
0,
0,
0,
0,
0,
0,
0,
0,
0,
0,
0,
0,
0,
0,
0,
0,
0,
0,
0,
0,
0,
0,
0,
0,
0,
0,
0,
0,
0,
0,
0,
0,
0,
0,
0,
0,
0,
0,
0,
0,
0,
0,
0,
0,
0,
0,
0,
0,
0,
0,
0,
0,
0,
0,
0,
0,
0,
0,
0,
0,
0,
0,
0,
0,
0,
0,
0,
0,
0,
0,
0,
0,
0,
0,
0,
0,
0,
0,
0,
0,
0,
0,
0,
0,
0,
0,
0,
0,
0,
0,
0,
0,
0,
0,
0,
0,
0,
0,
0,
0,
0,
0,
0,
0,
0,
0,
0,
0,
0,
0,
0,
0,
0,
0,
0,
0,
0,
0,
0,
0,
0,
0,
0,
0,
0,
0,
0,
0,
0,
0,
0,
0,
0,
0,
0,
0,
0,
0,
0,
0,
0,
0,
0,
0,
0,
0,
0,
0,
0,
0,
0,
0,
0,
0,
0,
0,
0,
0,
0,
0,
0,
0,
0,
0,
0,
0,
0,
0,
0,
0,
0,
0,
0,
0,
0,
0,
0,
0,
0,
0,
0,
0,
0,
0,
0,
0,
0,
0,
0,
0,
0,
0,
0,
0,
0,
0,
0,
0,
0,
0,
0,
0,
0,
0,
0,
0,
0,
0,
0,
0,
0,
0,
0,
0,
0,
0,
#ENDOFDATA   :