File: N132962/Quantification/15 keV/GMIIIA/GMIIIA K240[2][4].msa
#FORMAT      : EMSA/MAS Spectral Data File
#VERSION     : 1.0
#TITLE       : GMIIIA K240[2][all]
#DATE        : 22-SEP-2025
#TIME        : 15:14
#OWNER       : Unknown
#NPOINTS     : 4096
#NCOLUMNS    : 1
#XUNITS      : eV
#YUNITS      : counts
#DATATYPE    : Y
#XPERCHAN    : 9.99778
#OFFSET      : 1.69135
#BEAMKV      : 15
#SIGNALTYPE  : EDS
#ELEVANGLE   : 35
#AZIMANGLE   : 0
#LIVETIME    : 239.956
#REALTIME    : 256.046
#PROBECUR    : 1.21732
#TAUWIND     : 0
#TDEADLYR    : 0
#TACTLYR     : 0.045
#TALWIND     : 0.025
#CHOFFSET    : 0.0
#XLABEL      : Energy (eV)
#YLABEL      : Counts
#XPOSITION   : 11.34826
#YPOSITION   : 1.68547
#ZPOSITION   : 37.36299
#EDSDET      : SD
##SPECIMEN   : GMIIIA K240[2][all]
##D2STDCMP   : K240,(O:34.0),(Mg:3.02),(Si:18.7),(Ti:6.0),(Zn:4.02),(Zr:7.4),(Ba:26.87)
##DET_HASH   : 12273538-fd48-a23f-0a19-f1e6fa85caef
##CALIB_HASH : 6abaa72c-aa41-8738-0be9-f592914732f3
##WORKING    : 15.0 mm
##DET_NAME   : EDAX All
##DET_MODE   : MediumLE
#SPECTRUM    :
20,
30,
22,
31,
167,
622,
1541,
3625,
7518,
9738,
7533,
6512,
8492,
10424,
13854,
31406,
98299,
181554,
132843,
39623,
11175,
6360,
5147,
4971,
5649,
7462,
8562,
7555,
5940,
5742,
5947,
6787,
10272,
17066,
20081,
14543,
8372,
6152,
5706,
6513,
10791,
20206,
23160,
15171,
8154,
5791,
5642,
5574,
5707,
6098,
6137,
6438,
6216,
6589,
7584,
13748,
44478,
107835,
144822,
104783,
44393,
17553,
9714,
6623,
5441,
6094,
9525,
16459,
21107,
19224,
15406,
12782,
9910,
7227,
5896,
5101,
4657,
4439,
4133,
4031,
3847,
3960,
3878,
4015,
4041,
3762,
3893,
3864,
3826,
3886,
3953,
3900,
3942,
3794,
3705,
3548,
3556,
3500,
3545,
3559,
3634,
3482,
3521,
3429,
3478,
3483,
3340,
3321,
3307,
3209,
3258,
3226,
3230,
3174,
3152,
3183,
3220,
3163,
3163,
3007,
3056,
2965,
2968,
2990,
3004,
2895,
2985,
2769,
2913,
2915,
3274,
3486,
3676,
3466,
3166,
2769,
2768,
2640,
2624,
2545,
2570,
2663,
2845,
2998,
3395,
4874,
8832,
17631,
29011,
36809,
35392,
26105,
14959,
7512,
3899,
2725,
2613,
3043,
4571,
7785,
11587,
13548,
13097,
10698,
8298,
6685,
4994,
3629,
3048,
3112,
4138,
5230,
5658,
5255,
3949,
2800,
2218,
1822,
1918,
1861,
1869,
2052,
2307,
2925,
3111,
3059,
2739,
2217,
1888,
1782,
1837,
2007,
2121,
2245,
2020,
2043,
1788,
1592,
1642,
1651,
1658,
1533,
1491,
1438,
1496,
1396,
1406,
1403,
1525,
1444,
1451,
1391,
1444,
1423,
1411,
1387,
1405,
1310,
1352,
1287,
1275,
1307,
1283,
1315,
1286,
1233,
1200,
1184,
1235,
1237,
1293,
1210,
1196,
1200,
1218,
1190,
1134,
1175,
1151,
1155,
1130,
1072,
1114,
1192,
1115,
1099,
1159,
1111,
1092,
1094,
1070,
1029,
1037,
1037,
1057,
984,
1060,
999,
1007,
978,
946,
970,
920,
985,
941,
948,
942,
959,
922,
896,
889,
887,
901,
840,
875,
864,
818,
865,
853,
818,
857,
863,
905,
983,
1203,
1470,
1829,
2027,
2045,
1811,
1467,
1115,
948,
781,
706,
818,
762,
743,
680,
772,
647,
734,
711,
646,
716,
683,
744,
678,
624,
645,
634,
687,
666,
669,
708,
668,
656,
717,
770,
712,
720,
704,
653,
638,
620,
611,
555,
508,
550,
533,
547,
523,
545,
526,
520,
473,
512,
478,
468,
473,
462,
462,
484,
477,
446,
431,
493,
433,
441,
427,
436,
424,
421,
452,
402,
461,
449,
409,
433,
388,
394,
389,
396,
383,
365,
387,
366,
338,
366,
354,
342,
357,
363,
337,
365,
353,
338,
318,
312,
327,
339,
356,
322,
304,
272,
286,
294,
275,
282,
265,
249,
268,
266,
256,
251,
243,
239,
227,
243,
282,
223,
238,
232,
212,
243,
188,
212,
192,
217,
178,
223,
197,
201,
215,
192,
173,
195,
197,
155,
170,
164,
170,
160,
177,
176,
143,
146,
154,
167,
149,
140,
149,
134,
169,
136,
130,
132,
127,
114,
112,
102,
119,
99,
105,
115,
89,
105,
97,
94,
96,
92,
68,
78,
94,
87,
73,
88,
84,
75,
73,
76,
58,
60,
85,
58,
46,
51,
56,
57,
47,
50,
63,
46,
50,
45,
40,
41,
40,
32,
34,
36,
36,
31,
22,
22,
28,
26,
21,
16,
20,
16,
15,
24,
11,
6,
9,
5,
13,
6,
3,
3,
5,
2,
1,
0,
1,
1,
1,
1,
0,
1,
3,
2,
0,
2,
2,
2,
0,
0,
0,
0,
1,
0,
1,
0,
0,
1,
0,
1,
2,
0,
1,
1,
1,
0,
1,
1,
0,
1,
1,
1,
0,
0,
0,
2,
0,
0,
0,
0,
0,
0,
0,
0,
0,
2,
0,
0,
0,
0,
0,
0,
1,
0,
1,
0,
1,
0,
0,
0,
2,
0,
1,
0,
0,
0,
1,
0,
0,
0,
0,
1,
0,
0,
2,
0,
0,
0,
0,
0,
0,
0,
0,
0,
1,
0,
0,
1,
0,
0,
0,
1,
0,
0,
0,
2,
1,
0,
0,
0,
0,
0,
0,
0,
1,
0,
1,
1,
0,
1,
1,
1,
0,
1,
3,
0,
1,
0,
0,
0,
0,
0,
0,
1,
0,
1,
0,
2,
0,
0,
0,
0,
0,
1,
0,
1,
0,
0,
0,
0,
0,
0,
0,
0,
0,
0,
0,
0,
1,
0,
0,
0,
0,
0,
0,
0,
0,
0,
0,
0,
0,
0,
0,
0,
0,
0,
1,
0,
0,
0,
0,
0,
1,
0,
0,
0,
0,
1,
0,
0,
0,
0,
0,
0,
0,
0,
0,
0,
0,
0,
0,
1,
0,
0,
0,
0,
0,
0,
0,
0,
0,
0,
0,
0,
0,
0,
0,
0,
0,
0,
0,
0,
0,
0,
0,
0,
0,
0,
0,
0,
0,
0,
0,
0,
0,
0,
0,
0,
0,
0,
0,
0,
0,
0,
0,
0,
0,
0,
0,
0,
0,
0,
0,
0,
0,
0,
0,
0,
0,
0,
0,
0,
0,
0,
0,
0,
0,
0,
0,
0,
0,
0,
0,
0,
0,
0,
0,
0,
0,
0,
0,
0,
0,
0,
0,
0,
0,
0,
0,
0,
0,
0,
0,
0,
0,
0,
0,
0,
0,
0,
0,
1,
0,
0,
0,
0,
0,
0,
0,
0,
0,
0,
0,
0,
0,
0,
0,
0,
0,
0,
0,
0,
0,
0,
0,
0,
0,
0,
0,
0,
0,
0,
0,
0,
0,
0,
0,
0,
0,
0,
0,
0,
0,
0,
0,
0,
0,
0,
0,
0,
0,
0,
0,
0,
0,
0,
0,
0,
0,
0,
0,
0,
0,
0,
0,
0,
0,
0,
0,
0,
0,
0,
0,
0,
0,
0,
0,
0,
0,
0,
0,
0,
0,
0,
0,
0,
0,
0,
0,
0,
0,
0,
0,
0,
0,
0,
0,
0,
0,
0,
0,
0,
0,
0,
0,
0,
0,
0,
0,
0,
0,
0,
0,
0,
0,
0,
0,
0,
0,
0,
0,
0,
0,
0,
0,
0,
0,
0,
0,
0,
0,
0,
0,
0,
0,
0,
0,
0,
0,
0,
0,
0,
0,
0,
0,
0,
0,
0,
0,
0,
0,
0,
0,
0,
0,
0,
0,
0,
0,
0,
0,
0,
0,
0,
0,
0,
0,
0,
0,
0,
0,
0,
0,
0,
0,
0,
0,
0,
0,
0,
0,
0,
0,
0,
0,
0,
0,
0,
0,
0,
0,
0,
0,
0,
0,
0,
0,
0,
0,
0,
0,
0,
0,
0,
0,
0,
0,
0,
0,
0,
0,
0,
0,
0,
0,
0,
0,
0,
0,
0,
0,
0,
0,
0,
0,
0,
0,
0,
0,
0,
0,
0,
0,
0,
0,
0,
0,
0,
0,
0,
0,
0,
0,
0,
0,
0,
0,
0,
0,
0,
0,
0,
0,
0,
0,
0,
0,
0,
0,
0,
0,
0,
0,
0,
0,
0,
0,
0,
0,
0,
0,
0,
0,
0,
0,
0,
0,
0,
0,
0,
0,
0,
0,
0,
0,
0,
0,
0,
0,
0,
0,
0,
0,
0,
0,
0,
0,
0,
0,
0,
0,
0,
0,
0,
0,
0,
0,
0,
0,
0,
0,
0,
0,
0,
0,
0,
0,
0,
0,
0,
0,
0,
0,
0,
0,
0,
0,
0,
0,
0,
0,
0,
0,
0,
0,
0,
0,
0,
0,
0,
0,
0,
0,
0,
0,
0,
0,
0,
0,
0,
0,
0,
0,
0,
0,
0,
0,
0,
0,
0,
0,
0,
0,
0,
0,
0,
0,
0,
0,
0,
0,
0,
0,
0,
0,
0,
0,
0,
0,
0,
0,
0,
0,
0,
0,
0,
0,
0,
0,
0,
0,
0,
0,
0,
0,
0,
0,
0,
0,
0,
0,
0,
0,
0,
0,
0,
0,
0,
0,
0,
0,
0,
0,
0,
0,
0,
0,
0,
0,
0,
0,
0,
0,
0,
0,
0,
0,
0,
0,
0,
0,
0,
0,
0,
0,
0,
0,
0,
0,
0,
0,
0,
0,
0,
0,
0,
0,
0,
0,
0,
0,
0,
0,
0,
0,
0,
0,
0,
0,
0,
0,
0,
0,
0,
0,
0,
0,
0,
0,
0,
0,
0,
0,
0,
0,
0,
0,
0,
0,
0,
0,
0,
0,
0,
0,
0,
0,
0,
0,
0,
0,
0,
0,
0,
0,
0,
0,
0,
0,
0,
0,
0,
0,
0,
0,
0,
0,
0,
0,
0,
0,
0,
0,
0,
0,
0,
0,
0,
0,
0,
0,
0,
0,
0,
0,
0,
0,
0,
0,
0,
0,
0,
0,
0,
0,
0,
0,
0,
0,
0,
0,
0,
0,
0,
0,
0,
0,
0,
0,
0,
0,
0,
0,
0,
0,
0,
0,
0,
0,
0,
0,
0,
0,
0,
0,
0,
0,
#ENDOFDATA   :