File: N132962/Quantification/15 keV/GMIIIA/GMIIIA K1234[0][4].msa
#FORMAT      : EMSA/MAS Spectral Data File
#VERSION     : 1.0
#TITLE       : GMIIIA K1234[0][all]
#DATE        : 22-SEP-2025
#TIME        : 22:53
#OWNER       : Unknown
#NPOINTS     : 4096
#NCOLUMNS    : 1
#XUNITS      : eV
#YUNITS      : counts
#DATATYPE    : Y
#XPERCHAN    : 9.99778
#OFFSET      : 1.69135
#BEAMKV      : 15
#SIGNALTYPE  : EDS
#ELEVANGLE   : 35
#AZIMANGLE   : 0
#LIVETIME    : 239.934
#REALTIME    : 255.852
#PROBECUR    : 1.21591
#TAUWIND     : 0
#TDEADLYR    : 0
#TACTLYR     : 0.045
#TALWIND     : 0.025
#CHOFFSET    : 0.0
#XLABEL      : Energy (eV)
#YLABEL      : Counts
#XPOSITION   : 2.01214
#YPOSITION   : 17.87373
#ZPOSITION   : 37.36299
#EDSDET      : SD
##SPECIMEN   : GMIIIA K1234[0][all]
##D2STDCMP   : K1234,(O:39.85),(Al:9.15),(Si:21.56),(Ca:12.36),(Ba:15.49),(W:1.59)
##DET_HASH   : 12273538-fd48-a23f-0a19-f1e6fa85caef
##CALIB_HASH : 6abaa72c-aa41-8738-0be9-f592914732f3
##WORKING    : 15.0 mm
##DET_NAME   : EDAX All
##DET_MODE   : MediumLE
#SPECTRUM    :
27,
24,
11,
20,
114,
436,
1192,
2933,
7080,
10783,
8904,
6684,
5494,
5713,
8629,
26776,
97921,
185024,
136286,
37598,
7875,
4448,
4247,
4123,
4261,
5225,
5983,
5515,
4661,
4413,
4427,
4848,
5608,
5597,
6047,
6175,
5502,
5311,
5090,
5019,
5202,
5297,
5430,
5591,
5861,
6056,
7208,
13459,
36702,
70556,
71239,
38588,
15253,
7805,
7025,
14153,
49412,
123460,
168440,
122001,
52532,
20944,
10722,
6038,
4378,
4032,
3874,
3784,
3598,
3585,
3475,
3293,
3436,
3543,
3698,
3978,
3870,
3786,
3522,
3470,
3278,
3220,
3206,
3268,
3233,
3135,
3080,
3119,
3108,
3156,
3077,
3121,
3155,
2961,
2957,
2974,
2892,
2860,
2891,
2945,
2831,
2842,
2843,
2865,
2852,
2811,
2757,
2858,
2796,
2728,
2724,
2587,
2598,
2629,
2617,
2718,
2807,
2824,
3146,
4153,
8448,
18700,
34236,
42841,
36435,
20968,
9366,
3980,
2589,
2583,
2993,
3769,
5317,
6936,
7298,
6074,
4078,
2805,
2188,
2060,
1976,
2058,
2080,
2077,
2369,
2909,
4993,
8792,
13022,
14707,
12206,
7806,
4123,
2460,
1969,
1767,
1839,
2111,
2958,
4578,
6621,
7614,
6984,
5591,
4198,
3134,
2461,
2034,
2003,
2108,
2737,
3314,
3660,
3293,
2573,
1963,
1690,
1483,
1470,
1437,
1421,
1633,
1788,
2018,
2213,
2121,
1949,
1547,
1433,
1346,
1369,
1382,
1456,
1578,
1579,
1474,
1345,
1289,
1190,
1232,
1221,
1165,
1156,
1070,
1133,
1078,
1133,
1181,
1077,
1092,
1125,
1119,
1109,
1041,
1042,
1048,
1066,
1025,
1105,
1022,
1052,
1041,
947,
997,
990,
1003,
1039,
939,
962,
981,
908,
916,
907,
874,
909,
903,
870,
856,
872,
874,
839,
848,
808,
839,
868,
836,
811,
848,
854,
772,
788,
795,
763,
833,
822,
737,
746,
796,
752,
714,
723,
736,
781,
708,
722,
730,
660,
673,
703,
661,
670,
675,
678,
659,
712,
637,
714,
710,
772,
823,
851,
771,
717,
602,
624,
606,
606,
522,
593,
563,
506,
576,
563,
524,
577,
534,
500,
553,
476,
526,
474,
522,
520,
485,
530,
517,
456,
461,
512,
460,
467,
474,
419,
456,
454,
438,
471,
461,
492,
420,
464,
468,
478,
494,
441,
471,
402,
476,
410,
413,
454,
426,
405,
393,
402,
351,
344,
346,
361,
333,
360,
387,
335,
351,
320,
324,
349,
361,
345,
334,
336,
322,
301,
320,
294,
293,
300,
285,
299,
286,
291,
278,
299,
283,
273,
280,
251,
270,
271,
253,
279,
274,
269,
237,
244,
252,
234,
237,
229,
230,
212,
243,
216,
217,
214,
210,
225,
193,
200,
189,
183,
162,
213,
213,
187,
192,
164,
171,
192,
146,
167,
178,
161,
170,
141,
152,
154,
154,
159,
133,
133,
123,
115,
152,
123,
145,
125,
143,
116,
137,
133,
113,
90,
102,
114,
90,
105,
95,
125,
95,
104,
88,
114,
111,
100,
96,
94,
85,
98,
81,
89,
71,
60,
80,
84,
75,
64,
79,
81,
78,
63,
63,
74,
55,
46,
55,
42,
57,
55,
50,
56,
59,
46,
49,
44,
40,
43,
35,
38,
40,
36,
37,
38,
42,
38,
30,
32,
37,
24,
28,
24,
25,
13,
15,
17,
14,
14,
19,
16,
14,
8,
9,
16,
8,
6,
3,
8,
5,
4,
3,
2,
2,
2,
0,
1,
0,
1,
0,
0,
0,
0,
0,
0,
1,
0,
0,
0,
0,
0,
2,
0,
1,
0,
2,
0,
0,
1,
2,
0,
0,
0,
1,
0,
1,
1,
0,
0,
0,
0,
0,
0,
1,
1,
0,
0,
0,
1,
1,
0,
0,
0,
0,
0,
1,
0,
0,
0,
0,
1,
0,
0,
1,
1,
0,
1,
0,
0,
2,
0,
0,
0,
0,
1,
0,
0,
0,
0,
1,
0,
0,
0,
1,
0,
0,
0,
1,
0,
0,
1,
0,
0,
1,
0,
1,
0,
0,
0,
0,
1,
0,
1,
0,
3,
0,
1,
0,
0,
0,
0,
0,
0,
0,
0,
0,
0,
0,
0,
1,
0,
0,
0,
0,
0,
0,
0,
0,
0,
0,
0,
0,
0,
0,
0,
0,
0,
0,
0,
0,
0,
0,
0,
0,
0,
0,
0,
0,
0,
0,
0,
0,
1,
0,
0,
0,
0,
0,
0,
0,
0,
0,
1,
0,
0,
0,
0,
0,
0,
0,
0,
0,
0,
0,
0,
0,
0,
0,
0,
0,
0,
0,
0,
0,
0,
0,
0,
0,
0,
0,
0,
0,
0,
0,
0,
0,
0,
0,
0,
0,
0,
0,
0,
0,
0,
0,
0,
0,
0,
0,
0,
0,
0,
0,
0,
0,
0,
0,
0,
0,
0,
0,
0,
0,
0,
0,
0,
0,
0,
0,
0,
0,
0,
0,
0,
0,
0,
1,
0,
0,
0,
0,
0,
0,
0,
0,
0,
0,
0,
0,
0,
0,
0,
0,
0,
0,
0,
0,
0,
0,
0,
0,
0,
0,
0,
0,
0,
0,
0,
0,
0,
0,
0,
0,
0,
0,
0,
0,
0,
0,
0,
0,
0,
0,
0,
0,
0,
0,
0,
0,
0,
0,
0,
0,
0,
0,
0,
0,
0,
0,
0,
0,
0,
0,
0,
0,
0,
0,
0,
0,
0,
0,
0,
0,
0,
0,
0,
0,
0,
0,
0,
0,
0,
0,
0,
0,
0,
0,
0,
0,
0,
0,
0,
0,
0,
0,
0,
0,
0,
0,
0,
0,
0,
0,
0,
0,
0,
0,
0,
0,
0,
0,
0,
0,
0,
0,
0,
0,
0,
0,
0,
0,
0,
0,
0,
0,
0,
0,
0,
0,
0,
0,
0,
0,
0,
0,
0,
0,
0,
0,
0,
0,
0,
0,
0,
0,
0,
0,
0,
0,
0,
0,
0,
0,
0,
0,
0,
0,
0,
0,
0,
0,
0,
0,
0,
0,
0,
0,
0,
0,
0,
0,
0,
0,
0,
0,
0,
0,
0,
0,
0,
0,
0,
0,
0,
0,
0,
0,
0,
0,
0,
0,
0,
0,
0,
0,
0,
0,
0,
0,
0,
0,
0,
0,
0,
0,
0,
0,
0,
0,
0,
0,
0,
0,
0,
0,
0,
0,
0,
0,
0,
0,
0,
0,
0,
0,
0,
0,
0,
0,
0,
0,
0,
0,
0,
0,
0,
0,
0,
0,
0,
0,
0,
0,
0,
0,
0,
0,
0,
0,
0,
0,
0,
0,
0,
0,
0,
0,
0,
0,
0,
0,
0,
0,
0,
0,
0,
0,
0,
0,
0,
0,
0,
0,
0,
0,
0,
0,
0,
0,
0,
0,
0,
0,
0,
0,
0,
0,
0,
0,
0,
0,
0,
0,
0,
0,
0,
0,
0,
0,
0,
0,
0,
0,
0,
0,
0,
0,
0,
0,
0,
0,
0,
0,
0,
0,
0,
0,
0,
0,
0,
0,
0,
0,
0,
0,
0,
0,
0,
0,
0,
0,
0,
0,
0,
0,
0,
0,
0,
0,
0,
0,
0,
0,
0,
0,
0,
0,
0,
0,
0,
0,
0,
0,
0,
0,
0,
0,
0,
0,
0,
0,
0,
0,
0,
0,
0,
0,
0,
0,
0,
0,
0,
0,
0,
0,
0,
0,
0,
0,
0,
0,
0,
0,
0,
0,
0,
0,
0,
0,
0,
0,
0,
0,
0,
0,
0,
0,
0,
0,
0,
0,
0,
0,
0,
0,
0,
0,
0,
0,
0,
0,
0,
0,
0,
0,
0,
0,
0,
0,
0,
0,
0,
0,
0,
0,
0,
0,
0,
0,
0,
0,
0,
0,
0,
0,
0,
0,
0,
0,
0,
0,
0,
0,
0,
0,
0,
0,
0,
0,
0,
0,
0,
0,
0,
0,
0,
0,
0,
0,
0,
0,
0,
0,
0,
0,
0,
0,
0,
0,
0,
0,
0,
0,
0,
0,
0,
0,
0,
0,
0,
0,
0,
0,
0,
0,
0,
0,
0,
0,
0,
0,
0,
0,
0,
0,
0,
0,
0,
0,
0,
0,
0,
0,
0,
0,
0,
0,
0,
0,
0,
0,
0,
0,
0,
0,
0,
0,
0,
0,
0,
0,
0,
0,
0,
0,
0,
0,
0,
0,
0,
0,
0,
0,
0,
0,
0,
0,
0,
0,
0,
0,
0,
0,
0,
0,
0,
0,
0,
0,
0,
0,
0,
0,
0,
0,
0,
0,
0,
0,
0,
0,
0,
0,
0,
0,
0,
0,
0,
0,
0,
0,
0,
0,
0,
0,
0,
0,
0,
0,
0,
0,
0,
0,
0,
0,
0,
0,
0,
0,
0,
0,
0,
0,
0,
0,
0,
0,
0,
0,
0,
0,
0,
0,
0,
0,
0,
0,
0,
0,
0,
0,
0,
0,
0,
0,
0,
0,
0,
0,
0,
0,
0,
0,
0,
0,
0,
0,
#ENDOFDATA   :