File: N132962/Quantification/15 keV/GMIIIA/GMIIIA K1008[3][4].msa
#FORMAT      : EMSA/MAS Spectral Data File
#VERSION     : 1.0
#TITLE       : GMIIIA K1008[3][all]
#DATE        : 22-SEP-2025
#TIME        : 21:45
#OWNER       : Unknown
#NPOINTS     : 4096
#NCOLUMNS    : 1
#XUNITS      : eV
#YUNITS      : counts
#DATATYPE    : Y
#XPERCHAN    : 9.99778
#OFFSET      : 1.69135
#BEAMKV      : 15
#SIGNALTYPE  : EDS
#ELEVANGLE   : 35
#AZIMANGLE   : 0
#LIVETIME    : 240.029
#REALTIME    : 256.545
#PROBECUR    : 1.21615
#TAUWIND     : 0
#TDEADLYR    : 0
#TACTLYR     : 0.045
#TALWIND     : 0.025
#CHOFFSET    : 0.0
#XLABEL      : Energy (eV)
#YLABEL      : Counts
#XPOSITION   : 11.44941
#YPOSITION   : 15.20366
#ZPOSITION   : 37.36299
#EDSDET      : SD
##SPECIMEN   : GMIIIA K1008[3][all]
##D2STDCMP   : K1008,(O:38.68),(Na:1.67),(Al:8.92),(Si:21.02),(Ca:6.75),(Rb:2.06),(Sr:10.05),(Zr:0.83),(Cs:2.12),(Ba:2.02),(Ho:1.96),(Tm:1.97),(Yb:1.98)
##DET_HASH   : 12273538-fd48-a23f-0a19-f1e6fa85caef
##CALIB_HASH : 6abaa72c-aa41-8738-0be9-f592914732f3
##WORKING    : 15.0 mm
##DET_NAME   : EDAX All
##DET_MODE   : MediumLE
#SPECTRUM    :
27,
22,
8,
31,
141,
412,
1143,
2740,
6318,
8539,
6646,
4957,
4829,
5414,
7967,
25003,
90917,
171777,
125311,
34251,
6128,
3632,
4095,
4238,
4219,
4438,
4702,
4851,
4916,
5084,
5140,
5557,
6257,
9712,
16041,
17405,
11293,
7288,
6660,
6623,
6429,
6272,
6437,
6822,
8638,
10229,
11576,
17950,
44364,
83134,
85657,
50265,
22527,
12175,
10130,
19002,
57130,
133623,
180532,
143113,
83662,
49051,
28920,
16581,
9582,
6328,
5151,
5110,
5057,
4726,
4185,
3940,
3768,
3692,
3704,
3746,
3583,
3380,
3343,
3094,
3104,
3027,
3114,
3013,
3107,
3087,
3088,
3002,
2978,
2949,
2972,
2986,
2947,
2927,
2784,
2874,
2852,
2819,
2875,
2925,
2799,
2866,
2720,
2711,
2697,
2739,
2783,
2929,
2865,
2828,
2713,
2744,
2618,
2595,
2572,
2628,
2722,
2791,
2924,
3540,
5757,
11476,
19513,
24210,
20871,
12520,
6058,
3278,
2459,
2336,
2495,
2976,
3597,
4467,
4808,
4114,
3130,
2427,
2186,
2225,
2436,
3117,
3659,
3873,
3431,
2943,
2553,
2891,
3438,
3588,
3247,
2824,
2621,
2493,
2690,
2698,
2410,
2175,
2097,
2187,
2435,
2539,
2590,
2271,
2268,
2103,
1957,
1840,
1732,
1609,
1743,
1808,
1817,
1824,
1727,
1682,
1657,
1545,
1532,
1554,
1478,
1501,
1537,
1618,
1586,
1485,
1468,
1411,
1356,
1373,
1328,
1350,
1374,
1361,
1370,
1326,
1335,
1319,
1327,
1210,
1247,
1220,
1206,
1188,
1174,
1188,
1182,
1218,
1172,
1148,
1132,
1140,
1159,
1166,
1212,
1100,
1159,
1098,
1136,
1129,
1184,
1253,
1430,
1619,
1636,
1475,
1386,
1153,
1049,
987,
984,
974,
971,
996,
913,
996,
1101,
1217,
1297,
1408,
1383,
1242,
1067,
1049,
1080,
1145,
1304,
1403,
1364,
1289,
1141,
1143,
1032,
975,
931,
837,
797,
791,
802,
799,
800,
820,
848,
831,
831,
793,
847,
814,
889,
922,
928,
887,
815,
759,
757,
727,
746,
768,
769,
813,
826,
864,
823,
787,
753,
721,
636,
616,
636,
658,
652,
706,
693,
640,
599,
607,
564,
555,
557,
590,
512,
546,
518,
528,
476,
507,
503,
486,
487,
467,
472,
482,
479,
523,
496,
453,
504,
539,
470,
461,
421,
440,
427,
424,
451,
466,
459,
434,
464,
409,
415,
380,
375,
365,
372,
381,
410,
336,
367,
377,
358,
368,
351,
381,
344,
354,
342,
310,
337,
327,
330,
313,
310,
309,
288,
300,
309,
300,
309,
289,
293,
266,
272,
263,
294,
283,
269,
285,
263,
250,
253,
262,
260,
216,
250,
238,
231,
247,
233,
232,
227,
205,
227,
248,
213,
209,
193,
193,
174,
193,
191,
191,
179,
211,
197,
165,
194,
186,
187,
182,
171,
157,
164,
155,
159,
153,
163,
140,
149,
154,
135,
123,
173,
144,
125,
142,
124,
118,
130,
134,
128,
136,
127,
116,
101,
139,
101,
106,
103,
89,
100,
117,
94,
107,
93,
76,
85,
94,
99,
91,
74,
71,
88,
82,
87,
64,
80,
79,
82,
69,
57,
51,
56,
69,
53,
62,
55,
54,
46,
58,
47,
47,
57,
44,
49,
38,
40,
37,
39,
30,
36,
29,
37,
24,
21,
33,
35,
30,
32,
23,
24,
19,
32,
22,
18,
17,
21,
16,
22,
13,
11,
13,
7,
11,
6,
9,
2,
8,
2,
6,
3,
1,
0,
0,
3,
1,
0,
1,
0,
0,
0,
2,
3,
1,
0,
1,
0,
2,
0,
0,
0,
1,
1,
0,
1,
1,
1,
0,
1,
1,
0,
0,
0,
1,
0,
0,
0,
0,
0,
0,
1,
0,
0,
1,
0,
0,
0,
1,
0,
0,
0,
0,
1,
1,
1,
0,
1,
0,
1,
0,
0,
0,
0,
1,
0,
1,
0,
0,
1,
0,
0,
0,
0,
0,
0,
2,
0,
0,
0,
1,
0,
1,
0,
0,
1,
0,
0,
0,
0,
0,
0,
0,
0,
0,
1,
0,
0,
0,
0,
0,
0,
0,
0,
0,
1,
0,
0,
0,
0,
0,
0,
0,
0,
1,
0,
0,
0,
0,
0,
0,
0,
2,
0,
0,
0,
0,
0,
0,
0,
0,
0,
0,
1,
0,
0,
0,
0,
1,
0,
1,
0,
0,
0,
0,
0,
0,
0,
0,
0,
0,
0,
1,
0,
0,
0,
0,
0,
0,
0,
0,
0,
0,
0,
0,
0,
0,
0,
0,
0,
0,
0,
0,
0,
0,
0,
0,
0,
0,
0,
0,
0,
0,
0,
0,
0,
0,
0,
0,
0,
0,
0,
0,
0,
0,
0,
0,
0,
0,
0,
0,
0,
0,
0,
0,
0,
0,
0,
0,
0,
0,
0,
0,
0,
0,
0,
0,
0,
0,
0,
0,
0,
0,
0,
0,
0,
0,
0,
0,
0,
0,
0,
0,
0,
0,
0,
0,
0,
0,
0,
0,
0,
0,
0,
0,
0,
0,
0,
0,
0,
0,
0,
0,
0,
0,
0,
0,
0,
0,
0,
0,
0,
0,
0,
0,
0,
0,
0,
0,
0,
0,
0,
0,
0,
0,
0,
0,
0,
0,
0,
0,
0,
0,
0,
0,
0,
0,
0,
0,
0,
0,
0,
0,
0,
0,
0,
0,
0,
0,
0,
0,
0,
0,
0,
0,
0,
0,
0,
0,
0,
0,
0,
0,
0,
0,
0,
0,
0,
0,
0,
0,
0,
0,
0,
0,
0,
0,
0,
0,
0,
0,
0,
0,
0,
0,
0,
0,
0,
0,
0,
0,
0,
0,
0,
0,
0,
0,
0,
0,
0,
0,
0,
0,
0,
0,
0,
0,
0,
0,
0,
0,
0,
0,
0,
0,
0,
0,
0,
0,
0,
0,
0,
1,
0,
0,
0,
0,
0,
0,
0,
0,
0,
0,
0,
0,
0,
0,
0,
0,
0,
0,
0,
0,
0,
0,
0,
0,
0,
0,
0,
0,
0,
0,
0,
0,
0,
0,
0,
0,
0,
0,
0,
0,
0,
0,
0,
0,
0,
0,
0,
0,
0,
0,
0,
0,
0,
0,
0,
0,
0,
0,
0,
0,
0,
0,
0,
0,
0,
0,
0,
0,
0,
0,
0,
0,
0,
0,
0,
0,
0,
0,
0,
0,
0,
0,
0,
0,
0,
0,
0,
0,
0,
0,
0,
0,
0,
0,
0,
0,
0,
0,
0,
0,
0,
0,
0,
0,
0,
0,
0,
0,
0,
0,
0,
0,
0,
0,
0,
0,
0,
0,
0,
0,
0,
0,
0,
0,
0,
0,
0,
0,
0,
0,
0,
0,
0,
0,
0,
0,
0,
0,
0,
0,
0,
0,
0,
0,
0,
0,
0,
0,
0,
0,
0,
0,
0,
0,
0,
0,
0,
0,
0,
0,
0,
0,
0,
0,
0,
0,
0,
0,
0,
0,
0,
0,
0,
0,
0,
0,
0,
0,
0,
0,
0,
0,
0,
0,
0,
0,
0,
0,
0,
0,
0,
0,
0,
0,
0,
0,
0,
0,
0,
0,
0,
0,
0,
0,
0,
0,
0,
0,
0,
0,
0,
0,
0,
0,
0,
0,
0,
0,
0,
0,
0,
0,
0,
0,
0,
0,
0,
0,
0,
0,
0,
0,
0,
0,
0,
0,
0,
0,
0,
0,
0,
0,
0,
0,
0,
0,
0,
0,
0,
0,
0,
0,
0,
0,
0,
0,
0,
0,
0,
0,
0,
0,
0,
0,
0,
0,
0,
0,
0,
0,
0,
0,
0,
0,
0,
0,
0,
0,
0,
0,
0,
0,
0,
0,
0,
0,
0,
0,
0,
0,
0,
0,
0,
0,
0,
0,
0,
0,
0,
0,
0,
0,
0,
0,
0,
0,
0,
0,
0,
0,
0,
0,
0,
0,
0,
0,
0,
0,
0,
0,
0,
0,
0,
0,
0,
0,
0,
0,
0,
0,
0,
0,
0,
0,
0,
0,
0,
0,
0,
0,
0,
0,
0,
0,
0,
0,
0,
0,
0,
0,
0,
0,
0,
0,
0,
0,
0,
0,
0,
0,
0,
0,
0,
0,
0,
0,
0,
0,
0,
0,
0,
0,
0,
0,
0,
0,
0,
0,
0,
0,
0,
0,
0,
0,
0,
0,
0,
0,
0,
0,
0,
0,
0,
0,
0,
0,
0,
0,
0,
0,
0,
0,
0,
0,
0,
0,
0,
0,
0,
0,
0,
0,
0,
0,
0,
0,
0,
0,
0,
0,
0,
0,
0,
0,
0,
0,
0,
0,
0,
0,
0,
0,
0,
0,
0,
0,
0,
0,
0,
0,
0,
0,
0,
0,
0,
0,
0,
0,
0,
0,
0,
0,
0,
0,
0,
0,
0,
0,
0,
0,
0,
0,
0,
0,
0,
0,
0,
0,
0,
0,
0,
0,
0,
0,
0,
0,
0,
0,
0,
0,
0,
0,
0,
0,
0,
0,
0,
0,
0,
0,
0,
0,
0,
0,
#ENDOFDATA   :