File: N132962/Quantification/15 keV/GMIIIA/GMIIIA K229[4][4].msa
#FORMAT      : EMSA/MAS Spectral Data File
#VERSION     : 1.0
#TITLE       : GMIIIA K229[4][all]
#DATE        : 22-SEP-2025
#TIME        : 14:28
#OWNER       : Unknown
#NPOINTS     : 4096
#NCOLUMNS    : 1
#XUNITS      : eV
#YUNITS      : counts
#DATATYPE    : Y
#XPERCHAN    : 9.99778
#OFFSET      : 1.69135
#BEAMKV      : 15
#SIGNALTYPE  : EDS
#ELEVANGLE   : 35
#AZIMANGLE   : 0
#LIVETIME    : 239.905
#REALTIME    : 260.137
#PROBECUR    : 1.21983
#TAUWIND     : 0
#TDEADLYR    : 0
#TACTLYR     : 0.045
#TALWIND     : 0.025
#CHOFFSET    : 0.0
#XLABEL      : Energy (eV)
#YLABEL      : Counts
#XPOSITION   : 5.9628
#YPOSITION   : 0.70012
#ZPOSITION   : 37.36299
#EDSDET      : SD
##SPECIMEN   : GMIIIA K229[4][all]
##D2STDCMP   : K229,(O:20.99),(Si:14.02),(Pb:64.98)
##DET_HASH   : 12273538-fd48-a23f-0a19-f1e6fa85caef
##CALIB_HASH : 6abaa72c-aa41-8738-0be9-f592914732f3
##WORKING    : 15.0 mm
##DET_NAME   : EDAX All
##DET_MODE   : MediumLE
#SPECTRUM    :
35,
40,
18,
45,
239,
877,
2553,
5746,
11682,
13879,
9659,
7187,
7011,
7208,
8445,
17678,
51249,
90513,
67136,
22431,
9650,
8003,
8222,
8553,
7915,
6967,
7046,
7137,
7530,
7501,
7714,
7716,
8109,
8182,
8531,
8360,
8631,
8456,
8808,
8685,
8951,
8972,
9250,
9226,
9487,
9598,
9476,
9654,
9950,
10295,
10468,
10079,
10340,
10115,
10944,
17195,
44885,
103840,
139370,
103292,
51722,
28335,
18432,
12005,
8687,
8021,
7633,
7483,
7273,
7405,
8044,
8521,
9259,
10586,
12218,
18742,
41933,
88441,
129319,
125039,
99159,
89374,
76415,
45840,
19586,
9139,
7226,
8824,
10492,
10179,
8023,
5957,
4973,
4899,
4878,
4807,
5172,
5036,
5131,
5212,
5491,
5851,
6110,
6288,
5906,
5625,
5212,
4736,
4721,
4443,
4378,
4533,
4313,
4524,
4388,
4390,
4493,
4625,
4379,
4443,
4424,
4386,
4304,
4344,
4352,
4233,
4342,
4232,
4141,
4143,
3955,
4016,
4010,
4000,
4062,
4154,
4196,
4118,
4210,
4268,
3985,
3869,
3986,
3857,
3906,
3906,
3913,
3890,
3906,
3925,
4027,
3961,
3911,
3851,
3692,
3812,
3849,
3729,
3746,
3636,
3663,
3668,
3577,
3535,
3519,
3569,
3444,
3461,
3500,
3336,
3446,
3361,
3488,
3361,
3339,
3233,
3295,
3225,
3181,
3218,
3243,
3269,
3245,
3084,
3259,
3109,
3129,
2980,
3069,
3115,
3076,
2969,
2981,
2942,
2944,
3037,
2906,
2907,
2920,
2893,
2867,
2865,
2879,
2783,
2926,
2787,
2703,
2700,
2616,
2650,
2748,
2725,
2660,
2780,
2755,
2709,
2660,
2519,
2546,
2521,
2494,
2477,
2533,
2409,
2468,
2493,
2431,
2404,
2433,
2418,
2369,
2416,
2300,
2361,
2348,
2307,
2272,
2312,
2263,
2217,
2168,
2178,
2274,
2186,
2230,
2234,
2148,
2126,
2177,
2112,
2145,
2118,
2083,
2069,
1957,
2015,
1966,
2070,
1967,
1957,
1880,
1968,
1900,
1894,
1868,
1920,
1897,
1817,
1759,
1798,
1845,
1778,
1756,
1688,
1793,
1695,
1714,
1730,
1731,
1708,
1606,
1722,
1562,
1647,
1614,
1583,
1652,
1631,
1590,
1576,
1625,
1596,
1565,
1564,
1525,
1513,
1433,
1480,
1452,
1452,
1518,
1456,
1506,
1406,
1470,
1459,
1463,
1446,
1437,
1413,
1313,
1340,
1277,
1292,
1254,
1286,
1246,
1283,
1247,
1271,
1257,
1251,
1311,
1188,
1194,
1171,
1208,
1129,
1166,
1156,
1177,
1125,
1142,
1095,
1091,
1090,
1122,
1135,
1063,
1018,
1020,
1035,
1060,
1017,
1011,
1134,
1149,
1378,
1567,
1808,
2033,
2217,
2224,
1914,
1597,
1403,
1095,
989,
982,
884,
914,
833,
851,
856,
835,
835,
826,
786,
788,
786,
760,
818,
755,
773,
745,
765,
774,
701,
682,
731,
682,
676,
715,
676,
650,
679,
645,
639,
636,
598,
614,
615,
598,
599,
582,
592,
550,
581,
556,
539,
587,
552,
520,
547,
543,
551,
519,
536,
492,
469,
461,
469,
471,
489,
444,
458,
477,
509,
555,
615,
617,
639,
526,
543,
475,
443,
378,
365,
368,
380,
357,
367,
351,
370,
373,
317,
327,
302,
311,
310,
284,
289,
287,
266,
249,
253,
258,
266,
229,
234,
231,
219,
202,
210,
201,
206,
213,
215,
179,
207,
183,
193,
178,
178,
161,
130,
171,
135,
144,
148,
144,
112,
137,
146,
115,
95,
98,
107,
94,
77,
87,
84,
101,
58,
80,
58,
61,
60,
52,
45,
44,
45,
39,
34,
31,
19,
16,
21,
8,
15,
13,
4,
6,
4,
6,
4,
4,
4,
2,
1,
2,
1,
3,
2,
3,
4,
2,
5,
2,
1,
2,
2,
0,
4,
3,
1,
1,
2,
3,
1,
2,
0,
2,
4,
2,
3,
4,
1,
2,
2,
3,
1,
2,
0,
1,
3,
0,
3,
2,
2,
0,
4,
1,
4,
2,
1,
1,
1,
4,
1,
0,
4,
3,
2,
0,
1,
0,
0,
2,
1,
3,
3,
1,
1,
1,
1,
4,
1,
1,
0,
1,
1,
2,
0,
1,
2,
0,
0,
0,
2,
1,
0,
1,
0,
2,
1,
1,
1,
1,
2,
0,
1,
0,
0,
1,
1,
1,
1,
1,
3,
1,
2,
1,
0,
1,
0,
1,
1,
3,
0,
0,
0,
2,
1,
1,
1,
0,
0,
1,
0,
0,
2,
0,
1,
2,
0,
0,
1,
1,
1,
0,
0,
0,
1,
1,
0,
1,
0,
0,
2,
1,
1,
1,
1,
1,
0,
2,
2,
1,
1,
0,
1,
0,
1,
0,
0,
0,
0,
0,
0,
1,
3,
0,
0,
0,
0,
2,
1,
2,
1,
0,
1,
0,
1,
0,
1,
0,
0,
0,
0,
0,
0,
0,
1,
0,
0,
0,
0,
0,
0,
0,
0,
1,
1,
0,
1,
0,
0,
0,
0,
0,
0,
0,
0,
0,
0,
1,
1,
0,
0,
1,
1,
0,
0,
0,
1,
0,
0,
0,
0,
1,
1,
1,
0,
0,
0,
0,
2,
1,
0,
0,
0,
0,
0,
0,
0,
0,
0,
0,
1,
0,
0,
0,
0,
1,
0,
0,
1,
0,
0,
0,
0,
0,
1,
0,
0,
0,
0,
0,
0,
1,
0,
0,
0,
0,
0,
0,
1,
0,
0,
0,
0,
0,
0,
0,
0,
0,
0,
0,
0,
0,
0,
0,
0,
0,
0,
0,
0,
0,
0,
0,
0,
0,
0,
0,
0,
0,
0,
0,
0,
0,
0,
0,
0,
0,
0,
0,
0,
0,
0,
0,
0,
0,
0,
0,
0,
0,
1,
0,
0,
0,
0,
0,
0,
0,
0,
0,
0,
0,
0,
0,
0,
0,
0,
0,
0,
0,
0,
0,
0,
0,
0,
0,
0,
0,
0,
0,
0,
0,
0,
1,
0,
0,
0,
0,
1,
0,
0,
0,
0,
0,
0,
0,
0,
0,
0,
0,
0,
0,
0,
0,
0,
0,
0,
0,
0,
0,
0,
0,
0,
0,
0,
0,
0,
0,
0,
0,
0,
0,
0,
0,
0,
0,
0,
0,
0,
0,
0,
0,
0,
0,
0,
0,
0,
0,
0,
0,
0,
0,
0,
0,
0,
0,
0,
0,
0,
0,
0,
0,
0,
0,
0,
0,
0,
0,
0,
0,
0,
0,
0,
0,
0,
0,
0,
0,
0,
0,
0,
0,
0,
0,
0,
0,
0,
0,
0,
0,
0,
0,
0,
0,
0,
0,
0,
0,
0,
0,
0,
0,
0,
0,
0,
0,
0,
0,
0,
0,
0,
0,
0,
0,
0,
0,
0,
0,
0,
0,
0,
0,
0,
0,
0,
0,
0,
0,
0,
0,
0,
0,
0,
0,
0,
0,
0,
0,
0,
0,
0,
0,
0,
0,
0,
0,
0,
0,
0,
0,
0,
0,
0,
0,
0,
0,
0,
0,
0,
0,
0,
0,
0,
0,
0,
0,
0,
0,
0,
0,
0,
0,
0,
0,
0,
0,
0,
0,
0,
0,
0,
0,
0,
0,
0,
0,
0,
0,
0,
0,
0,
0,
0,
0,
0,
0,
0,
0,
0,
0,
0,
0,
0,
0,
0,
0,
0,
0,
0,
0,
0,
0,
0,
0,
0,
0,
0,
0,
0,
0,
0,
0,
0,
0,
0,
0,
0,
0,
0,
0,
0,
0,
0,
0,
0,
0,
0,
0,
0,
0,
0,
0,
0,
0,
0,
0,
0,
0,
0,
0,
0,
0,
0,
0,
0,
0,
0,
0,
0,
0,
0,
0,
0,
0,
0,
0,
0,
0,
0,
0,
0,
0,
0,
0,
0,
0,
0,
0,
0,
0,
0,
0,
0,
0,
0,
0,
0,
0,
0,
0,
0,
0,
0,
0,
0,
0,
0,
0,
0,
0,
0,
0,
0,
0,
0,
0,
0,
0,
0,
0,
0,
0,
0,
0,
0,
0,
0,
0,
0,
0,
0,
0,
0,
0,
0,
0,
0,
0,
0,
0,
0,
0,
0,
0,
0,
0,
0,
0,
0,
0,
0,
0,
0,
0,
0,
0,
0,
0,
0,
0,
0,
0,
0,
0,
0,
0,
0,
0,
0,
0,
0,
0,
0,
0,
0,
0,
0,
0,
0,
0,
0,
0,
0,
0,
0,
0,
0,
0,
0,
0,
0,
0,
0,
0,
0,
0,
0,
0,
0,
0,
0,
0,
0,
0,
0,
0,
0,
0,
0,
0,
0,
0,
0,
0,
0,
0,
0,
0,
0,
0,
0,
0,
0,
0,
0,
0,
0,
0,
0,
0,
0,
0,
0,
0,
0,
0,
0,
0,
0,
0,
0,
0,
0,
0,
0,
0,
0,
0,
0,
0,
0,
0,
0,
0,
0,
0,
0,
0,
0,
0,
0,
0,
0,
0,
0,
0,
0,
0,
0,
0,
0,
0,
0,
0,
0,
0,
0,
0,
0,
0,
0,
0,
0,
0,
0,
0,
0,
0,
0,
0,
0,
0,
0,
0,
0,
0,
0,
0,
0,
0,
0,
0,
0,
0,
0,
0,
0,
0,
0,
#ENDOFDATA   :