File: N132962/Quantification/15 keV/GMIIIA/GMIIIA K253[6][4].msa
#FORMAT      : EMSA/MAS Spectral Data File
#VERSION     : 1.0
#TITLE       : GMIIIA K253[6][all]
#DATE        : 22-SEP-2025
#TIME        : 14:46
#OWNER       : Unknown
#NPOINTS     : 4096
#NCOLUMNS    : 1
#XUNITS      : eV
#YUNITS      : counts
#DATATYPE    : Y
#XPERCHAN    : 9.99778
#OFFSET      : 1.69135
#BEAMKV      : 15
#SIGNALTYPE  : EDS
#ELEVANGLE   : 35
#AZIMANGLE   : 0
#LIVETIME    : 239.863
#REALTIME    : 257.003
#PROBECUR    : 1.21732
#TAUWIND     : 0
#TDEADLYR    : 0
#TACTLYR     : 0.045
#TALWIND     : 0.025
#CHOFFSET    : 0.0
#XLABEL      : Energy (eV)
#YLABEL      : Counts
#XPOSITION   : 2.60685
#YPOSITION   : 2.30688
#ZPOSITION   : 37.36299
#EDSDET      : SD
##SPECIMEN   : GMIIIA K253[6][all]
##D2STDCMP   : K253,(O:31.64),(Si:18.7),(Mn:6.32),(Co:1.97),(Cu:2.0),(Zn:8.03),(Ba:31.35)
##DET_HASH   : 12273538-fd48-a23f-0a19-f1e6fa85caef
##CALIB_HASH : 6abaa72c-aa41-8738-0be9-f592914732f3
##WORKING    : 15.0 mm
##DET_NAME   : EDAX All
##DET_MODE   : MediumLE
#SPECTRUM    :
38,
38,
14,
29,
167,
602,
1637,
3660,
7713,
9986,
7497,
6318,
7006,
8462,
12455,
35193,
120310,
222954,
164255,
52554,
19250,
15547,
11753,
8151,
8207,
11769,
13768,
10847,
7758,
8115,
10700,
14060,
18472,
28240,
32659,
21898,
10234,
6240,
5134,
4898,
4853,
4935,
5140,
5091,
5219,
5255,
5357,
5464,
5845,
6178,
6251,
6315,
6287,
6317,
7119,
13708,
42806,
104156,
140292,
100239,
42421,
16557,
9051,
6191,
4650,
4442,
4270,
4330,
4342,
4264,
4362,
4358,
4375,
4436,
4584,
4818,
4855,
4689,
4535,
4248,
4320,
4206,
4241,
4108,
4277,
4232,
4178,
4125,
4117,
4286,
4253,
4263,
4224,
4023,
3985,
3963,
3928,
3799,
3735,
3875,
3914,
3803,
3824,
3678,
3698,
3757,
3599,
3495,
3555,
3526,
3557,
3499,
3584,
3482,
3436,
3487,
3501,
3493,
3248,
3375,
3165,
3279,
3235,
3130,
3155,
3128,
3021,
3016,
3117,
3281,
3650,
3968,
4049,
3762,
3430,
3153,
2924,
2924,
2937,
2950,
2817,
2804,
3050,
3195,
3665,
5401,
10060,
18846,
28406,
32306,
26605,
16044,
8046,
4252,
2911,
2656,
2714,
3510,
5505,
9077,
13505,
16137,
14908,
11345,
7834,
5682,
4415,
3538,
3132,
3696,
4980,
6194,
6921,
6063,
4620,
3288,
2500,
2142,
2184,
2042,
2110,
2289,
2737,
3424,
3639,
3750,
3139,
2555,
2107,
1997,
2022,
2307,
2895,
3875,
5699,
7945,
9802,
9462,
7359,
4927,
3064,
2202,
1769,
1591,
1571,
1597,
1559,
1581,
1545,
1650,
1585,
1604,
1699,
1893,
2123,
2403,
2501,
2324,
2154,
1864,
1629,
1529,
1434,
1339,
1406,
1405,
1470,
1656,
1883,
2329,
2732,
2824,
2449,
2173,
1693,
1401,
1344,
1274,
1275,
1233,
1193,
1168,
1194,
1184,
1165,
1177,
1215,
1185,
1228,
1157,
1209,
1257,
1239,
1258,
1285,
1341,
1227,
1155,
1114,
1110,
1062,
1116,
1105,
1121,
1237,
1395,
1710,
1810,
2007,
1931,
1629,
1329,
1118,
1101,
949,
948,
888,
927,
886,
866,
927,
917,
1028,
1233,
1655,
2267,
2928,
3624,
3611,
3202,
2326,
1684,
1239,
945,
944,
911,
936,
884,
899,
834,
847,
766,
780,
741,
764,
732,
796,
712,
723,
690,
726,
706,
692,
670,
751,
781,
870,
972,
965,
1042,
939,
904,
831,
732,
642,
609,
629,
588,
600,
602,
583,
569,
613,
567,
551,
585,
559,
577,
551,
479,
532,
469,
531,
516,
535,
489,
516,
502,
473,
458,
532,
430,
465,
451,
450,
477,
471,
445,
458,
422,
451,
438,
427,
436,
408,
435,
408,
423,
393,
403,
392,
373,
369,
394,
363,
383,
349,
348,
346,
382,
321,
332,
379,
321,
332,
315,
316,
325,
347,
296,
266,
294,
281,
278,
251,
283,
304,
236,
294,
252,
299,
270,
260,
283,
278,
244,
214,
271,
225,
229,
243,
267,
223,
213,
217,
200,
194,
216,
210,
213,
206,
173,
205,
209,
190,
176,
190,
167,
177,
139,
158,
186,
167,
157,
134,
156,
150,
125,
129,
164,
153,
113,
128,
117,
117,
118,
111,
120,
116,
104,
99,
103,
104,
99,
94,
103,
77,
82,
101,
89,
74,
77,
65,
60,
79,
62,
68,
57,
67,
60,
50,
53,
56,
43,
52,
43,
53,
54,
34,
48,
39,
32,
30,
34,
28,
37,
30,
19,
27,
15,
17,
16,
18,
19,
11,
8,
12,
7,
3,
1,
4,
3,
2,
4,
2,
2,
2,
2,
4,
3,
0,
1,
0,
3,
0,
1,
2,
2,
3,
2,
1,
2,
0,
1,
1,
2,
2,
1,
1,
1,
2,
0,
0,
3,
2,
1,
1,
2,
0,
1,
0,
0,
0,
0,
1,
4,
0,
0,
0,
1,
1,
0,
0,
0,
0,
1,
0,
1,
0,
2,
0,
0,
1,
2,
0,
1,
0,
1,
2,
1,
0,
1,
0,
2,
0,
1,
1,
1,
1,
0,
1,
0,
0,
0,
1,
0,
0,
0,
2,
0,
1,
0,
0,
0,
0,
0,
0,
0,
1,
0,
1,
1,
0,
0,
1,
0,
1,
0,
1,
1,
1,
1,
0,
0,
2,
0,
0,
0,
1,
0,
0,
0,
0,
0,
1,
1,
0,
1,
0,
0,
0,
0,
0,
0,
0,
0,
0,
0,
1,
1,
0,
0,
0,
0,
0,
0,
0,
0,
0,
1,
0,
0,
1,
0,
1,
0,
0,
0,
0,
1,
0,
0,
0,
1,
0,
0,
0,
0,
1,
0,
0,
0,
0,
1,
0,
0,
0,
2,
0,
0,
0,
0,
0,
0,
0,
0,
0,
0,
0,
0,
0,
0,
0,
0,
0,
0,
0,
0,
0,
0,
0,
0,
0,
0,
0,
0,
0,
0,
0,
0,
0,
0,
0,
0,
1,
0,
0,
0,
0,
0,
0,
1,
0,
1,
0,
0,
0,
0,
0,
0,
0,
1,
0,
0,
0,
0,
0,
0,
0,
0,
0,
0,
0,
0,
0,
0,
0,
0,
0,
0,
0,
0,
0,
0,
0,
0,
0,
0,
0,
0,
0,
0,
0,
0,
0,
0,
0,
0,
0,
0,
0,
0,
0,
0,
0,
0,
0,
0,
0,
0,
0,
0,
0,
0,
0,
0,
0,
0,
0,
0,
0,
0,
0,
0,
0,
0,
0,
0,
0,
0,
0,
0,
0,
0,
0,
0,
1,
0,
0,
0,
0,
0,
0,
0,
0,
0,
0,
0,
0,
0,
0,
0,
0,
0,
0,
0,
0,
0,
0,
0,
0,
0,
0,
0,
0,
0,
0,
0,
0,
0,
0,
0,
0,
0,
0,
0,
0,
0,
0,
0,
0,
0,
0,
0,
0,
0,
0,
0,
0,
0,
0,
0,
0,
0,
0,
0,
0,
0,
0,
0,
0,
0,
0,
0,
0,
0,
0,
0,
0,
0,
0,
0,
0,
0,
0,
0,
0,
0,
0,
0,
0,
0,
0,
0,
0,
0,
0,
0,
0,
0,
0,
0,
0,
0,
0,
0,
0,
0,
0,
0,
0,
0,
0,
0,
0,
0,
0,
0,
0,
0,
0,
0,
0,
0,
0,
0,
0,
0,
0,
0,
0,
0,
0,
0,
0,
0,
0,
0,
0,
0,
0,
0,
0,
0,
0,
0,
0,
0,
0,
0,
0,
0,
0,
0,
0,
0,
0,
0,
0,
0,
0,
0,
0,
0,
0,
0,
0,
0,
0,
0,
0,
0,
0,
0,
0,
0,
0,
0,
0,
0,
0,
0,
0,
0,
0,
0,
0,
0,
0,
0,
0,
0,
0,
0,
0,
0,
0,
0,
0,
0,
0,
0,
0,
0,
0,
0,
0,
0,
0,
0,
0,
0,
0,
0,
0,
0,
0,
0,
0,
0,
0,
0,
0,
0,
0,
0,
0,
0,
0,
0,
0,
0,
0,
0,
0,
0,
0,
0,
0,
0,
0,
0,
0,
0,
0,
0,
0,
0,
0,
0,
0,
0,
0,
0,
0,
0,
0,
0,
0,
0,
0,
0,
0,
0,
0,
0,
0,
0,
0,
0,
0,
0,
0,
0,
0,
0,
0,
0,
0,
0,
0,
0,
0,
0,
0,
0,
0,
0,
0,
0,
0,
0,
0,
0,
0,
0,
0,
0,
0,
0,
0,
0,
0,
0,
0,
0,
0,
0,
0,
0,
0,
0,
0,
0,
0,
0,
0,
0,
0,
0,
0,
0,
0,
0,
0,
0,
0,
0,
0,
0,
0,
0,
0,
0,
0,
0,
0,
0,
0,
0,
0,
0,
0,
0,
0,
0,
0,
0,
0,
0,
0,
0,
0,
0,
0,
0,
0,
0,
0,
0,
0,
0,
0,
0,
0,
0,
0,
0,
0,
0,
0,
0,
0,
0,
0,
0,
0,
0,
0,
0,
0,
0,
0,
0,
0,
0,
0,
0,
0,
0,
0,
0,
0,
0,
0,
0,
0,
0,
0,
0,
0,
0,
0,
0,
0,
0,
0,
0,
0,
0,
0,
0,
0,
0,
0,
0,
0,
0,
0,
0,
0,
0,
0,
0,
0,
0,
0,
0,
0,
0,
0,
0,
0,
0,
0,
0,
0,
0,
0,
0,
0,
0,
0,
0,
0,
0,
0,
0,
0,
0,
0,
0,
0,
0,
0,
0,
0,
0,
0,
0,
0,
0,
0,
0,
0,
0,
0,
0,
0,
0,
0,
0,
0,
0,
0,
0,
0,
0,
0,
0,
0,
0,
0,
0,
0,
0,
0,
0,
0,
0,
0,
0,
0,
0,
0,
0,
0,
0,
0,
0,
0,
0,
0,
0,
0,
0,
0,
0,
0,
0,
0,
0,
0,
0,
0,
0,
0,
0,
0,
0,
0,
0,
0,
0,
0,
0,
0,
0,
0,
0,
0,
0,
0,
0,
0,
0,
0,
0,
0,
0,
0,
0,
0,
0,
0,
0,
0,
0,
0,
0,
0,
0,
0,
0,
0,
0,
0,
0,
0,
0,
0,
0,
0,
0,
0,
0,
#ENDOFDATA   :