File: N132962/Quantification/15 keV/GMIIIA/GMIIIA K227[6][4].msa
#FORMAT      : EMSA/MAS Spectral Data File
#VERSION     : 1.0
#TITLE       : GMIIIA K227[6][all]
#DATE        : 22-SEP-2025
#TIME        : 14:22
#OWNER       : Unknown
#NPOINTS     : 4096
#NCOLUMNS    : 1
#XUNITS      : eV
#YUNITS      : counts
#DATATYPE    : Y
#XPERCHAN    : 9.99778
#OFFSET      : 1.69135
#BEAMKV      : 15
#SIGNALTYPE  : EDS
#ELEVANGLE   : 35
#AZIMANGLE   : 0
#LIVETIME    : 239.691
#REALTIME    : 260.908
#PROBECUR    : 1.21983
#TAUWIND     : 0
#TDEADLYR    : 0
#TACTLYR     : 0.045
#TALWIND     : 0.025
#CHOFFSET    : 0.0
#XLABEL      : Energy (eV)
#YLABEL      : Counts
#XPOSITION   : 7.71645
#YPOSITION   : 0.31984
#ZPOSITION   : 37.36299
#EDSDET      : SD
##SPECIMEN   : GMIIIA K227[6][all]
##D2STDCMP   : K227,(O:16.39),(Si:9.35),(Pb:74.27)
##DET_HASH   : 12273538-fd48-a23f-0a19-f1e6fa85caef
##CALIB_HASH : 6abaa72c-aa41-8738-0be9-f592914732f3
##WORKING    : 15.0 mm
##DET_NAME   : EDAX All
##DET_MODE   : MediumLE
#SPECTRUM    :
38,
27,
16,
54,
304,
1182,
3114,
6941,
12999,
15629,
10927,
7851,
7256,
7506,
8542,
15590,
41855,
73824,
54800,
19799,
10387,
9926,
10875,
11286,
9175,
7503,
7475,
7813,
7849,
8259,
8378,
8507,
8804,
8749,
8959,
8951,
9011,
9129,
9287,
9480,
9618,
9971,
9870,
9974,
10229,
10330,
10443,
10299,
10561,
10862,
10913,
10705,
10704,
10685,
11206,
15493,
35304,
77208,
101530,
77333,
42697,
27607,
19207,
12720,
9898,
8896,
8734,
8441,
8487,
8631,
8722,
9655,
10739,
11770,
14285,
21879,
49146,
104409,
152874,
147495,
117143,
106025,
90236,
53723,
22819,
10032,
8150,
9813,
11804,
11233,
8849,
6591,
5501,
5179,
5207,
5298,
5389,
5562,
5754,
5654,
6071,
6438,
6777,
6801,
6607,
6140,
5613,
5250,
5044,
4813,
4758,
4825,
4931,
4722,
4818,
4756,
4957,
5001,
4914,
4650,
4759,
4631,
4605,
4775,
4605,
4725,
4760,
4659,
4599,
4454,
4470,
4385,
4324,
4542,
4498,
4543,
4526,
4565,
4496,
4385,
4397,
4497,
4386,
4224,
4281,
4225,
4315,
4104,
4297,
4418,
4494,
4399,
4227,
4218,
4099,
4159,
4259,
4186,
4214,
4266,
4327,
4030,
4129,
4014,
4043,
3861,
3866,
3899,
3873,
3827,
3733,
3744,
3730,
3821,
3653,
3762,
3734,
3587,
3625,
3615,
3637,
3649,
3581,
3479,
3501,
3422,
3484,
3575,
3420,
3442,
3363,
3408,
3373,
3354,
3382,
3306,
3254,
3287,
3352,
3208,
3116,
3076,
3220,
3142,
3070,
3125,
3201,
3139,
3020,
3075,
2975,
3112,
3031,
3053,
3053,
3054,
3017,
2908,
2974,
2747,
2803,
2842,
2916,
2826,
2758,
2750,
2754,
2665,
2645,
2693,
2669,
2689,
2591,
2683,
2728,
2640,
2607,
2609,
2539,
2493,
2501,
2449,
2448,
2562,
2416,
2481,
2458,
2438,
2475,
2321,
2440,
2394,
2339,
2249,
2267,
2221,
2279,
2303,
2299,
2226,
2336,
2255,
2155,
2229,
2077,
2160,
2091,
2106,
2091,
2101,
2123,
2050,
2075,
2084,
2004,
2000,
1986,
1974,
1959,
1955,
2003,
1876,
1869,
1956,
1827,
1777,
1849,
1823,
1782,
1783,
1703,
1744,
1770,
1800,
1763,
1702,
1668,
1687,
1749,
1733,
1648,
1639,
1628,
1621,
1714,
1685,
1724,
1638,
1646,
1620,
1564,
1542,
1602,
1564,
1557,
1437,
1432,
1442,
1441,
1447,
1421,
1463,
1408,
1372,
1348,
1345,
1402,
1333,
1381,
1305,
1291,
1300,
1330,
1301,
1328,
1253,
1201,
1282,
1268,
1172,
1232,
1197,
1140,
1238,
1254,
1281,
1395,
1580,
1861,
2230,
2437,
2647,
2644,
2293,
1902,
1548,
1321,
1090,
1123,
1094,
1016,
966,
974,
992,
1001,
940,
947,
946,
927,
882,
916,
897,
908,
869,
852,
903,
828,
849,
801,
865,
784,
772,
852,
804,
762,
743,
757,
794,
779,
764,
719,
701,
754,
700,
723,
720,
694,
636,
670,
672,
635,
607,
618,
628,
648,
608,
588,
622,
567,
546,
553,
541,
554,
525,
563,
550,
614,
661,
659,
742,
734,
730,
703,
588,
540,
501,
486,
465,
397,
419,
420,
448,
430,
419,
429,
391,
375,
375,
370,
309,
310,
343,
312,
351,
330,
301,
299,
285,
285,
287,
262,
263,
258,
267,
253,
279,
271,
221,
234,
209,
207,
207,
214,
203,
198,
200,
169,
164,
181,
163,
171,
147,
175,
153,
146,
103,
125,
129,
115,
115,
102,
112,
86,
67,
83,
89,
74,
66,
59,
59,
67,
65,
46,
45,
25,
36,
26,
20,
18,
8,
6,
10,
7,
4,
3,
10,
4,
4,
9,
2,
4,
4,
2,
5,
9,
4,
5,
2,
4,
4,
2,
4,
7,
8,
4,
3,
4,
5,
2,
2,
8,
2,
3,
1,
6,
3,
0,
0,
2,
2,
0,
4,
4,
2,
3,
4,
2,
4,
1,
3,
2,
2,
0,
1,
2,
1,
0,
0,
3,
3,
0,
4,
3,
3,
3,
2,
3,
3,
5,
2,
3,
1,
2,
2,
3,
1,
1,
2,
1,
4,
2,
0,
3,
3,
3,
0,
2,
1,
0,
0,
0,
3,
0,
2,
2,
1,
1,
1,
1,
1,
1,
3,
2,
0,
2,
3,
1,
0,
2,
2,
2,
1,
0,
4,
2,
1,
1,
2,
1,
1,
0,
1,
1,
1,
1,
2,
1,
0,
0,
0,
0,
0,
2,
1,
1,
2,
2,
0,
2,
2,
1,
1,
0,
3,
1,
1,
0,
2,
2,
0,
1,
2,
1,
1,
0,
0,
0,
1,
1,
0,
0,
0,
0,
0,
2,
0,
1,
2,
0,
0,
0,
0,
1,
1,
0,
1,
1,
0,
2,
0,
1,
0,
0,
0,
1,
0,
0,
0,
0,
1,
1,
0,
3,
0,
0,
0,
1,
2,
0,
1,
0,
0,
1,
1,
0,
1,
0,
0,
0,
0,
0,
1,
0,
1,
0,
0,
0,
0,
0,
0,
0,
0,
0,
1,
0,
1,
0,
0,
0,
0,
1,
1,
0,
0,
0,
0,
0,
1,
0,
1,
0,
0,
0,
0,
0,
1,
1,
0,
0,
0,
0,
0,
0,
0,
0,
1,
1,
0,
0,
0,
0,
0,
0,
0,
0,
0,
0,
0,
0,
1,
1,
0,
0,
0,
0,
0,
0,
0,
0,
0,
1,
0,
0,
0,
0,
0,
0,
0,
0,
0,
1,
0,
0,
1,
0,
0,
0,
0,
0,
0,
0,
0,
0,
0,
0,
0,
0,
0,
0,
0,
0,
0,
0,
0,
0,
0,
0,
0,
0,
0,
1,
0,
0,
0,
0,
0,
0,
0,
0,
0,
0,
1,
0,
0,
0,
0,
0,
0,
0,
0,
0,
0,
0,
0,
0,
1,
0,
0,
0,
0,
0,
0,
0,
0,
0,
0,
0,
0,
0,
0,
0,
0,
0,
0,
0,
0,
0,
0,
0,
0,
0,
0,
0,
0,
0,
0,
0,
0,
0,
0,
0,
0,
0,
0,
0,
0,
0,
0,
0,
0,
0,
0,
0,
0,
0,
1,
0,
0,
0,
0,
0,
0,
0,
0,
0,
0,
0,
0,
0,
0,
0,
0,
0,
0,
0,
0,
0,
0,
0,
0,
0,
0,
0,
0,
0,
0,
0,
0,
0,
0,
0,
0,
0,
0,
0,
0,
0,
0,
0,
0,
0,
0,
0,
0,
0,
0,
0,
0,
0,
0,
0,
0,
0,
0,
0,
0,
0,
0,
0,
0,
0,
0,
0,
0,
0,
0,
0,
0,
0,
0,
0,
0,
0,
0,
0,
0,
0,
0,
0,
0,
0,
0,
0,
0,
0,
0,
0,
0,
0,
0,
0,
0,
0,
0,
0,
0,
0,
0,
0,
0,
0,
0,
0,
0,
0,
0,
0,
0,
0,
0,
0,
0,
0,
0,
0,
0,
0,
0,
0,
0,
0,
0,
0,
0,
0,
0,
0,
0,
0,
0,
0,
0,
0,
0,
0,
0,
0,
0,
0,
0,
0,
0,
0,
0,
0,
0,
0,
0,
0,
0,
0,
0,
0,
0,
0,
0,
0,
0,
0,
0,
0,
0,
0,
0,
0,
0,
0,
0,
0,
0,
0,
0,
0,
0,
0,
0,
0,
0,
0,
0,
0,
0,
0,
0,
0,
0,
0,
0,
0,
0,
0,
0,
0,
0,
0,
0,
0,
0,
0,
0,
0,
0,
0,
0,
0,
0,
0,
0,
0,
0,
0,
0,
0,
0,
0,
0,
0,
0,
0,
0,
0,
0,
0,
0,
0,
0,
0,
0,
0,
0,
0,
0,
0,
0,
0,
0,
0,
0,
0,
0,
0,
0,
0,
0,
0,
0,
0,
0,
0,
0,
0,
0,
0,
0,
0,
0,
0,
0,
0,
0,
0,
0,
0,
0,
0,
0,
0,
0,
0,
0,
0,
0,
0,
0,
0,
0,
0,
0,
0,
0,
0,
0,
0,
0,
0,
0,
0,
0,
0,
0,
0,
0,
0,
0,
0,
0,
0,
0,
0,
0,
0,
0,
0,
0,
0,
0,
0,
0,
0,
0,
0,
0,
0,
0,
0,
0,
0,
0,
0,
0,
0,
0,
0,
0,
0,
0,
0,
0,
0,
0,
0,
0,
0,
0,
0,
0,
0,
0,
0,
0,
0,
0,
0,
0,
0,
0,
0,
0,
0,
0,
0,
0,
0,
0,
0,
0,
0,
0,
0,
0,
0,
0,
0,
0,
0,
0,
0,
0,
0,
0,
0,
0,
0,
0,
0,
0,
0,
0,
0,
0,
0,
0,
0,
0,
0,
0,
0,
0,
0,
0,
0,
0,
0,
0,
0,
0,
0,
0,
0,
0,
0,
0,
0,
0,
0,
0,
0,
0,
0,
0,
0,
0,
0,
0,
0,
0,
0,
0,
0,
0,
0,
0,
0,
0,
0,
0,
0,
0,
0,
0,
0,
0,
0,
0,
0,
0,
0,
0,
0,
0,
0,
0,
0,
0,
0,
0,
0,
0,
0,
0,
0,
0,
0,
0,
0,
0,
0,
0,
0,
0,
0,
0,
0,
0,
0,
0,
#ENDOFDATA   :