File: N132962/Quantification/15 keV/GMIIIA/GMIIIA K1229[6][4].msa
#FORMAT      : EMSA/MAS Spectral Data File
#VERSION     : 1.0
#TITLE       : GMIIIA K1229[6][all]
#DATE        : 22-SEP-2025
#TIME        : 22:50
#OWNER       : Unknown
#NPOINTS     : 4096
#NCOLUMNS    : 1
#XUNITS      : eV
#YUNITS      : counts
#DATATYPE    : Y
#XPERCHAN    : 9.99778
#OFFSET      : 1.69135
#BEAMKV      : 15
#SIGNALTYPE  : EDS
#ELEVANGLE   : 35
#AZIMANGLE   : 0
#LIVETIME    : 239.917
#REALTIME    : 255.986
#PROBECUR    : 1.21591
#TAUWIND     : 0
#TDEADLYR    : 0
#TACTLYR     : 0.045
#TALWIND     : 0.025
#CHOFFSET    : 0.0
#XLABEL      : Energy (eV)
#YLABEL      : Counts
#XPOSITION   : 3.96029
#YPOSITION   : 17.38086
#ZPOSITION   : 37.36299
#EDSDET      : SD
##SPECIMEN   : GMIIIA K1229[6][all]
##D2STDCMP   : K1229,(O:41.02),(Mg:1.77),(Al:9.34),(Si:22.0),(Ca:10.51),(Sr:7.46),(Ba:7.9)
##DET_HASH   : 12273538-fd48-a23f-0a19-f1e6fa85caef
##CALIB_HASH : 6abaa72c-aa41-8738-0be9-f592914732f3
##WORKING    : 15.0 mm
##DET_NAME   : EDAX All
##DET_MODE   : MediumLE
#SPECTRUM    :
21,
24,
7,
26,
115,
381,
1084,
2786,
6261,
9109,
7511,
5501,
4909,
5246,
8042,
25561,
94632,
180277,
131007,
35395,
6608,
3570,
3733,
3917,
3835,
4576,
4840,
4782,
4466,
4460,
4474,
4644,
5263,
5672,
6137,
6057,
5696,
5203,
5421,
6171,
9328,
16106,
18737,
13064,
7728,
6390,
7104,
13697,
38765,
76019,
77032,
41628,
16785,
8864,
7795,
15194,
51722,
131500,
181679,
139724,
76150,
41242,
23827,
13739,
8018,
5455,
4293,
3839,
3296,
3191,
3138,
3171,
3274,
3198,
3469,
3579,
3637,
3413,
3174,
2992,
3037,
2868,
2959,
2952,
2940,
2846,
2877,
2801,
2847,
2848,
2811,
2837,
2730,
2729,
2674,
2691,
2669,
2633,
2773,
2728,
2634,
2681,
2608,
2588,
2671,
2611,
2624,
2654,
2602,
2577,
2445,
2429,
2477,
2428,
2412,
2514,
2592,
2803,
2865,
3807,
7349,
16136,
28997,
36201,
30697,
17941,
7928,
3537,
2453,
2345,
2516,
3170,
4534,
5771,
6150,
5193,
3618,
2464,
2094,
1888,
1814,
1822,
1824,
1843,
1892,
2274,
3339,
5214,
7448,
8372,
7029,
4651,
2913,
2001,
1699,
1613,
1620,
1836,
2225,
2946,
3941,
4529,
4390,
3495,
2786,
2210,
1991,
1689,
1630,
1699,
1960,
2337,
2497,
2295,
1928,
1644,
1412,
1352,
1324,
1352,
1422,
1423,
1498,
1583,
1643,
1749,
1530,
1383,
1281,
1233,
1184,
1272,
1309,
1335,
1366,
1294,
1222,
1102,
1185,
1123,
1074,
1118,
1032,
1081,
1049,
1063,
1031,
1017,
1047,
1019,
938,
1017,
1020,
974,
1012,
1000,
1028,
957,
922,
995,
893,
909,
850,
946,
911,
921,
823,
863,
823,
865,
819,
804,
815,
846,
796,
803,
797,
818,
754,
730,
818,
772,
737,
794,
768,
741,
694,
736,
751,
765,
745,
702,
730,
714,
707,
665,
666,
723,
698,
662,
709,
683,
698,
606,
675,
613,
616,
651,
664,
618,
590,
670,
597,
622,
598,
587,
617,
588,
561,
593,
568,
562,
549,
558,
561,
540,
525,
522,
501,
532,
488,
514,
508,
516,
492,
505,
495,
460,
437,
450,
461,
440,
459,
448,
456,
458,
460,
449,
409,
457,
429,
438,
429,
420,
405,
418,
406,
413,
400,
372,
393,
384,
398,
356,
424,
397,
367,
361,
332,
341,
345,
352,
351,
340,
329,
358,
318,
328,
326,
294,
312,
333,
301,
303,
292,
275,
307,
288,
301,
289,
285,
249,
287,
259,
255,
265,
245,
285,
264,
254,
266,
242,
225,
211,
241,
217,
219,
206,
238,
245,
217,
222,
183,
188,
211,
221,
184,
181,
221,
233,
183,
204,
189,
198,
180,
182,
180,
174,
175,
181,
147,
172,
173,
162,
172,
180,
162,
160,
169,
157,
143,
142,
169,
148,
147,
138,
130,
135,
148,
117,
142,
130,
112,
110,
108,
108,
112,
105,
108,
89,
116,
101,
102,
112,
95,
88,
81,
91,
98,
104,
109,
80,
96,
88,
81,
86,
78,
84,
78,
88,
62,
61,
94,
57,
70,
78,
61,
63,
63,
56,
45,
48,
55,
60,
60,
52,
44,
44,
54,
40,
36,
33,
41,
41,
44,
44,
27,
37,
37,
34,
46,
29,
25,
31,
31,
27,
17,
30,
24,
19,
31,
13,
15,
17,
15,
13,
15,
12,
13,
8,
12,
8,
7,
4,
5,
6,
5,
5,
0,
2,
1,
0,
0,
2,
1,
0,
0,
2,
0,
0,
1,
0,
0,
0,
0,
0,
0,
1,
0,
1,
1,
0,
0,
0,
3,
0,
0,
0,
1,
0,
0,
0,
0,
0,
0,
0,
0,
0,
0,
0,
0,
0,
0,
0,
0,
0,
1,
1,
0,
0,
0,
0,
0,
0,
0,
0,
1,
0,
0,
0,
0,
0,
1,
0,
0,
0,
0,
0,
0,
0,
0,
0,
1,
0,
0,
1,
1,
0,
0,
0,
0,
0,
0,
0,
1,
0,
0,
0,
0,
0,
0,
0,
0,
0,
1,
0,
0,
0,
0,
0,
0,
0,
0,
0,
0,
1,
0,
0,
0,
0,
0,
0,
0,
0,
0,
0,
0,
0,
0,
0,
0,
0,
0,
0,
0,
0,
0,
0,
0,
0,
0,
0,
0,
0,
0,
0,
0,
0,
1,
0,
0,
0,
0,
0,
0,
0,
0,
1,
0,
0,
0,
0,
0,
0,
0,
0,
0,
0,
0,
0,
0,
0,
0,
0,
0,
0,
1,
0,
0,
0,
0,
0,
0,
0,
0,
0,
0,
0,
0,
0,
0,
0,
0,
0,
0,
0,
0,
0,
0,
0,
0,
0,
0,
0,
0,
0,
0,
0,
0,
0,
0,
0,
0,
0,
0,
0,
0,
0,
0,
0,
0,
0,
0,
0,
0,
0,
0,
0,
0,
0,
0,
0,
0,
0,
0,
1,
0,
0,
0,
0,
0,
0,
0,
0,
0,
0,
0,
0,
0,
0,
0,
0,
0,
0,
0,
0,
0,
0,
0,
0,
0,
0,
0,
0,
0,
0,
0,
0,
0,
0,
0,
0,
0,
0,
0,
0,
0,
0,
0,
0,
0,
0,
0,
0,
0,
0,
0,
0,
0,
0,
0,
0,
0,
0,
0,
0,
0,
0,
0,
0,
0,
0,
0,
0,
0,
0,
0,
0,
0,
0,
0,
0,
0,
0,
0,
0,
0,
0,
0,
0,
0,
0,
0,
0,
0,
0,
0,
0,
0,
0,
0,
0,
0,
0,
0,
0,
0,
0,
0,
0,
0,
0,
0,
0,
0,
0,
0,
0,
0,
0,
0,
0,
0,
0,
0,
0,
0,
0,
0,
0,
0,
0,
0,
0,
0,
0,
0,
0,
0,
0,
0,
0,
0,
0,
0,
0,
0,
0,
0,
0,
0,
0,
0,
0,
0,
0,
0,
0,
0,
0,
0,
0,
0,
0,
0,
0,
0,
0,
0,
0,
0,
0,
0,
0,
0,
0,
0,
0,
0,
0,
0,
0,
0,
0,
0,
0,
0,
0,
0,
0,
0,
0,
0,
0,
0,
0,
0,
0,
0,
0,
0,
0,
0,
0,
0,
0,
0,
0,
0,
0,
0,
0,
0,
0,
0,
0,
0,
0,
0,
0,
0,
0,
0,
0,
0,
0,
0,
0,
0,
0,
0,
0,
0,
0,
0,
0,
0,
0,
0,
0,
0,
0,
0,
0,
0,
0,
0,
0,
0,
0,
0,
0,
0,
0,
0,
0,
0,
0,
0,
0,
0,
0,
0,
0,
0,
0,
0,
0,
0,
0,
0,
0,
0,
0,
0,
0,
0,
0,
0,
0,
0,
0,
0,
0,
0,
0,
0,
0,
0,
0,
0,
0,
0,
0,
0,
0,
0,
0,
0,
0,
0,
0,
0,
0,
0,
0,
0,
0,
0,
0,
0,
0,
0,
0,
0,
0,
0,
0,
0,
0,
0,
0,
0,
0,
0,
0,
0,
0,
0,
0,
0,
0,
0,
0,
0,
0,
0,
0,
0,
0,
0,
0,
0,
0,
0,
0,
0,
0,
0,
0,
0,
0,
0,
0,
0,
0,
0,
0,
0,
0,
0,
0,
0,
0,
0,
0,
0,
0,
0,
0,
0,
0,
0,
0,
0,
0,
0,
0,
0,
0,
0,
0,
0,
0,
0,
0,
0,
0,
0,
0,
0,
0,
0,
0,
0,
0,
0,
0,
0,
0,
0,
0,
0,
0,
0,
0,
0,
0,
0,
0,
0,
0,
0,
0,
0,
0,
0,
0,
0,
0,
0,
0,
0,
0,
0,
0,
0,
0,
0,
0,
0,
0,
0,
0,
0,
0,
0,
0,
0,
0,
0,
0,
0,
0,
0,
0,
0,
0,
0,
0,
0,
0,
0,
0,
0,
0,
0,
0,
0,
0,
0,
0,
0,
0,
0,
0,
0,
0,
0,
0,
0,
0,
0,
0,
0,
0,
0,
0,
0,
0,
0,
0,
0,
0,
0,
0,
0,
0,
0,
0,
0,
0,
0,
0,
0,
0,
0,
0,
0,
0,
0,
0,
0,
0,
0,
0,
0,
0,
0,
0,
0,
0,
0,
0,
0,
0,
0,
0,
0,
0,
0,
0,
0,
0,
0,
0,
0,
0,
0,
0,
0,
0,
0,
0,
0,
0,
0,
0,
0,
0,
0,
0,
0,
0,
0,
0,
0,
0,
0,
0,
0,
0,
0,
0,
0,
0,
0,
0,
0,
0,
0,
0,
0,
0,
0,
0,
0,
0,
0,
0,
0,
0,
0,
0,
0,
0,
0,
0,
0,
0,
0,
0,
0,
0,
0,
0,
0,
0,
0,
0,
0,
0,
0,
0,
0,
0,
0,
0,
0,
0,
0,
0,
0,
0,
0,
0,
0,
0,
0,
0,
0,
0,
0,
0,
0,
0,
0,
0,
0,
0,
0,
0,
0,
0,
0,
0,
0,
0,
0,
0,
0,
0,
0,
0,
0,
0,
0,
0,
0,
0,
0,
0,
0,
0,
0,
0,
#ENDOFDATA   :