File: N132962/Quantification/15 keV/GMIIIA/GMIIIA K253[3][4].msa
#FORMAT      : EMSA/MAS Spectral Data File
#VERSION     : 1.0
#TITLE       : GMIIIA K253[3][all]
#DATE        : 22-SEP-2025
#TIME        : 14:43
#OWNER       : Unknown
#NPOINTS     : 4096
#NCOLUMNS    : 1
#XUNITS      : eV
#YUNITS      : counts
#DATATYPE    : Y
#XPERCHAN    : 9.99778
#OFFSET      : 1.69135
#BEAMKV      : 15
#SIGNALTYPE  : EDS
#ELEVANGLE   : 35
#AZIMANGLE   : 0
#LIVETIME    : 239.923
#REALTIME    : 257.064
#PROBECUR    : 1.21983
#TAUWIND     : 0
#TDEADLYR    : 0
#TACTLYR     : 0.045
#TALWIND     : 0.025
#CHOFFSET    : 0.0
#XLABEL      : Energy (eV)
#YLABEL      : Counts
#XPOSITION   : 2.58634
#YPOSITION   : 2.33133
#ZPOSITION   : 37.36299
#EDSDET      : SD
##SPECIMEN   : GMIIIA K253[3][all]
##D2STDCMP   : K253,(O:31.64),(Si:18.7),(Mn:6.32),(Co:1.97),(Cu:2.0),(Zn:8.03),(Ba:31.35)
##DET_HASH   : 12273538-fd48-a23f-0a19-f1e6fa85caef
##CALIB_HASH : 6abaa72c-aa41-8738-0be9-f592914732f3
##WORKING    : 15.0 mm
##DET_NAME   : EDAX All
##DET_MODE   : MediumLE
#SPECTRUM    :
25,
22,
11,
37,
149,
591,
1607,
3770,
7717,
9733,
7418,
6513,
7105,
8419,
12583,
35069,
120369,
223513,
164998,
51569,
19063,
15741,
11751,
8317,
8219,
11654,
13782,
10795,
7686,
8182,
10911,
13957,
18255,
27906,
32954,
21907,
10434,
5974,
5112,
4829,
4870,
4905,
5008,
5140,
5245,
5257,
5388,
5519,
5740,
6255,
6270,
6436,
6027,
6382,
7086,
13406,
42980,
104536,
141127,
100532,
42605,
16521,
9032,
6037,
4796,
4304,
4436,
4353,
4309,
4428,
4334,
4287,
4437,
4532,
4683,
4732,
4696,
4523,
4379,
4420,
4230,
4355,
4217,
4181,
4156,
4210,
4162,
4154,
4241,
4222,
4235,
4405,
4110,
4086,
4009,
3887,
3862,
3846,
3801,
3827,
3813,
3789,
3785,
3803,
3622,
3760,
3587,
3577,
3525,
3644,
3546,
3497,
3514,
3466,
3448,
3419,
3368,
3313,
3315,
3282,
3129,
3291,
3161,
3102,
3137,
3229,
3092,
3098,
3132,
3288,
3571,
3995,
4086,
3760,
3518,
3145,
2936,
2859,
2927,
2927,
2916,
2927,
2994,
3312,
3667,
5507,
9970,
18619,
28703,
32307,
26655,
15843,
8060,
4095,
3005,
2691,
2873,
3373,
5406,
9092,
13596,
16213,
14899,
11147,
8050,
5758,
4292,
3428,
3168,
3631,
4811,
6379,
6924,
6246,
4613,
3240,
2416,
2156,
2132,
2072,
2195,
2321,
2728,
3389,
3788,
3675,
3111,
2540,
2169,
1976,
1984,
2323,
2901,
4031,
5823,
7994,
9468,
9538,
7519,
4962,
3126,
2070,
1701,
1662,
1630,
1611,
1579,
1569,
1568,
1585,
1580,
1635,
1708,
1847,
2093,
2303,
2518,
2454,
2035,
1779,
1560,
1521,
1439,
1338,
1383,
1410,
1479,
1638,
1909,
2358,
2782,
2761,
2515,
2156,
1704,
1466,
1323,
1205,
1279,
1256,
1248,
1247,
1276,
1200,
1211,
1216,
1198,
1266,
1230,
1259,
1224,
1179,
1256,
1248,
1313,
1211,
1213,
1206,
1164,
1115,
1017,
1009,
1050,
1098,
1240,
1415,
1647,
1946,
1978,
1904,
1580,
1360,
1114,
1020,
1020,
937,
963,
903,
956,
909,
935,
954,
1012,
1276,
1622,
2273,
3013,
3531,
3617,
3168,
2302,
1703,
1198,
1021,
992,
957,
955,
886,
855,
830,
804,
796,
779,
731,
753,
740,
788,
804,
683,
699,
690,
733,
718,
692,
759,
798,
894,
936,
975,
1016,
943,
881,
799,
705,
735,
648,
601,
578,
593,
598,
591,
560,
573,
577,
600,
560,
567,
548,
554,
504,
512,
510,
509,
525,
535,
522,
520,
486,
518,
485,
508,
478,
482,
481,
445,
456,
462,
411,
450,
455,
400,
408,
422,
414,
436,
391,
388,
379,
424,
382,
358,
402,
397,
364,
373,
352,
341,
370,
371,
339,
346,
339,
329,
314,
316,
360,
313,
320,
320,
331,
288,
297,
287,
300,
304,
324,
305,
294,
296,
297,
284,
243,
267,
249,
269,
254,
234,
214,
252,
243,
234,
225,
222,
243,
210,
210,
196,
209,
213,
215,
218,
191,
163,
166,
183,
198,
179,
161,
182,
167,
166,
162,
161,
157,
148,
132,
138,
138,
134,
133,
133,
131,
131,
114,
135,
143,
127,
119,
106,
128,
126,
100,
93,
98,
91,
94,
87,
91,
81,
97,
83,
93,
90,
88,
75,
77,
67,
61,
58,
67,
62,
55,
56,
44,
46,
55,
46,
49,
47,
40,
31,
32,
38,
36,
23,
35,
30,
31,
19,
20,
21,
16,
13,
13,
12,
10,
11,
7,
3,
5,
1,
1,
1,
1,
2,
2,
1,
0,
1,
0,
3,
0,
0,
1,
0,
1,
0,
1,
1,
0,
1,
1,
0,
0,
0,
1,
1,
0,
0,
4,
0,
0,
0,
1,
0,
0,
1,
2,
0,
0,
2,
2,
1,
1,
0,
0,
0,
1,
1,
2,
1,
1,
1,
0,
0,
0,
0,
0,
1,
0,
1,
0,
1,
1,
4,
0,
1,
0,
1,
1,
0,
0,
0,
1,
1,
1,
1,
0,
1,
0,
0,
1,
2,
0,
0,
0,
0,
1,
2,
0,
0,
2,
2,
1,
0,
0,
0,
0,
0,
1,
0,
2,
0,
2,
0,
0,
1,
0,
1,
0,
0,
0,
0,
1,
0,
0,
0,
0,
1,
1,
0,
1,
0,
0,
0,
1,
0,
0,
0,
0,
0,
0,
0,
0,
0,
0,
0,
0,
0,
0,
0,
0,
1,
0,
0,
0,
0,
0,
1,
0,
0,
0,
0,
0,
0,
0,
0,
1,
1,
0,
0,
0,
0,
0,
1,
0,
0,
0,
0,
0,
0,
0,
0,
0,
0,
0,
0,
1,
0,
0,
0,
0,
0,
0,
0,
0,
0,
0,
0,
0,
1,
1,
0,
0,
0,
0,
0,
0,
0,
0,
0,
1,
0,
0,
0,
0,
0,
0,
0,
0,
0,
0,
0,
1,
0,
0,
0,
0,
0,
0,
0,
0,
0,
0,
0,
0,
0,
0,
0,
0,
0,
0,
0,
0,
0,
0,
0,
0,
0,
0,
0,
0,
0,
0,
0,
0,
0,
0,
0,
0,
0,
0,
0,
0,
0,
0,
0,
0,
0,
0,
0,
0,
0,
0,
0,
0,
0,
0,
0,
0,
0,
0,
0,
0,
0,
1,
0,
0,
0,
0,
1,
0,
0,
0,
0,
0,
0,
0,
0,
0,
0,
0,
0,
0,
0,
0,
0,
0,
0,
0,
0,
0,
0,
0,
0,
0,
0,
0,
0,
0,
0,
0,
0,
0,
0,
0,
0,
0,
0,
0,
0,
0,
0,
0,
0,
0,
0,
0,
0,
0,
0,
0,
0,
0,
0,
0,
0,
0,
0,
0,
0,
0,
0,
0,
0,
0,
0,
0,
0,
0,
0,
0,
0,
0,
0,
0,
0,
0,
0,
0,
0,
0,
0,
0,
0,
0,
0,
0,
0,
0,
0,
0,
0,
0,
0,
0,
0,
0,
0,
0,
0,
0,
0,
0,
0,
0,
0,
0,
0,
0,
0,
0,
0,
0,
0,
0,
0,
0,
0,
0,
0,
0,
0,
0,
0,
0,
0,
0,
0,
0,
0,
0,
0,
0,
0,
0,
0,
0,
0,
0,
0,
0,
0,
0,
0,
0,
0,
0,
0,
0,
0,
0,
0,
0,
0,
0,
0,
0,
0,
0,
0,
0,
0,
0,
0,
0,
0,
0,
0,
0,
0,
0,
0,
0,
0,
0,
0,
0,
0,
0,
0,
0,
0,
0,
0,
0,
0,
0,
0,
0,
0,
0,
0,
0,
0,
0,
0,
0,
0,
0,
0,
0,
0,
0,
0,
0,
0,
0,
0,
0,
0,
0,
0,
0,
0,
0,
0,
0,
0,
0,
0,
0,
0,
0,
0,
0,
0,
0,
0,
0,
0,
0,
0,
0,
0,
0,
0,
0,
0,
0,
0,
0,
0,
0,
0,
0,
0,
0,
0,
0,
0,
0,
0,
0,
0,
0,
0,
0,
0,
0,
0,
0,
0,
0,
0,
0,
0,
0,
0,
0,
0,
0,
0,
0,
0,
0,
0,
0,
0,
0,
0,
0,
0,
0,
0,
0,
0,
0,
0,
0,
0,
0,
0,
0,
0,
0,
0,
0,
0,
0,
0,
0,
0,
0,
0,
0,
0,
0,
0,
0,
0,
0,
0,
0,
0,
0,
0,
0,
0,
0,
0,
0,
0,
0,
0,
0,
0,
0,
0,
0,
0,
0,
0,
0,
0,
0,
0,
0,
0,
0,
0,
0,
0,
0,
0,
0,
0,
0,
0,
0,
0,
0,
0,
0,
0,
0,
0,
0,
0,
0,
0,
0,
0,
0,
0,
0,
0,
0,
0,
0,
0,
0,
0,
0,
0,
0,
0,
0,
0,
0,
0,
0,
0,
0,
0,
0,
0,
0,
0,
0,
0,
0,
0,
0,
0,
0,
0,
0,
0,
0,
0,
0,
0,
0,
0,
0,
0,
0,
0,
0,
0,
0,
0,
0,
0,
0,
0,
0,
0,
0,
0,
0,
0,
0,
0,
0,
0,
0,
0,
0,
0,
0,
0,
0,
0,
0,
0,
0,
0,
0,
0,
0,
0,
0,
0,
0,
0,
0,
0,
0,
0,
0,
0,
0,
0,
0,
0,
0,
0,
0,
0,
0,
0,
0,
0,
0,
0,
0,
0,
0,
0,
0,
0,
0,
0,
0,
0,
0,
0,
0,
0,
0,
0,
0,
0,
0,
0,
0,
0,
0,
0,
0,
0,
0,
0,
0,
0,
0,
0,
0,
0,
0,
0,
0,
0,
0,
0,
0,
0,
0,
0,
0,
0,
0,
0,
0,
0,
0,
0,
0,
0,
0,
0,
0,
0,
0,
0,
0,
0,
0,
0,
0,
0,
0,
0,
0,
0,
0,
0,
0,
0,
0,
0,
0,
0,
0,
0,
0,
0,
0,
0,
0,
0,
0,
0,
0,
0,
0,
0,
0,
0,
0,
0,
0,
0,
0,
0,
0,
0,
0,
0,
0,
0,
0,
0,
0,
0,
0,
0,
0,
0,
0,
0,
0,
0,
0,
#ENDOFDATA   :