File: N132962/Quantification/15 keV/GMIIIA/GMIIIA K1236[4][4].msa
#FORMAT      : EMSA/MAS Spectral Data File
#VERSION     : 1.0
#TITLE       : GMIIIA K1236[4][all]
#DATE        : 22-SEP-2025
#TIME        : 23:09
#OWNER       : Unknown
#NPOINTS     : 4096
#NCOLUMNS    : 1
#XUNITS      : eV
#YUNITS      : counts
#DATATYPE    : Y
#XPERCHAN    : 9.99778
#OFFSET      : 1.69135
#BEAMKV      : 15
#SIGNALTYPE  : EDS
#ELEVANGLE   : 35
#AZIMANGLE   : 0
#LIVETIME    : 239.92
#REALTIME    : 258.858
#PROBECUR    : 1.21388
#TAUWIND     : 0
#TDEADLYR    : 0
#TACTLYR     : 0.045
#TALWIND     : 0.025
#CHOFFSET    : 0.0
#XLABEL      : Energy (eV)
#YLABEL      : Counts
#XPOSITION   : 7.24105
#YPOSITION   : 19.01764
#ZPOSITION   : 37.36299
#EDSDET      : SD
##SPECIMEN   : GMIIIA K1236[4][all]
##D2STDCMP   : K1236,(O:21.27),(Sc:0.65),(Ge:40.95),(Pb:37.13)
##DET_HASH   : 12273538-fd48-a23f-0a19-f1e6fa85caef
##CALIB_HASH : 6abaa72c-aa41-8738-0be9-f592914732f3
##WORKING    : 15.0 mm
##DET_NAME   : EDAX All
##DET_MODE   : MediumLE
#SPECTRUM    :
24,
25,
9,
27,
187,
653,
2006,
4627,
9462,
11960,
8420,
6681,
6770,
7229,
8719,
18435,
55649,
100095,
73352,
23512,
8721,
7153,
7059,
7517,
7634,
7512,
7515,
7925,
8271,
8410,
8641,
8880,
9944,
12807,
18020,
20290,
18342,
26186,
75328,
170773,
210505,
138060,
53958,
17578,
9051,
6941,
6247,
6369,
6369,
6364,
6648,
6476,
6471,
6568,
6683,
6818,
7338,
7586,
8353,
9251,
10661,
10867,
9413,
7732,
6625,
6387,
6429,
6257,
6139,
6335,
6409,
6813,
7449,
7666,
8562,
12232,
23973,
48668,
70717,
68346,
54400,
49828,
42933,
26686,
12710,
7150,
6318,
7261,
8464,
7994,
6741,
5354,
4855,
4790,
4732,
4752,
4889,
4914,
5101,
4850,
5080,
5320,
5348,
5605,
5468,
5196,
4849,
4628,
4488,
4467,
4354,
4258,
4250,
4257,
4365,
4247,
4244,
4489,
4338,
4357,
4272,
4274,
4178,
4192,
4178,
4124,
4010,
3992,
3910,
3889,
3942,
3924,
3916,
4083,
4442,
5218,
5388,
5329,
4737,
4237,
3871,
3724,
3708,
3680,
3632,
3563,
3670,
3766,
3768,
3891,
3974,
3712,
3730,
3566,
3418,
3414,
3397,
3349,
3388,
3441,
3327,
3386,
3226,
3318,
3248,
3296,
3204,
3206,
3139,
3037,
3150,
3065,
2997,
3136,
3079,
3046,
2943,
2988,
2863,
2941,
2994,
2858,
2818,
2860,
2890,
2755,
2840,
2815,
2757,
2681,
2674,
2734,
2619,
2678,
2557,
2648,
2585,
2608,
2636,
2614,
2526,
2470,
2502,
2445,
2534,
2407,
2460,
2415,
2465,
2457,
2434,
2412,
2442,
2468,
2424,
2368,
2307,
2311,
2288,
2220,
2188,
2194,
2270,
2255,
2213,
2180,
2155,
2198,
2131,
2060,
2055,
2014,
2040,
1980,
1966,
2046,
2008,
1957,
1982,
1967,
1916,
1860,
1966,
1825,
1864,
1901,
1947,
1947,
1903,
1895,
1849,
1880,
1759,
1734,
1745,
1736,
1698,
1677,
1687,
1718,
1676,
1682,
1634,
1644,
1660,
1616,
1634,
1664,
1628,
1571,
1520,
1505,
1521,
1564,
1534,
1454,
1501,
1553,
1404,
1463,
1422,
1476,
1501,
1364,
1406,
1373,
1330,
1378,
1439,
1313,
1310,
1311,
1280,
1304,
1306,
1305,
1359,
1309,
1270,
1264,
1245,
1208,
1265,
1234,
1197,
1274,
1249,
1210,
1191,
1148,
1168,
1106,
1100,
1073,
1159,
1061,
1090,
1053,
1103,
1061,
1133,
1063,
1138,
1376,
1785,
2765,
4213,
5987,
7410,
8055,
7524,
5974,
4028,
2536,
1628,
1247,
1063,
971,
913,
928,
926,
879,
852,
877,
886,
932,
942,
996,
1140,
1347,
1413,
1549,
1459,
1341,
1211,
1045,
875,
773,
828,
756,
850,
874,
1050,
1246,
1476,
1635,
1610,
1532,
1339,
1160,
921,
721,
663,
628,
638,
594,
568,
621,
582,
572,
575,
508,
560,
533,
554,
519,
562,
522,
539,
537,
512,
464,
486,
487,
505,
492,
463,
460,
464,
477,
431,
473,
462,
440,
426,
416,
445,
435,
414,
443,
407,
426,
369,
419,
368,
373,
381,
431,
418,
488,
454,
441,
422,
406,
354,
339,
300,
310,
297,
275,
287,
290,
285,
280,
281,
269,
276,
252,
253,
208,
263,
222,
215,
205,
204,
203,
196,
204,
217,
187,
199,
194,
180,
172,
175,
154,
167,
160,
160,
141,
150,
135,
153,
130,
106,
128,
125,
141,
120,
119,
87,
104,
103,
104,
79,
85,
104,
78,
95,
89,
86,
73,
73,
64,
68,
46,
57,
52,
47,
49,
34,
34,
36,
27,
17,
25,
20,
9,
12,
6,
8,
0,
10,
6,
7,
3,
4,
3,
1,
1,
1,
4,
3,
0,
2,
1,
4,
2,
1,
7,
3,
3,
0,
2,
2,
1,
3,
5,
3,
0,
3,
0,
1,
0,
2,
1,
2,
2,
0,
0,
2,
0,
1,
0,
2,
1,
1,
1,
2,
3,
1,
1,
0,
1,
3,
0,
0,
1,
0,
1,
0,
4,
1,
3,
1,
1,
1,
2,
2,
0,
2,
1,
0,
0,
3,
1,
3,
1,
2,
0,
0,
2,
1,
1,
2,
1,
1,
0,
1,
3,
0,
2,
0,
0,
2,
3,
1,
4,
2,
1,
1,
0,
1,
1,
1,
1,
2,
2,
2,
1,
4,
1,
0,
1,
1,
1,
0,
1,
1,
1,
3,
0,
1,
2,
1,
2,
0,
0,
0,
1,
0,
0,
0,
0,
0,
1,
0,
0,
0,
0,
1,
0,
0,
0,
1,
0,
0,
3,
0,
1,
0,
0,
0,
2,
1,
2,
0,
1,
1,
2,
1,
2,
0,
0,
0,
0,
1,
1,
1,
0,
0,
1,
1,
1,
0,
2,
1,
2,
0,
0,
0,
0,
2,
2,
2,
0,
1,
1,
0,
2,
0,
0,
0,
0,
0,
0,
1,
1,
0,
0,
0,
0,
0,
1,
0,
0,
0,
0,
1,
0,
0,
0,
0,
2,
0,
0,
0,
0,
1,
0,
0,
0,
0,
0,
0,
0,
1,
0,
0,
0,
1,
0,
0,
0,
0,
0,
0,
0,
0,
0,
0,
0,
0,
0,
0,
0,
0,
0,
0,
2,
0,
0,
0,
0,
0,
1,
1,
0,
0,
0,
0,
0,
0,
0,
0,
0,
0,
0,
0,
0,
0,
0,
0,
1,
0,
0,
0,
0,
0,
0,
1,
0,
0,
1,
0,
0,
0,
0,
0,
0,
0,
0,
0,
0,
1,
0,
0,
0,
0,
0,
0,
0,
0,
0,
0,
0,
0,
0,
0,
0,
0,
0,
0,
0,
0,
0,
1,
0,
0,
0,
0,
0,
0,
0,
0,
0,
0,
0,
0,
0,
0,
0,
0,
0,
0,
0,
0,
0,
0,
0,
0,
1,
1,
0,
0,
0,
0,
0,
0,
0,
0,
0,
0,
0,
0,
0,
0,
0,
0,
0,
0,
0,
0,
0,
0,
0,
0,
0,
0,
0,
0,
0,
0,
0,
0,
0,
0,
0,
0,
0,
0,
0,
0,
0,
0,
0,
0,
0,
0,
1,
0,
0,
0,
0,
0,
0,
0,
0,
0,
0,
0,
0,
0,
0,
0,
0,
0,
0,
0,
0,
0,
0,
0,
0,
0,
0,
0,
0,
0,
0,
0,
0,
0,
0,
0,
0,
0,
0,
0,
0,
0,
0,
0,
0,
0,
0,
0,
0,
0,
0,
0,
0,
0,
0,
0,
0,
0,
0,
0,
0,
0,
0,
0,
0,
0,
0,
0,
0,
0,
0,
0,
0,
0,
0,
0,
0,
0,
0,
0,
0,
0,
0,
0,
0,
0,
0,
0,
0,
0,
0,
0,
0,
0,
0,
0,
0,
0,
0,
0,
0,
0,
0,
0,
0,
0,
0,
0,
0,
0,
0,
0,
0,
0,
0,
0,
0,
0,
0,
0,
0,
0,
0,
0,
0,
0,
0,
0,
0,
0,
0,
0,
0,
0,
0,
0,
0,
0,
0,
0,
0,
0,
0,
0,
0,
0,
0,
0,
0,
0,
0,
0,
0,
0,
0,
0,
0,
0,
0,
0,
0,
0,
0,
0,
0,
0,
0,
0,
0,
0,
0,
0,
0,
0,
0,
0,
0,
0,
0,
0,
0,
0,
0,
0,
0,
0,
0,
0,
0,
0,
0,
0,
0,
0,
0,
0,
0,
0,
0,
0,
0,
0,
0,
0,
0,
0,
0,
0,
0,
0,
0,
0,
0,
0,
0,
0,
0,
0,
0,
0,
0,
0,
0,
0,
0,
0,
0,
0,
0,
0,
0,
0,
0,
0,
0,
0,
0,
0,
0,
0,
0,
0,
0,
0,
0,
0,
0,
0,
0,
0,
0,
0,
0,
0,
0,
0,
0,
0,
0,
0,
0,
0,
0,
0,
0,
0,
0,
0,
0,
0,
0,
0,
0,
0,
0,
0,
0,
0,
0,
0,
0,
0,
0,
0,
0,
0,
0,
0,
0,
0,
0,
0,
0,
0,
0,
0,
0,
0,
0,
0,
0,
0,
0,
0,
0,
0,
0,
0,
0,
0,
0,
0,
0,
0,
0,
0,
0,
0,
0,
0,
0,
0,
0,
0,
0,
0,
0,
0,
0,
0,
0,
0,
0,
0,
0,
0,
0,
0,
0,
0,
0,
0,
0,
0,
0,
0,
0,
0,
0,
0,
0,
0,
0,
0,
0,
0,
0,
0,
0,
0,
0,
0,
0,
0,
0,
0,
0,
0,
0,
0,
0,
0,
0,
0,
0,
0,
0,
0,
0,
0,
0,
0,
0,
0,
0,
0,
0,
0,
0,
0,
0,
0,
0,
0,
0,
0,
0,
0,
0,
0,
0,
0,
0,
0,
0,
0,
0,
0,
0,
0,
0,
0,
0,
0,
0,
0,
0,
0,
0,
0,
0,
0,
0,
0,
0,
0,
0,
0,
0,
0,
0,
0,
0,
0,
0,
0,
0,
0,
0,
0,
0,
0,
0,
0,
0,
0,
0,
0,
0,
0,
0,
0,
0,
0,
0,
0,
0,
0,
0,
0,
0,
0,
0,
0,
0,
0,
0,
0,
0,
0,
0,
0,
0,
0,
0,
0,
0,
#ENDOFDATA   :