File: N132962/Quantification/15 keV/GMIIIA/GMIIIA K309[4][4].msa
#FORMAT      : EMSA/MAS Spectral Data File
#VERSION     : 1.0
#TITLE       : GMIIIA K309[4][all]
#DATE        : 22-SEP-2025
#TIME        : 15:24
#OWNER       : Unknown
#NPOINTS     : 4096
#NCOLUMNS    : 1
#XUNITS      : eV
#YUNITS      : counts
#DATATYPE    : Y
#XPERCHAN    : 9.99778
#OFFSET      : 1.69135
#BEAMKV      : 15
#SIGNALTYPE  : EDS
#ELEVANGLE   : 35
#AZIMANGLE   : 0
#LIVETIME    : 239.9628
#REALTIME    : 255.593
#PROBECUR    : 1.21681
#TAUWIND     : 0
#TDEADLYR    : 0
#TACTLYR     : 0.045
#TALWIND     : 0.025
#CHOFFSET    : 0.0
#XLABEL      : Energy (eV)
#YLABEL      : Counts
#XPOSITION   : 12.54883
#YPOSITION   : 3.87132
#ZPOSITION   : 37.36299
#EDSDET      : SD
##SPECIMEN   : GMIIIA K309[4][all]
##D2STDCMP   : K309,(O:38.72),(Al:7.94),(Si:18.7),(Ca:10.72),(Fe:10.49),(Ba:13.43)
##DET_HASH   : 12273538-fd48-a23f-0a19-f1e6fa85caef
##CALIB_HASH : 6abaa72c-aa41-8738-0be9-f592914732f3
##WORKING    : 15.0 mm
##DET_NAME   : EDAX All
##DET_MODE   : MediumLE
#SPECTRUM    :
24,
32,
16,
19,
106,
423,
1192,
3091,
7227,
10765,
9169,
6700,
5857,
6064,
9154,
28954,
103325,
195207,
142129,
40653,
10694,
7541,
9721,
15404,
15187,
9134,
6264,
5275,
4253,
4093,
3994,
4356,
4878,
5400,
5617,
5622,
5151,
4833,
4858,
4854,
4867,
5060,
5038,
5259,
5608,
5614,
6467,
11924,
31070,
59141,
60294,
33226,
13392,
7362,
6745,
12822,
42838,
106178,
142999,
102064,
42477,
16176,
8439,
5343,
4283,
4193,
3871,
3794,
3657,
3532,
3482,
3547,
3485,
3544,
3704,
3952,
3885,
3677,
3489,
3537,
3330,
3359,
3323,
3319,
3376,
3179,
3309,
3291,
3200,
3235,
3219,
3162,
3050,
3044,
3059,
2991,
2918,
2977,
2989,
3002,
2908,
2998,
2875,
2849,
2829,
2806,
2857,
2772,
2813,
2782,
2671,
2686,
2648,
2645,
2632,
2745,
2751,
2804,
3152,
4084,
7907,
17244,
30633,
38213,
32633,
18776,
8748,
3931,
2641,
2461,
2791,
3691,
4961,
6491,
6795,
5541,
3814,
2674,
2183,
2058,
2090,
2101,
2094,
2122,
2301,
2924,
4557,
8086,
12048,
13335,
11264,
7107,
3906,
2474,
1923,
1835,
1865,
2176,
2848,
4224,
6042,
7010,
6493,
5144,
3742,
3016,
2439,
2034,
1840,
2076,
2550,
3272,
3404,
3108,
2503,
1893,
1654,
1624,
1528,
1479,
1494,
1612,
1735,
1999,
2112,
2095,
1820,
1532,
1416,
1426,
1352,
1436,
1491,
1580,
1460,
1458,
1388,
1287,
1260,
1238,
1212,
1204,
1165,
1174,
1148,
1194,
1161,
1225,
1434,
2064,
3462,
6204,
9339,
11102,
10428,
7710,
4761,
2620,
1620,
1155,
1074,
1039,
1031,
1053,
1024,
952,
1001,
966,
1007,
1046,
1023,
1079,
1368,
1748,
2013,
2183,
2043,
1656,
1319,
1075,
971,
880,
868,
866,
827,
829,
812,
800,
847,
876,
811,
757,
798,
767,
770,
774,
746,
761,
745,
739,
741,
713,
731,
711,
712,
687,
699,
698,
663,
667,
710,
658,
681,
649,
639,
673,
671,
624,
600,
617,
610,
630,
587,
603,
607,
595,
593,
554,
581,
579,
585,
565,
576,
541,
544,
562,
525,
505,
541,
500,
513,
495,
545,
491,
479,
532,
480,
490,
459,
468,
499,
471,
460,
459,
413,
431,
450,
442,
428,
462,
402,
442,
427,
395,
409,
403,
390,
415,
421,
380,
369,
360,
387,
375,
406,
350,
330,
349,
396,
366,
329,
375,
381,
371,
320,
338,
317,
322,
309,
314,
313,
284,
321,
330,
322,
320,
297,
294,
289,
300,
270,
280,
270,
258,
274,
254,
239,
265,
269,
244,
255,
268,
248,
240,
241,
239,
238,
233,
207,
238,
229,
202,
229,
213,
212,
206,
237,
188,
217,
212,
208,
182,
195,
177,
176,
151,
164,
174,
173,
171,
140,
157,
159,
153,
159,
157,
132,
134,
141,
141,
153,
138,
140,
132,
139,
128,
121,
121,
124,
117,
115,
112,
103,
106,
105,
98,
85,
104,
114,
103,
92,
110,
93,
80,
104,
79,
99,
83,
83,
76,
76,
82,
65,
72,
88,
72,
63,
66,
97,
62,
48,
55,
68,
54,
60,
53,
52,
54,
56,
52,
42,
38,
46,
43,
53,
38,
34,
43,
35,
36,
30,
42,
21,
35,
38,
45,
33,
22,
29,
23,
19,
16,
19,
19,
20,
14,
15,
17,
20,
10,
9,
9,
11,
10,
11,
7,
3,
4,
1,
4,
3,
1,
0,
1,
5,
1,
1,
0,
0,
1,
1,
0,
0,
0,
0,
1,
0,
1,
0,
1,
0,
2,
0,
1,
1,
1,
0,
1,
0,
1,
1,
0,
2,
0,
0,
0,
0,
1,
0,
1,
2,
0,
0,
0,
0,
1,
0,
0,
0,
0,
0,
0,
1,
1,
0,
1,
0,
0,
1,
1,
0,
0,
0,
1,
0,
0,
0,
0,
0,
0,
1,
1,
0,
0,
0,
1,
0,
0,
1,
2,
0,
0,
0,
0,
0,
0,
0,
0,
0,
0,
0,
0,
0,
0,
1,
0,
0,
1,
0,
1,
0,
0,
0,
0,
0,
0,
0,
0,
0,
0,
0,
0,
0,
1,
0,
0,
0,
0,
0,
0,
0,
0,
0,
0,
0,
0,
0,
0,
0,
0,
0,
0,
0,
0,
0,
0,
0,
0,
0,
0,
0,
0,
0,
0,
0,
0,
0,
0,
1,
0,
0,
0,
1,
0,
0,
0,
0,
0,
0,
0,
0,
1,
0,
0,
0,
0,
0,
0,
0,
0,
0,
0,
0,
1,
0,
0,
1,
0,
0,
0,
0,
0,
0,
0,
1,
0,
0,
0,
0,
0,
0,
0,
0,
0,
0,
0,
0,
0,
0,
0,
0,
0,
0,
0,
0,
0,
0,
0,
0,
0,
0,
0,
0,
0,
0,
0,
1,
0,
0,
0,
0,
0,
0,
0,
0,
0,
1,
0,
0,
0,
0,
0,
0,
0,
0,
0,
0,
0,
0,
0,
0,
0,
0,
0,
0,
0,
0,
0,
0,
0,
0,
0,
0,
0,
0,
0,
0,
0,
0,
0,
0,
0,
0,
0,
0,
0,
0,
0,
0,
0,
0,
0,
0,
0,
0,
0,
0,
0,
0,
0,
0,
0,
0,
0,
0,
1,
0,
0,
0,
0,
0,
0,
0,
0,
0,
0,
0,
0,
0,
0,
0,
0,
0,
0,
0,
0,
0,
0,
0,
0,
0,
0,
0,
0,
0,
0,
0,
0,
0,
0,
0,
0,
0,
0,
0,
0,
0,
0,
0,
0,
0,
0,
0,
0,
0,
0,
0,
0,
0,
0,
0,
0,
0,
0,
0,
0,
0,
0,
0,
0,
0,
0,
0,
0,
0,
0,
0,
0,
0,
0,
0,
0,
0,
0,
0,
0,
0,
0,
0,
0,
0,
0,
0,
0,
0,
0,
0,
0,
0,
0,
0,
0,
0,
0,
0,
0,
0,
0,
0,
0,
0,
0,
0,
0,
0,
0,
0,
0,
0,
0,
0,
0,
0,
0,
0,
0,
0,
0,
0,
0,
0,
0,
0,
0,
0,
0,
0,
0,
0,
0,
0,
0,
0,
0,
0,
0,
0,
0,
0,
0,
0,
0,
0,
0,
0,
0,
0,
0,
0,
0,
0,
0,
0,
0,
0,
0,
0,
0,
0,
0,
0,
0,
0,
0,
0,
0,
0,
0,
0,
0,
0,
0,
0,
0,
0,
0,
0,
0,
0,
0,
0,
0,
0,
0,
0,
0,
0,
0,
0,
0,
0,
0,
0,
0,
0,
0,
0,
0,
0,
0,
0,
0,
0,
0,
0,
0,
0,
0,
0,
0,
0,
0,
0,
0,
0,
0,
0,
0,
0,
0,
0,
0,
0,
0,
0,
0,
0,
0,
0,
0,
0,
0,
0,
0,
0,
0,
0,
0,
0,
0,
0,
0,
0,
0,
0,
0,
0,
0,
0,
0,
0,
0,
0,
0,
0,
0,
0,
0,
0,
0,
0,
0,
0,
0,
0,
0,
0,
0,
0,
0,
0,
0,
0,
0,
0,
0,
0,
0,
0,
0,
0,
0,
0,
0,
0,
0,
0,
0,
0,
0,
0,
0,
0,
0,
0,
0,
0,
0,
0,
0,
0,
0,
0,
0,
0,
0,
0,
0,
0,
0,
0,
0,
0,
0,
0,
0,
0,
0,
0,
0,
0,
0,
0,
0,
0,
0,
0,
0,
0,
0,
0,
0,
0,
0,
0,
0,
0,
0,
0,
0,
0,
0,
0,
0,
0,
0,
0,
0,
0,
0,
0,
0,
0,
0,
0,
0,
0,
0,
0,
0,
0,
0,
0,
0,
0,
0,
0,
0,
0,
0,
0,
0,
0,
0,
0,
0,
0,
0,
0,
0,
0,
0,
0,
0,
0,
0,
0,
0,
0,
0,
0,
0,
0,
0,
0,
0,
0,
0,
0,
0,
0,
0,
0,
0,
0,
0,
0,
0,
0,
0,
0,
0,
0,
0,
0,
0,
0,
0,
0,
0,
0,
0,
0,
0,
0,
0,
0,
0,
0,
0,
0,
0,
0,
0,
0,
0,
0,
0,
0,
0,
0,
0,
0,
0,
0,
0,
0,
0,
0,
0,
0,
0,
0,
0,
0,
0,
0,
0,
0,
0,
0,
0,
0,
0,
0,
0,
0,
0,
0,
0,
0,
0,
0,
0,
0,
0,
0,
0,
0,
0,
0,
0,
0,
0,
0,
0,
0,
0,
0,
0,
0,
0,
0,
0,
0,
0,
0,
0,
0,
0,
0,
0,
0,
0,
0,
0,
0,
0,
0,
0,
0,
0,
0,
0,
0,
0,
0,
0,
0,
0,
0,
0,
0,
0,
0,
0,
0,
0,
0,
0,
0,
0,
0,
0,
0,
0,
0,
0,
0,
0,
0,
0,
0,
0,
0,
0,
0,
0,
0,
0,
0,
0,
0,
0,
0,
0,
0,
0,
0,
0,
0,
0,
0,
0,
0,
0,
0,
0,
0,
0,
0,
0,
0,
0,
0,
0,
#ENDOFDATA   :