File: N132962/Quantification/15 keV/GMIIIA/GMIIIA K1234[6][4].msa
#FORMAT      : EMSA/MAS Spectral Data File
#VERSION     : 1.0
#TITLE       : GMIIIA K1234[6][all]
#DATE        : 22-SEP-2025
#TIME        : 23:00
#OWNER       : Unknown
#NPOINTS     : 4096
#NCOLUMNS    : 1
#XUNITS      : eV
#YUNITS      : counts
#DATATYPE    : Y
#XPERCHAN    : 9.99778
#OFFSET      : 1.69135
#BEAMKV      : 15
#SIGNALTYPE  : EDS
#ELEVANGLE   : 35
#AZIMANGLE   : 0
#LIVETIME    : 239.936
#REALTIME    : 255.848
#PROBECUR    : 1.21591
#TAUWIND     : 0
#TDEADLYR    : 0
#TACTLYR     : 0.045
#TALWIND     : 0.025
#CHOFFSET    : 0.0
#XLABEL      : Energy (eV)
#YLABEL      : Counts
#XPOSITION   : 2.00754
#YPOSITION   : 17.91111
#ZPOSITION   : 37.36299
#EDSDET      : SD
##SPECIMEN   : GMIIIA K1234[6][all]
##D2STDCMP   : K1234,(O:39.85),(Al:9.15),(Si:21.56),(Ca:12.36),(Ba:15.49),(W:1.59)
##DET_HASH   : 12273538-fd48-a23f-0a19-f1e6fa85caef
##CALIB_HASH : 6abaa72c-aa41-8738-0be9-f592914732f3
##WORKING    : 15.0 mm
##DET_NAME   : EDAX All
##DET_MODE   : MediumLE
#SPECTRUM    :
29,
21,
11,
21,
82,
400,
1127,
2946,
7099,
10540,
9255,
6568,
5618,
5622,
8442,
26931,
97787,
185422,
135463,
37831,
7866,
4585,
4104,
4184,
4401,
5210,
5831,
5573,
4798,
4353,
4526,
4934,
5439,
5856,
6054,
6071,
5524,
5095,
5236,
5162,
5161,
5336,
5372,
5633,
5746,
6206,
7310,
13445,
36861,
70413,
71618,
38864,
14789,
7814,
6953,
14229,
49233,
123076,
169159,
122563,
52643,
20546,
10848,
6057,
4462,
3881,
3922,
3832,
3660,
3483,
3301,
3396,
3427,
3470,
3532,
3772,
3862,
3459,
3544,
3325,
3267,
3141,
3165,
3145,
3097,
3098,
3194,
3117,
3042,
3111,
3136,
3096,
3015,
2980,
2909,
2788,
3021,
2875,
2921,
2915,
2867,
2773,
2815,
2937,
2768,
2854,
2898,
2809,
2918,
2744,
2657,
2597,
2492,
2597,
2477,
2683,
2821,
2933,
3088,
4085,
8295,
18922,
34490,
42747,
36490,
21205,
9251,
4092,
2692,
2552,
3033,
3782,
5442,
6816,
7206,
5930,
4168,
2749,
2237,
2099,
2134,
2042,
2031,
2097,
2340,
3048,
4899,
8720,
13269,
14834,
12230,
7828,
4042,
2511,
1870,
1789,
1852,
2096,
3005,
4625,
6564,
7555,
7115,
5568,
3972,
3112,
2421,
2033,
1986,
2150,
2652,
3418,
3597,
3360,
2634,
2025,
1626,
1463,
1441,
1427,
1531,
1628,
1785,
2063,
2216,
2145,
1849,
1590,
1356,
1406,
1366,
1438,
1550,
1583,
1497,
1428,
1301,
1315,
1265,
1265,
1250,
1193,
1172,
1206,
1142,
1146,
1143,
1162,
1077,
1040,
1063,
1149,
1112,
1099,
1108,
1045,
1049,
998,
1040,
1059,
1000,
1039,
996,
983,
1005,
934,
968,
985,
940,
896,
970,
878,
898,
936,
928,
848,
894,
867,
885,
847,
872,
838,
798,
848,
905,
885,
827,
846,
800,
828,
799,
792,
809,
723,
748,
768,
714,
759,
775,
682,
772,
750,
725,
690,
755,
655,
703,
651,
681,
699,
668,
659,
616,
658,
672,
633,
671,
738,
758,
816,
878,
789,
668,
639,
664,
631,
575,
559,
572,
620,
568,
572,
539,
549,
522,
532,
559,
529,
517,
518,
518,
506,
466,
520,
468,
499,
492,
484,
468,
512,
490,
442,
457,
450,
494,
427,
455,
456,
420,
470,
441,
485,
471,
485,
496,
454,
421,
458,
444,
402,
418,
403,
405,
418,
357,
396,
387,
385,
368,
351,
394,
367,
337,
364,
346,
300,
327,
344,
315,
326,
307,
311,
288,
319,
314,
283,
301,
296,
324,
334,
258,
254,
254,
263,
279,
247,
275,
236,
278,
247,
251,
227,
253,
238,
258,
247,
224,
220,
224,
260,
229,
227,
218,
206,
226,
212,
200,
231,
211,
171,
195,
215,
178,
192,
175,
179,
146,
143,
146,
184,
182,
157,
164,
159,
169,
148,
151,
160,
145,
142,
148,
155,
130,
125,
125,
138,
128,
144,
120,
125,
133,
123,
114,
105,
121,
111,
109,
116,
120,
99,
93,
102,
77,
94,
100,
104,
87,
102,
90,
76,
84,
74,
78,
81,
75,
85,
67,
80,
61,
72,
71,
47,
63,
53,
60,
60,
64,
60,
44,
55,
35,
37,
41,
46,
54,
36,
48,
40,
30,
38,
45,
41,
36,
34,
35,
29,
25,
34,
26,
21,
24,
19,
24,
24,
16,
20,
16,
20,
8,
14,
6,
10,
8,
7,
13,
7,
3,
3,
1,
3,
0,
0,
2,
1,
0,
0,
0,
0,
0,
1,
1,
0,
2,
0,
4,
1,
0,
1,
0,
0,
0,
0,
0,
1,
0,
0,
0,
1,
0,
0,
0,
1,
0,
0,
0,
0,
0,
0,
0,
0,
3,
0,
0,
0,
0,
1,
0,
0,
0,
0,
0,
0,
1,
0,
0,
0,
0,
1,
0,
0,
0,
0,
0,
0,
0,
0,
0,
1,
0,
1,
0,
0,
1,
0,
0,
0,
0,
0,
0,
0,
2,
0,
0,
0,
0,
0,
0,
0,
0,
0,
0,
0,
0,
0,
0,
2,
0,
0,
1,
0,
0,
0,
0,
0,
0,
0,
0,
0,
0,
1,
0,
0,
0,
0,
0,
0,
0,
0,
0,
1,
0,
0,
0,
0,
0,
0,
0,
0,
0,
0,
0,
1,
0,
0,
0,
0,
0,
0,
0,
0,
0,
0,
0,
0,
0,
0,
0,
1,
0,
0,
0,
0,
0,
0,
0,
0,
0,
0,
0,
0,
0,
0,
0,
0,
0,
0,
0,
0,
0,
0,
0,
0,
0,
1,
0,
0,
0,
0,
0,
0,
0,
0,
0,
0,
0,
0,
0,
0,
0,
0,
1,
0,
0,
1,
0,
0,
0,
0,
0,
0,
0,
0,
0,
0,
0,
0,
0,
1,
0,
0,
0,
0,
0,
0,
0,
0,
0,
0,
0,
0,
0,
0,
0,
0,
0,
0,
0,
0,
0,
0,
0,
0,
0,
0,
0,
0,
0,
0,
0,
0,
0,
0,
0,
0,
0,
0,
0,
0,
0,
0,
1,
0,
0,
0,
0,
0,
0,
0,
0,
0,
0,
0,
0,
0,
0,
0,
0,
0,
0,
0,
0,
0,
0,
0,
0,
0,
0,
0,
0,
0,
0,
0,
0,
0,
0,
0,
0,
0,
0,
0,
0,
0,
0,
0,
0,
0,
0,
0,
0,
0,
0,
0,
0,
0,
0,
0,
0,
0,
0,
0,
0,
0,
0,
0,
0,
0,
0,
0,
0,
0,
0,
0,
0,
0,
0,
0,
0,
0,
0,
0,
1,
0,
0,
0,
0,
0,
0,
0,
0,
0,
0,
0,
0,
0,
0,
0,
0,
0,
0,
0,
0,
0,
0,
0,
0,
0,
0,
0,
0,
0,
0,
0,
0,
0,
0,
0,
0,
0,
0,
0,
0,
0,
0,
0,
0,
0,
0,
0,
0,
0,
0,
0,
0,
0,
0,
0,
0,
0,
0,
0,
0,
0,
0,
0,
0,
0,
0,
0,
0,
0,
0,
0,
0,
0,
0,
0,
0,
0,
0,
0,
0,
0,
0,
0,
0,
0,
0,
0,
0,
0,
0,
0,
0,
0,
0,
0,
0,
0,
0,
0,
0,
0,
0,
0,
0,
0,
0,
0,
0,
0,
0,
0,
0,
0,
0,
0,
0,
0,
0,
0,
0,
0,
0,
0,
0,
0,
0,
0,
0,
0,
0,
0,
0,
0,
0,
0,
0,
0,
0,
0,
0,
0,
0,
0,
0,
0,
0,
0,
0,
0,
0,
0,
0,
0,
0,
0,
0,
0,
0,
0,
0,
0,
0,
0,
0,
0,
0,
0,
0,
0,
0,
0,
0,
0,
0,
0,
0,
0,
0,
0,
0,
0,
0,
0,
0,
0,
0,
0,
0,
0,
0,
0,
0,
0,
0,
0,
0,
0,
0,
0,
0,
0,
0,
0,
0,
0,
0,
0,
0,
0,
0,
0,
0,
0,
0,
0,
0,
0,
0,
0,
0,
0,
0,
0,
0,
0,
0,
0,
0,
0,
0,
0,
0,
0,
0,
0,
0,
0,
0,
0,
0,
0,
0,
0,
0,
0,
0,
0,
0,
0,
0,
0,
0,
0,
0,
0,
0,
0,
0,
0,
0,
0,
0,
0,
0,
0,
0,
0,
0,
0,
0,
0,
0,
0,
0,
0,
0,
0,
0,
0,
0,
0,
0,
0,
0,
0,
0,
0,
0,
0,
0,
0,
0,
0,
0,
0,
0,
0,
0,
0,
0,
0,
0,
0,
0,
0,
0,
0,
0,
0,
0,
0,
0,
0,
0,
0,
0,
0,
0,
0,
0,
0,
0,
0,
0,
0,
0,
0,
0,
0,
0,
0,
0,
0,
0,
0,
0,
0,
0,
0,
0,
0,
0,
0,
0,
0,
0,
0,
0,
0,
0,
0,
0,
0,
0,
0,
0,
0,
0,
0,
0,
0,
0,
0,
0,
0,
0,
0,
0,
0,
0,
0,
0,
0,
0,
0,
0,
0,
0,
0,
0,
0,
0,
0,
0,
0,
0,
0,
0,
0,
0,
0,
0,
0,
0,
0,
0,
0,
0,
0,
0,
0,
0,
0,
0,
0,
0,
0,
0,
0,
0,
0,
0,
0,
0,
0,
0,
0,
0,
0,
0,
0,
0,
0,
0,
0,
0,
0,
0,
0,
0,
0,
0,
0,
0,
0,
0,
0,
0,
0,
0,
0,
0,
0,
0,
0,
0,
0,
0,
0,
0,
0,
0,
0,
0,
0,
0,
0,
0,
0,
0,
0,
0,
0,
0,
0,
0,
0,
0,
0,
0,
0,
0,
0,
0,
0,
0,
0,
0,
0,
0,
0,
0,
0,
0,
0,
0,
0,
0,
0,
0,
0,
0,
0,
0,
0,
0,
0,
0,
0,
0,
0,
0,
0,
0,
0,
0,
0,
0,
0,
0,
0,
0,
0,
0,
0,
0,
0,
0,
0,
0,
0,
0,
0,
0,
0,
0,
0,
0,
0,
0,
0,
0,
0,
0,
0,
#ENDOFDATA   :