File: N132962/Quantification/15 keV/GMIIIA/GMIIIA K1236[8][4].msa
#FORMAT      : EMSA/MAS Spectral Data File
#VERSION     : 1.0
#TITLE       : GMIIIA K1236[8][all]
#DATE        : 22-SEP-2025
#TIME        : 23:13
#OWNER       : Unknown
#NPOINTS     : 4096
#NCOLUMNS    : 1
#XUNITS      : eV
#YUNITS      : counts
#DATATYPE    : Y
#XPERCHAN    : 9.99778
#OFFSET      : 1.69135
#BEAMKV      : 15
#SIGNALTYPE  : EDS
#ELEVANGLE   : 35
#AZIMANGLE   : 0
#LIVETIME    : 239.928
#REALTIME    : 258.881
#PROBECUR    : 1.21388
#TAUWIND     : 0
#TDEADLYR    : 0
#TACTLYR     : 0.045
#TALWIND     : 0.025
#CHOFFSET    : 0.0
#XLABEL      : Energy (eV)
#YLABEL      : Counts
#XPOSITION   : 7.24035
#YPOSITION   : 18.97754
#ZPOSITION   : 37.36299
#EDSDET      : SD
##SPECIMEN   : GMIIIA K1236[8][all]
##D2STDCMP   : K1236,(O:21.27),(Sc:0.65),(Ge:40.95),(Pb:37.13)
##DET_HASH   : 12273538-fd48-a23f-0a19-f1e6fa85caef
##CALIB_HASH : 6abaa72c-aa41-8738-0be9-f592914732f3
##WORKING    : 15.0 mm
##DET_NAME   : EDAX All
##DET_MODE   : MediumLE
#SPECTRUM    :
29,
28,
9,
31,
159,
715,
1930,
4504,
9615,
11962,
8544,
6706,
6908,
7163,
8898,
18694,
55733,
100361,
73618,
23288,
8609,
7057,
6984,
7602,
7380,
7387,
7464,
8069,
8160,
8525,
8582,
9020,
9844,
12951,
17940,
20026,
18338,
26107,
74913,
171338,
211618,
138232,
53793,
17398,
8859,
6900,
6471,
6260,
6256,
6488,
6468,
6521,
6710,
6534,
6603,
6730,
7059,
7815,
8334,
9036,
10308,
10892,
9327,
7632,
6738,
6582,
6363,
6283,
6318,
6453,
6562,
6760,
7355,
7863,
8794,
12378,
24377,
48880,
70043,
68017,
55041,
50395,
43056,
26607,
12863,
6952,
6432,
7296,
8251,
8019,
6738,
5483,
4911,
4806,
4733,
4741,
4936,
4993,
4890,
4903,
5014,
5290,
5633,
5663,
5340,
5028,
4891,
4673,
4499,
4419,
4433,
4363,
4367,
4205,
4312,
4196,
4403,
4295,
4366,
4413,
4321,
4321,
4285,
4180,
4210,
4148,
4078,
4019,
4131,
3928,
3889,
3826,
3891,
4093,
4492,
5118,
5503,
5375,
4824,
4218,
3805,
3733,
3699,
3665,
3670,
3734,
3696,
3689,
3812,
3913,
3849,
3761,
3501,
3442,
3410,
3448,
3441,
3422,
3240,
3333,
3361,
3368,
3218,
3341,
3230,
3173,
3054,
3225,
3095,
3206,
3130,
3060,
3018,
3101,
2963,
2989,
2964,
2927,
2917,
2983,
3004,
2937,
2889,
2832,
2751,
2837,
2832,
2830,
2795,
2720,
2782,
2704,
2619,
2688,
2653,
2641,
2580,
2666,
2557,
2562,
2494,
2538,
2543,
2551,
2504,
2461,
2393,
2425,
2386,
2462,
2439,
2410,
2492,
2491,
2389,
2338,
2319,
2287,
2166,
2285,
2221,
2262,
2236,
2115,
2135,
2187,
2172,
2126,
2077,
2086,
2079,
2123,
2098,
1990,
2032,
2014,
1953,
2012,
2027,
1885,
1905,
1900,
1883,
1837,
1833,
1795,
1816,
1836,
1836,
1886,
1800,
1837,
1795,
1812,
1732,
1790,
1688,
1687,
1749,
1665,
1717,
1700,
1704,
1665,
1636,
1605,
1652,
1585,
1562,
1582,
1613,
1598,
1587,
1546,
1501,
1500,
1548,
1502,
1428,
1440,
1495,
1424,
1371,
1400,
1429,
1334,
1385,
1373,
1366,
1289,
1308,
1325,
1362,
1318,
1327,
1334,
1282,
1235,
1267,
1222,
1212,
1236,
1210,
1225,
1188,
1190,
1243,
1231,
1192,
1187,
1167,
1150,
1161,
1123,
1114,
1058,
1150,
1107,
1110,
1090,
1066,
1047,
1185,
1384,
1751,
2748,
4178,
5979,
7284,
7975,
7337,
5869,
4177,
2549,
1689,
1159,
1015,
911,
892,
883,
866,
868,
866,
838,
941,
939,
947,
1021,
1129,
1266,
1432,
1495,
1528,
1357,
1189,
1030,
892,
862,
792,
789,
827,
894,
1051,
1181,
1422,
1552,
1641,
1480,
1377,
1063,
903,
730,
650,
625,
582,
610,
578,
575,
548,
590,
541,
557,
555,
548,
549,
538,
496,
513,
555,
495,
501,
498,
491,
458,
455,
486,
501,
408,
443,
444,
433,
432,
462,
441,
440,
421,
425,
384,
395,
434,
404,
388,
405,
373,
382,
375,
404,
375,
443,
419,
449,
480,
410,
432,
337,
334,
332,
323,
291,
319,
307,
294,
289,
297,
296,
289,
267,
278,
249,
190,
231,
219,
209,
240,
210,
234,
202,
200,
178,
191,
186,
168,
169,
197,
184,
174,
177,
162,
161,
155,
149,
148,
139,
148,
151,
126,
143,
118,
127,
105,
96,
110,
113,
78,
110,
87,
91,
75,
74,
77,
71,
79,
57,
78,
62,
48,
49,
52,
47,
53,
49,
32,
34,
29,
21,
23,
21,
17,
12,
10,
7,
7,
6,
3,
6,
2,
3,
0,
3,
2,
2,
1,
1,
1,
4,
0,
2,
2,
3,
2,
3,
0,
2,
2,
0,
1,
1,
3,
3,
1,
0,
3,
0,
1,
0,
2,
1,
0,
2,
1,
1,
4,
0,
1,
1,
1,
0,
3,
1,
0,
1,
0,
1,
2,
2,
1,
1,
2,
0,
0,
2,
1,
3,
2,
2,
0,
1,
1,
1,
3,
2,
0,
4,
1,
3,
0,
1,
0,
1,
2,
3,
0,
2,
2,
3,
0,
1,
1,
2,
1,
0,
0,
1,
2,
1,
0,
1,
0,
1,
1,
0,
0,
2,
0,
2,
0,
1,
0,
2,
0,
0,
2,
0,
1,
0,
1,
0,
0,
0,
0,
2,
2,
0,
2,
1,
0,
0,
0,
1,
0,
0,
0,
3,
0,
0,
1,
4,
1,
0,
0,
0,
0,
3,
0,
1,
0,
0,
1,
1,
0,
0,
0,
0,
1,
1,
2,
0,
2,
1,
2,
1,
0,
1,
1,
2,
0,
0,
1,
1,
0,
1,
0,
0,
1,
1,
0,
0,
0,
0,
0,
1,
0,
0,
1,
0,
0,
0,
1,
0,
1,
0,
0,
0,
0,
0,
0,
1,
0,
0,
0,
0,
0,
3,
1,
0,
0,
1,
0,
0,
0,
0,
0,
0,
0,
1,
0,
1,
0,
0,
1,
1,
0,
0,
3,
0,
0,
0,
1,
0,
1,
0,
0,
0,
0,
1,
0,
0,
0,
0,
1,
0,
0,
0,
0,
0,
0,
1,
0,
0,
0,
0,
0,
0,
0,
0,
0,
1,
1,
1,
0,
0,
0,
1,
0,
0,
0,
0,
0,
1,
2,
0,
0,
0,
0,
0,
0,
0,
0,
0,
0,
0,
0,
0,
0,
0,
0,
0,
0,
0,
0,
0,
0,
0,
0,
0,
0,
0,
0,
0,
0,
0,
0,
0,
0,
0,
0,
0,
0,
0,
0,
0,
0,
0,
0,
0,
0,
0,
0,
0,
0,
0,
0,
0,
0,
0,
0,
0,
0,
0,
0,
0,
1,
0,
0,
0,
0,
0,
0,
0,
0,
0,
0,
0,
0,
0,
0,
0,
0,
0,
0,
0,
0,
0,
0,
0,
0,
0,
0,
0,
0,
0,
0,
0,
0,
0,
0,
0,
0,
0,
0,
0,
0,
0,
0,
0,
0,
0,
0,
0,
0,
0,
0,
0,
0,
0,
0,
0,
0,
0,
0,
0,
0,
0,
0,
0,
0,
0,
0,
0,
0,
0,
0,
0,
0,
0,
0,
0,
0,
0,
0,
0,
0,
0,
0,
0,
0,
0,
0,
0,
0,
0,
0,
0,
0,
0,
0,
0,
0,
0,
0,
0,
0,
0,
0,
0,
0,
0,
0,
0,
0,
0,
0,
0,
0,
0,
0,
0,
0,
0,
0,
0,
0,
0,
0,
0,
0,
0,
0,
0,
0,
0,
0,
0,
0,
0,
0,
0,
0,
0,
0,
0,
0,
0,
0,
0,
0,
0,
0,
0,
0,
0,
0,
0,
0,
0,
0,
0,
0,
0,
0,
0,
0,
0,
0,
0,
0,
0,
0,
0,
0,
0,
0,
0,
0,
0,
0,
0,
0,
0,
0,
0,
0,
0,
0,
0,
0,
0,
0,
0,
0,
0,
0,
0,
0,
0,
0,
0,
0,
0,
0,
0,
0,
0,
0,
0,
0,
0,
0,
0,
0,
0,
0,
0,
0,
0,
0,
0,
0,
0,
0,
0,
0,
0,
0,
0,
0,
0,
0,
0,
0,
0,
0,
0,
0,
0,
0,
0,
0,
0,
0,
0,
0,
0,
0,
0,
0,
0,
0,
0,
0,
0,
0,
0,
0,
0,
0,
0,
0,
0,
0,
0,
0,
0,
0,
0,
0,
0,
0,
0,
0,
0,
0,
0,
0,
0,
0,
0,
0,
0,
0,
0,
0,
0,
0,
0,
0,
0,
0,
0,
0,
0,
0,
0,
0,
0,
0,
0,
0,
0,
0,
0,
0,
0,
0,
0,
0,
0,
0,
0,
0,
0,
0,
0,
0,
0,
0,
0,
0,
0,
0,
0,
0,
0,
0,
0,
0,
0,
0,
0,
0,
0,
0,
0,
0,
0,
0,
0,
0,
0,
0,
0,
0,
0,
0,
0,
0,
0,
0,
0,
0,
0,
0,
0,
0,
0,
0,
0,
0,
0,
0,
0,
0,
0,
0,
0,
0,
0,
0,
0,
0,
0,
0,
0,
0,
0,
0,
0,
0,
0,
0,
0,
0,
0,
0,
0,
0,
0,
0,
0,
0,
0,
0,
0,
0,
0,
0,
0,
0,
0,
0,
0,
0,
0,
0,
0,
0,
0,
0,
0,
0,
0,
0,
0,
0,
0,
0,
0,
0,
0,
0,
0,
0,
0,
0,
0,
0,
0,
0,
0,
0,
0,
0,
0,
0,
0,
0,
0,
0,
0,
0,
0,
0,
0,
0,
0,
0,
0,
0,
0,
0,
0,
0,
0,
0,
0,
0,
0,
0,
0,
0,
0,
0,
0,
0,
0,
0,
0,
0,
0,
0,
0,
0,
0,
0,
0,
0,
0,
0,
0,
0,
0,
0,
0,
0,
0,
0,
0,
0,
0,
0,
0,
0,
0,
0,
0,
0,
0,
0,
0,
0,
0,
0,
0,
0,
0,
0,
0,
0,
0,
0,
0,
0,
0,
0,
0,
0,
0,
0,
0,
0,
0,
0,
0,
0,
0,
0,
0,
0,
0,
0,
0,
0,
0,
0,
0,
0,
#ENDOFDATA   :