File: N132962/Quantification/15 keV/GMIIIA/GMIIIA K1132[8][4].msa
#FORMAT      : EMSA/MAS Spectral Data File
#VERSION     : 1.0
#TITLE       : GMIIIA K1132[8][all]
#DATE        : 22-SEP-2025
#TIME        : 22:31
#OWNER       : Unknown
#NPOINTS     : 4096
#NCOLUMNS    : 1
#XUNITS      : eV
#YUNITS      : counts
#DATATYPE    : Y
#XPERCHAN    : 9.99778
#OFFSET      : 1.69135
#BEAMKV      : 15
#SIGNALTYPE  : EDS
#ELEVANGLE   : 35
#AZIMANGLE   : 0
#LIVETIME    : 239.917
#REALTIME    : 255.34
#PROBECUR    : 1.21591
#TAUWIND     : 0
#TDEADLYR    : 0
#TACTLYR     : 0.045
#TALWIND     : 0.025
#CHOFFSET    : 0.0
#XLABEL      : Energy (eV)
#YLABEL      : Counts
#XPOSITION   : 8.25641
#YPOSITION   : 17.42916
#ZPOSITION   : 37.36299
#EDSDET      : SD
##SPECIMEN   : GMIIIA K1132[8][all]
##D2STDCMP   : K1132,(Li:2.32),(O:41.34),(Al:7.94),(Si:21.39),(Ca:10.72),(Cr:0.51),(Ni:1.18),(Mo:1.67),(Ba:13.43)
##DET_HASH   : 12273538-fd48-a23f-0a19-f1e6fa85caef
##CALIB_HASH : 6abaa72c-aa41-8738-0be9-f592914732f3
##WORKING    : 15.0 mm
##DET_NAME   : EDAX All
##DET_MODE   : MediumLE
#SPECTRUM    :
28,
30,
5,
24,
104,
454,
1180,
2948,
6934,
9956,
8531,
6442,
5394,
5639,
8711,
28174,
104752,
197623,
144423,
40089,
7822,
4392,
4378,
4348,
4447,
5234,
6007,
6460,
7011,
6609,
5061,
4693,
5140,
5494,
5897,
5865,
5382,
4870,
4838,
4921,
4988,
5050,
5132,
5218,
5434,
5592,
6512,
11928,
31993,
61704,
62637,
33935,
13627,
7235,
6800,
13865,
48348,
121244,
164520,
117288,
48119,
17393,
8770,
5329,
4176,
3849,
3839,
3804,
3525,
3394,
3368,
3440,
3335,
3589,
4446,
5719,
7148,
6748,
5637,
4867,
4710,
4320,
3800,
3385,
3169,
3200,
3122,
2912,
2956,
2943,
2982,
2898,
2849,
2854,
2847,
2834,
2689,
2808,
2741,
2735,
2769,
2780,
2628,
2627,
2645,
2590,
2698,
2650,
2582,
2540,
2556,
2425,
2374,
2405,
2444,
2516,
2666,
2652,
2906,
3723,
7419,
16558,
29359,
37014,
31060,
18353,
7943,
3581,
2436,
2310,
2738,
3430,
4643,
6170,
6404,
5294,
3665,
2523,
2052,
1973,
1894,
1871,
1930,
1956,
2150,
2744,
4447,
7735,
11316,
13097,
10963,
6748,
3795,
2237,
1814,
1682,
1715,
1932,
2731,
4077,
5648,
6740,
6218,
4873,
3679,
2669,
2309,
1837,
1735,
2005,
2445,
2890,
3284,
2909,
2343,
1833,
1548,
1544,
1718,
1876,
2135,
2142,
2170,
2202,
2053,
2072,
1661,
1479,
1302,
1274,
1267,
1323,
1399,
1448,
1512,
1356,
1316,
1265,
1253,
1277,
1168,
1127,
1105,
1088,
1017,
999,
1039,
1072,
1038,
1015,
1064,
1046,
996,
1007,
1017,
997,
951,
994,
942,
994,
933,
899,
949,
878,
907,
858,
899,
852,
835,
809,
875,
821,
855,
925,
869,
756,
850,
837,
761,
844,
819,
809,
847,
826,
800,
891,
1032,
1232,
1333,
1425,
1311,
1121,
968,
813,
781,
708,
709,
669,
652,
642,
668,
611,
659,
676,
629,
634,
664,
617,
648,
639,
656,
636,
612,
636,
673,
704,
687,
672,
615,
642,
568,
531,
522,
597,
583,
522,
564,
527,
532,
524,
530,
491,
495,
529,
527,
515,
514,
506,
498,
471,
488,
458,
436,
456,
454,
461,
477,
424,
448,
434,
468,
436,
422,
430,
395,
403,
381,
404,
383,
402,
424,
392,
424,
395,
366,
375,
363,
393,
376,
349,
352,
338,
342,
391,
338,
353,
361,
349,
342,
309,
348,
289,
328,
290,
291,
291,
304,
272,
290,
304,
296,
275,
301,
275,
266,
291,
268,
284,
278,
281,
227,
246,
256,
227,
243,
236,
245,
234,
215,
229,
227,
242,
208,
214,
219,
226,
238,
209,
196,
188,
190,
205,
175,
208,
179,
188,
219,
174,
194,
185,
179,
196,
160,
163,
140,
166,
175,
155,
166,
166,
167,
142,
143,
147,
165,
149,
148,
148,
139,
128,
119,
143,
129,
109,
112,
123,
121,
125,
100,
106,
96,
115,
81,
102,
94,
100,
101,
107,
104,
96,
99,
79,
92,
91,
103,
77,
78,
92,
77,
63,
72,
67,
66,
71,
55,
61,
61,
60,
58,
61,
52,
62,
52,
73,
50,
44,
48,
45,
50,
54,
56,
45,
42,
42,
39,
39,
33,
25,
36,
27,
31,
21,
34,
33,
32,
22,
30,
15,
14,
15,
22,
19,
15,
8,
15,
13,
16,
17,
8,
18,
8,
15,
6,
7,
6,
5,
3,
4,
2,
1,
3,
1,
1,
0,
3,
2,
1,
0,
1,
1,
0,
1,
0,
0,
0,
1,
0,
1,
0,
0,
0,
0,
0,
1,
0,
0,
0,
0,
0,
1,
1,
0,
1,
1,
0,
1,
0,
0,
1,
0,
1,
1,
1,
1,
0,
0,
1,
0,
0,
0,
0,
1,
0,
0,
0,
0,
0,
0,
0,
0,
0,
0,
0,
1,
1,
0,
0,
0,
0,
0,
0,
0,
0,
0,
0,
0,
1,
1,
0,
0,
0,
0,
0,
0,
0,
0,
0,
1,
1,
0,
0,
0,
1,
0,
0,
0,
0,
0,
0,
0,
0,
0,
0,
0,
0,
0,
0,
0,
1,
0,
0,
1,
0,
0,
0,
0,
0,
0,
0,
0,
0,
0,
0,
1,
0,
0,
0,
0,
0,
0,
0,
0,
0,
0,
0,
0,
0,
0,
0,
2,
0,
0,
0,
0,
0,
0,
0,
0,
0,
0,
0,
0,
0,
0,
0,
0,
0,
0,
0,
0,
0,
0,
0,
0,
0,
0,
0,
0,
0,
0,
0,
0,
1,
0,
0,
0,
0,
0,
0,
0,
0,
0,
0,
0,
0,
0,
0,
0,
0,
0,
0,
0,
0,
0,
0,
0,
0,
0,
0,
0,
0,
0,
0,
0,
0,
0,
0,
0,
0,
0,
0,
0,
0,
0,
0,
1,
0,
0,
0,
0,
0,
0,
0,
0,
0,
0,
0,
0,
0,
0,
0,
0,
0,
0,
0,
0,
0,
0,
0,
0,
0,
0,
0,
0,
0,
0,
0,
0,
0,
0,
0,
0,
0,
0,
0,
0,
0,
0,
0,
0,
0,
0,
0,
0,
0,
0,
0,
0,
0,
0,
0,
1,
0,
0,
0,
0,
0,
0,
0,
0,
0,
0,
0,
0,
0,
0,
0,
0,
0,
0,
0,
0,
0,
0,
0,
0,
0,
0,
0,
0,
0,
0,
0,
0,
0,
0,
0,
0,
0,
0,
0,
0,
0,
0,
0,
0,
0,
0,
0,
0,
0,
0,
0,
0,
0,
0,
0,
0,
0,
0,
0,
0,
0,
0,
0,
0,
0,
0,
0,
0,
0,
0,
0,
0,
0,
0,
0,
0,
0,
0,
0,
0,
0,
0,
0,
0,
0,
0,
0,
0,
0,
0,
0,
0,
0,
0,
0,
0,
0,
0,
0,
0,
0,
0,
0,
0,
0,
0,
0,
0,
0,
0,
0,
0,
0,
0,
0,
0,
0,
0,
0,
0,
0,
0,
0,
0,
0,
0,
0,
0,
0,
0,
0,
0,
0,
0,
0,
0,
0,
0,
0,
0,
0,
0,
0,
0,
0,
0,
0,
0,
0,
0,
0,
0,
0,
0,
0,
0,
0,
0,
0,
0,
0,
0,
0,
0,
0,
0,
0,
0,
0,
0,
0,
0,
0,
0,
0,
0,
0,
0,
0,
0,
0,
0,
0,
0,
0,
0,
0,
0,
0,
0,
0,
0,
0,
0,
0,
0,
0,
0,
0,
0,
0,
0,
0,
0,
0,
0,
0,
0,
0,
0,
0,
0,
0,
0,
0,
0,
0,
0,
0,
0,
0,
0,
0,
0,
0,
0,
0,
0,
0,
0,
0,
0,
0,
0,
0,
0,
0,
0,
0,
0,
0,
0,
0,
0,
0,
0,
0,
0,
0,
0,
0,
0,
0,
0,
0,
0,
0,
0,
0,
0,
0,
0,
0,
0,
0,
0,
0,
0,
0,
0,
0,
0,
0,
0,
0,
0,
0,
0,
0,
0,
0,
0,
0,
0,
0,
0,
0,
0,
0,
0,
0,
0,
0,
0,
0,
0,
0,
0,
0,
0,
0,
0,
0,
0,
0,
0,
0,
0,
0,
0,
0,
0,
0,
0,
0,
0,
0,
0,
0,
0,
0,
0,
0,
0,
0,
0,
0,
0,
0,
0,
0,
0,
0,
0,
0,
0,
0,
0,
0,
0,
0,
0,
0,
0,
0,
0,
0,
0,
0,
0,
0,
0,
0,
0,
0,
0,
0,
0,
0,
0,
0,
0,
0,
0,
0,
0,
0,
0,
0,
0,
0,
0,
0,
0,
0,
0,
0,
0,
0,
0,
0,
0,
0,
0,
0,
0,
0,
0,
0,
0,
0,
0,
0,
0,
0,
0,
0,
0,
0,
0,
0,
0,
0,
0,
0,
0,
0,
0,
0,
0,
0,
0,
0,
0,
0,
0,
0,
0,
0,
0,
0,
0,
0,
0,
0,
0,
0,
0,
0,
0,
0,
0,
0,
0,
0,
0,
0,
0,
0,
0,
0,
0,
0,
0,
0,
0,
0,
0,
0,
0,
0,
0,
0,
0,
0,
0,
0,
0,
0,
0,
0,
0,
0,
0,
0,
0,
0,
0,
0,
0,
0,
0,
0,
0,
0,
0,
0,
0,
0,
0,
0,
0,
0,
0,
0,
0,
0,
0,
0,
0,
0,
0,
0,
0,
0,
0,
0,
0,
0,
0,
0,
0,
0,
0,
0,
0,
0,
0,
0,
0,
0,
0,
0,
0,
0,
0,
0,
0,
0,
0,
0,
0,
0,
0,
0,
0,
0,
0,
0,
0,
0,
0,
0,
0,
0,
0,
0,
0,
0,
0,
0,
0,
0,
0,
0,
0,
0,
0,
0,
0,
0,
0,
0,
0,
0,
0,
0,
0,
0,
0,
0,
0,
0,
0,
0,
0,
0,
0,
0,
0,
0,
0,
0,
0,
0,
0,
0,
0,
0,
0,
0,
0,
0,
0,
0,
0,
0,
0,
0,
0,
0,
0,
0,
0,
#ENDOFDATA   :