File: N132962/Quantification/15 keV/GMIIIA/GMIIIA K326[2][4].msa
#FORMAT      : EMSA/MAS Spectral Data File
#VERSION     : 1.0
#TITLE       : GMIIIA K326[2][all]
#DATE        : 22-SEP-2025
#TIME        : 15:30
#OWNER       : Unknown
#NPOINTS     : 4096
#NCOLUMNS    : 1
#XUNITS      : eV
#YUNITS      : counts
#DATATYPE    : Y
#XPERCHAN    : 9.99778
#OFFSET      : 1.69135
#BEAMKV      : 15
#SIGNALTYPE  : EDS
#ELEVANGLE   : 35
#AZIMANGLE   : 0
#LIVETIME    : 239.736
#REALTIME    : 254.367
#PROBECUR    : 1.21681
#TAUWIND     : 0
#TDEADLYR    : 0
#TACTLYR     : 0.045
#TALWIND     : 0.025
#CHOFFSET    : 0.0
#XLABEL      : Energy (eV)
#YLABEL      : Counts
#XPOSITION   : 10.63545
#YPOSITION   : 3.70716
#ZPOSITION   : 37.36299
#EDSDET      : SD
##SPECIMEN   : GMIIIA K326[2][all]
##D2STDCMP   : K326,(B:9.32),(O:51.35),(Na:1.48),(Mg:18.15),(Si:13.98),(Ca:5.72)
##DET_HASH   : 12273538-fd48-a23f-0a19-f1e6fa85caef
##CALIB_HASH : 6abaa72c-aa41-8738-0be9-f592914732f3
##WORKING    : 15.0 mm
##DET_NAME   : EDAX All
##DET_MODE   : MediumLE
#SPECTRUM    :
17,
37,
10,
21,
185,
851,
1636,
2501,
5172,
6992,
5577,
4448,
4574,
5563,
9941,
38503,
146422,
282549,
202311,
52777,
6627,
2864,
3918,
3787,
2931,
2594,
2849,
2997,
3252,
3447,
3548,
3777,
4519,
7625,
13724,
14972,
9504,
6039,
6373,
13697,
48494,
120091,
144777,
81666,
23982,
6377,
3753,
3504,
3580,
3890,
4015,
4010,
3860,
3904,
4501,
9635,
32991,
83053,
111869,
80031,
33373,
12247,
6332,
3731,
2908,
2650,
2573,
2382,
2311,
2335,
2417,
2446,
2354,
2592,
2552,
2758,
2796,
2616,
2404,
2239,
2245,
2277,
2331,
2354,
2210,
2257,
2167,
2064,
2180,
2057,
2042,
2057,
1926,
1975,
1903,
1949,
1808,
2004,
2036,
2076,
2067,
1975,
1953,
1760,
1815,
1739,
1744,
1828,
1692,
1753,
1716,
1619,
1656,
1601,
1619,
1642,
1728,
1773,
1835,
2401,
4155,
9354,
16007,
20081,
17115,
10025,
4638,
2233,
1551,
1464,
1582,
1891,
2529,
3331,
3472,
3009,
2197,
1582,
1377,
1240,
1281,
1247,
1205,
1164,
1126,
1117,
1105,
1138,
1095,
1103,
1162,
1119,
1069,
1042,
1016,
955,
994,
1037,
1013,
936,
1021,
996,
976,
942,
995,
1026,
915,
871,
910,
890,
917,
896,
924,
879,
846,
813,
856,
847,
828,
828,
892,
799,
834,
867,
787,
798,
775,
813,
732,
793,
701,
769,
738,
700,
694,
702,
766,
720,
712,
659,
697,
656,
653,
633,
680,
615,
647,
638,
639,
634,
604,
609,
600,
558,
603,
564,
600,
567,
579,
519,
560,
555,
588,
621,
595,
523,
534,
535,
530,
501,
532,
504,
545,
524,
500,
520,
459,
496,
469,
442,
452,
457,
439,
486,
451,
448,
427,
432,
450,
463,
438,
431,
399,
401,
370,
383,
393,
377,
404,
376,
403,
439,
386,
413,
383,
399,
377,
362,
363,
343,
370,
359,
356,
347,
324,
326,
336,
317,
361,
337,
306,
303,
318,
318,
311,
278,
299,
314,
289,
300,
299,
313,
298,
284,
291,
285,
259,
293,
280,
243,
243,
298,
268,
273,
245,
223,
269,
257,
245,
271,
232,
236,
244,
234,
244,
214,
206,
225,
197,
198,
226,
220,
201,
214,
200,
221,
213,
216,
192,
199,
175,
186,
175,
176,
185,
210,
187,
179,
188,
189,
175,
165,
161,
172,
165,
172,
156,
175,
159,
153,
134,
162,
156,
156,
153,
163,
165,
142,
157,
145,
121,
133,
133,
139,
128,
163,
137,
130,
145,
109,
130,
123,
138,
126,
117,
125,
106,
97,
116,
103,
97,
103,
99,
100,
107,
105,
83,
116,
97,
98,
104,
92,
92,
94,
90,
84,
81,
99,
88,
92,
91,
80,
80,
72,
80,
70,
80,
85,
73,
78,
74,
68,
76,
76,
56,
61,
64,
49,
60,
59,
58,
49,
57,
48,
50,
60,
52,
48,
41,
48,
49,
44,
43,
49,
54,
40,
41,
41,
48,
41,
37,
36,
44,
33,
28,
16,
26,
36,
32,
28,
26,
30,
36,
19,
35,
30,
23,
26,
22,
20,
15,
27,
23,
17,
15,
19,
21,
23,
14,
19,
16,
14,
18,
13,
17,
12,
13,
14,
13,
10,
9,
3,
9,
6,
11,
10,
10,
11,
5,
9,
8,
3,
5,
6,
1,
2,
5,
1,
1,
1,
0,
2,
2,
0,
0,
0,
0,
0,
1,
0,
0,
0,
0,
0,
0,
0,
0,
0,
0,
0,
0,
0,
0,
0,
0,
0,
0,
0,
0,
0,
0,
0,
0,
0,
0,
0,
0,
0,
0,
0,
0,
0,
0,
0,
0,
0,
0,
0,
0,
0,
1,
0,
0,
0,
0,
0,
0,
0,
0,
0,
0,
0,
2,
0,
0,
0,
0,
0,
0,
0,
0,
0,
0,
0,
0,
0,
0,
0,
0,
0,
0,
0,
0,
0,
0,
0,
0,
0,
0,
0,
0,
0,
0,
0,
0,
0,
0,
0,
0,
0,
0,
0,
0,
0,
0,
0,
0,
0,
0,
0,
0,
0,
0,
0,
0,
0,
0,
0,
0,
0,
0,
0,
0,
0,
0,
0,
0,
0,
0,
0,
0,
0,
0,
0,
0,
0,
0,
0,
0,
0,
0,
0,
0,
0,
0,
0,
0,
0,
0,
0,
0,
0,
0,
0,
0,
0,
0,
0,
0,
0,
0,
0,
0,
0,
0,
0,
0,
0,
0,
0,
0,
0,
0,
0,
0,
0,
0,
0,
0,
0,
0,
0,
0,
0,
0,
0,
0,
0,
0,
0,
0,
0,
0,
0,
0,
0,
0,
0,
0,
0,
0,
0,
0,
0,
0,
0,
0,
0,
0,
0,
0,
0,
0,
0,
0,
0,
0,
0,
0,
0,
0,
0,
0,
0,
0,
0,
0,
0,
0,
0,
0,
0,
0,
0,
0,
0,
0,
0,
0,
0,
0,
0,
0,
0,
0,
0,
0,
0,
0,
0,
0,
0,
0,
0,
0,
0,
0,
0,
0,
0,
0,
0,
0,
0,
0,
0,
0,
0,
0,
0,
0,
0,
0,
0,
0,
0,
0,
0,
0,
0,
0,
0,
0,
0,
0,
0,
0,
0,
0,
0,
0,
0,
0,
0,
0,
0,
0,
0,
0,
0,
0,
0,
0,
0,
0,
0,
0,
0,
0,
0,
0,
0,
0,
0,
0,
0,
0,
0,
0,
0,
0,
0,
0,
0,
0,
0,
0,
0,
0,
0,
0,
0,
0,
0,
0,
0,
0,
0,
0,
0,
0,
0,
0,
0,
0,
0,
0,
0,
0,
0,
0,
0,
0,
0,
0,
0,
0,
0,
0,
0,
0,
0,
0,
0,
0,
0,
0,
0,
0,
0,
0,
0,
0,
0,
0,
0,
0,
0,
0,
0,
0,
0,
0,
0,
0,
0,
0,
0,
0,
0,
0,
0,
0,
0,
0,
0,
0,
0,
0,
0,
0,
0,
0,
0,
0,
0,
0,
0,
0,
0,
0,
0,
0,
0,
0,
0,
0,
0,
0,
0,
0,
0,
0,
0,
0,
0,
0,
0,
0,
0,
0,
0,
0,
0,
0,
0,
0,
0,
0,
0,
0,
0,
0,
0,
0,
0,
0,
0,
0,
0,
0,
0,
0,
0,
0,
0,
0,
0,
0,
0,
0,
0,
0,
0,
0,
0,
0,
0,
0,
0,
0,
0,
0,
0,
0,
0,
0,
0,
0,
0,
0,
0,
0,
0,
0,
0,
0,
0,
0,
0,
0,
0,
0,
0,
0,
0,
0,
0,
0,
0,
0,
0,
0,
0,
0,
0,
0,
0,
0,
0,
0,
0,
0,
0,
0,
0,
0,
0,
0,
0,
0,
0,
0,
0,
0,
0,
0,
0,
0,
0,
0,
0,
0,
0,
0,
0,
0,
0,
0,
0,
0,
0,
0,
0,
0,
0,
0,
0,
0,
0,
0,
0,
0,
0,
0,
0,
0,
0,
0,
0,
0,
0,
0,
0,
0,
0,
0,
0,
0,
0,
0,
0,
0,
0,
0,
0,
0,
0,
0,
0,
0,
0,
0,
0,
0,
0,
0,
0,
0,
0,
0,
0,
0,
0,
0,
0,
0,
0,
0,
0,
0,
0,
0,
0,
0,
0,
0,
0,
0,
0,
0,
0,
0,
0,
0,
0,
0,
0,
0,
0,
0,
0,
0,
0,
0,
0,
0,
0,
0,
0,
0,
0,
0,
0,
0,
0,
0,
0,
0,
0,
0,
0,
0,
0,
0,
0,
0,
0,
0,
0,
0,
0,
0,
0,
0,
0,
0,
0,
0,
0,
0,
0,
0,
0,
0,
0,
0,
0,
0,
0,
0,
0,
0,
0,
0,
0,
0,
0,
0,
0,
0,
0,
0,
0,
0,
0,
0,
0,
0,
0,
0,
0,
0,
0,
0,
0,
0,
0,
0,
0,
0,
0,
0,
0,
0,
0,
0,
0,
0,
0,
0,
0,
0,
0,
0,
0,
0,
0,
0,
0,
0,
0,
0,
0,
0,
0,
0,
0,
0,
0,
0,
0,
0,
0,
0,
0,
0,
0,
0,
0,
0,
0,
0,
0,
0,
0,
0,
0,
0,
0,
0,
0,
0,
0,
0,
0,
0,
0,
0,
0,
0,
0,
0,
0,
0,
0,
0,
0,
0,
0,
0,
0,
0,
0,
0,
0,
0,
0,
0,
0,
0,
0,
0,
0,
0,
0,
0,
0,
0,
0,
0,
0,
0,
0,
0,
0,
0,
0,
0,
0,
0,
0,
0,
0,
0,
0,
0,
0,
0,
0,
0,
0,
0,
0,
0,
0,
0,
0,
0,
0,
0,
0,
0,
0,
0,
0,
0,
0,
0,
0,
0,
0,
0,
0,
0,
0,
0,
0,
0,
0,
0,
0,
0,
0,
0,
0,
0,
0,
0,
0,
0,
0,
0,
0,
0,
0,
0,
0,
0,
0,
0,
0,
0,
0,
0,
0,
#ENDOFDATA   :