File: N132962/Quantification/15 keV/GMIIIA/GMIIIA K1236[5][4].msa
#FORMAT      : EMSA/MAS Spectral Data File
#VERSION     : 1.0
#TITLE       : GMIIIA K1236[5][all]
#DATE        : 22-SEP-2025
#TIME        : 23:10
#OWNER       : Unknown
#NPOINTS     : 4096
#NCOLUMNS    : 1
#XUNITS      : eV
#YUNITS      : counts
#DATATYPE    : Y
#XPERCHAN    : 9.99778
#OFFSET      : 1.69135
#BEAMKV      : 15
#SIGNALTYPE  : EDS
#ELEVANGLE   : 35
#AZIMANGLE   : 0
#LIVETIME    : 239.913
#REALTIME    : 258.86
#PROBECUR    : 1.21388
#TAUWIND     : 0
#TDEADLYR    : 0
#TACTLYR     : 0.045
#TALWIND     : 0.025
#CHOFFSET    : 0.0
#XLABEL      : Energy (eV)
#YLABEL      : Counts
#XPOSITION   : 7.20556
#YPOSITION   : 18.96651
#ZPOSITION   : 37.36299
#EDSDET      : SD
##SPECIMEN   : GMIIIA K1236[5][all]
##D2STDCMP   : K1236,(O:21.27),(Sc:0.65),(Ge:40.95),(Pb:37.13)
##DET_HASH   : 12273538-fd48-a23f-0a19-f1e6fa85caef
##CALIB_HASH : 6abaa72c-aa41-8738-0be9-f592914732f3
##WORKING    : 15.0 mm
##DET_NAME   : EDAX All
##DET_MODE   : MediumLE
#SPECTRUM    :
23,
28,
11,
28,
179,
690,
2011,
4756,
10009,
12520,
8685,
6748,
6862,
7254,
8718,
18576,
55441,
100265,
74155,
23292,
8678,
7058,
7045,
7611,
7631,
7319,
7529,
7914,
8207,
8711,
8656,
9114,
9927,
13086,
18252,
19925,
18174,
25979,
75359,
172331,
210067,
137739,
53163,
17324,
8988,
6890,
6299,
6295,
6202,
6536,
6515,
6504,
6471,
6367,
6570,
6701,
7070,
7699,
8429,
9251,
10345,
10886,
9368,
7492,
6608,
6541,
6308,
6287,
6313,
6315,
6592,
6780,
7389,
7893,
8756,
12176,
24198,
49009,
70404,
67427,
54881,
49701,
43104,
26153,
12667,
7149,
6324,
7240,
8383,
8051,
6775,
5417,
4869,
4682,
4820,
4853,
5002,
4932,
4938,
5120,
5100,
5355,
5605,
5653,
5361,
5273,
4768,
4620,
4522,
4387,
4296,
4327,
4422,
4298,
4436,
4388,
4370,
4439,
4333,
4348,
4320,
4267,
4234,
4125,
4143,
4080,
3990,
3933,
3852,
3969,
3942,
3903,
3847,
4095,
4360,
5027,
5396,
5271,
4949,
4281,
3800,
3659,
3662,
3699,
3599,
3553,
3597,
3672,
3906,
3911,
3895,
3729,
3516,
3483,
3462,
3373,
3429,
3395,
3267,
3391,
3252,
3335,
3293,
3229,
3193,
3203,
3172,
3213,
3201,
3029,
3135,
3145,
2997,
3125,
3017,
2913,
3070,
2884,
2935,
2983,
2852,
2979,
2866,
2830,
2845,
2829,
2829,
2744,
2848,
2669,
2713,
2753,
2645,
2586,
2612,
2641,
2653,
2526,
2567,
2522,
2514,
2544,
2508,
2616,
2465,
2528,
2351,
2510,
2462,
2417,
2368,
2457,
2495,
2392,
2331,
2442,
2326,
2249,
2299,
2230,
2203,
2277,
2205,
2221,
2233,
2108,
2087,
2050,
2162,
2078,
2074,
2102,
1988,
2061,
2068,
2075,
1988,
2023,
1916,
1972,
1885,
1942,
1966,
1883,
1931,
1868,
1827,
1861,
1900,
1891,
1812,
1738,
1878,
1830,
1722,
1756,
1724,
1721,
1616,
1620,
1681,
1609,
1680,
1663,
1587,
1662,
1651,
1643,
1639,
1565,
1652,
1547,
1485,
1417,
1496,
1473,
1487,
1489,
1432,
1441,
1509,
1387,
1484,
1347,
1358,
1384,
1365,
1341,
1334,
1306,
1381,
1286,
1346,
1339,
1242,
1328,
1305,
1254,
1241,
1205,
1247,
1215,
1207,
1254,
1281,
1236,
1181,
1230,
1207,
1209,
1169,
1160,
1146,
1079,
1093,
1112,
1080,
1038,
1094,
1072,
1070,
1080,
1167,
1404,
1805,
2726,
4036,
5868,
7422,
7977,
7289,
5761,
4082,
2588,
1790,
1208,
1002,
946,
942,
830,
887,
874,
856,
887,
910,
916,
970,
1052,
1089,
1299,
1485,
1551,
1449,
1385,
1108,
1021,
864,
793,
788,
793,
834,
897,
1046,
1241,
1381,
1585,
1601,
1545,
1295,
1134,
909,
699,
689,
606,
601,
590,
594,
596,
576,
538,
601,
613,
560,
514,
548,
542,
521,
488,
550,
498,
511,
483,
495,
459,
446,
514,
484,
454,
485,
463,
428,
431,
445,
451,
437,
453,
425,
413,
402,
407,
431,
392,
374,
354,
367,
409,
377,
421,
434,
467,
422,
408,
445,
380,
352,
336,
311,
292,
312,
279,
290,
294,
292,
283,
277,
296,
261,
252,
233,
246,
247,
188,
210,
225,
229,
219,
213,
213,
195,
188,
209,
199,
219,
175,
155,
146,
146,
163,
138,
151,
141,
159,
127,
132,
139,
120,
122,
119,
112,
117,
112,
108,
117,
102,
97,
101,
92,
66,
85,
63,
73,
67,
56,
62,
63,
57,
44,
41,
47,
34,
37,
35,
33,
21,
26,
23,
11,
19,
13,
14,
8,
4,
7,
3,
4,
2,
0,
2,
2,
4,
5,
1,
3,
4,
1,
1,
2,
1,
3,
0,
3,
0,
6,
3,
3,
3,
4,
2,
1,
5,
2,
0,
1,
1,
3,
1,
0,
1,
2,
1,
1,
1,
1,
2,
1,
0,
4,
1,
1,
1,
4,
2,
2,
2,
2,
0,
1,
3,
2,
0,
1,
0,
1,
1,
1,
0,
4,
0,
1,
1,
3,
1,
0,
1,
0,
3,
3,
1,
0,
1,
1,
2,
0,
2,
1,
2,
1,
0,
0,
1,
0,
1,
0,
1,
1,
0,
3,
1,
0,
5,
2,
1,
1,
2,
3,
2,
1,
0,
3,
0,
2,
1,
2,
1,
1,
1,
0,
1,
0,
1,
0,
2,
0,
0,
1,
1,
0,
3,
1,
1,
0,
2,
3,
0,
3,
0,
0,
1,
1,
0,
1,
3,
0,
0,
1,
0,
1,
0,
1,
0,
1,
2,
0,
1,
1,
2,
1,
3,
1,
2,
1,
0,
0,
0,
0,
0,
0,
0,
0,
0,
0,
0,
0,
2,
1,
2,
0,
1,
0,
0,
0,
0,
0,
0,
0,
0,
0,
0,
0,
0,
0,
0,
0,
0,
0,
1,
1,
0,
0,
0,
0,
0,
0,
0,
0,
0,
0,
0,
0,
0,
0,
0,
0,
0,
0,
0,
0,
0,
0,
0,
1,
0,
0,
1,
0,
1,
0,
0,
0,
0,
0,
0,
0,
0,
0,
1,
0,
0,
0,
0,
1,
0,
0,
0,
0,
1,
0,
0,
0,
0,
0,
0,
0,
0,
0,
0,
0,
0,
0,
0,
0,
0,
0,
0,
0,
0,
0,
0,
0,
0,
0,
0,
0,
0,
0,
0,
0,
0,
0,
0,
0,
0,
0,
0,
0,
0,
0,
0,
0,
0,
0,
0,
0,
0,
0,
0,
0,
0,
0,
0,
0,
0,
0,
0,
0,
0,
0,
0,
0,
0,
0,
0,
0,
0,
0,
0,
0,
0,
0,
0,
0,
0,
0,
0,
0,
0,
0,
0,
1,
0,
0,
0,
0,
0,
0,
0,
0,
0,
0,
0,
0,
0,
0,
0,
0,
0,
0,
1,
0,
0,
0,
0,
0,
0,
0,
0,
1,
0,
0,
0,
0,
0,
0,
0,
0,
0,
1,
0,
0,
0,
0,
0,
0,
0,
0,
0,
0,
0,
0,
0,
0,
0,
0,
0,
0,
0,
0,
0,
0,
0,
0,
0,
0,
0,
0,
0,
0,
0,
0,
0,
0,
0,
0,
0,
0,
0,
0,
0,
0,
0,
0,
0,
0,
0,
0,
0,
0,
0,
0,
0,
0,
0,
0,
0,
0,
0,
0,
0,
0,
0,
0,
0,
0,
0,
0,
0,
0,
0,
0,
0,
0,
0,
0,
0,
0,
0,
0,
0,
0,
0,
0,
0,
0,
0,
0,
0,
0,
0,
0,
0,
0,
0,
0,
0,
0,
0,
0,
0,
0,
0,
0,
0,
0,
0,
0,
0,
0,
0,
0,
0,
0,
0,
0,
0,
0,
0,
0,
0,
0,
0,
0,
0,
0,
0,
0,
0,
0,
0,
0,
0,
0,
0,
0,
0,
0,
0,
0,
0,
0,
0,
0,
0,
0,
0,
0,
0,
0,
0,
0,
0,
0,
0,
0,
0,
0,
0,
0,
0,
0,
0,
0,
0,
0,
0,
0,
0,
0,
0,
0,
0,
0,
0,
0,
0,
0,
0,
0,
0,
0,
0,
0,
0,
0,
0,
0,
0,
0,
0,
0,
0,
0,
0,
0,
0,
0,
0,
0,
0,
0,
0,
0,
0,
0,
0,
0,
0,
0,
0,
0,
0,
0,
0,
0,
0,
0,
0,
0,
0,
0,
0,
0,
0,
0,
0,
0,
0,
0,
0,
0,
0,
0,
0,
0,
0,
0,
0,
0,
0,
0,
0,
0,
0,
0,
0,
0,
0,
0,
0,
0,
0,
0,
0,
0,
0,
0,
0,
0,
0,
0,
0,
0,
0,
0,
0,
0,
0,
0,
0,
0,
0,
0,
0,
0,
0,
0,
0,
0,
0,
0,
0,
0,
0,
0,
0,
0,
0,
0,
0,
0,
0,
0,
0,
0,
0,
0,
0,
0,
0,
0,
0,
0,
0,
0,
0,
0,
0,
0,
0,
0,
0,
0,
0,
0,
0,
0,
0,
0,
0,
0,
0,
0,
0,
0,
0,
0,
0,
0,
0,
0,
0,
0,
0,
0,
0,
0,
0,
0,
0,
0,
0,
0,
0,
0,
0,
0,
0,
0,
0,
0,
0,
0,
0,
0,
0,
0,
0,
0,
0,
0,
0,
0,
0,
0,
0,
0,
0,
0,
0,
0,
0,
0,
0,
0,
0,
0,
0,
0,
0,
0,
0,
0,
0,
0,
0,
0,
0,
0,
0,
0,
0,
0,
0,
0,
0,
0,
0,
0,
0,
0,
0,
0,
0,
0,
0,
0,
0,
0,
0,
0,
0,
0,
0,
0,
0,
0,
0,
0,
0,
0,
0,
0,
0,
0,
0,
0,
0,
0,
0,
0,
0,
0,
0,
0,
0,
0,
0,
0,
0,
0,
0,
0,
0,
0,
0,
0,
0,
0,
0,
0,
0,
0,
0,
0,
0,
0,
0,
0,
0,
0,
0,
0,
0,
0,
0,
0,
0,
0,
0,
0,
0,
0,
0,
0,
0,
0,
0,
0,
0,
0,
0,
0,
0,
0,
0,
0,
0,
0,
0,
0,
0,
0,
0,
0,
0,
0,
0,
#ENDOFDATA   :