File: N132962/Quantification/15 keV/GMIIIA/GMIIIA K1080[4][4].msa
#FORMAT      : EMSA/MAS Spectral Data File
#VERSION     : 1.0
#TITLE       : GMIIIA K1080[4][all]
#DATE        : 22-SEP-2025
#TIME        : 20:54
#OWNER       : Unknown
#NPOINTS     : 4096
#NCOLUMNS    : 1
#XUNITS      : eV
#YUNITS      : counts
#DATATYPE    : Y
#XPERCHAN    : 9.99778
#OFFSET      : 1.69135
#BEAMKV      : 15
#SIGNALTYPE  : EDS
#ELEVANGLE   : 35
#AZIMANGLE   : 0
#LIVETIME    : 239.949
#REALTIME    : 255.331
#PROBECUR    : 1.2178
#TAUWIND     : 0
#TDEADLYR    : 0
#TACTLYR     : 0.045
#TALWIND     : 0.025
#CHOFFSET    : 0.0
#XLABEL      : Energy (eV)
#YLABEL      : Counts
#XPOSITION   : 0.42176
#YPOSITION   : 15.75188
#ZPOSITION   : 37.36299
#EDSDET      : SD
##SPECIMEN   : GMIIIA K1080[4][all]
##D2STDCMP   : K1080,(Li:2.79),(B:0.62),(O:41.65),(Mg:1.21),(Al:7.94),(Si:18.7),(Ca:10.72),(Ti:1.2),(Sr:12.68),(Zr:0.74),(Lu:1.76)
##DET_HASH   : 12273538-fd48-a23f-0a19-f1e6fa85caef
##CALIB_HASH : 6abaa72c-aa41-8738-0be9-f592914732f3
##WORKING    : 15.0 mm
##DET_NAME   : EDAX All
##DET_MODE   : MediumLE
#SPECTRUM    :
27,
33,
5,
27,
134,
447,
1093,
2621,
5864,
8591,
7085,
5225,
4754,
5139,
7784,
23830,
85611,
161769,
118363,
31628,
5206,
3151,
3696,
3805,
3529,
3597,
3746,
3864,
4170,
4272,
4424,
4477,
4653,
5104,
5374,
5579,
5388,
5245,
5463,
6179,
8881,
14066,
15722,
11391,
7360,
6453,
7147,
13194,
36146,
69607,
70767,
40557,
20266,
14710,
12535,
17018,
48234,
118515,
165969,
138670,
90150,
57822,
35125,
20361,
11258,
7045,
5500,
5027,
4961,
4575,
4006,
3800,
3585,
3588,
3511,
3473,
3356,
3199,
3066,
2918,
2754,
2758,
2798,
2791,
2796,
2710,
2750,
2741,
2751,
2661,
2618,
2614,
2623,
2620,
2623,
2610,
2543,
2571,
2571,
2514,
2465,
2493,
2475,
2430,
2447,
2410,
2411,
2360,
2484,
2420,
2460,
2399,
2242,
2273,
2291,
2410,
2482,
2482,
2786,
3715,
7393,
16332,
29247,
36468,
30987,
18126,
7937,
3470,
2265,
2053,
2382,
2964,
4177,
5629,
6073,
5076,
3515,
2320,
1871,
1739,
1758,
1800,
1667,
1646,
1624,
1701,
1732,
1958,
2488,
3628,
4199,
4031,
3056,
2252,
1676,
1622,
1480,
1430,
1516,
1428,
1487,
1433,
1532,
1644,
1732,
1752,
1600,
1452,
1439,
1357,
1366,
1354,
1347,
1299,
1268,
1293,
1258,
1282,
1207,
1231,
1314,
1258,
1251,
1248,
1189,
1173,
1142,
1185,
1102,
1144,
1124,
1073,
1118,
1072,
1097,
1097,
1117,
1109,
1035,
1036,
1019,
1011,
1009,
1007,
998,
1002,
948,
977,
999,
955,
933,
939,
973,
871,
959,
930,
888,
957,
885,
815,
836,
897,
855,
875,
848,
825,
906,
850,
820,
808,
760,
781,
822,
781,
772,
736,
759,
753,
725,
780,
739,
700,
697,
677,
726,
740,
742,
681,
697,
681,
702,
711,
860,
921,
922,
985,
910,
861,
744,
663,
632,
625,
637,
610,
623,
617,
572,
574,
582,
616,
555,
554,
576,
551,
570,
518,
559,
559,
527,
559,
496,
484,
544,
531,
542,
520,
574,
543,
570,
597,
607,
530,
544,
564,
510,
510,
469,
465,
465,
462,
481,
499,
472,
485,
447,
460,
410,
447,
374,
381,
388,
366,
400,
414,
373,
390,
362,
367,
351,
381,
330,
349,
308,
378,
371,
321,
318,
347,
348,
342,
321,
326,
354,
368,
304,
324,
318,
342,
320,
290,
309,
301,
265,
306,
307,
313,
264,
276,
269,
272,
288,
256,
260,
261,
286,
229,
263,
253,
203,
236,
273,
226,
214,
201,
232,
214,
229,
202,
207,
188,
192,
202,
218,
208,
180,
216,
189,
187,
201,
176,
178,
191,
170,
164,
177,
175,
153,
182,
159,
157,
170,
146,
151,
131,
168,
140,
154,
141,
150,
164,
145,
147,
128,
137,
125,
132,
136,
145,
123,
104,
104,
128,
123,
105,
97,
100,
102,
87,
99,
95,
94,
103,
85,
111,
90,
79,
90,
71,
74,
94,
84,
67,
62,
65,
66,
66,
80,
76,
73,
60,
72,
66,
55,
67,
62,
53,
51,
54,
64,
58,
45,
55,
52,
44,
45,
58,
43,
39,
41,
45,
39,
45,
35,
31,
35,
24,
32,
34,
23,
26,
20,
27,
25,
29,
23,
26,
14,
19,
21,
21,
16,
9,
15,
18,
9,
9,
16,
14,
14,
14,
8,
12,
8,
5,
6,
9,
2,
2,
2,
1,
2,
1,
2,
1,
3,
0,
0,
0,
0,
1,
0,
0,
0,
0,
2,
0,
0,
0,
0,
1,
0,
1,
0,
0,
1,
0,
0,
0,
2,
0,
0,
0,
1,
0,
1,
0,
0,
0,
0,
0,
2,
0,
0,
0,
0,
0,
0,
0,
0,
0,
0,
2,
0,
0,
0,
0,
0,
0,
0,
0,
0,
0,
0,
0,
0,
0,
0,
0,
0,
0,
0,
0,
0,
0,
0,
0,
0,
0,
0,
0,
0,
0,
0,
0,
0,
0,
0,
0,
0,
0,
0,
0,
0,
0,
0,
0,
2,
0,
0,
0,
0,
0,
0,
0,
0,
0,
0,
0,
0,
0,
0,
0,
0,
0,
0,
0,
0,
0,
0,
0,
0,
0,
0,
0,
0,
0,
0,
0,
1,
0,
0,
0,
0,
0,
0,
0,
0,
0,
0,
0,
0,
0,
0,
0,
0,
0,
0,
0,
0,
0,
0,
0,
0,
0,
0,
0,
1,
0,
0,
0,
0,
0,
0,
0,
0,
0,
0,
0,
0,
0,
0,
0,
0,
0,
0,
1,
0,
0,
0,
0,
0,
0,
0,
0,
0,
0,
0,
0,
0,
0,
0,
0,
0,
0,
0,
0,
0,
0,
0,
0,
0,
0,
0,
0,
0,
0,
0,
0,
1,
0,
0,
0,
0,
0,
0,
0,
1,
0,
0,
1,
0,
0,
0,
0,
0,
0,
0,
0,
0,
0,
0,
0,
1,
0,
0,
0,
0,
0,
0,
0,
0,
0,
0,
0,
0,
0,
0,
0,
0,
0,
0,
0,
0,
0,
0,
0,
0,
0,
0,
0,
0,
0,
0,
0,
0,
0,
0,
0,
0,
0,
0,
0,
0,
0,
0,
0,
0,
0,
0,
0,
0,
0,
0,
0,
0,
0,
0,
0,
0,
0,
0,
0,
0,
0,
0,
0,
0,
0,
0,
0,
0,
0,
0,
0,
0,
0,
0,
0,
0,
0,
0,
0,
0,
0,
0,
0,
0,
0,
0,
0,
0,
0,
0,
0,
0,
0,
0,
0,
0,
0,
0,
0,
0,
0,
0,
0,
0,
0,
0,
0,
0,
0,
0,
0,
0,
0,
0,
0,
0,
0,
0,
0,
0,
0,
0,
0,
0,
0,
0,
0,
0,
0,
0,
0,
0,
0,
0,
0,
0,
0,
0,
0,
0,
0,
0,
0,
0,
0,
0,
0,
0,
0,
0,
0,
0,
0,
0,
0,
0,
0,
0,
0,
0,
0,
0,
0,
0,
0,
0,
0,
0,
0,
0,
0,
0,
0,
0,
0,
0,
0,
0,
0,
0,
0,
0,
0,
0,
0,
0,
0,
0,
0,
0,
0,
0,
0,
0,
0,
0,
0,
0,
0,
0,
0,
0,
0,
0,
0,
0,
0,
0,
0,
0,
0,
0,
0,
0,
0,
0,
0,
0,
0,
0,
0,
0,
0,
0,
0,
0,
0,
0,
0,
0,
0,
0,
0,
0,
0,
0,
0,
0,
0,
0,
0,
0,
0,
0,
0,
0,
0,
0,
0,
0,
0,
0,
0,
0,
0,
0,
0,
0,
0,
0,
0,
0,
0,
0,
0,
0,
0,
0,
0,
0,
0,
0,
0,
0,
0,
0,
0,
0,
0,
0,
0,
0,
0,
0,
0,
0,
0,
0,
0,
0,
0,
0,
0,
0,
0,
0,
0,
0,
0,
0,
0,
0,
0,
0,
0,
0,
0,
0,
0,
0,
0,
0,
0,
0,
0,
0,
0,
0,
0,
0,
0,
0,
0,
0,
0,
0,
0,
0,
0,
0,
0,
0,
0,
0,
0,
0,
0,
0,
0,
0,
0,
0,
0,
0,
0,
0,
0,
0,
0,
0,
0,
0,
0,
0,
0,
0,
0,
0,
0,
0,
0,
0,
0,
0,
0,
0,
0,
0,
0,
0,
0,
0,
0,
0,
0,
0,
0,
0,
0,
0,
0,
0,
0,
0,
0,
0,
0,
0,
0,
0,
0,
0,
0,
0,
0,
0,
0,
0,
0,
0,
0,
0,
0,
0,
0,
0,
0,
0,
0,
0,
0,
0,
0,
0,
0,
0,
0,
0,
0,
0,
0,
0,
0,
0,
0,
0,
0,
0,
0,
0,
0,
0,
0,
0,
0,
0,
0,
0,
0,
0,
0,
0,
0,
0,
0,
0,
0,
0,
0,
0,
0,
0,
0,
0,
0,
0,
0,
0,
0,
0,
0,
0,
0,
0,
0,
0,
0,
0,
0,
0,
0,
0,
0,
0,
0,
0,
0,
0,
0,
0,
0,
0,
0,
0,
0,
0,
0,
0,
0,
0,
0,
0,
0,
0,
0,
0,
0,
0,
0,
0,
0,
0,
0,
0,
0,
0,
0,
0,
0,
0,
0,
0,
0,
0,
0,
0,
0,
0,
0,
0,
0,
0,
0,
0,
0,
0,
0,
0,
0,
0,
0,
0,
0,
0,
0,
0,
0,
0,
0,
0,
0,
0,
0,
0,
0,
0,
0,
0,
0,
0,
0,
0,
0,
0,
0,
0,
0,
0,
0,
0,
0,
0,
0,
0,
0,
0,
0,
0,
0,
0,
0,
0,
0,
0,
0,
0,
0,
0,
0,
0,
0,
0,
0,
0,
0,
0,
0,
0,
0,
0,
0,
0,
0,
0,
0,
0,
0,
0,
0,
0,
0,
0,
0,
0,
0,
0,
0,
0,
0,
0,
0,
0,
0,
0,
0,
0,
0,
0,
0,
0,
0,
0,
0,
0,
0,
0,
0,
0,
0,
0,
0,
0,
0,
#ENDOFDATA   :