File: N132962/Quantification/15 keV/GMIIIA/GMIIIA K227[4][4].msa
#FORMAT      : EMSA/MAS Spectral Data File
#VERSION     : 1.0
#TITLE       : GMIIIA K227[4][all]
#DATE        : 22-SEP-2025
#TIME        : 14:20
#OWNER       : Unknown
#NPOINTS     : 4096
#NCOLUMNS    : 1
#XUNITS      : eV
#YUNITS      : counts
#DATATYPE    : Y
#XPERCHAN    : 9.99778
#OFFSET      : 1.69135
#BEAMKV      : 15
#SIGNALTYPE  : EDS
#ELEVANGLE   : 35
#AZIMANGLE   : 0
#LIVETIME    : 239.661
#REALTIME    : 260.843
#PROBECUR    : 1.21983
#TAUWIND     : 0
#TDEADLYR    : 0
#TACTLYR     : 0.045
#TALWIND     : 0.025
#CHOFFSET    : 0.0
#XLABEL      : Energy (eV)
#YLABEL      : Counts
#XPOSITION   : 7.7164
#YPOSITION   : 0.28814
#ZPOSITION   : 37.36299
#EDSDET      : SD
##SPECIMEN   : GMIIIA K227[4][all]
##D2STDCMP   : K227,(O:16.39),(Si:9.35),(Pb:74.27)
##DET_HASH   : 12273538-fd48-a23f-0a19-f1e6fa85caef
##CALIB_HASH : 6abaa72c-aa41-8738-0be9-f592914732f3
##WORKING    : 15.0 mm
##DET_NAME   : EDAX All
##DET_MODE   : MediumLE
#SPECTRUM    :
36,
27,
12,
65,
298,
1051,
3066,
6591,
12825,
15380,
10755,
7984,
7276,
7443,
8332,
15217,
41827,
73386,
54185,
19733,
10295,
9917,
11157,
11254,
9201,
7624,
7327,
7678,
8058,
8150,
8125,
8311,
8373,
8751,
8948,
8940,
8942,
8958,
9299,
9485,
9667,
9708,
9744,
9894,
10118,
10219,
10210,
10286,
10407,
10642,
10955,
10535,
10570,
10720,
11442,
15528,
35168,
76375,
101177,
76676,
42965,
27297,
19302,
12796,
9745,
8962,
8643,
8324,
8248,
8654,
8973,
9697,
10712,
11965,
13978,
22075,
49093,
103978,
152951,
147618,
116702,
106055,
89964,
53571,
22594,
10278,
8142,
9799,
11652,
11172,
8736,
6422,
5584,
5157,
5172,
5161,
5504,
5605,
5791,
5782,
5919,
6342,
6877,
6775,
6603,
6171,
5720,
5351,
5236,
4950,
4884,
4807,
4821,
4778,
4823,
4804,
4797,
4876,
4909,
4769,
4755,
4665,
4674,
4669,
4644,
4713,
4757,
4516,
4571,
4464,
4364,
4402,
4364,
4503,
4454,
4553,
4474,
4403,
4444,
4433,
4518,
4418,
4348,
4257,
4185,
4247,
4082,
4156,
4268,
4418,
4570,
4544,
4300,
4156,
4161,
4140,
4121,
4244,
4084,
4152,
4061,
4100,
4126,
4003,
4047,
3992,
4053,
3864,
3800,
3862,
3745,
3865,
3834,
3698,
3804,
3695,
3611,
3696,
3639,
3536,
3681,
3642,
3671,
3503,
3500,
3497,
3631,
3521,
3499,
3445,
3302,
3427,
3331,
3282,
3321,
3220,
3356,
3327,
3333,
3199,
3260,
3204,
3250,
3216,
3223,
3120,
3133,
3089,
3040,
3024,
3046,
3118,
3098,
3008,
3066,
2927,
2910,
3060,
2891,
2852,
2902,
2850,
2903,
2814,
2798,
2801,
2688,
2693,
2588,
2743,
2713,
2663,
2668,
2622,
2585,
2604,
2542,
2597,
2512,
2458,
2536,
2480,
2497,
2492,
2412,
2410,
2455,
2487,
2468,
2364,
2559,
2306,
2423,
2350,
2315,
2243,
2244,
2236,
2184,
2183,
2273,
2174,
2152,
2217,
2159,
2065,
2172,
2090,
2029,
2069,
2055,
2112,
2046,
1956,
2105,
2051,
2010,
1918,
2003,
1924,
1941,
1948,
1899,
1928,
1808,
1849,
1821,
1911,
1876,
1798,
1805,
1822,
1782,
1817,
1737,
1689,
1724,
1724,
1715,
1702,
1613,
1674,
1638,
1694,
1684,
1709,
1679,
1660,
1588,
1549,
1539,
1625,
1560,
1541,
1487,
1479,
1519,
1472,
1495,
1515,
1485,
1457,
1365,
1443,
1432,
1357,
1357,
1380,
1421,
1343,
1343,
1329,
1299,
1276,
1328,
1246,
1233,
1232,
1294,
1216,
1171,
1198,
1226,
1222,
1265,
1248,
1348,
1573,
1876,
2165,
2485,
2625,
2579,
2318,
1877,
1629,
1383,
1104,
1061,
999,
994,
977,
965,
937,
962,
949,
958,
963,
932,
951,
937,
850,
865,
882,
851,
849,
820,
869,
836,
840,
850,
768,
797,
787,
720,
760,
745,
729,
767,
724,
709,
739,
730,
730,
715,
694,
653,
659,
629,
639,
629,
625,
586,
606,
649,
643,
560,
549,
531,
605,
580,
531,
564,
546,
523,
545,
585,
666,
673,
745,
750,
748,
694,
589,
550,
504,
471,
461,
420,
392,
465,
435,
413,
401,
438,
380,
402,
322,
354,
343,
351,
348,
363,
359,
313,
298,
318,
298,
292,
290,
252,
283,
267,
252,
223,
245,
234,
223,
205,
191,
212,
223,
197,
211,
187,
184,
175,
179,
152,
157,
160,
147,
127,
145,
131,
127,
118,
132,
116,
117,
101,
104,
95,
101,
104,
86,
73,
75,
64,
61,
52,
50,
44,
40,
33,
36,
20,
18,
11,
12,
11,
10,
7,
7,
5,
8,
4,
3,
4,
2,
6,
0,
5,
5,
4,
1,
1,
2,
3,
5,
3,
5,
4,
4,
3,
2,
1,
4,
2,
0,
1,
1,
2,
0,
1,
2,
2,
0,
4,
2,
4,
1,
4,
4,
3,
2,
2,
1,
5,
1,
2,
1,
1,
2,
0,
4,
1,
3,
0,
4,
1,
2,
0,
2,
3,
2,
6,
2,
1,
2,
2,
1,
3,
2,
4,
0,
1,
0,
1,
4,
5,
1,
1,
1,
2,
2,
1,
2,
0,
2,
3,
1,
0,
1,
4,
2,
0,
5,
2,
1,
0,
0,
1,
5,
0,
2,
1,
4,
2,
2,
0,
0,
2,
2,
1,
0,
0,
1,
1,
1,
0,
0,
3,
1,
0,
1,
1,
2,
0,
1,
1,
0,
1,
1,
3,
2,
0,
2,
0,
1,
3,
2,
0,
1,
2,
0,
0,
0,
1,
2,
1,
1,
1,
0,
0,
2,
2,
1,
1,
1,
0,
0,
1,
1,
0,
1,
0,
0,
1,
3,
0,
0,
0,
0,
2,
0,
0,
1,
0,
0,
0,
2,
0,
0,
0,
1,
0,
1,
0,
0,
0,
3,
0,
0,
1,
1,
1,
0,
0,
1,
0,
1,
1,
0,
0,
1,
0,
2,
0,
0,
0,
0,
0,
1,
0,
0,
0,
0,
0,
1,
0,
1,
0,
1,
0,
2,
0,
1,
0,
1,
0,
0,
0,
0,
0,
1,
1,
0,
0,
0,
0,
0,
0,
0,
1,
0,
1,
0,
0,
0,
0,
0,
0,
0,
0,
0,
0,
0,
0,
1,
1,
0,
0,
0,
0,
2,
0,
0,
0,
1,
0,
0,
1,
0,
0,
0,
1,
0,
0,
1,
0,
0,
0,
1,
0,
0,
0,
0,
0,
0,
0,
0,
0,
0,
0,
0,
0,
0,
0,
0,
0,
0,
0,
0,
0,
0,
0,
0,
0,
0,
0,
0,
0,
0,
0,
0,
0,
0,
0,
0,
0,
0,
0,
0,
0,
1,
0,
0,
0,
0,
0,
0,
0,
0,
0,
0,
0,
0,
0,
0,
0,
0,
0,
0,
0,
0,
0,
0,
0,
0,
0,
0,
0,
0,
1,
0,
0,
0,
0,
0,
0,
0,
0,
0,
0,
0,
0,
0,
0,
0,
0,
0,
0,
0,
0,
0,
0,
0,
0,
0,
0,
0,
0,
0,
0,
0,
0,
0,
0,
0,
0,
0,
0,
0,
0,
0,
0,
0,
0,
0,
0,
0,
0,
0,
0,
0,
0,
0,
0,
0,
0,
0,
0,
0,
0,
0,
0,
0,
0,
0,
0,
0,
0,
0,
0,
0,
0,
0,
0,
0,
0,
0,
0,
0,
0,
0,
0,
0,
0,
0,
0,
0,
0,
0,
0,
0,
0,
0,
0,
0,
0,
0,
0,
0,
0,
0,
0,
0,
0,
0,
0,
0,
0,
0,
0,
0,
0,
0,
0,
0,
0,
0,
0,
0,
0,
0,
0,
0,
0,
0,
0,
0,
0,
0,
0,
0,
0,
0,
0,
0,
0,
0,
0,
0,
0,
0,
0,
0,
0,
0,
0,
0,
0,
0,
0,
0,
0,
0,
0,
0,
0,
0,
0,
0,
0,
0,
0,
0,
0,
0,
0,
0,
0,
0,
0,
0,
0,
0,
0,
0,
0,
0,
0,
0,
0,
0,
0,
0,
0,
0,
0,
0,
0,
0,
0,
0,
0,
0,
0,
0,
0,
0,
0,
0,
0,
0,
0,
0,
0,
0,
0,
0,
0,
0,
0,
0,
0,
0,
0,
0,
0,
0,
0,
0,
0,
0,
0,
0,
0,
0,
0,
0,
0,
0,
0,
0,
0,
0,
0,
0,
0,
0,
0,
0,
0,
0,
0,
0,
0,
0,
0,
0,
0,
0,
0,
0,
0,
0,
0,
0,
0,
0,
0,
0,
0,
0,
0,
0,
0,
0,
0,
0,
0,
0,
0,
0,
0,
0,
0,
0,
0,
0,
0,
0,
0,
0,
0,
0,
0,
0,
0,
0,
0,
0,
0,
0,
0,
0,
0,
0,
0,
0,
0,
0,
0,
0,
0,
0,
0,
0,
0,
0,
0,
0,
0,
0,
0,
0,
0,
0,
0,
0,
0,
0,
0,
0,
0,
0,
0,
0,
0,
0,
0,
0,
0,
0,
0,
0,
0,
0,
0,
0,
0,
0,
0,
0,
0,
0,
0,
0,
0,
0,
0,
0,
0,
0,
0,
0,
0,
0,
0,
0,
0,
0,
0,
0,
0,
0,
0,
0,
0,
0,
0,
0,
0,
0,
0,
0,
0,
0,
0,
0,
0,
0,
0,
0,
0,
0,
0,
0,
0,
0,
0,
0,
0,
0,
0,
0,
0,
0,
0,
0,
0,
0,
0,
0,
0,
0,
0,
0,
0,
0,
0,
0,
0,
0,
0,
0,
0,
0,
0,
0,
0,
0,
0,
0,
0,
0,
0,
0,
0,
0,
0,
0,
0,
0,
0,
0,
0,
0,
0,
0,
0,
0,
0,
0,
0,
0,
0,
0,
0,
0,
0,
0,
0,
0,
0,
0,
0,
0,
0,
0,
0,
0,
0,
0,
0,
0,
0,
0,
0,
0,
0,
0,
0,
0,
0,
0,
0,
0,
0,
0,
0,
0,
0,
0,
0,
0,
0,
0,
0,
0,
0,
0,
0,
0,
0,
0,
0,
0,
0,
0,
0,
0,
0,
0,
0,
0,
0,
0,
0,
0,
0,
0,
0,
0,
#ENDOFDATA   :