File: N132962/Quantification/15 keV/GMIIIA/GMIIIA K1070[6][4].msa
#FORMAT      : EMSA/MAS Spectral Data File
#VERSION     : 1.0
#TITLE       : GMIIIA K1070[6][all]
#DATE        : 22-SEP-2025
#TIME        : 21:07
#OWNER       : Unknown
#NPOINTS     : 4096
#NCOLUMNS    : 1
#XUNITS      : eV
#YUNITS      : counts
#DATATYPE    : Y
#XPERCHAN    : 9.99778
#OFFSET      : 1.69135
#BEAMKV      : 15
#SIGNALTYPE  : EDS
#ELEVANGLE   : 35
#AZIMANGLE   : 0
#LIVETIME    : 239.978
#REALTIME    : 256.165
#PROBECUR    : 1.21822
#TAUWIND     : 0
#TDEADLYR    : 0
#TACTLYR     : 0.045
#TALWIND     : 0.025
#CHOFFSET    : 0.0
#XLABEL      : Energy (eV)
#YLABEL      : Counts
#XPOSITION   : 2.35497
#YPOSITION   : 15.62999
#ZPOSITION   : 37.36299
#EDSDET      : SD
##SPECIMEN   : GMIIIA K1070[6][all]
##D2STDCMP   : K1070,(O:34.31),(Mg:7.54),(Si:18.7),(Ca:8.93),(Zn:10.04),(Ba:11.2),(Pb:9.28)
##DET_HASH   : 12273538-fd48-a23f-0a19-f1e6fa85caef
##CALIB_HASH : 6abaa72c-aa41-8738-0be9-f592914732f3
##WORKING    : 15.0 mm
##DET_NAME   : EDAX All
##DET_MODE   : MediumLE
#SPECTRUM    :
33,
28,
7,
28,
121,
444,
1319,
3290,
7661,
10556,
8693,
6612,
5769,
6078,
8840,
25550,
88711,
165076,
121213,
35024,
8361,
5130,
4831,
5262,
5184,
5958,
6475,
6431,
6565,
7393,
7794,
8939,
17356,
36163,
44728,
29677,
12837,
7037,
6405,
8290,
20244,
44329,
52550,
31327,
11926,
6227,
5313,
5361,
5496,
5778,
5891,
6060,
5918,
5934,
6835,
13431,
44248,
108560,
146168,
104848,
44524,
17595,
9711,
6152,
4744,
4382,
4346,
4154,
3930,
4043,
3926,
4100,
4258,
4332,
4671,
5537,
8144,
13534,
18121,
17713,
14416,
13532,
12009,
8238,
5220,
3944,
3796,
4064,
4221,
4191,
3916,
3647,
3430,
3298,
3350,
3443,
3460,
3332,
3369,
3421,
3379,
3424,
3485,
3455,
3311,
3283,
3201,
3095,
3049,
2975,
3000,
3028,
2923,
3037,
3011,
2911,
3036,
3055,
3223,
4117,
7202,
14748,
25836,
32078,
27348,
16278,
7672,
3768,
2940,
2773,
2986,
3676,
4809,
5885,
6233,
5384,
3898,
2880,
2522,
2401,
2328,
2315,
2401,
2429,
2515,
3135,
4474,
7269,
10674,
11862,
9865,
6593,
3978,
2677,
2197,
2112,
2137,
2321,
2963,
4239,
5565,
6323,
5990,
4791,
3826,
2993,
2568,
2239,
2147,
2269,
2684,
3164,
3443,
3098,
2621,
2158,
1815,
1729,
1724,
1854,
1731,
1850,
1904,
2096,
2276,
2196,
2004,
1871,
1689,
1669,
1603,
1675,
1795,
1766,
1639,
1636,
1545,
1535,
1462,
1431,
1407,
1381,
1440,
1383,
1429,
1375,
1374,
1370,
1322,
1345,
1322,
1341,
1339,
1351,
1293,
1318,
1261,
1254,
1260,
1203,
1218,
1212,
1208,
1135,
1175,
1109,
1194,
1121,
1151,
1110,
1148,
1123,
1082,
1086,
1056,
1095,
1055,
1014,
1052,
1059,
930,
1062,
1046,
1007,
955,
1010,
991,
1004,
997,
1071,
937,
970,
975,
924,
851,
911,
836,
858,
914,
862,
897,
861,
903,
810,
878,
840,
819,
863,
807,
802,
821,
833,
787,
767,
806,
889,
771,
788,
806,
726,
751,
820,
870,
1167,
1616,
2388,
3230,
3905,
3790,
3430,
2483,
1696,
1128,
833,
665,
708,
671,
683,
687,
659,
681,
665,
624,
636,
662,
679,
630,
601,
644,
607,
625,
594,
591,
582,
606,
664,
712,
832,
859,
1017,
974,
823,
721,
640,
538,
510,
483,
491,
512,
490,
556,
484,
471,
436,
478,
470,
461,
447,
458,
411,
429,
409,
398,
416,
436,
402,
424,
445,
487,
514,
510,
519,
533,
453,
436,
436,
420,
367,
368,
363,
356,
355,
342,
345,
341,
384,
340,
327,
300,
350,
326,
304,
315,
311,
292,
330,
287,
298,
289,
294,
280,
294,
275,
274,
283,
247,
262,
277,
274,
258,
255,
226,
237,
219,
230,
233,
227,
216,
217,
213,
212,
225,
215,
202,
191,
202,
203,
167,
204,
200,
200,
177,
189,
179,
168,
157,
165,
164,
190,
189,
162,
192,
172,
169,
168,
143,
170,
137,
130,
131,
138,
118,
120,
132,
141,
97,
114,
124,
119,
108,
115,
106,
109,
115,
112,
107,
83,
88,
81,
74,
84,
76,
84,
77,
64,
73,
91,
63,
58,
71,
49,
58,
58,
52,
59,
48,
59,
46,
56,
59,
46,
33,
44,
39,
36,
35,
29,
38,
30,
22,
25,
28,
25,
35,
26,
28,
28,
16,
16,
27,
20,
19,
7,
10,
10,
6,
7,
3,
5,
7,
2,
5,
1,
2,
1,
0,
2,
3,
0,
2,
2,
1,
1,
1,
1,
2,
0,
1,
0,
2,
0,
0,
0,
0,
1,
3,
1,
0,
2,
1,
1,
0,
1,
1,
0,
2,
2,
1,
1,
3,
1,
1,
0,
1,
1,
0,
0,
0,
0,
0,
0,
1,
0,
0,
0,
0,
0,
1,
0,
0,
0,
1,
2,
0,
0,
0,
1,
0,
0,
0,
0,
1,
1,
0,
2,
0,
1,
3,
2,
0,
1,
0,
0,
0,
0,
1,
0,
0,
0,
1,
2,
0,
1,
0,
1,
0,
0,
0,
0,
0,
0,
1,
0,
0,
0,
0,
1,
0,
0,
1,
0,
1,
0,
0,
0,
0,
0,
1,
0,
0,
0,
0,
0,
0,
0,
0,
2,
0,
0,
0,
0,
0,
1,
0,
1,
0,
0,
0,
1,
1,
1,
1,
0,
0,
0,
1,
0,
0,
1,
0,
0,
0,
0,
0,
0,
0,
0,
0,
0,
0,
0,
0,
0,
0,
0,
1,
0,
2,
0,
0,
0,
0,
0,
0,
0,
0,
0,
1,
0,
0,
0,
0,
1,
0,
0,
0,
0,
0,
0,
0,
0,
1,
0,
0,
0,
0,
0,
0,
0,
0,
0,
0,
0,
0,
0,
0,
0,
0,
0,
0,
1,
0,
0,
0,
0,
0,
0,
0,
0,
0,
0,
0,
0,
0,
0,
0,
0,
1,
0,
0,
0,
0,
0,
0,
0,
0,
0,
0,
0,
0,
1,
0,
0,
0,
0,
0,
0,
0,
0,
0,
0,
0,
0,
0,
0,
0,
0,
0,
0,
0,
0,
0,
0,
0,
0,
0,
0,
0,
0,
0,
0,
0,
0,
0,
0,
0,
0,
0,
0,
0,
0,
0,
0,
0,
0,
0,
0,
1,
0,
0,
0,
0,
0,
0,
0,
0,
0,
0,
0,
1,
0,
0,
0,
0,
0,
0,
0,
0,
0,
0,
0,
0,
0,
0,
0,
0,
0,
0,
0,
0,
0,
0,
0,
0,
0,
0,
0,
0,
0,
0,
0,
0,
0,
0,
0,
0,
0,
0,
0,
0,
0,
0,
0,
0,
0,
0,
0,
0,
0,
0,
0,
0,
0,
0,
0,
0,
0,
0,
0,
0,
0,
0,
0,
0,
0,
0,
0,
0,
0,
0,
0,
0,
0,
0,
0,
0,
0,
1,
0,
0,
0,
0,
0,
0,
0,
0,
0,
0,
0,
0,
0,
0,
0,
0,
0,
0,
0,
0,
0,
0,
0,
0,
0,
0,
0,
0,
0,
0,
0,
0,
0,
0,
0,
0,
0,
0,
0,
0,
0,
0,
0,
0,
0,
0,
0,
0,
0,
0,
0,
0,
0,
0,
0,
0,
0,
0,
0,
0,
0,
0,
0,
0,
0,
0,
0,
0,
0,
0,
0,
0,
0,
0,
0,
0,
0,
0,
0,
0,
0,
0,
0,
0,
0,
0,
0,
0,
0,
0,
0,
0,
0,
0,
0,
0,
0,
0,
0,
0,
0,
0,
0,
0,
0,
0,
0,
0,
0,
0,
0,
0,
0,
0,
0,
0,
0,
0,
0,
0,
0,
0,
0,
0,
0,
0,
0,
0,
0,
0,
0,
0,
0,
0,
0,
0,
0,
0,
0,
0,
0,
0,
0,
0,
0,
0,
0,
0,
0,
0,
0,
0,
0,
0,
0,
0,
0,
0,
0,
0,
0,
0,
0,
0,
0,
0,
0,
0,
0,
0,
0,
0,
0,
0,
0,
0,
0,
0,
0,
0,
0,
0,
0,
0,
0,
0,
0,
0,
0,
0,
0,
0,
0,
0,
0,
0,
0,
0,
0,
0,
0,
0,
0,
0,
0,
0,
0,
0,
0,
0,
0,
0,
0,
0,
0,
0,
0,
0,
0,
0,
0,
0,
0,
0,
0,
0,
0,
0,
0,
0,
0,
0,
0,
0,
0,
0,
0,
0,
0,
0,
0,
0,
0,
0,
0,
0,
0,
0,
0,
0,
0,
0,
0,
0,
0,
0,
0,
0,
0,
0,
0,
0,
0,
0,
0,
0,
0,
0,
0,
0,
0,
0,
0,
0,
0,
0,
0,
0,
0,
0,
0,
0,
0,
0,
0,
0,
0,
0,
0,
0,
0,
0,
0,
0,
0,
0,
0,
0,
0,
0,
0,
0,
0,
0,
0,
0,
0,
0,
0,
0,
0,
0,
0,
0,
0,
0,
0,
0,
0,
0,
0,
0,
0,
0,
0,
0,
0,
0,
0,
0,
0,
0,
0,
0,
0,
0,
0,
0,
0,
0,
0,
0,
0,
0,
0,
0,
0,
0,
0,
0,
0,
0,
0,
0,
0,
0,
0,
0,
0,
0,
0,
0,
0,
0,
0,
0,
0,
0,
0,
0,
0,
0,
0,
0,
0,
0,
0,
0,
0,
0,
0,
0,
0,
0,
0,
0,
0,
0,
0,
0,
0,
0,
0,
0,
0,
0,
0,
0,
0,
0,
0,
0,
0,
0,
0,
0,
0,
0,
0,
0,
0,
0,
0,
0,
0,
0,
0,
0,
0,
0,
0,
0,
0,
0,
0,
0,
0,
0,
0,
0,
0,
0,
0,
0,
0,
0,
0,
0,
0,
0,
0,
0,
0,
0,
0,
0,
0,
0,
0,
0,
0,
0,
0,
0,
0,
0,
0,
0,
0,
0,
0,
0,
0,
0,
0,
0,
0,
0,
0,
0,
0,
0,
0,
0,
0,
0,
0,
0,
0,
0,
0,
0,
0,
0,
0,
0,
0,
0,
#ENDOFDATA   :