File: N132962/Quantification/15 keV/GMIIIA/GMIIIA K230[3][4].msa
#FORMAT      : EMSA/MAS Spectral Data File
#VERSION     : 1.0
#TITLE       : GMIIIA K230[3][all]
#DATE        : 22-SEP-2025
#TIME        : 14:35
#OWNER       : Unknown
#NPOINTS     : 4096
#NCOLUMNS    : 1
#XUNITS      : eV
#YUNITS      : counts
#DATATYPE    : Y
#XPERCHAN    : 9.99778
#OFFSET      : 1.69135
#BEAMKV      : 15
#SIGNALTYPE  : EDS
#ELEVANGLE   : 35
#AZIMANGLE   : 0
#LIVETIME    : 239.837
#REALTIME    : 258.598
#PROBECUR    : 1.21983
#TAUWIND     : 0
#TDEADLYR    : 0
#TACTLYR     : 0.045
#TALWIND     : 0.025
#CHOFFSET    : 0.0
#XLABEL      : Energy (eV)
#YLABEL      : Counts
#XPOSITION   : 3.87183
#YPOSITION   : 0.88845
#ZPOSITION   : 37.36299
#EDSDET      : SD
##SPECIMEN   : GMIIIA K230[3][all]
##D2STDCMP   : K230,(O:24.49),(Al:2.65),(Si:14.02),(Zn:4.02),(Ba:8.96),(Ta:4.09),(Pb:41.77)
##DET_HASH   : 12273538-fd48-a23f-0a19-f1e6fa85caef
##CALIB_HASH : 6abaa72c-aa41-8738-0be9-f592914732f3
##WORKING    : 15.0 mm
##DET_NAME   : EDAX All
##DET_MODE   : MediumLE
#SPECTRUM    :
23,
25,
8,
45,
191,
732,
2147,
5136,
11388,
14037,
9188,
6467,
6688,
7439,
9142,
21331,
66435,
121727,
89199,
27798,
10097,
7572,
7518,
7808,
7274,
7397,
7797,
7652,
7552,
7906,
7853,
8629,
12122,
20327,
24962,
19262,
11509,
8161,
7596,
7425,
7649,
7771,
7969,
8369,
8903,
8743,
8743,
10448,
17230,
27561,
27655,
18424,
11358,
9386,
9776,
17747,
48072,
104801,
136422,
98941,
46713,
23269,
14276,
9304,
7473,
7371,
7888,
8436,
7919,
6922,
6625,
6932,
7446,
8042,
9097,
13042,
26498,
53711,
77084,
74138,
59443,
54107,
46107,
27980,
13231,
6994,
6306,
7224,
8405,
8186,
6628,
5302,
4705,
4422,
4599,
4587,
4658,
4663,
4636,
4739,
4977,
5045,
5281,
5320,
5108,
4851,
4721,
4386,
4269,
4150,
4108,
4162,
4260,
4137,
4094,
4124,
4032,
4221,
4172,
3982,
3860,
3956,
3947,
3998,
3936,
3938,
3827,
3842,
3800,
3867,
3977,
3928,
3939,
3820,
3748,
3831,
3613,
3632,
3651,
3586,
3637,
3506,
3569,
3518,
3762,
4186,
5522,
7719,
10490,
11372,
9895,
7064,
4815,
3652,
3340,
3264,
3286,
3542,
4030,
4973,
6237,
6832,
6482,
5493,
4627,
4000,
3655,
3289,
3323,
3375,
3750,
3946,
4223,
4116,
3578,
3100,
2928,
2773,
2874,
2867,
2793,
2873,
2991,
3074,
3204,
3294,
2999,
2855,
2690,
2725,
2651,
2636,
2743,
2781,
2609,
2689,
2578,
2477,
2586,
2417,
2414,
2312,
2365,
2413,
2374,
2283,
2323,
2211,
2266,
2291,
2332,
2229,
2271,
2306,
2315,
2241,
2271,
2112,
2098,
2092,
2128,
2107,
2053,
2172,
2116,
2024,
2072,
2092,
2070,
2022,
1930,
1974,
1949,
1958,
1859,
1920,
1897,
1973,
1912,
1900,
1859,
1841,
1822,
1811,
1801,
1830,
1837,
1696,
1745,
1709,
1791,
1689,
1772,
1688,
1730,
1635,
1725,
1668,
1611,
1601,
1663,
1557,
1589,
1566,
1515,
1534,
1559,
1751,
1731,
1923,
2167,
2193,
2028,
1957,
1795,
1613,
1500,
1458,
1447,
1449,
1398,
1391,
1477,
1532,
1858,
2156,
2446,
2842,
2772,
2497,
2056,
1660,
1538,
1385,
1259,
1276,
1217,
1254,
1194,
1134,
1223,
1212,
1223,
1179,
1167,
1235,
1223,
1210,
1209,
1293,
1310,
1317,
1212,
1276,
1244,
1193,
1263,
1193,
1277,
1264,
1268,
1297,
1234,
1117,
1049,
1015,
1010,
949,
919,
917,
913,
909,
868,
939,
871,
898,
881,
894,
857,
855,
799,
794,
889,
791,
833,
897,
944,
936,
1122,
1225,
1477,
1543,
1475,
1343,
1139,
948,
847,
776,
678,
774,
734,
719,
751,
716,
671,
688,
668,
646,
634,
670,
618,
615,
615,
616,
609,
584,
621,
614,
590,
533,
536,
533,
556,
540,
555,
536,
538,
566,
483,
480,
474,
465,
479,
442,
469,
451,
466,
466,
483,
456,
470,
422,
450,
409,
398,
391,
403,
405,
398,
384,
351,
340,
390,
360,
371,
334,
427,
398,
378,
443,
457,
442,
402,
393,
315,
314,
323,
243,
279,
281,
251,
261,
260,
248,
269,
246,
261,
277,
218,
226,
224,
218,
209,
193,
172,
201,
192,
164,
193,
160,
173,
170,
150,
176,
153,
158,
137,
136,
145,
158,
129,
136,
133,
136,
92,
124,
111,
106,
107,
108,
94,
74,
105,
84,
84,
74,
70,
83,
81,
56,
55,
49,
43,
61,
48,
40,
38,
37,
47,
30,
44,
29,
22,
16,
19,
14,
17,
14,
6,
4,
1,
6,
2,
4,
1,
4,
0,
0,
2,
0,
2,
4,
2,
0,
3,
1,
0,
1,
2,
0,
0,
4,
3,
3,
2,
2,
2,
2,
4,
1,
4,
0,
2,
3,
1,
0,
1,
1,
1,
1,
2,
0,
1,
1,
2,
1,
0,
0,
0,
2,
0,
1,
1,
0,
3,
0,
2,
1,
1,
0,
0,
1,
3,
0,
2,
1,
2,
1,
0,
1,
2,
1,
4,
1,
2,
1,
0,
1,
0,
0,
1,
2,
0,
1,
2,
1,
0,
0,
0,
0,
1,
0,
2,
0,
3,
1,
0,
2,
2,
1,
1,
2,
0,
0,
1,
2,
0,
1,
2,
2,
1,
1,
4,
0,
1,
0,
0,
0,
0,
0,
1,
1,
3,
1,
0,
1,
0,
0,
0,
0,
1,
0,
0,
0,
0,
1,
2,
0,
1,
0,
2,
1,
1,
0,
0,
2,
0,
0,
0,
0,
1,
1,
0,
0,
0,
0,
1,
1,
0,
2,
0,
1,
1,
0,
0,
1,
0,
1,
0,
0,
0,
0,
0,
0,
0,
0,
0,
0,
0,
2,
0,
1,
0,
0,
0,
0,
0,
0,
0,
0,
1,
0,
0,
1,
0,
0,
0,
0,
1,
0,
0,
0,
1,
0,
0,
0,
1,
0,
0,
0,
0,
0,
1,
0,
1,
0,
0,
0,
1,
1,
0,
0,
1,
1,
0,
0,
0,
0,
0,
0,
0,
0,
0,
1,
0,
0,
0,
0,
0,
0,
1,
0,
0,
0,
0,
0,
0,
0,
0,
0,
0,
0,
0,
0,
0,
0,
0,
0,
0,
0,
0,
0,
0,
1,
0,
1,
0,
0,
0,
0,
0,
0,
0,
0,
0,
0,
0,
0,
0,
0,
0,
0,
0,
0,
0,
0,
0,
0,
0,
0,
0,
0,
0,
0,
0,
0,
0,
1,
0,
0,
1,
0,
0,
0,
0,
0,
0,
0,
0,
0,
0,
0,
0,
0,
0,
0,
0,
0,
0,
0,
0,
0,
0,
0,
0,
0,
0,
0,
1,
0,
0,
0,
0,
0,
0,
0,
0,
0,
0,
0,
0,
0,
0,
0,
0,
0,
0,
0,
0,
0,
0,
0,
0,
0,
0,
0,
0,
0,
0,
0,
0,
0,
0,
0,
0,
0,
0,
0,
0,
0,
0,
0,
0,
0,
0,
0,
0,
0,
0,
0,
0,
0,
0,
0,
0,
0,
0,
0,
0,
0,
0,
0,
0,
0,
0,
0,
0,
0,
0,
0,
0,
0,
0,
0,
0,
0,
0,
0,
0,
0,
0,
0,
0,
0,
0,
0,
0,
0,
0,
0,
0,
0,
0,
0,
0,
0,
0,
0,
0,
0,
0,
0,
0,
0,
0,
0,
0,
0,
0,
0,
0,
0,
0,
0,
0,
0,
0,
0,
0,
0,
0,
0,
0,
0,
0,
0,
0,
0,
0,
0,
0,
0,
0,
0,
0,
0,
0,
0,
0,
0,
0,
0,
0,
0,
0,
0,
0,
0,
0,
0,
0,
0,
0,
0,
0,
0,
0,
0,
0,
0,
0,
0,
0,
0,
0,
0,
0,
0,
0,
0,
0,
0,
0,
0,
0,
0,
0,
0,
0,
0,
0,
0,
0,
0,
0,
0,
0,
0,
0,
0,
0,
0,
0,
0,
0,
0,
0,
0,
0,
0,
0,
0,
0,
0,
0,
0,
0,
0,
0,
0,
0,
0,
0,
0,
0,
0,
0,
0,
0,
0,
0,
0,
0,
0,
0,
0,
0,
0,
0,
0,
0,
0,
0,
0,
0,
0,
0,
0,
0,
0,
0,
0,
0,
0,
0,
0,
0,
0,
0,
0,
0,
0,
0,
0,
0,
0,
0,
0,
0,
0,
0,
0,
0,
0,
0,
0,
0,
0,
0,
0,
0,
0,
0,
0,
0,
0,
0,
0,
0,
0,
0,
0,
0,
0,
0,
0,
0,
0,
0,
0,
0,
0,
0,
0,
0,
0,
0,
0,
0,
0,
0,
0,
0,
0,
0,
0,
0,
0,
0,
0,
0,
0,
0,
0,
0,
0,
0,
0,
0,
0,
0,
0,
0,
0,
0,
0,
0,
0,
0,
0,
0,
0,
0,
0,
0,
0,
0,
0,
0,
0,
0,
0,
0,
0,
0,
0,
0,
0,
0,
0,
0,
0,
0,
0,
0,
0,
0,
0,
0,
0,
0,
0,
0,
0,
0,
0,
0,
0,
0,
0,
0,
0,
0,
0,
0,
0,
0,
0,
0,
0,
0,
0,
0,
0,
0,
0,
0,
0,
0,
0,
0,
0,
0,
0,
0,
0,
0,
0,
0,
0,
0,
0,
0,
0,
0,
0,
0,
0,
0,
0,
0,
0,
0,
0,
0,
0,
0,
0,
0,
0,
0,
0,
0,
0,
0,
0,
0,
0,
0,
0,
0,
0,
0,
0,
0,
0,
0,
0,
0,
0,
0,
0,
0,
0,
0,
0,
0,
0,
0,
0,
0,
0,
0,
0,
0,
0,
0,
0,
0,
0,
0,
0,
0,
0,
0,
0,
0,
0,
0,
0,
0,
0,
0,
0,
0,
0,
0,
0,
0,
0,
0,
0,
0,
0,
0,
0,
0,
0,
0,
0,
0,
0,
0,
0,
0,
0,
0,
0,
0,
0,
0,
0,
0,
0,
0,
0,
0,
0,
0,
0,
0,
0,
0,
0,
0,
0,
0,
0,
0,
0,
0,
0,
0,
0,
0,
0,
0,
0,
0,
0,
0,
0,
0,
0,
0,
0,
#ENDOFDATA   :