File: N132962/Quantification/15 keV/GMIIIA/GMIIIA K240[3][4].msa
#FORMAT      : EMSA/MAS Spectral Data File
#VERSION     : 1.0
#TITLE       : GMIIIA K240[3][all]
#DATE        : 22-SEP-2025
#TIME        : 15:15
#OWNER       : Unknown
#NPOINTS     : 4096
#NCOLUMNS    : 1
#XUNITS      : eV
#YUNITS      : counts
#DATATYPE    : Y
#XPERCHAN    : 9.99778
#OFFSET      : 1.69135
#BEAMKV      : 15
#SIGNALTYPE  : EDS
#ELEVANGLE   : 35
#AZIMANGLE   : 0
#LIVETIME    : 239.948
#REALTIME    : 256.04
#PROBECUR    : 1.21732
#TAUWIND     : 0
#TDEADLYR    : 0
#TACTLYR     : 0.045
#TALWIND     : 0.025
#CHOFFSET    : 0.0
#XLABEL      : Energy (eV)
#YLABEL      : Counts
#XPOSITION   : 11.34409
#YPOSITION   : 1.68591
#ZPOSITION   : 37.36299
#EDSDET      : SD
##SPECIMEN   : GMIIIA K240[3][all]
##D2STDCMP   : K240,(O:34.0),(Mg:3.02),(Si:18.7),(Ti:6.0),(Zn:4.02),(Zr:7.4),(Ba:26.87)
##DET_HASH   : 12273538-fd48-a23f-0a19-f1e6fa85caef
##CALIB_HASH : 6abaa72c-aa41-8738-0be9-f592914732f3
##WORKING    : 15.0 mm
##DET_NAME   : EDAX All
##DET_MODE   : MediumLE
#SPECTRUM    :
31,
23,
17,
30,
187,
613,
1495,
3565,
7505,
9599,
7246,
6483,
8492,
10376,
13692,
31511,
98316,
181447,
132907,
39742,
11064,
6544,
5084,
5100,
5743,
7248,
8519,
7308,
6055,
5895,
5854,
6622,
10251,
17064,
20280,
14857,
8472,
6110,
5710,
6416,
10911,
20183,
23167,
15066,
7854,
5680,
5638,
5629,
5782,
6224,
6284,
6210,
6102,
6457,
7446,
14097,
44287,
107660,
145670,
103828,
44678,
17559,
9599,
6416,
5414,
6143,
9715,
16212,
21158,
19023,
15119,
12396,
9689,
7296,
5805,
5255,
5023,
4451,
4103,
3965,
3912,
4125,
3960,
3990,
3945,
3893,
3895,
3880,
3779,
3848,
3960,
3902,
3863,
3708,
3664,
3511,
3661,
3560,
3677,
3662,
3619,
3648,
3563,
3447,
3505,
3318,
3305,
3264,
3210,
3219,
3208,
3231,
3173,
3170,
3215,
3164,
3114,
3126,
3047,
2991,
3000,
2987,
3036,
3007,
2854,
2973,
2969,
2836,
2914,
2986,
3259,
3649,
3725,
3574,
3187,
2776,
2701,
2696,
2612,
2614,
2542,
2641,
2721,
3001,
3332,
5011,
9039,
17524,
28494,
36660,
35217,
26089,
14860,
7324,
3923,
2813,
2633,
3060,
4730,
7828,
11363,
13658,
13089,
10763,
8379,
6582,
4842,
3628,
2945,
3194,
4220,
5363,
5804,
5111,
3861,
2841,
2233,
2000,
1921,
1917,
1924,
1982,
2479,
2742,
3202,
3145,
2764,
2346,
1904,
1758,
1807,
1868,
2222,
2227,
2098,
2006,
1865,
1676,
1651,
1636,
1624,
1564,
1463,
1496,
1451,
1453,
1507,
1450,
1452,
1368,
1509,
1455,
1371,
1490,
1413,
1405,
1323,
1380,
1302,
1328,
1273,
1322,
1301,
1303,
1207,
1237,
1244,
1232,
1275,
1158,
1148,
1267,
1191,
1184,
1134,
1171,
1148,
1142,
1164,
1072,
1156,
1146,
1113,
1099,
1123,
1018,
1104,
1105,
1087,
1076,
1052,
1105,
1037,
1050,
1050,
1041,
1024,
968,
1008,
979,
971,
957,
966,
943,
933,
996,
882,
931,
902,
933,
878,
975,
881,
858,
939,
821,
850,
897,
848,
827,
833,
865,
836,
972,
1159,
1387,
1884,
2074,
2041,
1748,
1468,
1141,
926,
862,
785,
746,
713,
741,
759,
745,
683,
777,
640,
663,
668,
661,
682,
651,
666,
732,
627,
670,
635,
627,
619,
699,
719,
763,
757,
795,
734,
689,
605,
637,
612,
550,
583,
616,
535,
587,
491,
553,
509,
542,
542,
530,
475,
517,
459,
481,
477,
489,
480,
456,
491,
499,
438,
442,
417,
425,
407,
411,
435,
427,
449,
411,
384,
390,
395,
364,
380,
398,
367,
349,
380,
412,
362,
344,
376,
372,
374,
336,
317,
339,
354,
362,
325,
345,
332,
293,
345,
325,
317,
288,
284,
298,
317,
272,
285,
293,
307,
254,
254,
262,
268,
259,
231,
247,
230,
244,
254,
234,
205,
206,
214,
230,
192,
198,
215,
186,
199,
197,
204,
187,
188,
177,
222,
182,
171,
173,
149,
157,
167,
161,
193,
148,
151,
159,
149,
155,
151,
154,
156,
124,
136,
116,
134,
136,
114,
120,
108,
113,
117,
108,
120,
102,
104,
92,
92,
101,
71,
81,
78,
103,
91,
103,
76,
72,
75,
62,
71,
64,
55,
55,
60,
60,
61,
47,
44,
60,
50,
42,
60,
53,
39,
35,
40,
37,
40,
32,
33,
33,
27,
28,
22,
19,
18,
27,
17,
21,
16,
14,
11,
14,
10,
8,
8,
7,
8,
7,
5,
2,
0,
0,
0,
1,
0,
3,
0,
2,
2,
4,
0,
1,
1,
2,
0,
0,
0,
0,
1,
1,
0,
1,
0,
2,
0,
2,
0,
1,
3,
1,
0,
0,
0,
0,
0,
1,
1,
0,
1,
1,
1,
0,
0,
0,
0,
0,
1,
1,
1,
0,
0,
0,
0,
2,
0,
1,
1,
1,
0,
0,
1,
1,
1,
1,
0,
1,
0,
0,
0,
0,
1,
1,
1,
0,
0,
0,
0,
0,
0,
0,
1,
0,
0,
2,
0,
0,
1,
1,
0,
0,
0,
1,
1,
0,
1,
0,
2,
0,
0,
2,
0,
0,
2,
0,
1,
0,
0,
0,
0,
0,
0,
0,
0,
0,
0,
0,
0,
0,
2,
1,
0,
1,
0,
0,
0,
0,
0,
0,
0,
0,
0,
0,
1,
0,
0,
0,
0,
0,
0,
0,
0,
0,
0,
1,
0,
1,
0,
1,
0,
0,
0,
0,
0,
0,
0,
0,
0,
0,
0,
0,
0,
0,
0,
0,
0,
0,
1,
0,
0,
0,
0,
0,
0,
0,
0,
0,
0,
0,
0,
0,
0,
0,
0,
0,
0,
0,
0,
0,
0,
0,
0,
0,
0,
0,
0,
0,
0,
0,
0,
0,
0,
1,
0,
0,
1,
0,
0,
0,
0,
0,
0,
0,
0,
0,
0,
0,
0,
0,
0,
0,
0,
0,
0,
0,
0,
0,
0,
0,
0,
0,
1,
0,
0,
0,
0,
0,
0,
0,
0,
0,
0,
0,
0,
0,
0,
0,
0,
0,
0,
0,
0,
0,
0,
0,
0,
0,
0,
0,
0,
0,
0,
0,
0,
0,
0,
0,
0,
0,
0,
0,
0,
0,
0,
0,
0,
0,
0,
0,
0,
0,
0,
0,
0,
0,
0,
0,
0,
0,
0,
0,
0,
0,
0,
0,
0,
0,
0,
0,
0,
0,
0,
0,
0,
0,
0,
0,
0,
0,
0,
0,
0,
0,
0,
0,
0,
0,
0,
0,
0,
0,
0,
0,
0,
0,
0,
0,
0,
0,
0,
0,
0,
0,
0,
0,
0,
0,
0,
0,
0,
0,
0,
0,
0,
0,
0,
0,
0,
0,
0,
0,
0,
0,
0,
0,
0,
0,
0,
0,
0,
0,
0,
0,
0,
0,
0,
0,
0,
0,
0,
0,
0,
0,
0,
0,
0,
0,
0,
0,
0,
0,
0,
0,
0,
0,
0,
0,
0,
0,
0,
0,
0,
0,
0,
0,
0,
0,
0,
0,
0,
0,
0,
0,
0,
0,
0,
0,
0,
0,
0,
0,
0,
0,
0,
0,
0,
0,
0,
0,
0,
0,
0,
0,
0,
0,
0,
0,
0,
0,
0,
0,
0,
0,
0,
0,
0,
0,
0,
0,
0,
0,
0,
0,
0,
0,
0,
0,
0,
0,
0,
0,
0,
0,
0,
0,
0,
0,
0,
0,
0,
0,
0,
0,
0,
0,
0,
0,
0,
0,
0,
0,
0,
0,
0,
0,
0,
0,
0,
0,
0,
0,
0,
0,
0,
0,
0,
0,
0,
0,
0,
0,
0,
0,
0,
0,
0,
0,
0,
0,
0,
0,
0,
0,
0,
0,
0,
0,
0,
0,
0,
0,
0,
0,
0,
0,
0,
0,
0,
0,
0,
0,
0,
0,
0,
0,
0,
0,
0,
0,
0,
0,
0,
0,
0,
0,
0,
0,
0,
0,
0,
0,
0,
0,
0,
0,
0,
0,
0,
0,
0,
0,
0,
0,
0,
0,
0,
0,
0,
0,
0,
0,
0,
0,
0,
0,
0,
0,
0,
0,
0,
0,
0,
0,
0,
0,
0,
0,
0,
0,
0,
0,
0,
0,
0,
0,
0,
0,
0,
0,
0,
0,
0,
0,
0,
0,
0,
0,
0,
0,
0,
0,
0,
0,
0,
0,
0,
0,
0,
0,
0,
0,
0,
0,
0,
0,
0,
0,
0,
0,
0,
0,
0,
0,
0,
0,
0,
0,
0,
0,
0,
0,
0,
0,
0,
0,
0,
0,
0,
0,
0,
0,
0,
0,
0,
0,
0,
0,
0,
0,
0,
0,
0,
0,
0,
0,
0,
0,
0,
0,
0,
0,
0,
0,
0,
0,
0,
0,
0,
0,
0,
0,
0,
0,
0,
0,
0,
0,
0,
0,
0,
0,
0,
0,
0,
0,
0,
0,
0,
0,
0,
0,
0,
0,
0,
0,
0,
0,
0,
0,
0,
0,
0,
0,
0,
0,
0,
0,
0,
0,
0,
0,
0,
0,
0,
0,
0,
0,
0,
0,
0,
0,
0,
0,
0,
0,
0,
0,
0,
0,
0,
0,
0,
0,
0,
0,
0,
0,
0,
0,
0,
0,
0,
0,
0,
0,
0,
0,
0,
0,
0,
0,
0,
0,
0,
0,
0,
0,
0,
0,
0,
0,
0,
0,
0,
0,
0,
0,
0,
0,
0,
0,
0,
0,
0,
0,
0,
0,
0,
0,
0,
0,
0,
0,
0,
0,
0,
0,
0,
0,
0,
0,
0,
0,
0,
0,
0,
0,
0,
0,
0,
0,
0,
0,
0,
0,
0,
0,
0,
0,
0,
0,
0,
0,
0,
0,
0,
0,
0,
0,
0,
0,
0,
0,
0,
0,
0,
0,
0,
0,
0,
0,
0,
0,
0,
0,
0,
0,
0,
0,
0,
0,
0,
0,
0,
0,
0,
0,
0,
0,
0,
0,
0,
0,
0,
0,
0,
0,
0,
0,
0,
0,
0,
0,
0,
0,
#ENDOFDATA   :