File: N132962/Quantification/15 keV/GMIIIA/GMIIIA K230[4][4].msa
#FORMAT      : EMSA/MAS Spectral Data File
#VERSION     : 1.0
#TITLE       : GMIIIA K230[4][all]
#DATE        : 22-SEP-2025
#TIME        : 14:36
#OWNER       : Unknown
#NPOINTS     : 4096
#NCOLUMNS    : 1
#XUNITS      : eV
#YUNITS      : counts
#DATATYPE    : Y
#XPERCHAN    : 9.99778
#OFFSET      : 1.69135
#BEAMKV      : 15
#SIGNALTYPE  : EDS
#ELEVANGLE   : 35
#AZIMANGLE   : 0
#LIVETIME    : 239.836
#REALTIME    : 258.607
#PROBECUR    : 1.21983
#TAUWIND     : 0
#TDEADLYR    : 0
#TACTLYR     : 0.045
#TALWIND     : 0.025
#CHOFFSET    : 0.0
#XLABEL      : Energy (eV)
#YLABEL      : Counts
#XPOSITION   : 3.85293
#YPOSITION   : 0.87772
#ZPOSITION   : 37.36299
#EDSDET      : SD
##SPECIMEN   : GMIIIA K230[4][all]
##D2STDCMP   : K230,(O:24.49),(Al:2.65),(Si:14.02),(Zn:4.02),(Ba:8.96),(Ta:4.09),(Pb:41.77)
##DET_HASH   : 12273538-fd48-a23f-0a19-f1e6fa85caef
##CALIB_HASH : 6abaa72c-aa41-8738-0be9-f592914732f3
##WORKING    : 15.0 mm
##DET_NAME   : EDAX All
##DET_MODE   : MediumLE
#SPECTRUM    :
25,
36,
16,
35,
185,
771,
2066,
5026,
11136,
14287,
9259,
6682,
6628,
7357,
9334,
21280,
67000,
121751,
89712,
28048,
10036,
7754,
7565,
7778,
7289,
7326,
7515,
7573,
7538,
7685,
7805,
8393,
12382,
20249,
24597,
19007,
11320,
8238,
7470,
7424,
7581,
7897,
8021,
8312,
8664,
8709,
8728,
10667,
17344,
27339,
27845,
18136,
11593,
9237,
9932,
17517,
47808,
104483,
136136,
98659,
47016,
22898,
13935,
9373,
7452,
7323,
7917,
8267,
7658,
6769,
6463,
6632,
7360,
7811,
9104,
13326,
26671,
53694,
77385,
73990,
59400,
53957,
46278,
28865,
13249,
7162,
6180,
7239,
8339,
8203,
6696,
5213,
4754,
4644,
4577,
4619,
4650,
4807,
4717,
4737,
4824,
5192,
5282,
5319,
5262,
4922,
4633,
4336,
4191,
4201,
4118,
4093,
4091,
4150,
4007,
4282,
4114,
4096,
4017,
3991,
3937,
4006,
3988,
4073,
3999,
3818,
3918,
3800,
3788,
3793,
3881,
3915,
3965,
3876,
3819,
3721,
3809,
3655,
3665,
3678,
3678,
3592,
3618,
3685,
3744,
4097,
5282,
7652,
10338,
11529,
9942,
7023,
4864,
3839,
3358,
3246,
3444,
3539,
4091,
4975,
6173,
6832,
6437,
5636,
4650,
3948,
3614,
3399,
3248,
3347,
3732,
4132,
4172,
4027,
3563,
3163,
2907,
2871,
2836,
2751,
2811,
2918,
3009,
3127,
3240,
3204,
3053,
2830,
2684,
2543,
2673,
2680,
2732,
2750,
2767,
2694,
2561,
2503,
2570,
2534,
2464,
2394,
2366,
2400,
2273,
2463,
2368,
2257,
2325,
2250,
2289,
2441,
2412,
2286,
2172,
2172,
2181,
2114,
2097,
2123,
2118,
2093,
2062,
2053,
1931,
2064,
2049,
2073,
2029,
1997,
1944,
1910,
1925,
1883,
1975,
1972,
1963,
1975,
1936,
1879,
1854,
1885,
1860,
1776,
1818,
1729,
1831,
1818,
1778,
1834,
1759,
1733,
1755,
1657,
1737,
1641,
1642,
1690,
1610,
1605,
1608,
1589,
1663,
1656,
1571,
1621,
1616,
1593,
1822,
1864,
2049,
2214,
2054,
1988,
1784,
1675,
1554,
1437,
1435,
1395,
1466,
1423,
1434,
1587,
1825,
2127,
2540,
2797,
2766,
2501,
2074,
1681,
1407,
1292,
1269,
1248,
1223,
1254,
1190,
1201,
1247,
1151,
1128,
1215,
1180,
1231,
1264,
1247,
1228,
1242,
1339,
1355,
1306,
1242,
1253,
1195,
1174,
1240,
1244,
1314,
1322,
1237,
1227,
1059,
1045,
1042,
999,
951,
931,
956,
987,
920,
906,
928,
852,
889,
901,
872,
935,
850,
902,
858,
841,
845,
889,
873,
856,
1001,
1108,
1274,
1402,
1434,
1457,
1354,
1175,
980,
860,
717,
758,
762,
705,
713,
698,
694,
702,
676,
662,
638,
596,
625,
614,
646,
620,
581,
595,
642,
584,
555,
535,
552,
560,
583,
539,
524,
512,
467,
509,
515,
494,
504,
531,
483,
501,
490,
452,
441,
448,
468,
447,
441,
446,
416,
429,
454,
382,
386,
411,
402,
387,
347,
359,
376,
356,
383,
359,
392,
392,
383,
427,
438,
432,
458,
421,
353,
341,
298,
298,
291,
309,
280,
268,
284,
265,
258,
234,
238,
234,
221,
225,
241,
213,
229,
208,
214,
217,
179,
166,
183,
189,
174,
160,
181,
170,
166,
155,
144,
141,
141,
129,
128,
149,
130,
112,
133,
110,
106,
101,
114,
113,
107,
108,
94,
97,
72,
89,
83,
94,
62,
70,
83,
73,
61,
64,
49,
61,
43,
46,
36,
36,
33,
32,
27,
28,
18,
13,
17,
18,
6,
10,
4,
3,
6,
4,
2,
5,
3,
3,
2,
2,
1,
7,
2,
1,
6,
0,
5,
2,
5,
5,
4,
0,
1,
2,
0,
1,
1,
3,
1,
2,
4,
2,
3,
1,
2,
2,
2,
0,
2,
0,
0,
2,
3,
2,
1,
2,
2,
1,
0,
1,
0,
0,
1,
3,
1,
2,
0,
3,
1,
0,
0,
1,
1,
3,
1,
2,
0,
1,
1,
3,
4,
2,
0,
1,
2,
1,
0,
0,
0,
1,
3,
2,
0,
0,
0,
1,
0,
2,
1,
0,
1,
0,
0,
2,
1,
0,
0,
4,
0,
0,
0,
0,
1,
0,
1,
0,
0,
2,
2,
0,
1,
0,
0,
2,
1,
0,
0,
2,
0,
1,
1,
1,
1,
0,
1,
0,
0,
0,
1,
1,
0,
0,
1,
0,
0,
1,
0,
2,
0,
0,
0,
0,
2,
0,
0,
2,
0,
2,
0,
0,
0,
0,
0,
0,
1,
0,
0,
0,
0,
0,
2,
0,
0,
0,
0,
0,
0,
0,
0,
0,
1,
0,
0,
1,
1,
2,
0,
0,
1,
1,
1,
0,
0,
2,
0,
0,
0,
0,
0,
1,
1,
0,
1,
0,
1,
0,
0,
0,
0,
0,
0,
0,
0,
0,
0,
1,
0,
0,
0,
0,
1,
0,
1,
0,
0,
0,
0,
1,
0,
0,
0,
0,
0,
0,
0,
0,
0,
1,
0,
0,
0,
0,
0,
0,
0,
0,
0,
0,
0,
0,
0,
0,
0,
0,
0,
1,
0,
0,
1,
0,
0,
0,
0,
0,
0,
0,
0,
0,
0,
0,
0,
0,
0,
0,
0,
1,
0,
1,
0,
0,
0,
0,
0,
0,
0,
0,
0,
0,
0,
0,
0,
0,
0,
0,
0,
0,
0,
0,
0,
0,
0,
0,
0,
0,
0,
0,
0,
0,
0,
0,
0,
0,
0,
0,
0,
0,
0,
0,
0,
0,
0,
0,
0,
0,
0,
0,
0,
0,
0,
0,
0,
0,
0,
0,
0,
0,
0,
0,
0,
0,
0,
0,
0,
0,
0,
0,
0,
0,
0,
0,
0,
0,
0,
0,
0,
0,
0,
0,
0,
0,
0,
0,
0,
0,
0,
0,
0,
0,
0,
0,
0,
1,
1,
0,
0,
0,
0,
0,
0,
0,
0,
0,
0,
0,
0,
0,
0,
0,
0,
0,
0,
0,
0,
0,
0,
0,
0,
0,
0,
0,
0,
0,
0,
0,
0,
0,
0,
0,
0,
0,
0,
0,
0,
0,
0,
0,
0,
0,
0,
0,
0,
0,
0,
0,
0,
0,
0,
0,
0,
0,
0,
0,
0,
0,
0,
0,
0,
0,
0,
0,
0,
0,
0,
0,
0,
0,
0,
0,
0,
0,
0,
0,
0,
0,
0,
0,
0,
0,
0,
0,
0,
0,
0,
0,
0,
0,
0,
0,
0,
0,
0,
0,
0,
0,
0,
0,
0,
0,
0,
0,
0,
0,
0,
0,
0,
0,
0,
0,
0,
0,
0,
0,
0,
0,
0,
0,
0,
0,
0,
0,
0,
0,
0,
0,
0,
0,
0,
0,
0,
0,
0,
0,
0,
0,
0,
0,
0,
0,
0,
0,
0,
0,
0,
0,
0,
0,
0,
0,
0,
0,
0,
0,
0,
0,
0,
0,
0,
0,
0,
0,
0,
0,
0,
0,
0,
0,
0,
0,
0,
0,
0,
0,
0,
0,
0,
0,
0,
0,
0,
0,
0,
0,
0,
0,
0,
0,
0,
0,
0,
0,
0,
0,
0,
0,
0,
0,
0,
0,
0,
0,
0,
0,
0,
0,
0,
0,
0,
0,
0,
0,
0,
0,
0,
0,
0,
0,
0,
0,
0,
0,
0,
0,
0,
0,
0,
0,
0,
0,
0,
0,
0,
0,
0,
0,
0,
0,
0,
0,
0,
0,
0,
0,
0,
0,
0,
0,
0,
0,
0,
0,
0,
0,
0,
0,
0,
0,
0,
0,
0,
0,
0,
0,
0,
0,
0,
0,
0,
0,
0,
0,
0,
0,
0,
0,
0,
0,
0,
0,
0,
0,
0,
0,
0,
0,
0,
0,
0,
0,
0,
0,
0,
0,
0,
0,
0,
0,
0,
0,
0,
0,
0,
0,
0,
0,
0,
0,
0,
0,
0,
0,
0,
0,
0,
0,
0,
0,
0,
0,
0,
0,
0,
0,
0,
0,
0,
0,
0,
0,
0,
0,
0,
0,
0,
0,
0,
0,
0,
0,
0,
0,
0,
0,
0,
0,
0,
0,
0,
0,
0,
0,
0,
0,
0,
0,
0,
0,
0,
0,
0,
0,
0,
0,
0,
0,
0,
0,
0,
0,
0,
0,
0,
0,
0,
0,
0,
0,
0,
0,
0,
0,
0,
0,
0,
0,
0,
0,
0,
0,
0,
0,
0,
0,
0,
0,
0,
0,
0,
0,
0,
0,
0,
0,
0,
0,
0,
0,
0,
0,
0,
0,
0,
0,
0,
0,
0,
0,
0,
0,
0,
0,
0,
0,
0,
0,
0,
0,
0,
0,
0,
0,
0,
0,
0,
0,
0,
0,
0,
0,
0,
0,
0,
0,
0,
0,
0,
0,
0,
0,
0,
0,
0,
0,
0,
0,
0,
0,
0,
0,
0,
0,
0,
0,
0,
0,
0,
0,
0,
0,
0,
0,
0,
0,
0,
0,
0,
0,
0,
0,
0,
0,
0,
0,
0,
0,
0,
0,
0,
0,
0,
0,
0,
0,
0,
0,
0,
0,
0,
#ENDOFDATA   :