File: N132962/Quantification/15 keV/GMIIIA/GMIIIA K1012[1][4].msa
#FORMAT      : EMSA/MAS Spectral Data File
#VERSION     : 1.0
#TITLE       : GMIIIA K1012[1][all]
#DATE        : 22-SEP-2025
#TIME        : 21:22
#OWNER       : Unknown
#NPOINTS     : 4096
#NCOLUMNS    : 1
#XUNITS      : eV
#YUNITS      : counts
#DATATYPE    : Y
#XPERCHAN    : 9.99778
#OFFSET      : 1.69135
#BEAMKV      : 15
#SIGNALTYPE  : EDS
#ELEVANGLE   : 35
#AZIMANGLE   : 0
#LIVETIME    : 239.987
#REALTIME    : 256.675
#PROBECUR    : 1.21822
#TAUWIND     : 0
#TDEADLYR    : 0
#TACTLYR     : 0.045
#TALWIND     : 0.025
#CHOFFSET    : 0.0
#XLABEL      : Energy (eV)
#YLABEL      : Counts
#XPOSITION   : 6.86498
#YPOSITION   : 15.57099
#ZPOSITION   : 37.36299
#EDSDET      : SD
##SPECIMEN   : GMIIIA K1012[1][all]
##D2STDCMP   : K1012,(O:39.34),(Na:1.48),(Mg:9.05),(Al:7.94),(Si:18.7),(P:0.63),(K:1.66),(Ca:0.4),(Ga:1.49),(Se:0.71),(In:1.65),(Cs:1.89),(Ba:13.43),(Ce:1.63)
##DET_HASH   : 12273538-fd48-a23f-0a19-f1e6fa85caef
##CALIB_HASH : 6abaa72c-aa41-8738-0be9-f592914732f3
##WORKING    : 15.0 mm
##DET_NAME   : EDAX All
##DET_MODE   : MediumLE
#SPECTRUM    :
18,
22,
8,
21,
101,
416,
1197,
2907,
6416,
7767,
5762,
4860,
5711,
6781,
10798,
35487,
129919,
246289,
178909,
48931,
8935,
4891,
4826,
4717,
4803,
5311,
6032,
5488,
5142,
5320,
5429,
5741,
6720,
9639,
15362,
17783,
15383,
12899,
9787,
10586,
24924,
55696,
66162,
39308,
14019,
6472,
6094,
10971,
29783,
56419,
57517,
31133,
12377,
6826,
6250,
12571,
42984,
108428,
146337,
104224,
43686,
16134,
8219,
5230,
3886,
4226,
5647,
6476,
5627,
4402,
3561,
3333,
3262,
3360,
3473,
3633,
3599,
3372,
3233,
3113,
3049,
3018,
2960,
3150,
3145,
3040,
2887,
2967,
3022,
2957,
2927,
3070,
2840,
2853,
2882,
2948,
2878,
2830,
2890,
2820,
2825,
2823,
2731,
2602,
2712,
2816,
2990,
3783,
5601,
8742,
11124,
10298,
7304,
4497,
3310,
3262,
3443,
3571,
3462,
3435,
3564,
3521,
3796,
3961,
3732,
3047,
2540,
2281,
2257,
2260,
2316,
2545,
2545,
2508,
2328,
2266,
2077,
2018,
2046,
2116,
2336,
2828,
3558,
3953,
3668,
3502,
4512,
7304,
10657,
11919,
10035,
6588,
4031,
3027,
2698,
2535,
2437,
2366,
3007,
4521,
6389,
7375,
6871,
5498,
4002,
3221,
2435,
2064,
1880,
1982,
2380,
2902,
3147,
3071,
2642,
2294,
2169,
1966,
1772,
1550,
1471,
1532,
1690,
1807,
1981,
2103,
1942,
1695,
1522,
1412,
1338,
1415,
1455,
1522,
1461,
1371,
1262,
1158,
1177,
1182,
1232,
1218,
1199,
1138,
1091,
1165,
1015,
1059,
1111,
1037,
1075,
1009,
1110,
1102,
1038,
1033,
996,
975,
960,
921,
995,
914,
918,
945,
892,
882,
924,
896,
878,
830,
875,
859,
879,
895,
856,
834,
856,
848,
806,
825,
769,
833,
807,
789,
769,
761,
807,
755,
797,
787,
761,
707,
787,
693,
718,
685,
710,
719,
696,
687,
687,
675,
715,
664,
660,
645,
662,
684,
678,
657,
634,
623,
597,
638,
615,
605,
595,
599,
607,
591,
578,
556,
554,
614,
545,
549,
590,
528,
542,
547,
512,
516,
487,
538,
526,
529,
525,
482,
521,
510,
474,
472,
498,
528,
527,
629,
723,
786,
787,
808,
691,
564,
512,
425,
484,
456,
423,
404,
423,
390,
400,
418,
424,
384,
423,
393,
356,
410,
362,
389,
359,
386,
383,
335,
364,
369,
328,
360,
350,
369,
336,
358,
393,
360,
364,
341,
336,
314,
289,
318,
301,
311,
272,
301,
280,
271,
291,
290,
291,
295,
250,
272,
260,
289,
261,
246,
244,
239,
225,
232,
248,
230,
224,
246,
197,
207,
251,
220,
226,
213,
174,
196,
203,
169,
187,
174,
187,
194,
192,
199,
184,
175,
173,
186,
192,
152,
172,
152,
161,
147,
166,
164,
161,
156,
150,
136,
144,
143,
129,
129,
159,
135,
146,
130,
138,
101,
116,
117,
121,
106,
120,
123,
119,
110,
102,
113,
103,
101,
114,
97,
95,
92,
85,
92,
80,
84,
89,
88,
76,
85,
92,
80,
78,
71,
64,
65,
64,
72,
47,
75,
58,
74,
57,
55,
40,
63,
31,
54,
47,
50,
48,
53,
47,
47,
35,
47,
41,
35,
27,
35,
35,
30,
28,
26,
22,
28,
25,
26,
16,
23,
23,
18,
14,
22,
10,
14,
13,
12,
14,
6,
6,
14,
11,
10,
8,
5,
0,
5,
2,
1,
1,
2,
0,
2,
0,
1,
1,
0,
0,
0,
0,
0,
1,
1,
0,
0,
1,
0,
1,
0,
1,
0,
0,
0,
1,
0,
1,
0,
0,
0,
0,
1,
0,
0,
0,
0,
1,
0,
1,
0,
0,
0,
0,
0,
0,
0,
1,
0,
0,
0,
0,
0,
0,
0,
0,
0,
0,
0,
0,
0,
0,
0,
0,
0,
1,
0,
0,
1,
0,
0,
0,
0,
0,
0,
1,
0,
0,
1,
0,
0,
0,
0,
0,
0,
0,
1,
0,
1,
0,
0,
0,
0,
1,
0,
0,
0,
1,
0,
0,
0,
0,
0,
0,
0,
0,
0,
0,
0,
1,
0,
0,
0,
0,
0,
0,
0,
0,
0,
0,
0,
0,
0,
0,
0,
0,
0,
0,
0,
0,
0,
0,
0,
0,
0,
0,
0,
0,
0,
0,
0,
0,
0,
0,
0,
1,
0,
0,
0,
0,
0,
0,
0,
0,
0,
0,
0,
0,
0,
0,
0,
0,
0,
0,
0,
0,
0,
0,
0,
0,
0,
0,
0,
0,
0,
0,
0,
0,
0,
0,
1,
0,
0,
0,
0,
0,
0,
0,
0,
0,
0,
0,
0,
0,
0,
0,
0,
0,
0,
0,
0,
0,
0,
0,
0,
0,
0,
0,
0,
0,
0,
0,
0,
1,
0,
0,
0,
0,
0,
0,
0,
0,
0,
0,
0,
0,
0,
0,
0,
0,
0,
0,
0,
0,
0,
0,
0,
0,
0,
0,
0,
0,
0,
0,
0,
0,
1,
0,
0,
0,
0,
0,
0,
0,
0,
0,
0,
0,
0,
0,
0,
0,
0,
0,
0,
0,
0,
0,
0,
0,
0,
0,
0,
0,
0,
0,
0,
0,
0,
0,
0,
0,
0,
0,
0,
0,
0,
0,
0,
0,
0,
0,
0,
0,
0,
0,
0,
0,
0,
0,
0,
0,
0,
0,
0,
0,
0,
0,
0,
0,
0,
0,
0,
0,
0,
0,
0,
0,
0,
0,
0,
0,
0,
0,
0,
0,
0,
0,
0,
1,
0,
0,
0,
0,
0,
0,
0,
0,
0,
0,
0,
0,
0,
0,
0,
0,
0,
0,
0,
0,
0,
0,
0,
0,
0,
0,
0,
0,
0,
1,
0,
0,
0,
0,
0,
0,
0,
0,
0,
0,
0,
0,
0,
0,
0,
0,
0,
0,
0,
0,
0,
0,
0,
0,
0,
0,
0,
0,
0,
0,
0,
0,
0,
0,
0,
0,
0,
0,
0,
0,
0,
0,
0,
0,
0,
0,
0,
0,
0,
0,
0,
0,
0,
0,
0,
0,
0,
0,
0,
0,
0,
0,
0,
0,
0,
0,
0,
0,
0,
0,
0,
0,
0,
0,
0,
0,
0,
0,
0,
0,
0,
0,
0,
0,
0,
0,
0,
0,
0,
0,
0,
0,
0,
0,
0,
0,
0,
0,
0,
0,
0,
0,
0,
0,
0,
0,
0,
0,
0,
0,
0,
0,
0,
0,
0,
0,
0,
0,
0,
0,
0,
0,
0,
0,
0,
0,
0,
0,
0,
0,
0,
0,
0,
0,
0,
0,
0,
0,
0,
0,
0,
0,
0,
0,
0,
0,
0,
0,
0,
0,
0,
0,
0,
0,
0,
0,
0,
0,
0,
0,
0,
0,
0,
0,
0,
0,
0,
0,
0,
0,
0,
0,
0,
0,
0,
0,
0,
0,
0,
0,
0,
0,
0,
0,
0,
0,
0,
0,
0,
0,
0,
0,
0,
0,
0,
0,
0,
0,
0,
0,
0,
0,
0,
0,
0,
0,
0,
0,
0,
0,
0,
0,
0,
0,
0,
0,
0,
0,
0,
0,
0,
0,
0,
0,
0,
0,
0,
0,
0,
0,
0,
0,
0,
0,
0,
0,
0,
0,
0,
0,
0,
0,
0,
0,
0,
0,
0,
0,
0,
0,
0,
0,
0,
0,
0,
0,
0,
0,
0,
0,
0,
0,
0,
0,
0,
0,
0,
0,
0,
0,
0,
0,
0,
0,
0,
0,
0,
0,
0,
0,
0,
0,
0,
0,
0,
0,
0,
0,
0,
0,
0,
0,
0,
0,
0,
0,
0,
0,
0,
0,
0,
0,
0,
0,
0,
0,
0,
0,
0,
0,
0,
0,
0,
0,
0,
0,
0,
0,
0,
0,
0,
0,
0,
0,
0,
0,
0,
0,
0,
0,
0,
0,
0,
0,
0,
0,
0,
0,
0,
0,
0,
0,
0,
0,
0,
0,
0,
0,
0,
0,
0,
0,
0,
0,
0,
0,
0,
0,
0,
0,
0,
0,
0,
0,
0,
0,
0,
0,
0,
0,
0,
0,
0,
0,
0,
0,
0,
0,
0,
0,
0,
0,
0,
0,
0,
0,
0,
0,
0,
0,
0,
0,
0,
0,
0,
0,
0,
0,
0,
0,
0,
0,
0,
0,
0,
0,
0,
0,
0,
0,
0,
0,
0,
0,
0,
0,
0,
0,
0,
0,
0,
0,
0,
0,
0,
0,
0,
0,
0,
0,
0,
0,
0,
0,
0,
0,
0,
0,
0,
0,
0,
0,
0,
0,
0,
0,
0,
0,
0,
0,
0,
0,
0,
0,
0,
0,
0,
0,
0,
0,
0,
0,
0,
0,
0,
0,
0,
0,
0,
0,
0,
0,
0,
0,
0,
0,
0,
0,
0,
0,
0,
0,
0,
0,
0,
0,
0,
0,
0,
0,
0,
0,
0,
0,
0,
0,
0,
0,
0,
0,
0,
0,
0,
0,
0,
0,
0,
#ENDOFDATA   :