File: N132962/Quantification/15 keV/GMIIIA/GMIIIA K1229[5][4].msa
#FORMAT      : EMSA/MAS Spectral Data File
#VERSION     : 1.0
#TITLE       : GMIIIA K1229[5][all]
#DATE        : 22-SEP-2025
#TIME        : 22:49
#OWNER       : Unknown
#NPOINTS     : 4096
#NCOLUMNS    : 1
#XUNITS      : eV
#YUNITS      : counts
#DATATYPE    : Y
#XPERCHAN    : 9.99778
#OFFSET      : 1.69135
#BEAMKV      : 15
#SIGNALTYPE  : EDS
#ELEVANGLE   : 35
#AZIMANGLE   : 0
#LIVETIME    : 239.98
#REALTIME    : 256.049
#PROBECUR    : 1.21591
#TAUWIND     : 0
#TDEADLYR    : 0
#TACTLYR     : 0.045
#TALWIND     : 0.025
#CHOFFSET    : 0.0
#XLABEL      : Energy (eV)
#YLABEL      : Counts
#XPOSITION   : 3.92768
#YPOSITION   : 17.49075
#ZPOSITION   : 37.36299
#EDSDET      : SD
##SPECIMEN   : GMIIIA K1229[5][all]
##D2STDCMP   : K1229,(O:41.02),(Mg:1.77),(Al:9.34),(Si:22.0),(Ca:10.51),(Sr:7.46),(Ba:7.9)
##DET_HASH   : 12273538-fd48-a23f-0a19-f1e6fa85caef
##CALIB_HASH : 6abaa72c-aa41-8738-0be9-f592914732f3
##WORKING    : 15.0 mm
##DET_NAME   : EDAX All
##DET_MODE   : MediumLE
#SPECTRUM    :
33,
26,
11,
33,
107,
387,
1138,
2729,
6465,
9439,
7569,
5604,
4946,
4990,
8067,
25570,
94778,
180725,
130889,
35518,
6611,
3641,
3715,
3824,
3990,
4547,
5046,
4871,
4469,
4500,
4492,
4760,
5171,
5601,
5980,
6074,
5633,
5298,
5224,
6144,
9323,
16274,
18700,
12785,
7798,
6307,
7053,
13736,
38904,
75960,
76777,
41829,
16624,
8788,
7892,
15073,
52166,
131299,
181919,
140045,
76267,
41023,
23961,
13736,
7983,
5482,
4334,
3762,
3337,
3056,
3076,
3187,
3191,
3268,
3526,
3581,
3562,
3462,
3263,
3065,
2939,
2994,
2980,
2992,
2881,
2790,
2864,
2843,
2836,
2787,
2913,
2876,
2737,
2747,
2599,
2664,
2760,
2666,
2574,
2672,
2622,
2624,
2626,
2558,
2544,
2467,
2687,
2650,
2690,
2476,
2464,
2449,
2392,
2323,
2312,
2402,
2653,
2744,
2935,
3780,
7405,
15942,
28930,
36107,
30485,
17843,
7861,
3515,
2423,
2291,
2546,
3268,
4383,
5857,
6222,
5235,
3559,
2480,
2026,
1892,
1894,
1825,
1854,
1841,
1889,
2318,
3275,
5349,
7534,
8215,
6868,
4822,
2822,
1996,
1707,
1649,
1643,
1826,
2237,
3093,
4036,
4589,
4256,
3449,
2688,
2239,
1900,
1561,
1634,
1764,
1999,
2407,
2407,
2261,
1976,
1621,
1463,
1414,
1311,
1365,
1342,
1359,
1565,
1699,
1670,
1677,
1566,
1342,
1325,
1262,
1266,
1185,
1308,
1408,
1286,
1289,
1207,
1160,
1136,
1091,
1058,
1062,
1095,
1007,
1031,
1003,
1028,
1040,
995,
958,
1019,
1025,
1018,
996,
954,
1016,
948,
969,
970,
952,
884,
873,
936,
907,
831,
857,
916,
890,
892,
882,
847,
806,
853,
859,
814,
839,
793,
766,
784,
777,
794,
798,
823,
794,
725,
776,
791,
708,
759,
734,
743,
684,
652,
739,
712,
715,
717,
651,
652,
646,
641,
629,
638,
598,
648,
604,
648,
618,
581,
575,
607,
646,
603,
598,
575,
605,
586,
570,
551,
581,
562,
543,
524,
535,
513,
543,
549,
536,
559,
501,
503,
481,
513,
474,
500,
506,
460,
467,
498,
446,
469,
466,
461,
473,
420,
431,
458,
477,
418,
452,
409,
452,
412,
411,
396,
401,
430,
397,
394,
367,
446,
385,
333,
369,
374,
368,
374,
369,
353,
352,
359,
360,
316,
329,
340,
325,
359,
343,
332,
322,
309,
313,
327,
323,
285,
289,
267,
288,
247,
288,
268,
267,
271,
278,
249,
279,
264,
232,
270,
240,
269,
270,
209,
247,
236,
233,
243,
241,
210,
231,
213,
207,
226,
217,
214,
202,
206,
212,
201,
200,
176,
164,
187,
174,
193,
182,
188,
182,
206,
200,
207,
184,
151,
181,
154,
177,
166,
137,
150,
154,
157,
153,
123,
162,
136,
142,
148,
145,
126,
137,
133,
128,
129,
129,
124,
126,
130,
124,
129,
123,
116,
97,
111,
100,
103,
78,
96,
92,
85,
99,
94,
91,
87,
88,
71,
81,
70,
67,
80,
77,
84,
66,
66,
57,
80,
74,
76,
63,
72,
50,
57,
58,
37,
53,
53,
57,
39,
50,
48,
46,
48,
38,
43,
35,
41,
35,
31,
34,
36,
37,
19,
22,
35,
21,
26,
28,
27,
20,
16,
19,
16,
18,
24,
16,
12,
15,
14,
15,
9,
11,
9,
8,
8,
9,
3,
4,
6,
2,
5,
2,
0,
0,
0,
1,
1,
0,
2,
1,
0,
1,
0,
0,
1,
2,
0,
0,
0,
1,
0,
1,
0,
1,
1,
0,
1,
1,
0,
0,
1,
0,
0,
0,
0,
0,
0,
0,
0,
0,
0,
0,
0,
0,
0,
0,
1,
0,
0,
1,
0,
0,
1,
0,
0,
1,
0,
1,
0,
1,
0,
0,
1,
0,
0,
0,
0,
0,
1,
1,
0,
0,
0,
0,
0,
0,
0,
0,
0,
0,
0,
0,
0,
0,
0,
0,
0,
1,
1,
0,
1,
0,
0,
0,
0,
0,
0,
0,
0,
1,
0,
0,
0,
1,
0,
0,
0,
0,
0,
0,
0,
0,
0,
0,
0,
0,
1,
0,
0,
0,
0,
0,
0,
0,
0,
0,
0,
0,
0,
0,
0,
0,
0,
0,
0,
0,
0,
0,
0,
0,
0,
0,
0,
0,
0,
0,
0,
0,
0,
0,
0,
0,
0,
0,
0,
0,
0,
0,
0,
0,
0,
0,
0,
0,
0,
0,
0,
0,
0,
0,
1,
0,
0,
1,
0,
0,
0,
0,
0,
0,
0,
0,
0,
0,
0,
0,
0,
0,
0,
0,
0,
0,
0,
0,
0,
0,
0,
0,
0,
0,
0,
0,
0,
0,
0,
0,
0,
0,
0,
0,
0,
0,
0,
0,
0,
0,
0,
0,
0,
0,
0,
0,
0,
0,
0,
0,
0,
0,
0,
0,
0,
0,
0,
0,
0,
0,
0,
0,
0,
0,
0,
0,
0,
0,
0,
0,
0,
0,
0,
0,
0,
0,
0,
0,
0,
0,
0,
0,
0,
0,
0,
0,
0,
0,
0,
0,
0,
0,
0,
0,
0,
0,
0,
0,
0,
0,
0,
0,
0,
0,
0,
0,
0,
0,
0,
0,
0,
0,
0,
0,
0,
0,
0,
0,
0,
0,
0,
0,
0,
0,
0,
0,
0,
0,
0,
0,
0,
0,
0,
0,
0,
0,
0,
0,
0,
0,
0,
0,
0,
0,
0,
0,
0,
0,
0,
0,
0,
0,
0,
0,
0,
0,
0,
0,
0,
0,
0,
0,
0,
0,
0,
0,
0,
0,
0,
0,
0,
0,
0,
0,
0,
0,
0,
0,
0,
0,
0,
0,
0,
0,
0,
0,
0,
0,
0,
0,
0,
0,
0,
0,
0,
0,
0,
0,
0,
0,
0,
0,
0,
0,
0,
0,
0,
0,
0,
0,
0,
0,
0,
0,
0,
0,
0,
0,
0,
0,
0,
0,
0,
0,
0,
0,
0,
0,
0,
0,
0,
0,
0,
0,
0,
0,
0,
0,
0,
0,
0,
0,
0,
0,
0,
0,
0,
0,
0,
0,
0,
0,
0,
0,
0,
0,
0,
0,
0,
0,
0,
0,
0,
0,
0,
0,
0,
0,
0,
0,
0,
0,
0,
0,
0,
0,
0,
0,
0,
0,
0,
0,
0,
0,
0,
0,
0,
0,
0,
0,
0,
0,
0,
0,
0,
0,
0,
0,
0,
0,
0,
0,
0,
0,
0,
0,
0,
0,
0,
0,
0,
0,
0,
0,
0,
0,
0,
0,
0,
0,
0,
0,
0,
0,
0,
0,
0,
0,
0,
0,
0,
0,
0,
0,
0,
0,
0,
0,
0,
0,
0,
0,
0,
0,
0,
0,
0,
0,
0,
0,
0,
0,
0,
0,
0,
0,
0,
0,
0,
0,
0,
0,
0,
0,
0,
0,
0,
0,
0,
0,
0,
0,
0,
0,
0,
0,
0,
0,
0,
0,
0,
0,
0,
0,
0,
0,
0,
0,
0,
0,
0,
0,
0,
0,
0,
0,
0,
0,
0,
0,
0,
0,
0,
0,
0,
0,
0,
0,
0,
0,
0,
0,
0,
0,
0,
0,
0,
0,
0,
0,
0,
0,
0,
0,
0,
0,
0,
0,
0,
0,
0,
0,
0,
0,
0,
0,
0,
0,
0,
0,
0,
0,
0,
0,
0,
0,
0,
0,
0,
0,
0,
0,
0,
0,
0,
0,
0,
0,
0,
0,
0,
0,
0,
0,
0,
0,
0,
0,
0,
0,
0,
0,
0,
0,
0,
0,
0,
0,
0,
0,
0,
0,
0,
0,
0,
0,
0,
0,
0,
0,
0,
0,
0,
0,
0,
0,
0,
0,
0,
0,
0,
0,
0,
0,
0,
0,
0,
0,
0,
0,
0,
0,
0,
0,
0,
0,
0,
0,
0,
0,
0,
0,
0,
0,
0,
0,
0,
0,
0,
0,
0,
0,
0,
0,
0,
0,
0,
0,
0,
0,
0,
0,
0,
0,
0,
0,
0,
0,
0,
0,
0,
0,
0,
0,
0,
0,
0,
0,
0,
0,
0,
0,
0,
0,
0,
0,
0,
0,
0,
0,
0,
0,
0,
0,
0,
0,
0,
0,
0,
0,
0,
0,
0,
0,
0,
0,
0,
0,
0,
0,
0,
0,
0,
0,
0,
0,
0,
0,
0,
0,
0,
0,
0,
0,
0,
0,
0,
0,
0,
0,
0,
0,
0,
0,
0,
0,
0,
0,
0,
0,
0,
0,
0,
0,
0,
0,
0,
0,
0,
0,
0,
0,
0,
0,
0,
0,
0,
0,
0,
0,
0,
0,
0,
0,
0,
0,
0,
0,
0,
0,
0,
0,
0,
0,
0,
0,
0,
0,
0,
0,
0,
0,
0,
0,
0,
0,
0,
0,
0,
0,
0,
0,
0,
0,
0,
0,
0,
0,
0,
0,
0,
0,
0,
0,
0,
0,
0,
0,
0,
0,
0,
0,
#ENDOFDATA   :