File: N132962/Quantification/15 keV/GMIIIA/GMIIIA K1070[4][4].msa
#FORMAT      : EMSA/MAS Spectral Data File
#VERSION     : 1.0
#TITLE       : GMIIIA K1070[4][all]
#DATE        : 22-SEP-2025
#TIME        : 21:04
#OWNER       : Unknown
#NPOINTS     : 4096
#NCOLUMNS    : 1
#XUNITS      : eV
#YUNITS      : counts
#DATATYPE    : Y
#XPERCHAN    : 9.99778
#OFFSET      : 1.69135
#BEAMKV      : 15
#SIGNALTYPE  : EDS
#ELEVANGLE   : 35
#AZIMANGLE   : 0
#LIVETIME    : 239.9935
#REALTIME    : 256.164
#PROBECUR    : 1.21822
#TAUWIND     : 0
#TDEADLYR    : 0
#TACTLYR     : 0.045
#TALWIND     : 0.025
#CHOFFSET    : 0.0
#XLABEL      : Energy (eV)
#YLABEL      : Counts
#XPOSITION   : 2.41755
#YPOSITION   : 15.69476
#ZPOSITION   : 37.36299
#EDSDET      : SD
##SPECIMEN   : GMIIIA K1070[4][all]
##D2STDCMP   : K1070,(O:34.31),(Mg:7.54),(Si:18.7),(Ca:8.93),(Zn:10.04),(Ba:11.2),(Pb:9.28)
##DET_HASH   : 12273538-fd48-a23f-0a19-f1e6fa85caef
##CALIB_HASH : 6abaa72c-aa41-8738-0be9-f592914732f3
##WORKING    : 15.0 mm
##DET_NAME   : EDAX All
##DET_MODE   : MediumLE
#SPECTRUM    :
21,
32,
9,
21,
121,
466,
1299,
3259,
7658,
10733,
8844,
6445,
5873,
5963,
8680,
24827,
88025,
165461,
120816,
34776,
8082,
5242,
5153,
5245,
5326,
6010,
6705,
6326,
6466,
7511,
7866,
9042,
17222,
35942,
45003,
29464,
12801,
6970,
6319,
8468,
19985,
43830,
52482,
31426,
12216,
6140,
5340,
5340,
5406,
5728,
5945,
6086,
5953,
6069,
6816,
13334,
44088,
108862,
146520,
104665,
44351,
17419,
9648,
6186,
4798,
4440,
4303,
4112,
4081,
3928,
4002,
3990,
4221,
4484,
4700,
5543,
8194,
13766,
18232,
17608,
14415,
13327,
11895,
8454,
5191,
4053,
3774,
4027,
4359,
4216,
3942,
3645,
3496,
3489,
3283,
3364,
3387,
3230,
3453,
3361,
3461,
3342,
3450,
3475,
3357,
3293,
3069,
3083,
3052,
2965,
3022,
3016,
3034,
2975,
2897,
2965,
3004,
3187,
3309,
4125,
7220,
14698,
25860,
32055,
27398,
16177,
7591,
3878,
2860,
2806,
3031,
3721,
4705,
5812,
6162,
5368,
3914,
2965,
2446,
2362,
2283,
2331,
2429,
2417,
2542,
3027,
4603,
7272,
10565,
11630,
9886,
6561,
3957,
2639,
2141,
2156,
2192,
2314,
2960,
4148,
5564,
6526,
6054,
4710,
3829,
3027,
2565,
2222,
2093,
2226,
2772,
3214,
3328,
3079,
2580,
2174,
1850,
1716,
1692,
1773,
1705,
1806,
1954,
2163,
2291,
2343,
2041,
1823,
1644,
1636,
1557,
1688,
1746,
1774,
1659,
1685,
1512,
1548,
1494,
1490,
1420,
1376,
1449,
1338,
1361,
1300,
1348,
1352,
1354,
1334,
1332,
1302,
1325,
1346,
1332,
1301,
1297,
1254,
1187,
1160,
1198,
1256,
1179,
1186,
1185,
1130,
1177,
1143,
1151,
1159,
1151,
1141,
1086,
1098,
1141,
1135,
1145,
1109,
1101,
1052,
1028,
1040,
1039,
1036,
938,
1043,
955,
1034,
935,
941,
1038,
1011,
956,
1017,
943,
890,
936,
894,
959,
856,
891,
940,
903,
887,
810,
857,
846,
822,
931,
858,
837,
829,
809,
798,
761,
768,
764,
790,
822,
770,
736,
805,
855,
1186,
1661,
2414,
3261,
3881,
3941,
3370,
2438,
1742,
1082,
857,
740,
684,
676,
673,
664,
638,
643,
663,
640,
614,
614,
642,
634,
618,
618,
578,
599,
606,
598,
577,
623,
607,
772,
900,
990,
951,
923,
782,
719,
577,
549,
531,
494,
520,
510,
473,
489,
473,
501,
506,
470,
479,
485,
431,
411,
442,
445,
434,
445,
440,
404,
405,
413,
446,
483,
480,
523,
557,
541,
504,
430,
455,
404,
390,
369,
357,
381,
392,
362,
340,
368,
306,
317,
312,
307,
308,
320,
299,
320,
298,
324,
321,
313,
288,
272,
284,
273,
291,
296,
309,
276,
261,
278,
285,
235,
237,
280,
263,
219,
232,
239,
215,
242,
191,
202,
198,
227,
222,
187,
209,
191,
208,
218,
182,
164,
203,
220,
187,
182,
151,
162,
201,
184,
186,
182,
179,
167,
193,
159,
157,
149,
140,
143,
131,
127,
126,
140,
129,
131,
122,
116,
115,
116,
117,
95,
115,
100,
118,
110,
104,
90,
93,
91,
94,
91,
82,
78,
83,
79,
81,
68,
68,
72,
85,
62,
57,
56,
74,
67,
54,
67,
52,
50,
53,
36,
52,
29,
48,
49,
46,
36,
27,
41,
26,
37,
28,
23,
23,
26,
28,
27,
23,
18,
16,
18,
11,
15,
11,
18,
13,
2,
9,
5,
6,
5,
0,
2,
2,
0,
0,
1,
1,
2,
2,
2,
0,
1,
1,
1,
1,
1,
0,
0,
1,
0,
2,
1,
0,
0,
1,
1,
0,
1,
2,
1,
0,
0,
2,
1,
0,
0,
2,
2,
0,
0,
0,
1,
0,
1,
0,
0,
0,
0,
0,
0,
0,
0,
1,
1,
0,
0,
1,
0,
0,
1,
1,
1,
0,
1,
0,
1,
0,
0,
0,
0,
0,
0,
0,
0,
1,
1,
0,
0,
1,
0,
0,
0,
0,
0,
0,
0,
0,
0,
0,
0,
0,
0,
0,
1,
0,
1,
0,
1,
0,
0,
0,
0,
0,
0,
1,
0,
1,
0,
0,
1,
0,
0,
0,
0,
0,
0,
0,
0,
0,
0,
1,
1,
1,
0,
1,
0,
0,
1,
0,
1,
0,
0,
0,
0,
0,
0,
0,
0,
0,
0,
1,
0,
0,
0,
0,
0,
0,
0,
0,
0,
0,
1,
0,
0,
0,
0,
0,
0,
0,
0,
2,
0,
0,
1,
0,
1,
0,
1,
0,
0,
0,
0,
0,
0,
0,
0,
0,
0,
0,
0,
0,
0,
0,
0,
0,
0,
0,
0,
0,
0,
0,
0,
0,
0,
0,
0,
0,
0,
0,
0,
0,
1,
0,
0,
0,
0,
0,
0,
0,
0,
0,
0,
0,
0,
0,
0,
0,
0,
0,
0,
0,
0,
0,
0,
0,
0,
0,
0,
0,
0,
0,
0,
0,
0,
1,
0,
0,
0,
0,
0,
0,
0,
0,
0,
1,
0,
1,
0,
0,
0,
0,
0,
0,
0,
0,
0,
0,
0,
0,
0,
0,
0,
0,
0,
0,
0,
0,
0,
0,
0,
0,
0,
1,
0,
0,
0,
0,
0,
0,
0,
0,
0,
0,
0,
0,
0,
0,
0,
0,
0,
0,
0,
0,
0,
0,
0,
0,
0,
0,
0,
0,
0,
0,
0,
0,
0,
0,
0,
0,
0,
0,
0,
0,
0,
0,
0,
0,
0,
0,
0,
0,
0,
0,
0,
0,
0,
0,
0,
0,
0,
0,
0,
0,
0,
0,
0,
0,
0,
0,
0,
0,
0,
0,
0,
0,
0,
0,
0,
0,
0,
0,
0,
0,
0,
0,
0,
0,
0,
0,
0,
0,
0,
0,
0,
0,
0,
0,
0,
0,
0,
0,
0,
0,
0,
0,
0,
0,
0,
0,
0,
0,
0,
0,
0,
0,
0,
0,
0,
0,
0,
0,
0,
0,
0,
0,
0,
0,
0,
0,
0,
0,
0,
0,
0,
0,
0,
0,
0,
0,
0,
0,
0,
0,
0,
0,
0,
0,
0,
0,
0,
0,
0,
0,
0,
0,
0,
0,
0,
0,
0,
0,
0,
0,
0,
0,
0,
0,
0,
0,
0,
0,
0,
0,
0,
0,
0,
0,
0,
0,
0,
0,
0,
0,
0,
0,
0,
0,
0,
0,
0,
0,
0,
0,
0,
0,
0,
0,
0,
0,
0,
0,
0,
0,
0,
0,
0,
0,
0,
0,
0,
0,
0,
0,
0,
0,
0,
0,
0,
0,
0,
0,
0,
0,
0,
0,
0,
0,
0,
0,
0,
0,
0,
0,
0,
0,
0,
0,
0,
0,
0,
0,
0,
0,
0,
0,
0,
0,
0,
0,
0,
0,
0,
0,
0,
0,
0,
0,
0,
0,
0,
0,
0,
0,
0,
0,
0,
0,
0,
0,
0,
0,
0,
0,
0,
0,
0,
0,
0,
0,
0,
0,
0,
0,
0,
0,
0,
0,
0,
0,
0,
0,
0,
0,
0,
0,
0,
0,
0,
0,
0,
0,
0,
0,
0,
0,
0,
0,
0,
0,
0,
0,
0,
0,
0,
0,
0,
0,
0,
0,
0,
0,
0,
0,
0,
0,
0,
0,
0,
0,
0,
0,
0,
0,
0,
0,
0,
0,
0,
0,
0,
0,
0,
0,
0,
0,
0,
0,
0,
0,
0,
0,
0,
0,
0,
0,
0,
0,
0,
0,
0,
0,
0,
0,
0,
0,
0,
0,
0,
0,
0,
0,
0,
0,
0,
0,
0,
0,
0,
0,
0,
0,
0,
0,
0,
0,
0,
0,
0,
0,
0,
0,
0,
0,
0,
0,
0,
0,
0,
0,
0,
0,
0,
0,
0,
0,
0,
0,
0,
0,
0,
0,
0,
0,
0,
0,
0,
0,
0,
0,
0,
0,
0,
0,
0,
0,
0,
0,
0,
0,
0,
0,
0,
0,
0,
0,
0,
0,
0,
0,
0,
0,
0,
0,
0,
0,
0,
0,
0,
0,
0,
0,
0,
0,
0,
0,
0,
0,
0,
0,
0,
0,
0,
0,
0,
0,
0,
0,
0,
0,
0,
0,
0,
0,
0,
0,
0,
0,
0,
0,
0,
0,
0,
0,
0,
0,
0,
0,
0,
0,
0,
0,
0,
0,
0,
0,
0,
0,
0,
0,
0,
0,
0,
0,
0,
0,
0,
0,
0,
0,
0,
0,
0,
0,
0,
0,
0,
0,
0,
0,
0,
0,
0,
0,
0,
0,
0,
0,
0,
0,
0,
0,
0,
0,
0,
0,
0,
0,
0,
0,
0,
0,
0,
0,
0,
0,
0,
0,
0,
0,
0,
0,
0,
0,
0,
0,
0,
0,
0,
0,
0,
0,
0,
0,
0,
0,
0,
0,
0,
0,
0,
0,
0,
0,
0,
0,
0,
0,
0,
0,
0,
0,
0,
0,
0,
0,
0,
0,
0,
0,
0,
0,
0,
0,
0,
0,
0,
0,
#ENDOFDATA   :