File: N132962/Quantification/15 keV/GMIIIA/GMIIIA K1080[3][4].msa
#FORMAT      : EMSA/MAS Spectral Data File
#VERSION     : 1.0
#TITLE       : GMIIIA K1080[3][all]
#DATE        : 22-SEP-2025
#TIME        : 20:53
#OWNER       : Unknown
#NPOINTS     : 4096
#NCOLUMNS    : 1
#XUNITS      : eV
#YUNITS      : counts
#DATATYPE    : Y
#XPERCHAN    : 9.99778
#OFFSET      : 1.69135
#BEAMKV      : 15
#SIGNALTYPE  : EDS
#ELEVANGLE   : 35
#AZIMANGLE   : 0
#LIVETIME    : 239.948
#REALTIME    : 255.3349
#PROBECUR    : 1.2178
#TAUWIND     : 0
#TDEADLYR    : 0
#TACTLYR     : 0.045
#TALWIND     : 0.025
#CHOFFSET    : 0.0
#XLABEL      : Energy (eV)
#YLABEL      : Counts
#XPOSITION   : 0.35665
#YPOSITION   : 15.71473
#ZPOSITION   : 37.36299
#EDSDET      : SD
##SPECIMEN   : GMIIIA K1080[3][all]
##D2STDCMP   : K1080,(Li:2.79),(B:0.62),(O:41.65),(Mg:1.21),(Al:7.94),(Si:18.7),(Ca:10.72),(Ti:1.2),(Sr:12.68),(Zr:0.74),(Lu:1.76)
##DET_HASH   : 12273538-fd48-a23f-0a19-f1e6fa85caef
##CALIB_HASH : 6abaa72c-aa41-8738-0be9-f592914732f3
##WORKING    : 15.0 mm
##DET_NAME   : EDAX All
##DET_MODE   : MediumLE
#SPECTRUM    :
13,
23,
6,
32,
146,
425,
1153,
2602,
5988,
8823,
7147,
5229,
4742,
5080,
7546,
23441,
85289,
162839,
118162,
31725,
5128,
2988,
3424,
3760,
3644,
3496,
3721,
3825,
4235,
4306,
4422,
4625,
4809,
5035,
5393,
5509,
5370,
5375,
5605,
6168,
8934,
14151,
15490,
11152,
7346,
6419,
7123,
13086,
36247,
69683,
71202,
40813,
20105,
14748,
12431,
16803,
48162,
118164,
165866,
138832,
89728,
57795,
35131,
20029,
11167,
7074,
5460,
5059,
5019,
4605,
3989,
3822,
3741,
3564,
3520,
3289,
3247,
3205,
3036,
2878,
2758,
2748,
2704,
2870,
2684,
2693,
2702,
2650,
2654,
2727,
2673,
2601,
2568,
2566,
2524,
2568,
2492,
2548,
2608,
2545,
2505,
2535,
2440,
2464,
2457,
2433,
2451,
2448,
2416,
2433,
2327,
2370,
2307,
2307,
2386,
2423,
2381,
2543,
2836,
3742,
7252,
16148,
28918,
36406,
30670,
18017,
7760,
3447,
2290,
2151,
2300,
2981,
4275,
5557,
6064,
4973,
3564,
2430,
1919,
1785,
1763,
1691,
1774,
1667,
1716,
1633,
1727,
1987,
2533,
3404,
4116,
3887,
3100,
2223,
1720,
1520,
1468,
1464,
1495,
1442,
1531,
1469,
1551,
1680,
1753,
1681,
1622,
1523,
1390,
1354,
1340,
1388,
1274,
1321,
1336,
1287,
1253,
1258,
1218,
1230,
1233,
1218,
1235,
1159,
1215,
1176,
1139,
1115,
1205,
1138,
1072,
1149,
1141,
1133,
1118,
1074,
1002,
1041,
1030,
1007,
1034,
1094,
994,
985,
987,
982,
1003,
991,
927,
999,
967,
973,
953,
968,
878,
950,
910,
886,
867,
924,
895,
876,
857,
858,
760,
827,
857,
846,
820,
800,
834,
805,
781,
763,
763,
781,
814,
793,
768,
765,
707,
728,
749,
727,
774,
709,
711,
695,
713,
734,
741,
743,
774,
835,
968,
920,
905,
789,
740,
652,
617,
638,
609,
608,
647,
587,
623,
600,
545,
598,
577,
570,
591,
525,
565,
558,
555,
572,
515,
537,
542,
514,
518,
519,
503,
479,
501,
555,
551,
585,
586,
535,
560,
483,
508,
451,
487,
460,
453,
437,
472,
482,
478,
436,
422,
416,
472,
400,
406,
421,
388,
382,
348,
394,
434,
367,
357,
356,
348,
363,
386,
345,
385,
377,
362,
325,
307,
357,
316,
346,
359,
308,
307,
328,
308,
294,
321,
333,
305,
290,
321,
295,
285,
275,
276,
301,
278,
258,
249,
255,
266,
258,
250,
236,
238,
273,
193,
236,
243,
234,
256,
216,
231,
216,
227,
215,
228,
211,
183,
200,
188,
222,
216,
201,
198,
195,
185,
179,
172,
171,
184,
189,
168,
175,
156,
154,
166,
156,
173,
143,
175,
155,
160,
173,
170,
137,
132,
131,
153,
131,
133,
126,
143,
141,
118,
145,
156,
140,
130,
120,
109,
118,
89,
112,
105,
96,
95,
99,
111,
115,
92,
95,
73,
106,
85,
105,
90,
87,
84,
77,
80,
70,
65,
68,
73,
76,
65,
76,
50,
73,
73,
67,
67,
70,
64,
63,
54,
64,
68,
54,
57,
53,
51,
40,
39,
42,
62,
47,
45,
35,
37,
37,
31,
39,
36,
38,
26,
30,
29,
26,
21,
28,
17,
26,
19,
23,
22,
34,
17,
21,
25,
20,
9,
14,
12,
15,
11,
8,
8,
12,
5,
6,
7,
3,
2,
10,
2,
1,
2,
3,
0,
1,
1,
1,
0,
0,
0,
0,
0,
0,
0,
0,
2,
1,
0,
0,
1,
0,
0,
0,
0,
0,
0,
1,
0,
0,
0,
0,
0,
0,
0,
1,
0,
0,
0,
0,
0,
0,
1,
0,
0,
1,
0,
0,
0,
0,
0,
1,
0,
0,
0,
0,
1,
0,
0,
0,
1,
0,
0,
0,
0,
0,
0,
0,
1,
0,
1,
0,
0,
0,
0,
1,
0,
0,
1,
0,
0,
1,
0,
0,
0,
0,
1,
0,
0,
0,
0,
0,
0,
0,
0,
0,
0,
0,
0,
0,
0,
0,
0,
0,
0,
0,
0,
0,
0,
0,
0,
0,
0,
0,
1,
0,
0,
0,
0,
0,
0,
0,
0,
0,
0,
0,
0,
0,
0,
0,
0,
0,
0,
0,
0,
0,
0,
0,
0,
0,
0,
0,
0,
0,
0,
0,
0,
0,
0,
0,
0,
0,
0,
0,
0,
0,
0,
0,
0,
0,
0,
0,
0,
0,
0,
0,
0,
0,
0,
0,
0,
0,
0,
0,
0,
1,
0,
0,
0,
0,
0,
0,
0,
0,
0,
0,
0,
0,
0,
0,
0,
0,
0,
0,
0,
0,
0,
0,
0,
0,
0,
0,
0,
0,
0,
0,
0,
0,
0,
0,
0,
0,
0,
0,
0,
0,
0,
0,
0,
0,
0,
0,
0,
0,
0,
0,
0,
0,
0,
0,
0,
0,
0,
0,
0,
0,
0,
0,
0,
0,
0,
0,
0,
0,
0,
0,
0,
0,
0,
0,
0,
0,
0,
0,
0,
0,
0,
0,
0,
0,
0,
0,
0,
0,
0,
0,
0,
0,
0,
0,
0,
0,
0,
1,
0,
0,
0,
0,
0,
0,
0,
0,
0,
0,
0,
0,
0,
0,
0,
0,
0,
0,
0,
0,
0,
0,
0,
0,
0,
0,
0,
0,
0,
0,
0,
0,
0,
0,
0,
0,
0,
0,
0,
0,
0,
0,
0,
0,
0,
0,
0,
0,
0,
0,
0,
0,
0,
0,
0,
0,
0,
0,
0,
0,
0,
0,
0,
0,
0,
0,
0,
0,
0,
0,
0,
0,
0,
0,
0,
0,
0,
0,
0,
0,
0,
0,
0,
0,
0,
0,
0,
0,
0,
0,
0,
0,
0,
0,
0,
0,
0,
0,
0,
0,
0,
0,
0,
0,
0,
0,
0,
0,
0,
0,
0,
0,
0,
0,
0,
0,
0,
0,
0,
0,
0,
0,
0,
0,
0,
0,
0,
0,
0,
0,
0,
0,
0,
0,
0,
0,
0,
0,
0,
0,
0,
0,
0,
0,
0,
0,
0,
0,
0,
0,
0,
0,
0,
0,
0,
0,
0,
0,
0,
0,
0,
0,
0,
0,
0,
0,
0,
0,
0,
0,
0,
0,
0,
0,
0,
0,
0,
0,
0,
0,
0,
0,
0,
0,
0,
0,
0,
0,
0,
0,
0,
0,
0,
0,
0,
0,
0,
0,
0,
0,
0,
0,
0,
0,
0,
0,
0,
0,
0,
0,
0,
0,
0,
0,
0,
0,
0,
0,
0,
0,
0,
0,
0,
0,
0,
0,
0,
0,
0,
0,
0,
0,
0,
0,
0,
0,
0,
0,
0,
0,
0,
0,
0,
0,
0,
0,
0,
0,
0,
0,
0,
0,
0,
0,
0,
0,
0,
0,
0,
0,
0,
0,
0,
0,
0,
0,
0,
0,
0,
0,
0,
0,
0,
0,
0,
0,
0,
0,
0,
0,
0,
0,
0,
0,
0,
0,
0,
0,
0,
0,
0,
0,
0,
0,
0,
0,
0,
0,
0,
0,
0,
0,
0,
0,
0,
0,
0,
0,
0,
0,
0,
0,
0,
0,
0,
0,
0,
0,
0,
0,
0,
0,
0,
0,
0,
0,
0,
0,
0,
0,
0,
0,
0,
0,
0,
0,
0,
0,
0,
0,
0,
0,
0,
0,
0,
0,
0,
0,
0,
0,
0,
0,
0,
0,
0,
0,
0,
0,
0,
0,
0,
0,
0,
0,
0,
0,
0,
0,
0,
0,
0,
0,
0,
0,
0,
0,
0,
0,
0,
0,
0,
0,
0,
0,
0,
0,
0,
0,
0,
0,
0,
0,
0,
0,
0,
0,
0,
0,
0,
0,
0,
0,
0,
0,
0,
0,
0,
0,
0,
0,
0,
0,
0,
0,
0,
0,
0,
0,
0,
0,
0,
0,
0,
0,
0,
0,
0,
0,
0,
0,
0,
0,
0,
0,
0,
0,
0,
0,
0,
0,
0,
0,
0,
0,
0,
0,
0,
0,
0,
0,
0,
0,
0,
0,
0,
0,
0,
0,
0,
0,
0,
0,
0,
0,
0,
0,
0,
0,
0,
0,
0,
0,
0,
0,
0,
0,
0,
0,
0,
0,
0,
0,
0,
0,
0,
0,
0,
0,
0,
0,
0,
0,
0,
0,
0,
0,
0,
0,
0,
0,
0,
0,
0,
0,
0,
0,
0,
0,
0,
0,
0,
0,
0,
0,
0,
0,
0,
0,
0,
0,
0,
0,
0,
0,
0,
0,
0,
0,
0,
0,
0,
0,
0,
0,
0,
0,
0,
0,
0,
0,
0,
0,
0,
0,
0,
0,
0,
0,
0,
0,
0,
0,
0,
0,
0,
0,
0,
0,
0,
0,
0,
0,
0,
0,
0,
0,
0,
0,
0,
0,
0,
0,
0,
0,
0,
0,
0,
0,
0,
0,
0,
0,
0,
0,
0,
0,
0,
0,
0,
0,
0,
0,
0,
0,
0,
0,
#ENDOFDATA   :