File: N132962/Quantification/15 keV/GMIIIA/GMIIIA K326[5][4].msa
#FORMAT      : EMSA/MAS Spectral Data File
#VERSION     : 1.0
#TITLE       : GMIIIA K326[5][all]
#DATE        : 22-SEP-2025
#TIME        : 15:34
#OWNER       : Unknown
#NPOINTS     : 4096
#NCOLUMNS    : 1
#XUNITS      : eV
#YUNITS      : counts
#DATATYPE    : Y
#XPERCHAN    : 9.99778
#OFFSET      : 1.69135
#BEAMKV      : 15
#SIGNALTYPE  : EDS
#ELEVANGLE   : 35
#AZIMANGLE   : 0
#LIVETIME    : 239.9365
#REALTIME    : 254.575
#PROBECUR    : 1.21681
#TAUWIND     : 0
#TDEADLYR    : 0
#TACTLYR     : 0.045
#TALWIND     : 0.025
#CHOFFSET    : 0.0
#XLABEL      : Energy (eV)
#YLABEL      : Counts
#XPOSITION   : 10.57122
#YPOSITION   : 3.76321
#ZPOSITION   : 37.36299
#EDSDET      : SD
##SPECIMEN   : GMIIIA K326[5][all]
##D2STDCMP   : K326,(B:9.32),(O:51.35),(Na:1.48),(Mg:18.15),(Si:13.98),(Ca:5.72)
##DET_HASH   : 12273538-fd48-a23f-0a19-f1e6fa85caef
##CALIB_HASH : 6abaa72c-aa41-8738-0be9-f592914732f3
##WORKING    : 15.0 mm
##DET_NAME   : EDAX All
##DET_MODE   : MediumLE
#SPECTRUM    :
30,
26,
15,
30,
190,
804,
1678,
2461,
4789,
6932,
5492,
4538,
4507,
5595,
10086,
38894,
147706,
278931,
203588,
52987,
6800,
2951,
3737,
3801,
3017,
2807,
2798,
2983,
3153,
3376,
3459,
3846,
4540,
7666,
13651,
15006,
9544,
6056,
6381,
13707,
48777,
120130,
144592,
81869,
24368,
6383,
3859,
3457,
3762,
3913,
3972,
3886,
3777,
3974,
4446,
9600,
33225,
82871,
112389,
80255,
33351,
12213,
6218,
3842,
2932,
2698,
2482,
2411,
2363,
2320,
2423,
2376,
2423,
2421,
2634,
2808,
2768,
2575,
2488,
2330,
2187,
2261,
2170,
2262,
2205,
2206,
2146,
2038,
2031,
1985,
2019,
1962,
2004,
1968,
1867,
1906,
1925,
2000,
2028,
2117,
2079,
2021,
1916,
1764,
1739,
1733,
1742,
1653,
1702,
1738,
1611,
1674,
1603,
1571,
1686,
1633,
1685,
1732,
1867,
2376,
4322,
9260,
16129,
19985,
16874,
10054,
4570,
2211,
1606,
1481,
1509,
1976,
2543,
3250,
3574,
3034,
2161,
1487,
1305,
1229,
1254,
1208,
1193,
1110,
1182,
1106,
1119,
1162,
1123,
1143,
1110,
1117,
1080,
1027,
1000,
1087,
1007,
961,
1039,
1039,
1026,
929,
987,
975,
971,
980,
956,
893,
919,
895,
835,
870,
886,
928,
888,
806,
883,
807,
847,
887,
798,
831,
830,
811,
776,
752,
816,
776,
768,
821,
774,
757,
725,
714,
736,
728,
709,
708,
714,
720,
721,
716,
678,
678,
658,
634,
640,
679,
648,
598,
579,
616,
612,
631,
605,
553,
567,
616,
582,
535,
612,
535,
562,
584,
552,
550,
503,
522,
554,
544,
507,
479,
483,
538,
522,
496,
484,
503,
482,
503,
465,
475,
477,
460,
495,
465,
487,
438,
454,
414,
417,
425,
416,
425,
442,
430,
399,
378,
384,
423,
361,
396,
380,
373,
396,
408,
388,
335,
377,
341,
335,
376,
356,
375,
330,
346,
355,
289,
298,
330,
330,
303,
296,
333,
328,
306,
308,
303,
303,
296,
293,
335,
332,
328,
265,
288,
285,
307,
274,
293,
268,
285,
232,
264,
231,
260,
243,
237,
249,
230,
247,
237,
220,
211,
266,
260,
233,
251,
214,
234,
224,
211,
224,
235,
236,
205,
212,
192,
217,
188,
194,
175,
221,
170,
187,
189,
209,
190,
194,
178,
179,
184,
174,
178,
182,
154,
154,
160,
177,
154,
157,
160,
148,
157,
153,
141,
142,
133,
131,
140,
154,
125,
128,
129,
145,
134,
120,
124,
129,
115,
133,
111,
109,
106,
116,
106,
105,
124,
110,
97,
109,
124,
84,
117,
108,
91,
102,
94,
103,
89,
104,
92,
83,
87,
98,
92,
79,
92,
88,
79,
63,
80,
82,
73,
76,
56,
62,
88,
66,
67,
58,
66,
66,
49,
78,
58,
57,
59,
70,
45,
68,
72,
55,
52,
45,
50,
52,
47,
49,
49,
41,
50,
42,
36,
26,
48,
44,
49,
37,
38,
36,
36,
42,
35,
39,
31,
32,
37,
35,
26,
31,
20,
32,
32,
19,
13,
20,
18,
24,
28,
24,
20,
18,
21,
23,
21,
12,
15,
18,
18,
7,
16,
11,
10,
21,
10,
15,
14,
11,
11,
11,
15,
10,
8,
8,
10,
8,
2,
3,
4,
3,
3,
6,
6,
1,
1,
2,
3,
1,
0,
0,
0,
0,
0,
1,
0,
0,
0,
0,
0,
0,
0,
0,
1,
0,
0,
0,
0,
0,
1,
0,
0,
0,
0,
0,
0,
1,
0,
0,
0,
1,
0,
0,
0,
0,
0,
0,
0,
0,
0,
0,
0,
0,
0,
0,
0,
0,
0,
0,
0,
0,
0,
0,
0,
0,
0,
0,
1,
0,
0,
0,
0,
0,
0,
0,
0,
0,
0,
0,
0,
0,
0,
0,
0,
0,
0,
0,
0,
0,
1,
0,
0,
0,
0,
0,
0,
0,
1,
0,
0,
0,
0,
0,
0,
0,
0,
0,
0,
0,
0,
0,
0,
0,
0,
0,
0,
1,
0,
0,
0,
0,
0,
0,
0,
0,
0,
1,
0,
0,
0,
0,
0,
0,
0,
0,
1,
0,
0,
0,
0,
0,
0,
0,
0,
0,
0,
0,
0,
0,
0,
0,
0,
0,
0,
0,
0,
0,
0,
0,
0,
0,
0,
0,
0,
0,
0,
0,
0,
0,
0,
1,
0,
0,
0,
0,
0,
0,
0,
0,
0,
0,
0,
0,
0,
0,
0,
0,
0,
0,
0,
0,
0,
0,
0,
0,
0,
0,
0,
0,
0,
0,
0,
0,
0,
0,
0,
0,
0,
0,
0,
0,
0,
0,
0,
0,
0,
0,
0,
0,
0,
0,
0,
0,
0,
0,
0,
0,
0,
0,
0,
0,
0,
0,
0,
0,
0,
0,
0,
0,
0,
0,
0,
0,
0,
0,
0,
0,
0,
0,
0,
0,
0,
0,
0,
0,
0,
0,
0,
0,
0,
0,
0,
0,
0,
0,
0,
0,
0,
0,
1,
0,
0,
0,
0,
0,
0,
0,
0,
0,
0,
0,
0,
0,
0,
0,
0,
0,
0,
0,
0,
0,
0,
0,
0,
0,
0,
0,
0,
0,
0,
0,
0,
0,
0,
0,
0,
0,
0,
0,
0,
0,
0,
0,
0,
0,
0,
0,
0,
0,
0,
0,
0,
0,
0,
0,
0,
0,
0,
0,
0,
0,
0,
0,
0,
0,
0,
0,
0,
0,
0,
0,
0,
0,
0,
0,
0,
0,
0,
0,
0,
0,
0,
0,
0,
0,
0,
0,
0,
0,
0,
0,
0,
0,
0,
0,
0,
0,
0,
0,
0,
0,
0,
0,
0,
0,
0,
0,
0,
0,
0,
0,
0,
0,
0,
0,
0,
0,
0,
0,
0,
0,
0,
0,
0,
0,
0,
0,
0,
0,
0,
0,
0,
0,
0,
0,
0,
0,
0,
0,
0,
0,
0,
0,
0,
0,
0,
0,
0,
0,
0,
0,
0,
0,
0,
0,
0,
0,
0,
0,
0,
0,
0,
0,
0,
0,
0,
0,
0,
0,
0,
0,
0,
0,
0,
0,
0,
0,
0,
0,
0,
0,
0,
0,
0,
0,
0,
0,
0,
0,
0,
0,
0,
0,
0,
0,
0,
0,
0,
0,
0,
0,
0,
0,
0,
0,
0,
0,
0,
0,
0,
0,
0,
0,
0,
0,
0,
0,
0,
0,
0,
0,
0,
0,
0,
0,
0,
0,
0,
0,
0,
0,
0,
0,
0,
0,
0,
0,
0,
0,
0,
0,
0,
0,
0,
0,
0,
0,
0,
0,
0,
0,
0,
0,
0,
0,
0,
0,
0,
0,
0,
0,
0,
0,
0,
0,
0,
0,
0,
0,
0,
0,
0,
0,
0,
0,
0,
0,
0,
0,
0,
0,
0,
0,
0,
0,
0,
0,
0,
0,
0,
0,
0,
0,
0,
0,
0,
0,
0,
0,
0,
0,
0,
0,
0,
0,
0,
0,
0,
0,
0,
0,
0,
0,
0,
0,
0,
0,
0,
0,
0,
0,
0,
0,
0,
0,
0,
0,
0,
0,
0,
0,
0,
0,
0,
0,
0,
0,
0,
0,
0,
0,
0,
0,
0,
0,
0,
0,
0,
0,
0,
0,
0,
0,
0,
0,
0,
0,
0,
0,
0,
0,
0,
0,
0,
0,
0,
0,
0,
0,
0,
0,
0,
0,
0,
0,
0,
0,
0,
0,
0,
0,
0,
0,
0,
0,
0,
0,
0,
0,
0,
0,
0,
0,
0,
0,
0,
0,
0,
0,
0,
0,
0,
0,
0,
0,
0,
0,
0,
0,
0,
0,
0,
0,
0,
0,
0,
0,
0,
0,
0,
0,
0,
0,
0,
0,
0,
0,
0,
0,
0,
0,
0,
0,
0,
0,
0,
0,
0,
0,
0,
0,
0,
0,
0,
0,
0,
0,
0,
0,
0,
0,
0,
0,
0,
0,
0,
0,
0,
0,
0,
0,
0,
0,
0,
0,
0,
0,
0,
0,
0,
0,
0,
0,
0,
0,
0,
0,
0,
0,
0,
0,
0,
0,
0,
0,
0,
0,
0,
0,
0,
0,
0,
0,
0,
0,
0,
0,
0,
0,
0,
0,
0,
0,
0,
0,
0,
0,
0,
0,
0,
0,
0,
0,
0,
0,
0,
0,
0,
0,
0,
0,
0,
0,
0,
0,
0,
0,
0,
0,
0,
0,
0,
0,
0,
0,
0,
0,
0,
0,
0,
0,
0,
0,
0,
0,
0,
0,
0,
0,
0,
0,
0,
0,
0,
0,
0,
0,
0,
0,
0,
0,
0,
0,
0,
0,
0,
0,
0,
0,
0,
0,
0,
0,
0,
0,
0,
0,
0,
0,
0,
0,
0,
0,
0,
0,
0,
0,
0,
0,
0,
0,
0,
0,
0,
0,
0,
0,
0,
0,
0,
0,
0,
0,
0,
0,
0,
#ENDOFDATA   :