File: N132962/Quantification/15 keV/GMIIIA/GMIIIA K1080[5][4].msa
#FORMAT      : EMSA/MAS Spectral Data File
#VERSION     : 1.0
#TITLE       : GMIIIA K1080[5][all]
#DATE        : 22-SEP-2025
#TIME        : 20:55
#OWNER       : Unknown
#NPOINTS     : 4096
#NCOLUMNS    : 1
#XUNITS      : eV
#YUNITS      : counts
#DATATYPE    : Y
#XPERCHAN    : 9.99778
#OFFSET      : 1.69135
#BEAMKV      : 15
#SIGNALTYPE  : EDS
#ELEVANGLE   : 35
#AZIMANGLE   : 0
#LIVETIME    : 239.891
#REALTIME    : 255.274
#PROBECUR    : 1.2178
#TAUWIND     : 0
#TDEADLYR    : 0
#TACTLYR     : 0.045
#TALWIND     : 0.025
#CHOFFSET    : 0.0
#XLABEL      : Energy (eV)
#YLABEL      : Counts
#XPOSITION   : 0.41814
#YPOSITION   : 15.66926
#ZPOSITION   : 37.36299
#EDSDET      : SD
##SPECIMEN   : GMIIIA K1080[5][all]
##D2STDCMP   : K1080,(Li:2.79),(B:0.62),(O:41.65),(Mg:1.21),(Al:7.94),(Si:18.7),(Ca:10.72),(Ti:1.2),(Sr:12.68),(Zr:0.74),(Lu:1.76)
##DET_HASH   : 12273538-fd48-a23f-0a19-f1e6fa85caef
##CALIB_HASH : 6abaa72c-aa41-8738-0be9-f592914732f3
##WORKING    : 15.0 mm
##DET_NAME   : EDAX All
##DET_MODE   : MediumLE
#SPECTRUM    :
20,
24,
16,
30,
136,
448,
1115,
2609,
6103,
8667,
7172,
5310,
4838,
5094,
7622,
23828,
85729,
161776,
117984,
32176,
5251,
3119,
3660,
3819,
3504,
3465,
3736,
4047,
4227,
4307,
4488,
4515,
4635,
4933,
5392,
5494,
5256,
5354,
5492,
6164,
8997,
13943,
15889,
11142,
7374,
6514,
7084,
13458,
36249,
69373,
70332,
40789,
20230,
14760,
12493,
16911,
48228,
117708,
164761,
138603,
90180,
57978,
35373,
20340,
11361,
7204,
5459,
4952,
5037,
4560,
4076,
3878,
3688,
3509,
3538,
3426,
3422,
3147,
3055,
2854,
2764,
2777,
2784,
2656,
2713,
2685,
2696,
2817,
2765,
2657,
2684,
2614,
2633,
2667,
2554,
2568,
2488,
2525,
2610,
2583,
2503,
2512,
2453,
2363,
2439,
2406,
2402,
2484,
2441,
2384,
2357,
2381,
2243,
2263,
2249,
2388,
2370,
2550,
2830,
3764,
7184,
16340,
29459,
36703,
30657,
17873,
7918,
3493,
2384,
2101,
2267,
2794,
4166,
5671,
5933,
5089,
3487,
2339,
1882,
1755,
1728,
1687,
1686,
1602,
1731,
1661,
1646,
1928,
2563,
3376,
4099,
4082,
3103,
2239,
1760,
1558,
1492,
1433,
1381,
1415,
1495,
1505,
1621,
1604,
1783,
1688,
1615,
1538,
1398,
1334,
1310,
1343,
1358,
1311,
1275,
1270,
1259,
1233,
1279,
1278,
1224,
1283,
1261,
1196,
1153,
1181,
1147,
1196,
1117,
1112,
1116,
1103,
1096,
1132,
1156,
1077,
1109,
1091,
1009,
1030,
1002,
1065,
1004,
1010,
965,
1007,
994,
985,
962,
901,
951,
917,
985,
959,
975,
925,
956,
882,
918,
912,
845,
893,
907,
874,
858,
863,
784,
846,
878,
765,
790,
792,
774,
797,
760,
750,
749,
763,
751,
795,
743,
726,
740,
695,
689,
744,
710,
726,
724,
702,
721,
759,
775,
881,
912,
980,
919,
858,
744,
666,
666,
599,
591,
649,
618,
574,
595,
578,
534,
594,
556,
575,
567,
551,
549,
573,
572,
519,
548,
517,
527,
531,
530,
498,
494,
572,
515,
552,
546,
553,
535,
581,
562,
523,
496,
458,
479,
442,
463,
511,
457,
453,
532,
462,
446,
456,
415,
417,
394,
399,
368,
424,
388,
387,
339,
363,
378,
340,
374,
352,
352,
355,
396,
361,
351,
346,
356,
329,
334,
326,
336,
343,
324,
349,
322,
302,
301,
317,
323,
287,
302,
284,
314,
293,
293,
289,
264,
261,
283,
282,
253,
260,
232,
277,
263,
219,
251,
237,
252,
220,
259,
219,
238,
217,
217,
216,
219,
194,
200,
193,
191,
189,
201,
216,
208,
193,
190,
195,
182,
196,
185,
173,
176,
164,
181,
178,
171,
156,
165,
144,
193,
158,
137,
148,
149,
143,
140,
156,
142,
149,
113,
126,
130,
145,
131,
113,
121,
111,
118,
112,
114,
132,
122,
101,
120,
122,
114,
123,
98,
92,
90,
98,
91,
90,
102,
104,
85,
83,
87,
96,
85,
91,
93,
76,
75,
71,
72,
59,
61,
56,
55,
55,
56,
62,
75,
60,
53,
49,
45,
48,
51,
67,
59,
51,
44,
64,
37,
49,
48,
34,
33,
39,
34,
40,
32,
26,
29,
33,
31,
22,
29,
19,
30,
21,
29,
13,
22,
16,
22,
11,
18,
20,
19,
10,
9,
22,
17,
10,
12,
9,
7,
12,
10,
6,
2,
4,
3,
5,
3,
2,
0,
0,
1,
0,
2,
0,
0,
1,
0,
0,
0,
1,
0,
0,
0,
2,
0,
0,
2,
1,
0,
2,
0,
0,
0,
0,
0,
0,
0,
0,
0,
0,
0,
0,
0,
0,
1,
1,
0,
1,
0,
0,
1,
0,
0,
0,
0,
0,
0,
0,
1,
1,
0,
0,
0,
0,
0,
0,
0,
0,
0,
0,
0,
0,
1,
0,
0,
0,
0,
0,
0,
1,
0,
0,
0,
0,
0,
0,
0,
0,
0,
2,
0,
0,
1,
0,
0,
0,
0,
0,
0,
0,
0,
0,
0,
0,
0,
0,
0,
0,
0,
0,
0,
0,
0,
0,
0,
0,
0,
1,
0,
0,
0,
0,
1,
0,
0,
0,
0,
0,
0,
0,
0,
0,
0,
0,
0,
0,
0,
0,
0,
0,
0,
0,
0,
0,
0,
1,
0,
0,
0,
0,
0,
0,
0,
0,
0,
0,
0,
0,
0,
0,
0,
0,
0,
0,
0,
0,
0,
0,
0,
0,
0,
0,
0,
0,
0,
0,
0,
0,
0,
0,
0,
0,
1,
0,
0,
0,
0,
1,
0,
0,
0,
0,
0,
0,
0,
0,
0,
0,
0,
0,
0,
0,
0,
0,
0,
0,
0,
0,
0,
0,
0,
0,
0,
0,
0,
1,
0,
0,
0,
0,
0,
0,
0,
0,
0,
0,
0,
0,
0,
0,
0,
0,
0,
0,
0,
0,
0,
0,
0,
0,
0,
0,
0,
0,
0,
0,
0,
0,
0,
0,
0,
0,
0,
0,
0,
0,
0,
0,
0,
0,
0,
0,
0,
0,
0,
0,
0,
0,
0,
0,
0,
0,
0,
0,
0,
0,
0,
0,
0,
0,
0,
0,
0,
0,
0,
0,
0,
0,
0,
0,
0,
0,
0,
0,
0,
0,
0,
0,
0,
0,
0,
0,
0,
0,
0,
0,
0,
0,
0,
0,
0,
0,
0,
0,
0,
0,
0,
0,
0,
0,
0,
0,
0,
0,
0,
0,
0,
0,
0,
0,
0,
0,
0,
0,
0,
0,
0,
0,
0,
0,
0,
0,
0,
0,
0,
0,
0,
0,
0,
0,
0,
0,
0,
0,
0,
0,
0,
0,
0,
0,
0,
0,
0,
0,
0,
0,
0,
0,
0,
0,
0,
0,
0,
0,
0,
0,
0,
0,
0,
0,
0,
0,
0,
0,
0,
0,
0,
0,
0,
0,
0,
0,
0,
0,
0,
0,
0,
0,
0,
0,
0,
0,
0,
0,
0,
0,
0,
0,
0,
0,
0,
0,
0,
0,
0,
0,
0,
0,
0,
0,
0,
0,
0,
0,
0,
0,
0,
0,
0,
0,
0,
0,
0,
0,
0,
0,
0,
0,
0,
0,
0,
0,
0,
0,
0,
0,
0,
0,
0,
0,
0,
0,
0,
0,
0,
0,
0,
0,
0,
0,
0,
0,
0,
0,
0,
0,
0,
0,
0,
0,
0,
0,
0,
0,
0,
0,
0,
0,
0,
0,
0,
0,
0,
0,
0,
0,
0,
0,
0,
0,
0,
0,
0,
0,
0,
0,
0,
0,
0,
0,
0,
0,
0,
0,
0,
0,
0,
0,
0,
0,
0,
0,
0,
0,
0,
0,
0,
0,
0,
0,
0,
0,
0,
0,
0,
0,
0,
0,
0,
0,
0,
0,
0,
0,
0,
0,
0,
0,
0,
0,
0,
0,
0,
0,
0,
0,
0,
0,
0,
0,
0,
0,
0,
0,
0,
0,
0,
0,
0,
0,
0,
0,
0,
0,
0,
0,
0,
0,
0,
0,
0,
0,
0,
0,
0,
0,
0,
0,
0,
0,
0,
0,
0,
0,
0,
0,
0,
0,
0,
0,
0,
0,
0,
0,
0,
0,
0,
0,
0,
0,
0,
0,
0,
0,
0,
0,
0,
0,
0,
0,
0,
0,
0,
0,
0,
0,
0,
0,
0,
0,
0,
0,
0,
0,
0,
0,
0,
0,
0,
0,
0,
0,
0,
0,
0,
0,
0,
0,
0,
0,
0,
0,
0,
0,
0,
0,
0,
0,
0,
0,
0,
0,
0,
0,
0,
0,
0,
0,
0,
0,
0,
0,
0,
0,
0,
0,
0,
0,
0,
0,
0,
0,
0,
0,
0,
0,
0,
0,
0,
0,
0,
0,
0,
0,
0,
0,
0,
0,
0,
0,
0,
0,
0,
0,
0,
0,
0,
0,
0,
0,
0,
0,
0,
0,
0,
0,
0,
0,
0,
0,
0,
0,
0,
0,
0,
0,
0,
0,
0,
0,
0,
0,
0,
0,
0,
0,
0,
0,
0,
0,
0,
0,
0,
0,
0,
0,
0,
0,
0,
0,
0,
0,
0,
0,
0,
0,
0,
0,
0,
0,
0,
0,
0,
0,
0,
0,
0,
0,
0,
0,
0,
0,
0,
0,
0,
0,
0,
0,
0,
0,
0,
0,
0,
0,
0,
0,
0,
0,
0,
0,
0,
0,
0,
0,
0,
0,
0,
0,
0,
0,
0,
0,
0,
0,
0,
0,
0,
0,
0,
0,
0,
0,
0,
0,
0,
0,
0,
0,
0,
0,
0,
0,
0,
0,
0,
0,
0,
0,
0,
0,
0,
0,
0,
0,
0,
0,
0,
0,
0,
0,
0,
0,
0,
0,
0,
0,
0,
0,
0,
0,
0,
0,
0,
0,
0,
0,
0,
0,
0,
0,
0,
0,
0,
0,
0,
0,
0,
0,
0,
0,
0,
0,
0,
0,
0,
0,
0,
0,
0,
0,
0,
0,
0,
0,
#ENDOFDATA   :