File: N132962/Quantification/15 keV/GMIIIA/GMIIIA K1012[7][4].msa
#FORMAT      : EMSA/MAS Spectral Data File
#VERSION     : 1.0
#TITLE       : GMIIIA K1012[7][all]
#DATE        : 22-SEP-2025
#TIME        : 21:28
#OWNER       : Unknown
#NPOINTS     : 4096
#NCOLUMNS    : 1
#XUNITS      : eV
#YUNITS      : counts
#DATATYPE    : Y
#XPERCHAN    : 9.99778
#OFFSET      : 1.69135
#BEAMKV      : 15
#SIGNALTYPE  : EDS
#ELEVANGLE   : 35
#AZIMANGLE   : 0
#LIVETIME    : 240.02
#REALTIME    : 255.623
#PROBECUR    : 1.21822
#TAUWIND     : 0
#TDEADLYR    : 0
#TACTLYR     : 0.045
#TALWIND     : 0.025
#CHOFFSET    : 0.0
#XLABEL      : Energy (eV)
#YLABEL      : Counts
#XPOSITION   : 6.93369
#YPOSITION   : 15.46379
#ZPOSITION   : 37.36299
#EDSDET      : SD
##SPECIMEN   : GMIIIA K1012[7][all]
##D2STDCMP   : K1012,(O:39.34),(Na:1.48),(Mg:9.05),(Al:7.94),(Si:18.7),(P:0.63),(K:1.66),(Ca:0.4),(Ga:1.49),(Se:0.71),(In:1.65),(Cs:1.89),(Ba:13.43),(Ce:1.63)
##DET_HASH   : 12273538-fd48-a23f-0a19-f1e6fa85caef
##CALIB_HASH : 6abaa72c-aa41-8738-0be9-f592914732f3
##WORKING    : 15.0 mm
##DET_NAME   : EDAX All
##DET_MODE   : MediumLE
#SPECTRUM    :
26,
35,
17,
44,
210,
868,
2121,
6955,
20328,
26445,
14227,
6410,
5234,
5855,
8758,
26651,
95406,
179430,
130423,
36871,
7876,
4515,
4516,
4689,
4514,
5094,
5639,
5251,
4998,
5356,
5233,
5483,
6504,
9105,
13754,
15695,
13818,
11423,
9110,
9686,
21839,
47845,
56748,
33708,
12752,
6323,
6118,
10458,
26595,
49731,
50123,
28129,
11717,
6769,
6278,
11676,
38622,
94697,
128085,
91976,
38668,
14615,
7822,
4983,
4110,
4434,
5526,
6221,
5659,
4386,
3669,
3559,
3593,
3710,
4087,
4751,
5683,
6067,
5085,
4129,
3407,
3448,
3440,
3664,
3651,
4362,
6236,
8193,
8023,
6066,
4165,
3459,
3376,
3427,
3620,
3601,
3864,
5384,
8985,
12615,
12922,
9361,
5696,
5008,
5993,
7141,
7109,
6295,
7003,
9332,
11205,
10756,
7817,
5068,
3712,
3381,
3823,
3771,
3653,
3422,
3484,
3516,
3811,
4028,
3856,
3181,
2619,
2420,
2225,
2331,
2459,
2512,
2530,
2418,
2364,
2139,
2142,
2028,
2076,
2045,
2405,
2818,
3296,
3521,
3438,
3398,
4270,
6640,
9535,
10497,
9009,
5966,
3850,
2793,
2508,
2498,
2227,
2460,
2934,
4251,
5819,
6813,
6416,
5110,
3793,
2977,
2354,
1963,
1841,
1912,
2298,
2712,
2992,
2931,
2656,
2264,
2074,
1891,
1696,
1500,
1496,
1466,
1656,
1806,
1967,
1971,
1854,
1734,
1551,
1450,
1451,
1392,
1470,
1473,
1412,
1384,
1311,
1289,
1231,
1240,
1254,
1225,
1223,
1171,
1179,
1178,
1115,
1149,
1091,
1115,
1132,
1068,
1185,
1143,
1092,
1110,
1006,
1130,
1033,
1038,
1052,
995,
1035,
936,
1043,
943,
944,
962,
904,
909,
924,
906,
917,
991,
892,
900,
867,
938,
908,
847,
824,
808,
878,
843,
889,
789,
805,
783,
842,
795,
780,
802,
765,
761,
759,
802,
783,
726,
759,
714,
774,
713,
703,
748,
689,
687,
771,
739,
710,
637,
679,
679,
651,
655,
639,
660,
607,
637,
601,
606,
621,
646,
656,
569,
592,
637,
576,
595,
620,
558,
600,
570,
546,
552,
552,
575,
547,
524,
599,
524,
540,
524,
510,
556,
617,
611,
687,
765,
815,
769,
698,
562,
529,
470,
472,
473,
446,
454,
467,
422,
469,
439,
446,
440,
419,
401,
434,
391,
443,
389,
434,
398,
430,
362,
365,
409,
396,
374,
383,
382,
413,
401,
362,
383,
387,
321,
404,
369,
331,
300,
329,
305,
325,
332,
358,
320,
297,
314,
310,
278,
315,
285,
269,
265,
310,
266,
283,
266,
296,
272,
246,
244,
225,
286,
256,
248,
230,
207,
220,
239,
235,
212,
221,
219,
232,
210,
245,
238,
199,
193,
188,
206,
202,
206,
195,
176,
200,
198,
174,
193,
195,
169,
169,
173,
145,
177,
140,
167,
142,
169,
135,
159,
153,
151,
134,
159,
155,
131,
148,
120,
134,
130,
111,
127,
116,
117,
120,
107,
105,
109,
112,
120,
90,
104,
98,
98,
91,
94,
98,
88,
99,
98,
73,
93,
103,
73,
71,
79,
85,
64,
74,
84,
79,
68,
74,
60,
82,
62,
47,
52,
56,
52,
54,
64,
51,
33,
44,
42,
32,
54,
41,
40,
31,
16,
31,
30,
37,
29,
31,
28,
27,
29,
22,
22,
20,
16,
12,
16,
14,
8,
11,
16,
8,
9,
5,
7,
8,
4,
1,
2,
4,
1,
0,
1,
0,
2,
1,
0,
2,
2,
0,
0,
0,
0,
0,
1,
1,
0,
2,
3,
0,
1,
0,
0,
0,
0,
1,
4,
0,
0,
0,
0,
0,
1,
0,
0,
0,
1,
1,
1,
0,
0,
1,
0,
1,
0,
1,
0,
1,
0,
1,
1,
0,
0,
3,
0,
0,
0,
0,
0,
0,
0,
0,
1,
0,
0,
0,
1,
0,
0,
1,
0,
0,
0,
0,
0,
0,
0,
1,
1,
0,
0,
1,
0,
0,
0,
0,
0,
2,
0,
0,
0,
0,
0,
0,
0,
0,
0,
0,
2,
0,
0,
0,
0,
0,
0,
0,
0,
0,
0,
0,
0,
0,
1,
0,
1,
0,
0,
0,
0,
0,
0,
0,
0,
0,
0,
0,
0,
0,
0,
0,
0,
0,
0,
0,
0,
0,
0,
0,
0,
0,
0,
0,
0,
0,
0,
0,
0,
0,
0,
0,
0,
0,
0,
0,
0,
0,
0,
0,
0,
2,
1,
0,
0,
0,
1,
0,
0,
0,
0,
0,
0,
0,
0,
0,
0,
0,
0,
0,
0,
0,
0,
0,
0,
0,
0,
0,
0,
0,
0,
0,
0,
0,
0,
0,
0,
0,
0,
0,
0,
0,
0,
0,
0,
0,
0,
0,
0,
0,
0,
0,
0,
0,
1,
0,
1,
0,
0,
0,
0,
0,
0,
0,
0,
0,
0,
0,
0,
0,
0,
0,
0,
0,
0,
0,
0,
0,
0,
0,
0,
0,
0,
0,
0,
0,
0,
0,
0,
0,
0,
0,
0,
0,
0,
0,
0,
0,
0,
0,
0,
0,
0,
0,
0,
0,
0,
0,
0,
0,
0,
0,
0,
0,
0,
0,
0,
0,
0,
0,
0,
0,
0,
0,
0,
0,
0,
0,
0,
0,
0,
0,
0,
0,
0,
0,
0,
0,
0,
0,
0,
0,
0,
0,
0,
0,
0,
0,
0,
0,
0,
0,
0,
0,
0,
0,
0,
0,
0,
0,
0,
0,
0,
0,
0,
0,
0,
0,
0,
0,
0,
0,
0,
0,
0,
0,
0,
0,
0,
0,
0,
0,
0,
0,
0,
0,
0,
0,
0,
0,
0,
0,
0,
0,
0,
0,
0,
0,
0,
0,
0,
0,
0,
0,
0,
0,
0,
0,
0,
0,
0,
0,
0,
0,
0,
0,
0,
0,
0,
0,
0,
0,
0,
0,
0,
0,
0,
0,
0,
0,
0,
0,
0,
0,
0,
0,
0,
0,
0,
0,
0,
0,
0,
0,
0,
0,
0,
0,
0,
0,
0,
0,
0,
0,
0,
0,
0,
0,
0,
0,
0,
0,
0,
0,
0,
0,
0,
0,
0,
0,
0,
0,
0,
0,
0,
0,
0,
0,
0,
0,
0,
0,
0,
0,
0,
0,
0,
0,
0,
0,
0,
0,
0,
0,
0,
0,
0,
0,
0,
0,
0,
0,
0,
0,
0,
0,
0,
0,
0,
0,
0,
0,
0,
0,
0,
0,
0,
0,
0,
0,
0,
0,
0,
0,
0,
0,
0,
0,
0,
0,
0,
0,
0,
0,
0,
0,
0,
0,
0,
0,
0,
0,
0,
0,
0,
0,
0,
0,
0,
0,
0,
0,
0,
0,
0,
0,
0,
0,
0,
0,
0,
0,
0,
0,
0,
0,
0,
0,
0,
0,
0,
0,
0,
0,
0,
0,
0,
0,
0,
0,
0,
0,
0,
0,
0,
0,
0,
0,
0,
0,
0,
0,
0,
0,
0,
0,
0,
0,
0,
0,
0,
0,
0,
0,
0,
0,
0,
0,
0,
0,
0,
0,
0,
0,
0,
0,
0,
0,
0,
0,
0,
0,
0,
0,
0,
0,
0,
0,
0,
0,
0,
0,
0,
0,
0,
0,
0,
0,
0,
0,
0,
0,
0,
0,
0,
0,
0,
0,
0,
0,
0,
0,
0,
0,
0,
0,
0,
0,
0,
0,
0,
0,
0,
0,
0,
0,
0,
0,
0,
0,
0,
0,
0,
0,
0,
0,
0,
0,
0,
0,
0,
0,
0,
0,
0,
0,
0,
0,
0,
0,
0,
0,
0,
0,
0,
0,
0,
0,
0,
0,
0,
0,
0,
0,
0,
0,
0,
0,
0,
0,
0,
0,
0,
0,
0,
0,
0,
0,
0,
0,
0,
0,
0,
0,
0,
0,
0,
0,
0,
0,
0,
0,
0,
0,
0,
0,
0,
0,
0,
0,
0,
0,
0,
0,
0,
0,
0,
0,
0,
0,
0,
0,
0,
0,
0,
0,
0,
0,
0,
0,
0,
0,
0,
0,
0,
0,
0,
0,
0,
0,
0,
0,
0,
0,
0,
0,
0,
0,
0,
0,
0,
0,
0,
0,
0,
0,
0,
0,
0,
0,
0,
0,
0,
0,
0,
0,
0,
0,
0,
0,
0,
0,
0,
0,
0,
0,
0,
0,
0,
0,
0,
0,
0,
0,
0,
0,
0,
0,
0,
0,
0,
0,
0,
0,
0,
0,
0,
0,
0,
0,
0,
0,
0,
0,
0,
0,
0,
0,
0,
0,
0,
0,
0,
0,
0,
0,
0,
0,
0,
0,
0,
0,
0,
0,
0,
0,
0,
0,
0,
0,
0,
0,
0,
0,
0,
0,
0,
0,
0,
0,
0,
0,
0,
0,
0,
0,
0,
0,
0,
0,
0,
0,
0,
0,
0,
0,
0,
0,
0,
0,
0,
0,
0,
0,
0,
0,
0,
0,
0,
0,
0,
0,
0,
0,
0,
0,
0,
#ENDOFDATA   :