File: N132962/Quantification/15 keV/GMIIIA/GMIIIA K252[0][4].msa
#FORMAT      : EMSA/MAS Spectral Data File
#VERSION     : 1.0
#TITLE       : GMIIIA K252[0][all]
#DATE        : 22-SEP-2025
#TIME        : 14:48
#OWNER       : Unknown
#NPOINTS     : 4096
#NCOLUMNS    : 1
#XUNITS      : eV
#YUNITS      : counts
#DATATYPE    : Y
#XPERCHAN    : 9.99778
#OFFSET      : 1.69135
#BEAMKV      : 15
#SIGNALTYPE  : EDS
#ELEVANGLE   : 35
#AZIMANGLE   : 0
#LIVETIME    : 239.998
#REALTIME    : 257.128
#PROBECUR    : 1.21732
#TAUWIND     : 0
#TDEADLYR    : 0
#TACTLYR     : 0.045
#TALWIND     : 0.025
#CHOFFSET    : 0.0
#XLABEL      : Energy (eV)
#YLABEL      : Counts
#XPOSITION   : 4.67589
#YPOSITION   : 2.61197
#ZPOSITION   : 37.36299
#EDSDET      : SD
##SPECIMEN   : GMIIIA K252[0][all]
##D2STDCMP   : K252,(O:30.83),(Si:18.7),(Mn:3.16),(Co:3.93),(Cu:3.99),(Zn:8.03),(Ba:31.35)
##DET_HASH   : 12273538-fd48-a23f-0a19-f1e6fa85caef
##CALIB_HASH : 6abaa72c-aa41-8738-0be9-f592914732f3
##WORKING    : 15.0 mm
##DET_NAME   : EDAX All
##DET_MODE   : MediumLE
#SPECTRUM    :
33,
20,
13,
37,
155,
588,
1584,
3728,
7716,
9686,
7234,
6313,
7219,
8345,
12322,
34999,
118581,
219461,
161584,
49869,
18029,
13066,
10315,
8351,
9405,
14540,
17696,
13305,
8715,
9398,
14346,
19331,
21771,
29009,
32769,
22330,
10409,
6112,
5047,
4920,
4845,
4926,
4963,
5136,
5139,
5231,
5354,
5639,
5916,
6225,
6325,
6147,
6202,
6262,
7055,
13418,
42558,
104111,
139764,
99701,
42590,
16496,
8909,
6110,
4750,
4327,
4234,
4443,
4370,
4196,
4372,
4504,
4371,
4420,
4573,
4865,
4675,
4630,
4504,
4370,
4347,
4282,
4251,
4133,
4248,
4136,
4179,
4033,
4193,
4219,
4296,
4322,
4148,
3956,
3924,
3919,
3969,
3800,
3877,
3911,
3743,
3880,
3765,
3700,
3816,
3727,
3675,
3667,
3590,
3534,
3457,
3432,
3440,
3481,
3464,
3521,
3440,
3328,
3326,
3326,
3241,
3258,
3263,
3163,
3171,
3069,
3139,
3033,
2961,
3296,
3600,
3958,
4046,
3777,
3403,
3144,
2965,
2895,
2818,
2919,
2899,
2894,
2969,
3240,
3841,
5333,
9955,
18699,
28543,
32431,
26587,
16167,
8085,
4100,
3035,
2787,
2825,
3455,
5378,
9083,
13632,
15846,
14688,
11325,
8003,
5721,
4303,
3532,
3112,
3740,
4857,
6350,
6878,
6049,
4629,
3323,
2377,
2046,
2108,
2026,
2041,
2318,
2683,
3311,
3888,
3687,
3288,
2598,
2149,
2023,
2007,
2295,
2592,
3129,
4227,
5221,
6125,
5901,
4763,
3467,
2397,
1873,
1732,
1645,
1565,
1578,
1574,
1662,
1626,
1562,
1586,
1544,
1588,
1803,
1809,
1947,
2150,
1975,
1818,
1677,
1562,
1531,
1411,
1438,
1397,
1446,
1578,
1903,
2462,
3358,
3964,
4157,
3604,
2839,
2144,
1617,
1342,
1287,
1220,
1216,
1216,
1194,
1186,
1205,
1113,
1176,
1259,
1122,
1245,
1240,
1235,
1196,
1291,
1439,
1536,
1449,
1408,
1245,
1198,
1130,
1010,
1062,
1136,
1182,
1371,
1710,
2162,
2642,
2748,
2463,
2085,
1623,
1283,
1100,
975,
926,
895,
969,
864,
854,
887,
927,
1090,
1225,
1645,
2301,
2898,
3437,
3540,
3145,
2345,
1691,
1198,
1006,
955,
1007,
1038,
1029,
954,
901,
849,
850,
764,
730,
750,
725,
734,
744,
702,
778,
737,
664,
678,
715,
730,
779,
881,
946,
976,
1058,
927,
819,
805,
732,
651,
629,
643,
639,
630,
625,
590,
558,
596,
602,
594,
589,
523,
545,
535,
513,
523,
528,
559,
504,
537,
539,
476,
522,
471,
508,
480,
459,
491,
420,
473,
458,
471,
464,
437,
415,
406,
433,
458,
438,
441,
428,
399,
380,
441,
427,
375,
402,
375,
385,
364,
382,
350,
346,
359,
350,
325,
340,
360,
322,
332,
339,
305,
298,
293,
293,
328,
309,
283,
319,
294,
301,
254,
268,
264,
282,
261,
253,
244,
238,
253,
230,
230,
218,
240,
224,
232,
195,
256,
224,
208,
187,
205,
184,
213,
204,
171,
216,
178,
201,
175,
152,
196,
178,
148,
158,
162,
157,
174,
147,
176,
152,
133,
137,
117,
131,
153,
128,
141,
113,
123,
120,
111,
93,
127,
117,
103,
105,
88,
93,
89,
98,
94,
84,
84,
94,
91,
70,
86,
91,
87,
70,
58,
63,
47,
72,
63,
62,
51,
60,
47,
48,
39,
41,
33,
35,
39,
39,
37,
39,
15,
32,
35,
19,
25,
25,
18,
16,
16,
10,
13,
8,
8,
7,
6,
4,
2,
2,
1,
2,
0,
2,
2,
1,
1,
0,
0,
1,
1,
0,
1,
1,
1,
3,
0,
1,
0,
2,
0,
4,
0,
2,
0,
1,
0,
1,
1,
1,
0,
2,
0,
1,
0,
1,
1,
0,
1,
0,
1,
0,
0,
1,
0,
0,
0,
0,
0,
0,
0,
1,
0,
0,
0,
1,
0,
2,
0,
0,
0,
1,
1,
0,
1,
0,
0,
0,
1,
1,
0,
0,
0,
1,
0,
1,
1,
1,
1,
6,
0,
1,
1,
0,
1,
0,
1,
1,
1,
0,
0,
1,
1,
0,
0,
2,
0,
1,
0,
0,
0,
1,
1,
0,
0,
0,
1,
0,
0,
2,
0,
1,
0,
2,
0,
0,
2,
0,
1,
0,
0,
1,
0,
0,
0,
1,
0,
0,
0,
1,
0,
1,
0,
1,
2,
0,
0,
1,
1,
0,
0,
0,
0,
0,
0,
0,
0,
0,
0,
0,
0,
0,
0,
0,
0,
0,
0,
0,
0,
0,
2,
1,
0,
0,
0,
2,
0,
0,
0,
0,
0,
0,
0,
0,
0,
0,
0,
0,
0,
0,
0,
0,
0,
0,
0,
0,
0,
0,
0,
0,
1,
0,
0,
0,
0,
0,
0,
0,
0,
0,
1,
0,
0,
0,
0,
0,
0,
0,
0,
0,
0,
0,
0,
1,
0,
0,
0,
0,
0,
0,
0,
0,
0,
0,
0,
0,
0,
0,
0,
0,
0,
0,
0,
0,
0,
0,
0,
0,
0,
0,
0,
0,
0,
0,
0,
0,
0,
0,
0,
0,
0,
0,
0,
0,
0,
0,
0,
0,
0,
0,
0,
0,
0,
0,
0,
0,
0,
0,
0,
0,
0,
0,
0,
0,
0,
0,
1,
0,
0,
0,
0,
0,
0,
0,
0,
0,
0,
0,
0,
0,
0,
0,
0,
0,
0,
0,
0,
0,
0,
0,
0,
0,
0,
0,
0,
0,
0,
1,
0,
0,
0,
0,
0,
0,
0,
0,
0,
0,
0,
0,
0,
0,
0,
0,
0,
0,
0,
0,
0,
0,
0,
0,
0,
0,
0,
0,
0,
0,
0,
0,
0,
0,
0,
0,
0,
0,
0,
0,
0,
0,
0,
0,
0,
0,
0,
0,
0,
0,
0,
0,
0,
0,
0,
0,
0,
0,
0,
0,
0,
0,
0,
0,
0,
0,
0,
0,
0,
0,
0,
0,
0,
0,
0,
0,
0,
0,
0,
0,
0,
0,
0,
0,
0,
0,
0,
0,
0,
0,
0,
0,
0,
0,
0,
0,
0,
0,
0,
0,
0,
0,
0,
0,
0,
0,
0,
0,
0,
0,
0,
0,
0,
0,
0,
0,
0,
0,
0,
0,
0,
0,
0,
0,
0,
0,
0,
0,
0,
0,
0,
0,
0,
0,
0,
0,
0,
0,
0,
0,
0,
0,
0,
0,
0,
0,
0,
0,
0,
0,
0,
0,
0,
0,
0,
0,
0,
0,
0,
0,
0,
0,
0,
0,
0,
0,
0,
0,
0,
0,
0,
0,
0,
0,
0,
0,
0,
0,
0,
0,
0,
0,
0,
0,
0,
0,
0,
0,
0,
0,
0,
0,
0,
0,
0,
0,
0,
0,
0,
0,
0,
0,
0,
0,
0,
0,
0,
0,
0,
0,
0,
0,
0,
0,
0,
0,
0,
0,
0,
0,
0,
0,
0,
0,
0,
0,
0,
0,
0,
0,
0,
0,
0,
0,
0,
0,
0,
0,
0,
0,
0,
0,
0,
0,
0,
0,
0,
0,
0,
0,
0,
0,
0,
0,
0,
0,
0,
0,
0,
0,
0,
0,
0,
0,
0,
0,
0,
0,
0,
0,
0,
0,
0,
0,
0,
0,
0,
0,
0,
0,
0,
0,
0,
0,
0,
0,
0,
0,
0,
0,
0,
0,
0,
0,
0,
0,
0,
0,
0,
0,
0,
0,
0,
0,
0,
0,
0,
0,
0,
0,
0,
0,
0,
0,
0,
0,
0,
0,
0,
0,
0,
0,
0,
0,
0,
0,
0,
0,
0,
0,
0,
0,
0,
0,
0,
0,
0,
0,
0,
0,
0,
0,
0,
0,
0,
0,
0,
0,
0,
0,
0,
0,
0,
0,
0,
0,
0,
0,
0,
0,
0,
0,
0,
0,
0,
0,
0,
0,
0,
0,
0,
0,
0,
0,
0,
0,
0,
0,
0,
0,
0,
0,
0,
0,
0,
0,
0,
0,
0,
0,
0,
0,
0,
0,
0,
0,
0,
0,
0,
0,
0,
0,
0,
0,
0,
0,
0,
0,
0,
0,
0,
0,
0,
0,
0,
0,
0,
0,
0,
0,
0,
0,
0,
0,
0,
0,
0,
0,
0,
0,
0,
0,
0,
0,
0,
0,
0,
0,
0,
0,
0,
0,
0,
0,
0,
0,
0,
0,
0,
0,
0,
0,
0,
0,
0,
0,
0,
0,
0,
0,
0,
0,
0,
0,
0,
0,
0,
0,
0,
0,
0,
0,
0,
0,
0,
0,
0,
0,
0,
0,
0,
0,
0,
0,
0,
0,
0,
0,
0,
0,
0,
0,
0,
0,
0,
0,
0,
0,
0,
0,
0,
0,
0,
0,
0,
0,
0,
0,
0,
0,
0,
0,
0,
0,
0,
0,
0,
0,
0,
0,
0,
0,
0,
0,
0,
0,
0,
0,
0,
0,
0,
0,
0,
0,
0,
0,
0,
0,
0,
0,
0,
0,
0,
0,
0,
0,
0,
0,
0,
0,
0,
0,
0,
0,
0,
0,
#ENDOFDATA   :