File: N132962/Quantification/15 keV/GMIIIA/GMIIIA K1132[3][4].msa
#FORMAT      : EMSA/MAS Spectral Data File
#VERSION     : 1.0
#TITLE       : GMIIIA K1132[3][all]
#DATE        : 22-SEP-2025
#TIME        : 22:26
#OWNER       : Unknown
#NPOINTS     : 4096
#NCOLUMNS    : 1
#XUNITS      : eV
#YUNITS      : counts
#DATATYPE    : Y
#XPERCHAN    : 9.99778
#OFFSET      : 1.69135
#BEAMKV      : 15
#SIGNALTYPE  : EDS
#ELEVANGLE   : 35
#AZIMANGLE   : 0
#LIVETIME    : 239.921
#REALTIME    : 255.334
#PROBECUR    : 1.21595
#TAUWIND     : 0
#TDEADLYR    : 0
#TACTLYR     : 0.045
#TALWIND     : 0.025
#CHOFFSET    : 0.0
#XLABEL      : Energy (eV)
#YLABEL      : Counts
#XPOSITION   : 8.21791
#YPOSITION   : 17.41024
#ZPOSITION   : 37.36299
#EDSDET      : SD
##SPECIMEN   : GMIIIA K1132[3][all]
##D2STDCMP   : K1132,(Li:2.32),(O:41.34),(Al:7.94),(Si:21.39),(Ca:10.72),(Cr:0.51),(Ni:1.18),(Mo:1.67),(Ba:13.43)
##DET_HASH   : 12273538-fd48-a23f-0a19-f1e6fa85caef
##CALIB_HASH : 6abaa72c-aa41-8738-0be9-f592914732f3
##WORKING    : 15.0 mm
##DET_NAME   : EDAX All
##DET_MODE   : MediumLE
#SPECTRUM    :
29,
36,
5,
24,
84,
432,
1160,
2873,
6930,
9838,
8444,
6293,
5444,
5525,
8959,
28328,
104639,
197749,
144681,
39756,
8037,
4441,
4272,
4261,
4357,
5148,
5941,
6441,
7240,
6618,
5056,
4703,
5147,
5496,
5846,
5803,
5194,
4859,
4680,
4920,
4949,
4968,
5165,
5342,
5354,
5490,
6480,
11775,
32265,
61444,
62585,
34231,
13446,
7225,
6788,
13663,
47972,
121348,
164325,
116364,
48272,
16956,
8888,
5282,
4074,
3891,
3849,
3672,
3631,
3322,
3390,
3461,
3446,
3668,
4324,
5726,
7024,
6940,
5651,
4877,
4699,
4366,
3804,
3442,
3386,
3219,
3070,
2995,
3023,
2874,
2976,
2893,
2836,
2928,
2845,
2782,
2715,
2736,
2831,
2865,
2751,
2642,
2676,
2636,
2645,
2591,
2706,
2664,
2535,
2651,
2481,
2457,
2476,
2399,
2553,
2543,
2582,
2673,
2980,
3910,
7469,
16641,
29219,
36955,
31394,
18367,
7988,
3530,
2515,
2345,
2692,
3392,
4826,
6074,
6421,
5370,
3666,
2547,
2028,
1902,
1856,
1920,
1910,
1896,
2154,
2726,
4487,
7802,
11417,
12611,
10641,
6776,
3670,
2236,
1805,
1677,
1724,
1936,
2701,
4068,
5800,
6703,
6176,
4843,
3570,
2776,
2214,
1930,
1774,
1991,
2488,
2965,
3140,
2908,
2336,
1866,
1544,
1526,
1625,
1951,
2190,
2195,
2126,
2085,
2027,
1924,
1739,
1458,
1369,
1209,
1270,
1308,
1400,
1438,
1436,
1417,
1306,
1282,
1310,
1272,
1180,
1160,
1124,
1061,
1045,
1030,
1033,
1051,
1023,
1029,
968,
1029,
955,
1026,
1055,
1001,
957,
947,
910,
976,
965,
878,
895,
879,
926,
889,
891,
892,
825,
849,
855,
858,
847,
793,
813,
879,
819,
830,
733,
796,
834,
743,
747,
799,
804,
919,
1043,
1192,
1364,
1415,
1352,
1139,
973,
806,
717,
750,
706,
667,
726,
675,
684,
665,
672,
644,
632,
677,
645,
602,
636,
659,
638,
621,
619,
667,
711,
695,
672,
647,
585,
604,
574,
545,
586,
593,
507,
539,
539,
519,
537,
515,
495,
481,
521,
540,
499,
519,
502,
464,
501,
541,
486,
463,
479,
448,
450,
436,
435,
421,
439,
434,
448,
398,
406,
436,
393,
406,
404,
401,
413,
412,
384,
381,
383,
408,
367,
393,
386,
349,
351,
362,
349,
359,
356,
372,
353,
313,
335,
337,
320,
324,
313,
299,
307,
316,
302,
269,
288,
303,
317,
303,
278,
297,
290,
295,
285,
289,
249,
297,
265,
251,
247,
270,
245,
238,
250,
252,
230,
204,
225,
253,
217,
228,
240,
221,
225,
186,
227,
188,
188,
195,
182,
181,
183,
229,
186,
193,
176,
171,
181,
182,
164,
170,
153,
158,
175,
167,
180,
153,
157,
142,
146,
143,
134,
141,
148,
170,
134,
135,
133,
129,
139,
120,
128,
124,
123,
136,
104,
122,
124,
103,
132,
121,
114,
114,
91,
108,
115,
104,
99,
101,
94,
94,
83,
91,
86,
78,
85,
73,
83,
59,
57,
81,
64,
73,
64,
65,
69,
75,
56,
67,
60,
49,
52,
47,
49,
52,
45,
60,
52,
44,
41,
45,
43,
44,
34,
37,
32,
31,
35,
31,
19,
44,
27,
28,
32,
26,
24,
23,
22,
17,
19,
12,
14,
28,
14,
11,
12,
6,
10,
14,
12,
7,
14,
8,
4,
4,
8,
6,
4,
1,
2,
3,
1,
1,
0,
2,
0,
0,
0,
0,
0,
0,
2,
0,
1,
1,
0,
0,
2,
0,
0,
0,
1,
0,
0,
0,
0,
0,
0,
0,
0,
1,
1,
0,
0,
0,
0,
2,
1,
0,
1,
0,
2,
0,
0,
0,
0,
1,
0,
0,
1,
0,
1,
0,
0,
0,
0,
0,
0,
0,
0,
0,
0,
0,
0,
0,
1,
0,
0,
0,
1,
0,
1,
0,
0,
1,
2,
1,
0,
1,
0,
0,
1,
0,
1,
0,
0,
0,
0,
0,
0,
1,
0,
0,
0,
0,
0,
1,
0,
0,
0,
0,
0,
0,
0,
0,
0,
0,
0,
0,
0,
1,
0,
0,
0,
1,
0,
0,
0,
0,
0,
0,
0,
0,
0,
1,
0,
0,
0,
0,
0,
0,
0,
0,
0,
0,
0,
0,
0,
0,
0,
0,
0,
1,
0,
0,
0,
0,
0,
0,
0,
0,
0,
0,
0,
0,
0,
0,
0,
0,
0,
0,
0,
0,
0,
0,
0,
0,
0,
0,
0,
0,
0,
0,
0,
0,
0,
0,
0,
0,
0,
0,
0,
0,
0,
0,
0,
0,
0,
0,
0,
0,
0,
0,
0,
0,
0,
0,
0,
0,
0,
0,
0,
0,
0,
0,
0,
0,
0,
0,
0,
0,
0,
0,
0,
0,
0,
0,
0,
0,
0,
0,
0,
0,
0,
0,
0,
0,
0,
0,
0,
0,
0,
0,
0,
0,
0,
0,
0,
0,
0,
0,
0,
0,
0,
0,
0,
0,
0,
0,
0,
0,
0,
0,
0,
0,
0,
0,
0,
0,
0,
0,
0,
0,
0,
0,
0,
0,
0,
0,
0,
0,
0,
0,
0,
0,
0,
0,
0,
0,
0,
0,
0,
0,
0,
0,
0,
0,
0,
0,
0,
0,
0,
0,
0,
0,
0,
0,
0,
0,
0,
0,
0,
0,
0,
0,
0,
0,
0,
0,
0,
0,
0,
0,
0,
0,
0,
0,
0,
0,
0,
0,
0,
0,
0,
0,
0,
0,
0,
0,
0,
0,
0,
0,
0,
0,
0,
0,
0,
0,
0,
0,
0,
0,
0,
0,
0,
0,
0,
0,
0,
0,
0,
0,
0,
0,
0,
0,
0,
0,
0,
0,
0,
0,
0,
0,
0,
0,
0,
0,
0,
0,
0,
0,
0,
0,
0,
0,
0,
0,
0,
0,
0,
0,
0,
0,
0,
0,
0,
0,
0,
0,
0,
0,
0,
0,
0,
0,
0,
0,
0,
0,
0,
0,
0,
0,
0,
0,
0,
0,
0,
0,
0,
0,
0,
0,
0,
0,
0,
0,
0,
0,
0,
0,
0,
0,
0,
0,
0,
0,
0,
0,
0,
0,
0,
0,
0,
0,
0,
0,
0,
0,
0,
0,
0,
0,
0,
0,
0,
0,
0,
0,
0,
0,
0,
0,
0,
0,
0,
0,
0,
0,
0,
0,
0,
0,
0,
0,
0,
0,
0,
0,
0,
0,
0,
0,
0,
0,
0,
0,
0,
0,
0,
0,
0,
0,
0,
0,
0,
0,
0,
0,
0,
0,
0,
0,
0,
0,
0,
0,
0,
0,
0,
0,
0,
0,
0,
0,
0,
0,
0,
0,
0,
0,
0,
0,
0,
0,
0,
0,
0,
0,
0,
0,
0,
0,
0,
0,
0,
0,
0,
0,
0,
0,
0,
0,
0,
0,
0,
0,
0,
0,
0,
0,
0,
0,
0,
0,
0,
0,
0,
0,
0,
0,
0,
0,
0,
0,
0,
0,
0,
0,
0,
0,
0,
0,
0,
0,
0,
0,
0,
0,
0,
0,
0,
0,
0,
0,
0,
0,
0,
0,
0,
0,
0,
0,
0,
0,
0,
0,
0,
0,
0,
0,
0,
0,
0,
0,
0,
0,
0,
0,
0,
0,
0,
0,
0,
0,
0,
0,
0,
0,
0,
0,
0,
0,
0,
0,
0,
0,
0,
0,
0,
0,
0,
0,
0,
0,
0,
0,
0,
0,
0,
0,
0,
0,
0,
0,
0,
0,
0,
0,
0,
0,
0,
0,
0,
0,
0,
0,
0,
0,
0,
0,
0,
0,
0,
0,
0,
0,
0,
0,
0,
0,
0,
0,
0,
0,
0,
0,
0,
0,
0,
0,
0,
0,
0,
0,
0,
0,
0,
0,
0,
0,
0,
0,
0,
0,
0,
0,
0,
0,
0,
0,
0,
0,
0,
0,
0,
0,
0,
0,
0,
0,
0,
0,
0,
0,
0,
0,
0,
0,
0,
0,
0,
0,
0,
0,
0,
0,
0,
0,
0,
0,
0,
0,
0,
0,
0,
0,
0,
0,
0,
0,
0,
0,
0,
0,
0,
0,
0,
0,
0,
0,
0,
0,
0,
0,
0,
0,
0,
0,
0,
0,
0,
0,
0,
0,
0,
0,
0,
0,
0,
0,
0,
0,
0,
0,
0,
0,
0,
0,
0,
0,
0,
0,
0,
0,
0,
0,
0,
0,
0,
0,
0,
0,
0,
0,
0,
0,
0,
0,
0,
0,
0,
0,
0,
0,
0,
0,
0,
0,
0,
0,
0,
0,
0,
0,
0,
0,
0,
0,
0,
0,
0,
0,
0,
0,
0,
0,
0,
0,
0,
0,
0,
0,
0,
0,
0,
0,
0,
0,
0,
0,
0,
0,
0,
0,
0,
0,
0,
0,
0,
0,
0,
0,
0,
0,
0,
0,
0,
0,
0,
0,
0,
0,
0,
0,
0,
0,
0,
0,
0,
0,
0,
0,
#ENDOFDATA   :