File: N132962/Quantification/15 keV/GMIIIA/GMIIIA K1053[6][4].msa
#FORMAT      : EMSA/MAS Spectral Data File
#VERSION     : 1.0
#TITLE       : GMIIIA K1053[6][all]
#DATE        : 22-SEP-2025
#TIME        : 21:17
#OWNER       : Unknown
#NPOINTS     : 4096
#NCOLUMNS    : 1
#XUNITS      : eV
#YUNITS      : counts
#DATATYPE    : Y
#XPERCHAN    : 9.99778
#OFFSET      : 1.69135
#BEAMKV      : 15
#SIGNALTYPE  : EDS
#ELEVANGLE   : 35
#AZIMANGLE   : 0
#LIVETIME    : 239.963
#REALTIME    : 261.0916
#PROBECUR    : 1.21822
#TAUWIND     : 0
#TDEADLYR    : 0
#TACTLYR     : 0.045
#TALWIND     : 0.025
#CHOFFSET    : 0.0
#XLABEL      : Energy (eV)
#YLABEL      : Counts
#XPOSITION   : 4.53986
#YPOSITION   : 15.44457
#ZPOSITION   : 37.36299
#EDSDET      : SD
##SPECIMEN   : GMIIIA K1053[6][all]
##D2STDCMP   : K1053,(O:16.13),(F:0.39),(Si:9.35),(Cl:0.64),(Br:1.09),(I:1.37),(Pb:71.02)
##DET_HASH   : 12273538-fd48-a23f-0a19-f1e6fa85caef
##CALIB_HASH : 6abaa72c-aa41-8738-0be9-f592914732f3
##WORKING    : 15.0 mm
##DET_NAME   : EDAX All
##DET_MODE   : MediumLE
#SPECTRUM    :
29,
22,
12,
62,
327,
1170,
3201,
6796,
12986,
15729,
10759,
7661,
7203,
7337,
8434,
15425,
41233,
72422,
53278,
19187,
10408,
9734,
10620,
10748,
9076,
7510,
7405,
7835,
8250,
8382,
8337,
8293,
8591,
8773,
9032,
9138,
9171,
9336,
9273,
9698,
9394,
9723,
9805,
10407,
10253,
10370,
10346,
11056,
12694,
15299,
15893,
14002,
12065,
11064,
11261,
15136,
34339,
74741,
99362,
75184,
41855,
26358,
18694,
12618,
9655,
8789,
8480,
8190,
8365,
8441,
8913,
9370,
10512,
11695,
13533,
21201,
47294,
101131,
148152,
142553,
113118,
102408,
87480,
51839,
22282,
10647,
9667,
12317,
14089,
12655,
9222,
6649,
5566,
5309,
5450,
5507,
5648,
5660,
5590,
5596,
5829,
6359,
6578,
6687,
6619,
6123,
5565,
5261,
5131,
4782,
4821,
4715,
4876,
4884,
4714,
4975,
5038,
4914,
4866,
4882,
4671,
4592,
4672,
4745,
4855,
4749,
4724,
4737,
4827,
5176,
5542,
5950,
5770,
5209,
4639,
4719,
4631,
4705,
4564,
4810,
4906,
5078,
4840,
4731,
4500,
4373,
4395,
4160,
4401,
4594,
4658,
4706,
4431,
4366,
4085,
4265,
4156,
4251,
4211,
4112,
4232,
4169,
4194,
4033,
4028,
3864,
3907,
3819,
3812,
3851,
3757,
3770,
3737,
3644,
3777,
3694,
3584,
3608,
3738,
3550,
3586,
3523,
3474,
3451,
3501,
3369,
3524,
3522,
3432,
3412,
3431,
3271,
3384,
3395,
3357,
3229,
3254,
3200,
3149,
3341,
3171,
3201,
3135,
3015,
3141,
3170,
3078,
3008,
2994,
3093,
3042,
3075,
3099,
3032,
3015,
2985,
2884,
2937,
2916,
2887,
2866,
2818,
2840,
2781,
2732,
2741,
2710,
2745,
2737,
2714,
2657,
2770,
2616,
2563,
2508,
2572,
2577,
2473,
2630,
2477,
2486,
2528,
2500,
2434,
2373,
2429,
2403,
2455,
2518,
2439,
2348,
2294,
2315,
2283,
2313,
2261,
2342,
2269,
2217,
2171,
2144,
2092,
2073,
2100,
2219,
2106,
2047,
2053,
2051,
2137,
2127,
1992,
2081,
1997,
1965,
1950,
1963,
1881,
1975,
1948,
1915,
1946,
1866,
1860,
1794,
1906,
1852,
1890,
1794,
1811,
1776,
1762,
1760,
1718,
1635,
1670,
1662,
1656,
1688,
1713,
1679,
1641,
1658,
1623,
1570,
1655,
1600,
1646,
1639,
1532,
1579,
1472,
1483,
1484,
1438,
1453,
1448,
1481,
1502,
1476,
1427,
1361,
1491,
1355,
1356,
1338,
1365,
1334,
1320,
1320,
1336,
1293,
1296,
1221,
1300,
1287,
1315,
1231,
1212,
1245,
1200,
1234,
1207,
1260,
1199,
1199,
1336,
1590,
1808,
2137,
2466,
2553,
2566,
2270,
1878,
1577,
1305,
1155,
1051,
1022,
1038,
1006,
952,
934,
947,
987,
882,
1018,
934,
935,
944,
885,
880,
841,
831,
864,
842,
815,
859,
888,
827,
829,
796,
772,
756,
738,
742,
751,
694,
687,
718,
698,
713,
757,
710,
673,
719,
688,
688,
641,
639,
664,
652,
666,
596,
637,
614,
588,
551,
543,
572,
576,
512,
555,
505,
521,
554,
636,
698,
692,
709,
713,
662,
626,
549,
491,
452,
469,
424,
402,
403,
436,
444,
400,
400,
340,
359,
339,
341,
317,
335,
349,
310,
333,
280,
291,
269,
298,
293,
256,
270,
290,
257,
246,
254,
217,
252,
240,
206,
247,
208,
216,
197,
228,
191,
196,
181,
173,
158,
169,
152,
163,
135,
131,
144,
137,
118,
108,
111,
96,
100,
98,
102,
96,
98,
88,
78,
52,
78,
59,
50,
53,
48,
39,
46,
33,
24,
17,
19,
13,
8,
9,
3,
2,
3,
2,
4,
5,
3,
2,
3,
3,
4,
1,
6,
5,
4,
5,
5,
3,
4,
3,
4,
0,
3,
4,
4,
0,
1,
1,
2,
4,
1,
1,
2,
2,
4,
2,
1,
1,
0,
3,
5,
2,
1,
6,
2,
3,
1,
2,
3,
3,
3,
1,
2,
3,
4,
2,
2,
3,
1,
1,
4,
4,
3,
2,
2,
1,
1,
1,
7,
0,
0,
0,
0,
2,
8,
2,
1,
0,
1,
1,
3,
3,
2,
5,
0,
2,
0,
3,
1,
1,
2,
2,
0,
2,
3,
1,
2,
1,
1,
2,
4,
0,
2,
1,
0,
1,
3,
1,
0,
2,
0,
0,
0,
1,
0,
1,
0,
2,
2,
0,
1,
0,
0,
1,
0,
2,
2,
1,
1,
0,
2,
0,
0,
1,
0,
2,
0,
1,
1,
0,
3,
1,
2,
0,
2,
1,
1,
0,
1,
0,
1,
2,
2,
2,
0,
0,
1,
0,
1,
2,
0,
0,
1,
1,
0,
0,
1,
0,
2,
0,
1,
1,
0,
1,
0,
0,
0,
0,
1,
1,
0,
1,
0,
1,
1,
0,
0,
2,
1,
0,
2,
0,
0,
0,
0,
0,
0,
1,
0,
1,
0,
0,
0,
1,
0,
0,
1,
0,
2,
0,
0,
1,
0,
0,
2,
0,
0,
1,
0,
0,
0,
0,
0,
1,
0,
0,
1,
0,
0,
0,
1,
0,
0,
2,
0,
0,
0,
0,
0,
0,
0,
0,
0,
0,
1,
0,
0,
0,
0,
0,
0,
0,
0,
2,
0,
0,
0,
0,
2,
0,
1,
2,
0,
0,
0,
0,
0,
0,
0,
0,
0,
0,
1,
1,
0,
0,
0,
0,
1,
0,
0,
0,
0,
0,
0,
0,
0,
0,
0,
0,
0,
0,
2,
0,
0,
0,
0,
0,
0,
1,
0,
0,
0,
0,
0,
0,
0,
0,
0,
0,
1,
0,
0,
0,
0,
0,
0,
0,
0,
0,
0,
0,
0,
0,
0,
0,
0,
0,
0,
0,
0,
0,
0,
0,
0,
0,
0,
0,
0,
0,
0,
0,
0,
0,
0,
0,
0,
0,
0,
0,
0,
0,
0,
0,
0,
0,
0,
0,
0,
0,
0,
0,
0,
0,
0,
0,
0,
0,
0,
0,
0,
0,
0,
0,
0,
0,
0,
0,
0,
0,
0,
0,
0,
0,
0,
0,
0,
0,
0,
0,
0,
0,
0,
1,
0,
0,
0,
0,
0,
0,
0,
0,
0,
0,
0,
0,
0,
0,
0,
0,
0,
0,
0,
0,
0,
0,
0,
0,
0,
0,
0,
0,
0,
0,
0,
0,
0,
0,
0,
0,
0,
0,
0,
0,
0,
0,
0,
0,
0,
0,
0,
0,
0,
0,
0,
0,
0,
0,
0,
0,
0,
0,
0,
0,
0,
0,
0,
0,
0,
0,
0,
0,
0,
0,
0,
0,
0,
0,
0,
0,
0,
0,
0,
0,
0,
0,
0,
0,
0,
0,
0,
0,
0,
0,
0,
0,
0,
0,
0,
0,
0,
0,
0,
0,
0,
0,
0,
0,
0,
0,
0,
0,
0,
0,
0,
0,
0,
0,
0,
0,
0,
0,
0,
0,
0,
0,
0,
0,
0,
0,
0,
0,
0,
0,
0,
0,
0,
0,
0,
0,
0,
0,
0,
0,
0,
0,
0,
0,
0,
0,
0,
0,
0,
0,
0,
0,
0,
0,
0,
0,
0,
0,
0,
0,
0,
0,
0,
0,
0,
0,
0,
0,
0,
0,
0,
0,
0,
0,
0,
0,
0,
0,
0,
0,
0,
0,
0,
0,
0,
0,
0,
0,
0,
0,
0,
0,
0,
0,
0,
0,
0,
0,
0,
0,
0,
0,
0,
0,
0,
0,
0,
0,
0,
0,
0,
0,
0,
0,
0,
0,
0,
0,
0,
0,
0,
0,
0,
0,
0,
0,
0,
0,
0,
0,
0,
0,
0,
0,
0,
0,
0,
0,
0,
0,
0,
0,
0,
0,
0,
0,
0,
0,
0,
0,
0,
0,
0,
0,
0,
0,
0,
0,
0,
0,
0,
0,
0,
0,
0,
0,
0,
0,
0,
0,
0,
0,
0,
0,
0,
0,
0,
0,
0,
0,
0,
0,
0,
0,
0,
0,
0,
0,
0,
0,
0,
0,
0,
0,
0,
0,
0,
0,
0,
0,
0,
0,
0,
0,
0,
0,
0,
0,
0,
0,
0,
0,
0,
0,
0,
0,
0,
0,
0,
0,
0,
0,
0,
0,
0,
0,
0,
0,
0,
0,
0,
0,
0,
0,
0,
0,
0,
0,
0,
0,
0,
0,
0,
0,
0,
0,
0,
0,
0,
0,
0,
0,
0,
0,
0,
0,
0,
0,
0,
0,
0,
0,
0,
0,
0,
0,
0,
0,
0,
0,
0,
0,
0,
0,
0,
0,
0,
0,
0,
0,
0,
0,
0,
0,
0,
0,
0,
0,
0,
0,
0,
0,
0,
0,
0,
0,
0,
0,
0,
0,
0,
0,
0,
0,
0,
0,
0,
0,
0,
0,
0,
0,
0,
0,
0,
0,
0,
0,
0,
0,
0,
0,
0,
0,
0,
0,
0,
0,
0,
0,
0,
0,
0,
0,
0,
0,
0,
0,
0,
0,
0,
0,
0,
0,
0,
0,
0,
0,
0,
0,
0,
0,
0,
0,
0,
0,
0,
0,
0,
0,
0,
0,
0,
0,
0,
0,
0,
0,
0,
0,
#ENDOFDATA   :