File: N132962/Quantification/15 keV/GMIIIA/GMIIIA K1080[2][4].msa
#FORMAT      : EMSA/MAS Spectral Data File
#VERSION     : 1.0
#TITLE       : GMIIIA K1080[2][all]
#DATE        : 22-SEP-2025
#TIME        : 20:52
#OWNER       : Unknown
#NPOINTS     : 4096
#NCOLUMNS    : 1
#XUNITS      : eV
#YUNITS      : counts
#DATATYPE    : Y
#XPERCHAN    : 9.99778
#OFFSET      : 1.69135
#BEAMKV      : 15
#SIGNALTYPE  : EDS
#ELEVANGLE   : 35
#AZIMANGLE   : 0
#LIVETIME    : 239.9
#REALTIME    : 255.2806
#PROBECUR    : 1.2178
#TAUWIND     : 0
#TDEADLYR    : 0
#TACTLYR     : 0.045
#TALWIND     : 0.025
#CHOFFSET    : 0.0
#XLABEL      : Energy (eV)
#YLABEL      : Counts
#XPOSITION   : 0.44345
#YPOSITION   : 15.73786
#ZPOSITION   : 37.36299
#EDSDET      : SD
##SPECIMEN   : GMIIIA K1080[2][all]
##D2STDCMP   : K1080,(Li:2.79),(B:0.62),(O:41.65),(Mg:1.21),(Al:7.94),(Si:18.7),(Ca:10.72),(Ti:1.2),(Sr:12.68),(Zr:0.74),(Lu:1.76)
##DET_HASH   : 12273538-fd48-a23f-0a19-f1e6fa85caef
##CALIB_HASH : 6abaa72c-aa41-8738-0be9-f592914732f3
##WORKING    : 15.0 mm
##DET_NAME   : EDAX All
##DET_MODE   : MediumLE
#SPECTRUM    :
29,
23,
14,
29,
136,
451,
1214,
2624,
5957,
8650,
7136,
5240,
4792,
5126,
7622,
23478,
85716,
162325,
118169,
31671,
5288,
3148,
3616,
3797,
3609,
3468,
3747,
3891,
4167,
4227,
4383,
4575,
4719,
5050,
5345,
5469,
5320,
5330,
5589,
6099,
8860,
14127,
15726,
11261,
7380,
6318,
7045,
13154,
36019,
69374,
70686,
40289,
20355,
14907,
12586,
16973,
47951,
117984,
166003,
138036,
89804,
57917,
35249,
20379,
11381,
7063,
5454,
4889,
4891,
4578,
4043,
3829,
3690,
3477,
3400,
3416,
3339,
3230,
3088,
2804,
2942,
2824,
2826,
2817,
2763,
2749,
2750,
2705,
2737,
2637,
2638,
2697,
2652,
2568,
2466,
2522,
2460,
2572,
2336,
2556,
2469,
2466,
2409,
2398,
2410,
2434,
2490,
2435,
2470,
2413,
2397,
2360,
2265,
2293,
2225,
2405,
2449,
2663,
2819,
3722,
7446,
16109,
29043,
36296,
31008,
18114,
8036,
3477,
2286,
2077,
2279,
2898,
4140,
5504,
5985,
5006,
3562,
2407,
1894,
1739,
1739,
1682,
1665,
1617,
1635,
1613,
1687,
1918,
2576,
3439,
4088,
3945,
3063,
2216,
1743,
1457,
1520,
1389,
1501,
1416,
1487,
1437,
1563,
1609,
1744,
1701,
1536,
1464,
1418,
1370,
1348,
1305,
1287,
1318,
1305,
1283,
1307,
1263,
1277,
1245,
1228,
1310,
1233,
1273,
1170,
1165,
1208,
1141,
1155,
1133,
1131,
1088,
1068,
1073,
1120,
1085,
1073,
1063,
1005,
1046,
1048,
1082,
1018,
999,
1025,
971,
1001,
961,
955,
952,
944,
971,
968,
960,
907,
963,
924,
893,
822,
898,
909,
830,
853,
854,
880,
816,
836,
823,
834,
841,
799,
788,
820,
799,
749,
744,
773,
766,
740,
725,
767,
728,
711,
734,
709,
683,
727,
762,
698,
706,
716,
764,
828,
893,
927,
991,
920,
849,
774,
691,
636,
628,
690,
603,
592,
618,
612,
573,
597,
597,
593,
552,
554,
561,
565,
565,
564,
499,
551,
512,
491,
526,
546,
523,
489,
515,
503,
532,
559,
574,
598,
573,
573,
517,
461,
479,
488,
475,
477,
477,
480,
500,
493,
446,
455,
433,
436,
401,
429,
382,
389,
395,
357,
371,
418,
377,
408,
342,
367,
397,
324,
336,
366,
343,
358,
373,
322,
318,
290,
341,
332,
323,
299,
319,
327,
317,
313,
322,
311,
314,
296,
281,
285,
270,
299,
287,
257,
266,
279,
253,
282,
258,
282,
241,
257,
258,
257,
236,
232,
238,
252,
237,
229,
205,
251,
225,
224,
207,
229,
202,
201,
204,
232,
168,
207,
179,
182,
167,
217,
176,
184,
170,
169,
198,
184,
180,
154,
162,
165,
180,
156,
160,
163,
171,
130,
152,
158,
150,
147,
147,
146,
133,
137,
130,
120,
122,
114,
130,
113,
125,
101,
113,
107,
104,
88,
91,
106,
119,
95,
109,
90,
99,
88,
97,
92,
101,
84,
78,
88,
61,
78,
87,
74,
85,
81,
74,
62,
77,
69,
74,
72,
69,
60,
57,
52,
73,
66,
55,
62,
70,
33,
61,
55,
43,
63,
35,
39,
42,
45,
41,
37,
34,
41,
23,
41,
34,
25,
32,
38,
33,
24,
30,
19,
28,
28,
28,
29,
19,
16,
16,
18,
24,
16,
11,
15,
18,
13,
11,
6,
12,
10,
5,
6,
13,
4,
4,
6,
2,
0,
4,
3,
2,
2,
0,
1,
2,
1,
0,
0,
0,
0,
0,
0,
0,
0,
0,
0,
0,
1,
0,
0,
0,
0,
0,
1,
1,
0,
0,
0,
1,
0,
0,
1,
1,
0,
0,
0,
0,
0,
0,
2,
0,
0,
0,
0,
1,
1,
0,
0,
0,
1,
0,
0,
0,
0,
0,
0,
0,
0,
0,
0,
0,
1,
0,
1,
0,
0,
1,
0,
0,
0,
0,
0,
0,
1,
0,
0,
0,
1,
0,
0,
0,
0,
0,
0,
0,
0,
0,
0,
1,
0,
0,
0,
0,
0,
0,
1,
0,
0,
0,
0,
0,
0,
0,
0,
0,
0,
0,
0,
0,
0,
0,
0,
0,
0,
0,
0,
0,
0,
0,
0,
0,
0,
0,
0,
0,
0,
0,
0,
0,
0,
0,
0,
0,
0,
0,
0,
0,
0,
1,
0,
0,
0,
0,
0,
0,
0,
0,
0,
1,
0,
0,
0,
0,
0,
0,
0,
0,
0,
1,
0,
1,
0,
1,
0,
0,
0,
0,
0,
0,
0,
0,
0,
0,
0,
0,
0,
0,
0,
0,
0,
0,
0,
0,
0,
0,
0,
0,
0,
0,
0,
0,
0,
0,
0,
0,
0,
0,
0,
0,
0,
0,
1,
0,
0,
0,
0,
0,
0,
0,
0,
0,
0,
0,
0,
0,
0,
0,
0,
0,
0,
0,
0,
0,
0,
0,
0,
0,
0,
0,
0,
0,
0,
0,
0,
0,
0,
0,
0,
0,
0,
0,
0,
0,
0,
0,
0,
0,
0,
0,
0,
0,
0,
0,
0,
0,
0,
0,
0,
0,
0,
0,
0,
0,
0,
0,
0,
0,
0,
0,
0,
0,
0,
0,
0,
0,
0,
0,
0,
0,
0,
0,
0,
0,
0,
0,
0,
0,
0,
0,
0,
0,
0,
0,
0,
0,
0,
0,
0,
0,
0,
0,
0,
0,
0,
0,
0,
0,
0,
0,
0,
0,
0,
0,
0,
0,
0,
0,
0,
0,
0,
0,
0,
0,
0,
0,
0,
0,
0,
0,
0,
0,
0,
0,
0,
0,
0,
0,
0,
0,
0,
0,
0,
0,
0,
0,
0,
0,
0,
0,
0,
0,
0,
0,
0,
0,
0,
0,
0,
0,
0,
0,
0,
0,
0,
0,
0,
0,
0,
0,
0,
0,
0,
0,
0,
0,
0,
0,
0,
0,
0,
0,
0,
0,
0,
0,
0,
0,
0,
0,
0,
0,
0,
0,
0,
0,
0,
0,
0,
0,
0,
0,
0,
0,
0,
0,
0,
0,
0,
0,
0,
0,
0,
0,
0,
0,
0,
0,
0,
0,
0,
0,
0,
0,
0,
0,
0,
0,
0,
0,
0,
0,
0,
0,
0,
0,
0,
0,
0,
0,
0,
0,
0,
0,
0,
0,
0,
0,
0,
0,
0,
0,
0,
0,
0,
0,
0,
0,
0,
0,
0,
0,
0,
0,
0,
0,
0,
0,
0,
0,
0,
0,
0,
0,
0,
0,
0,
0,
0,
0,
0,
0,
0,
0,
0,
0,
0,
0,
0,
0,
0,
0,
0,
0,
0,
0,
0,
0,
0,
0,
0,
0,
0,
0,
0,
0,
0,
0,
0,
0,
0,
0,
0,
0,
0,
0,
0,
0,
0,
0,
0,
0,
0,
0,
0,
0,
0,
0,
0,
0,
0,
0,
0,
0,
0,
0,
0,
0,
0,
0,
0,
0,
0,
0,
0,
0,
0,
0,
0,
0,
0,
0,
0,
0,
0,
0,
0,
0,
0,
0,
0,
0,
0,
0,
0,
0,
0,
0,
0,
0,
0,
0,
0,
0,
0,
0,
0,
0,
0,
0,
0,
0,
0,
0,
0,
0,
0,
0,
0,
0,
0,
0,
0,
0,
0,
0,
0,
0,
0,
0,
0,
0,
0,
0,
0,
0,
0,
0,
0,
0,
0,
0,
0,
0,
0,
0,
0,
0,
0,
0,
0,
0,
0,
0,
0,
0,
0,
0,
0,
0,
0,
0,
0,
0,
0,
0,
0,
0,
0,
0,
0,
0,
0,
0,
0,
0,
0,
0,
0,
0,
0,
0,
0,
0,
0,
0,
0,
0,
0,
0,
0,
0,
0,
0,
0,
0,
0,
0,
0,
0,
0,
0,
0,
0,
0,
0,
0,
0,
0,
0,
0,
0,
0,
0,
0,
0,
0,
0,
0,
0,
0,
0,
0,
0,
0,
0,
0,
0,
0,
0,
0,
0,
0,
0,
0,
0,
0,
0,
0,
0,
0,
0,
0,
0,
0,
0,
0,
0,
0,
0,
0,
0,
0,
0,
0,
0,
0,
0,
0,
0,
0,
0,
0,
0,
0,
0,
0,
0,
0,
0,
0,
0,
0,
0,
0,
0,
0,
0,
0,
0,
0,
0,
0,
0,
0,
0,
0,
0,
0,
0,
0,
0,
0,
0,
0,
0,
0,
0,
0,
0,
0,
0,
0,
0,
0,
0,
0,
0,
0,
0,
0,
0,
0,
0,
0,
0,
0,
0,
0,
0,
0,
0,
0,
0,
0,
0,
0,
0,
0,
0,
0,
0,
0,
0,
0,
0,
0,
0,
0,
0,
0,
0,
0,
0,
0,
0,
0,
0,
0,
0,
0,
0,
0,
0,
0,
0,
0,
0,
0,
0,
0,
0,
0,
0,
0,
0,
0,
0,
0,
0,
0,
0,
0,
0,
0,
0,
0,
0,
0,
0,
0,
0,
0,
0,
0,
0,
0,
0,
0,
0,
0,
0,
0,
0,
0,
0,
#ENDOFDATA   :