File: N132962/Quantification/15 keV/GMIIIA/GMIIIA K1053[4][4].msa
#FORMAT      : EMSA/MAS Spectral Data File
#VERSION     : 1.0
#TITLE       : GMIIIA K1053[4][all]
#DATE        : 22-SEP-2025
#TIME        : 21:15
#OWNER       : Unknown
#NPOINTS     : 4096
#NCOLUMNS    : 1
#XUNITS      : eV
#YUNITS      : counts
#DATATYPE    : Y
#XPERCHAN    : 9.99778
#OFFSET      : 1.69135
#BEAMKV      : 15
#SIGNALTYPE  : EDS
#ELEVANGLE   : 35
#AZIMANGLE   : 0
#LIVETIME    : 239.909
#REALTIME    : 261.028
#PROBECUR    : 1.21822
#TAUWIND     : 0
#TDEADLYR    : 0
#TACTLYR     : 0.045
#TALWIND     : 0.025
#CHOFFSET    : 0.0
#XLABEL      : Energy (eV)
#YLABEL      : Counts
#XPOSITION   : 4.54539
#YPOSITION   : 15.4409
#ZPOSITION   : 37.36299
#EDSDET      : SD
##SPECIMEN   : GMIIIA K1053[4][all]
##D2STDCMP   : K1053,(O:16.13),(F:0.39),(Si:9.35),(Cl:0.64),(Br:1.09),(I:1.37),(Pb:71.02)
##DET_HASH   : 12273538-fd48-a23f-0a19-f1e6fa85caef
##CALIB_HASH : 6abaa72c-aa41-8738-0be9-f592914732f3
##WORKING    : 15.0 mm
##DET_NAME   : EDAX All
##DET_MODE   : MediumLE
#SPECTRUM    :
20,
24,
13,
52,
299,
1182,
3097,
6599,
13022,
15505,
10745,
7656,
7384,
7365,
8446,
15546,
41053,
71933,
53279,
19266,
10121,
9696,
10733,
10990,
8949,
7761,
7394,
7889,
8221,
8352,
8299,
8382,
8491,
8734,
9067,
9138,
9045,
9240,
9283,
9487,
9697,
9678,
9836,
10207,
10213,
10346,
10443,
11094,
12841,
15316,
15536,
14139,
12064,
11248,
11224,
15369,
34214,
74338,
98564,
75143,
41824,
26610,
18849,
12545,
9415,
9016,
8471,
8397,
8212,
8401,
8713,
9577,
10559,
11697,
13682,
21062,
47487,
100734,
147708,
141877,
112791,
102901,
87517,
52019,
22481,
10628,
9581,
12180,
13897,
12776,
9241,
6686,
5622,
5382,
5402,
5520,
5629,
5710,
5777,
5772,
5984,
6444,
6873,
6891,
6605,
6102,
5610,
5250,
5057,
4981,
4903,
4887,
4880,
4789,
4930,
4854,
4904,
4963,
4796,
4927,
4649,
4773,
4678,
4665,
4646,
4661,
4691,
4589,
4636,
5047,
5543,
5842,
5697,
5156,
4741,
4588,
4509,
4655,
4531,
4845,
4973,
5156,
4809,
4728,
4619,
4336,
4304,
4261,
4283,
4627,
4609,
4588,
4402,
4308,
4190,
4101,
4170,
4112,
4141,
4249,
4156,
4098,
4103,
3981,
4019,
3927,
3934,
3910,
3758,
3851,
3856,
3782,
3715,
3835,
3668,
3765,
3604,
3698,
3660,
3572,
3551,
3543,
3562,
3592,
3508,
3551,
3419,
3486,
3384,
3371,
3405,
3339,
3377,
3356,
3309,
3267,
3173,
3169,
3291,
3165,
3126,
3102,
3149,
3247,
3064,
3053,
3102,
3099,
3095,
2932,
3009,
2988,
3129,
3086,
3047,
3031,
3039,
2908,
2829,
2889,
2759,
2793,
2764,
2806,
2732,
2748,
2688,
2611,
2697,
2652,
2561,
2636,
2612,
2537,
2580,
2530,
2659,
2498,
2571,
2540,
2468,
2456,
2466,
2425,
2445,
2370,
2441,
2440,
2439,
2432,
2439,
2368,
2346,
2282,
2293,
2203,
2108,
2406,
2191,
2201,
2256,
2144,
2205,
2064,
2149,
2072,
2150,
2096,
2099,
2088,
2005,
1990,
2167,
2061,
2003,
2026,
2009,
1965,
1853,
1927,
1863,
1878,
1888,
1858,
1854,
1856,
1871,
1877,
1830,
1802,
1713,
1797,
1686,
1800,
1685,
1732,
1686,
1703,
1740,
1687,
1666,
1560,
1660,
1649,
1648,
1663,
1643,
1635,
1551,
1567,
1529,
1504,
1422,
1586,
1441,
1465,
1406,
1398,
1535,
1447,
1442,
1384,
1337,
1424,
1365,
1332,
1389,
1360,
1310,
1264,
1270,
1299,
1326,
1223,
1269,
1207,
1317,
1245,
1254,
1220,
1170,
1193,
1147,
1174,
1210,
1232,
1364,
1539,
1849,
2149,
2421,
2631,
2645,
2262,
1877,
1484,
1373,
1100,
1069,
1104,
957,
1000,
968,
953,
920,
988,
931,
936,
938,
921,
922,
930,
911,
865,
824,
842,
826,
857,
793,
797,
847,
744,
761,
758,
769,
750,
733,
718,
699,
759,
805,
693,
728,
652,
687,
675,
634,
664,
705,
660,
607,
657,
658,
598,
618,
611,
627,
574,
587,
564,
582,
528,
536,
556,
538,
590,
624,
600,
679,
737,
761,
738,
676,
616,
546,
532,
473,
454,
439,
417,
431,
449,
436,
380,
399,
423,
342,
348,
328,
315,
343,
319,
299,
322,
310,
297,
280,
311,
276,
268,
265,
282,
272,
256,
263,
244,
226,
247,
217,
218,
214,
223,
238,
246,
189,
185,
172,
171,
177,
156,
158,
151,
134,
119,
136,
148,
132,
109,
117,
112,
108,
106,
98,
90,
82,
90,
71,
65,
68,
58,
52,
48,
50,
40,
38,
28,
29,
21,
15,
15,
17,
6,
7,
7,
3,
4,
5,
6,
5,
4,
5,
8,
1,
3,
3,
6,
6,
3,
0,
1,
3,
4,
3,
4,
2,
3,
6,
2,
2,
3,
2,
1,
3,
0,
2,
3,
3,
4,
3,
1,
1,
5,
2,
4,
4,
2,
5,
5,
0,
0,
0,
4,
1,
5,
6,
3,
0,
0,
1,
0,
2,
2,
1,
1,
2,
3,
2,
3,
2,
2,
4,
2,
0,
1,
2,
1,
0,
3,
2,
1,
4,
1,
0,
0,
2,
4,
2,
2,
1,
0,
2,
0,
1,
1,
2,
1,
2,
0,
3,
0,
1,
2,
0,
2,
3,
0,
5,
1,
0,
0,
0,
3,
2,
0,
1,
2,
3,
1,
1,
0,
0,
0,
2,
0,
0,
1,
1,
0,
0,
2,
0,
1,
0,
0,
0,
1,
0,
1,
1,
0,
1,
2,
2,
0,
0,
0,
0,
0,
1,
0,
3,
2,
0,
0,
0,
0,
0,
0,
1,
1,
2,
1,
0,
0,
1,
1,
0,
0,
2,
1,
1,
1,
2,
0,
0,
2,
2,
0,
1,
1,
0,
0,
0,
2,
0,
1,
0,
0,
1,
1,
0,
0,
1,
0,
0,
0,
0,
1,
0,
1,
0,
1,
1,
0,
0,
0,
1,
1,
0,
0,
1,
0,
2,
1,
0,
0,
0,
0,
1,
0,
0,
0,
0,
1,
2,
0,
0,
1,
0,
1,
0,
0,
0,
0,
0,
0,
1,
0,
0,
0,
0,
0,
0,
0,
1,
0,
0,
0,
1,
0,
0,
0,
0,
1,
0,
0,
1,
0,
0,
0,
0,
0,
0,
0,
0,
0,
0,
0,
1,
0,
0,
0,
1,
1,
0,
1,
1,
0,
0,
0,
0,
0,
1,
0,
0,
0,
0,
0,
0,
0,
0,
0,
1,
1,
0,
0,
0,
0,
0,
0,
0,
0,
0,
0,
0,
0,
0,
0,
0,
0,
0,
0,
0,
0,
0,
0,
0,
0,
0,
0,
0,
1,
0,
0,
0,
0,
0,
0,
0,
0,
0,
0,
0,
0,
0,
0,
0,
1,
0,
0,
0,
1,
0,
0,
0,
0,
0,
0,
0,
0,
0,
0,
0,
0,
0,
0,
0,
0,
0,
0,
0,
0,
0,
0,
0,
0,
1,
0,
0,
0,
0,
0,
0,
0,
0,
0,
0,
0,
0,
0,
0,
0,
0,
0,
0,
0,
0,
0,
0,
0,
0,
0,
0,
0,
0,
0,
0,
0,
0,
0,
0,
0,
0,
0,
0,
0,
0,
0,
0,
0,
0,
0,
0,
0,
0,
0,
0,
0,
0,
0,
0,
0,
0,
0,
0,
0,
0,
0,
0,
0,
0,
0,
0,
0,
0,
0,
0,
0,
0,
0,
0,
0,
0,
0,
0,
0,
0,
0,
0,
0,
0,
0,
0,
0,
0,
1,
0,
0,
0,
0,
0,
0,
0,
0,
0,
0,
0,
0,
0,
0,
0,
0,
0,
0,
0,
0,
0,
0,
0,
0,
0,
0,
0,
0,
0,
0,
0,
0,
0,
0,
0,
0,
0,
0,
0,
0,
0,
0,
0,
0,
0,
0,
0,
0,
0,
0,
0,
0,
0,
0,
0,
0,
0,
0,
0,
0,
0,
0,
0,
0,
0,
0,
0,
0,
0,
0,
0,
0,
0,
0,
0,
0,
0,
0,
0,
0,
0,
0,
0,
0,
0,
0,
0,
0,
0,
0,
0,
0,
0,
0,
0,
0,
0,
0,
0,
0,
0,
0,
0,
0,
0,
0,
0,
0,
0,
0,
0,
0,
0,
0,
0,
0,
0,
0,
0,
0,
0,
0,
0,
0,
0,
0,
0,
0,
0,
0,
0,
0,
0,
0,
0,
0,
0,
0,
0,
0,
0,
0,
0,
0,
0,
0,
0,
0,
0,
0,
0,
0,
0,
0,
0,
0,
0,
0,
0,
0,
0,
0,
0,
0,
0,
0,
0,
0,
0,
0,
0,
0,
0,
0,
0,
0,
0,
0,
0,
0,
0,
0,
0,
0,
0,
0,
0,
0,
0,
0,
0,
0,
0,
0,
0,
0,
0,
0,
0,
0,
0,
0,
0,
0,
0,
0,
0,
0,
0,
0,
0,
0,
0,
0,
0,
0,
0,
0,
0,
0,
0,
0,
0,
0,
0,
0,
0,
0,
0,
0,
0,
0,
0,
0,
0,
0,
0,
0,
0,
0,
0,
0,
0,
0,
0,
0,
0,
0,
0,
0,
0,
0,
0,
0,
0,
0,
0,
0,
0,
0,
0,
0,
0,
0,
0,
0,
0,
0,
0,
0,
0,
0,
0,
0,
0,
0,
0,
0,
0,
0,
0,
0,
0,
0,
0,
0,
0,
0,
0,
0,
0,
0,
0,
0,
0,
0,
0,
0,
0,
0,
0,
0,
0,
0,
0,
0,
0,
0,
0,
0,
0,
0,
0,
0,
0,
0,
0,
0,
0,
0,
0,
0,
0,
0,
0,
0,
0,
0,
0,
0,
0,
0,
0,
0,
0,
0,
0,
0,
0,
0,
0,
0,
0,
0,
0,
0,
0,
0,
0,
0,
0,
0,
0,
0,
0,
0,
0,
0,
0,
0,
0,
0,
0,
0,
0,
0,
0,
0,
0,
0,
0,
0,
0,
0,
0,
0,
0,
0,
0,
0,
0,
0,
0,
0,
0,
0,
0,
0,
0,
0,
0,
0,
0,
0,
0,
0,
0,
0,
0,
0,
0,
0,
0,
0,
0,
0,
0,
0,
0,
0,
#ENDOFDATA   :