File: N132962/Quantification/15 keV/GMIIIA/GMIIIA K326[4][4].msa
#FORMAT      : EMSA/MAS Spectral Data File
#VERSION     : 1.0
#TITLE       : GMIIIA K326[4][all]
#DATE        : 22-SEP-2025
#TIME        : 15:32
#OWNER       : Unknown
#NPOINTS     : 4096
#NCOLUMNS    : 1
#XUNITS      : eV
#YUNITS      : counts
#DATATYPE    : Y
#XPERCHAN    : 9.99778
#OFFSET      : 1.69135
#BEAMKV      : 15
#SIGNALTYPE  : EDS
#ELEVANGLE   : 35
#AZIMANGLE   : 0
#LIVETIME    : 239.94
#REALTIME    : 254.572
#PROBECUR    : 1.21681
#TAUWIND     : 0
#TDEADLYR    : 0
#TACTLYR     : 0.045
#TALWIND     : 0.025
#CHOFFSET    : 0.0
#XLABEL      : Energy (eV)
#YLABEL      : Counts
#XPOSITION   : 10.54883
#YPOSITION   : 3.75949
#ZPOSITION   : 37.36299
#EDSDET      : SD
##SPECIMEN   : GMIIIA K326[4][all]
##D2STDCMP   : K326,(B:9.32),(O:51.35),(Na:1.48),(Mg:18.15),(Si:13.98),(Ca:5.72)
##DET_HASH   : 12273538-fd48-a23f-0a19-f1e6fa85caef
##CALIB_HASH : 6abaa72c-aa41-8738-0be9-f592914732f3
##WORKING    : 15.0 mm
##DET_NAME   : EDAX All
##DET_MODE   : MediumLE
#SPECTRUM    :
18,
35,
15,
18,
174,
808,
1578,
2371,
4946,
6801,
5530,
4564,
4638,
5558,
10154,
38507,
146944,
279507,
202751,
52521,
6827,
3014,
4135,
4019,
3080,
2648,
2801,
3001,
3121,
3317,
3473,
3701,
4686,
7773,
13544,
14901,
9568,
5962,
6401,
13556,
48464,
120258,
144328,
81857,
24320,
6436,
3701,
3478,
3697,
3855,
3997,
3751,
3907,
3819,
4517,
9708,
33336,
82956,
113077,
79983,
33179,
12239,
6119,
3771,
2924,
2764,
2591,
2433,
2255,
2379,
2377,
2283,
2346,
2426,
2685,
2819,
2805,
2593,
2466,
2288,
2243,
2186,
2233,
2296,
2234,
2199,
2185,
2129,
2111,
1989,
1973,
1930,
1949,
1952,
1862,
1875,
1952,
1860,
1982,
1981,
2029,
1974,
1890,
1824,
1755,
1756,
1713,
1705,
1687,
1744,
1621,
1582,
1688,
1689,
1639,
1601,
1625,
1741,
1882,
2348,
4370,
9143,
16127,
20202,
16957,
10121,
4611,
2156,
1574,
1491,
1606,
1857,
2480,
3281,
3528,
3056,
2140,
1613,
1295,
1254,
1211,
1217,
1250,
1242,
1118,
1091,
1154,
1171,
1140,
1113,
1128,
1112,
1125,
1058,
990,
997,
1018,
1010,
1064,
998,
911,
974,
959,
938,
920,
974,
970,
950,
883,
914,
915,
896,
871,
832,
842,
876,
843,
863,
863,
836,
845,
843,
852,
748,
793,
753,
792,
825,
763,
756,
820,
723,
777,
712,
672,
691,
714,
670,
686,
717,
662,
668,
682,
699,
643,
644,
603,
646,
578,
630,
659,
587,
620,
653,
623,
594,
616,
609,
601,
557,
570,
588,
545,
553,
567,
559,
535,
564,
520,
485,
535,
513,
533,
527,
469,
525,
521,
486,
486,
439,
487,
449,
436,
426,
435,
443,
460,
450,
423,
466,
427,
433,
419,
451,
379,
406,
415,
398,
367,
405,
372,
371,
357,
422,
373,
363,
344,
396,
390,
357,
376,
347,
341,
327,
294,
339,
356,
338,
340,
333,
292,
294,
305,
326,
288,
294,
324,
302,
330,
298,
294,
293,
285,
293,
254,
253,
271,
300,
283,
261,
237,
271,
254,
275,
261,
268,
239,
277,
280,
217,
230,
247,
240,
241,
202,
218,
217,
259,
191,
228,
216,
230,
219,
197,
227,
205,
222,
192,
221,
192,
184,
166,
191,
175,
185,
186,
185,
187,
175,
188,
174,
190,
172,
159,
178,
154,
176,
161,
176,
149,
169,
180,
144,
155,
149,
135,
156,
139,
136,
146,
132,
137,
128,
118,
139,
127,
134,
113,
125,
115,
126,
123,
120,
107,
107,
113,
105,
119,
101,
104,
92,
86,
111,
103,
86,
85,
100,
67,
85,
94,
103,
88,
91,
84,
107,
75,
94,
105,
70,
85,
83,
81,
75,
77,
73,
77,
76,
71,
67,
58,
62,
64,
55,
65,
52,
86,
52,
55,
62,
47,
50,
52,
47,
60,
57,
46,
60,
48,
53,
46,
48,
49,
51,
37,
37,
38,
48,
40,
40,
33,
39,
40,
34,
43,
36,
32,
38,
21,
41,
38,
33,
31,
26,
28,
21,
18,
19,
24,
27,
22,
27,
25,
25,
14,
11,
20,
19,
12,
13,
17,
18,
19,
15,
10,
16,
17,
10,
12,
10,
11,
11,
7,
8,
6,
6,
6,
6,
3,
5,
3,
8,
5,
8,
4,
3,
4,
1,
0,
2,
0,
0,
1,
0,
0,
0,
1,
0,
0,
1,
0,
0,
0,
0,
0,
0,
0,
0,
1,
0,
1,
0,
0,
0,
0,
1,
0,
0,
0,
0,
0,
0,
0,
0,
0,
0,
0,
0,
0,
0,
0,
0,
0,
0,
0,
0,
0,
0,
0,
0,
0,
0,
0,
0,
0,
0,
0,
0,
0,
0,
0,
0,
0,
0,
1,
0,
0,
0,
0,
0,
0,
1,
0,
0,
0,
0,
1,
0,
0,
0,
0,
0,
0,
0,
0,
0,
0,
0,
0,
0,
0,
0,
0,
0,
0,
0,
0,
0,
0,
0,
0,
0,
1,
0,
0,
0,
0,
0,
0,
0,
0,
0,
0,
0,
0,
0,
0,
0,
0,
0,
0,
0,
0,
0,
0,
0,
0,
0,
0,
0,
0,
0,
0,
0,
0,
0,
0,
0,
0,
0,
0,
0,
0,
0,
0,
0,
0,
0,
0,
0,
0,
0,
0,
0,
0,
0,
0,
0,
0,
0,
0,
0,
0,
0,
0,
0,
0,
0,
0,
0,
0,
0,
0,
0,
0,
0,
0,
0,
0,
0,
0,
0,
0,
0,
0,
0,
0,
0,
0,
0,
0,
0,
0,
0,
0,
0,
0,
0,
0,
0,
1,
0,
0,
0,
0,
0,
0,
0,
0,
0,
0,
0,
0,
0,
0,
0,
0,
0,
0,
0,
0,
0,
0,
0,
0,
0,
0,
0,
0,
0,
0,
0,
0,
0,
0,
0,
0,
0,
0,
0,
0,
0,
0,
0,
0,
0,
0,
0,
0,
0,
0,
0,
0,
0,
0,
0,
0,
0,
0,
0,
0,
0,
0,
0,
0,
0,
0,
0,
0,
0,
0,
0,
0,
0,
0,
0,
0,
0,
0,
0,
0,
0,
0,
0,
0,
0,
0,
0,
0,
0,
0,
0,
0,
0,
0,
0,
0,
0,
0,
0,
0,
0,
0,
0,
0,
0,
0,
0,
0,
0,
0,
0,
0,
0,
0,
0,
0,
0,
0,
0,
0,
0,
0,
0,
0,
0,
0,
0,
0,
0,
0,
0,
0,
0,
0,
0,
0,
0,
0,
0,
0,
0,
0,
0,
0,
0,
0,
0,
0,
0,
0,
0,
0,
0,
0,
0,
0,
0,
0,
0,
0,
0,
0,
0,
0,
0,
0,
0,
0,
0,
0,
0,
0,
0,
0,
0,
0,
0,
0,
0,
0,
0,
0,
0,
0,
0,
0,
0,
0,
0,
0,
0,
0,
0,
0,
0,
0,
0,
0,
0,
0,
0,
0,
0,
0,
0,
0,
0,
0,
0,
0,
0,
0,
0,
0,
0,
0,
0,
0,
0,
0,
0,
0,
0,
0,
0,
0,
0,
0,
0,
0,
0,
0,
0,
0,
0,
0,
0,
0,
0,
0,
0,
0,
0,
0,
0,
0,
0,
0,
0,
0,
0,
0,
0,
0,
0,
0,
0,
0,
0,
0,
0,
0,
0,
0,
0,
0,
0,
0,
0,
0,
0,
0,
0,
0,
0,
0,
0,
0,
0,
0,
0,
0,
0,
0,
0,
0,
0,
0,
0,
0,
0,
0,
0,
0,
0,
0,
0,
0,
0,
0,
0,
0,
0,
0,
0,
0,
0,
0,
0,
0,
0,
0,
0,
0,
0,
0,
0,
0,
0,
0,
0,
0,
0,
0,
0,
0,
0,
0,
0,
0,
0,
0,
0,
0,
0,
0,
0,
0,
0,
0,
0,
0,
0,
0,
0,
0,
0,
0,
0,
0,
0,
0,
0,
0,
0,
0,
0,
0,
0,
0,
0,
0,
0,
0,
0,
0,
0,
0,
0,
0,
0,
0,
0,
0,
0,
0,
0,
0,
0,
0,
0,
0,
0,
0,
0,
0,
0,
0,
0,
0,
0,
0,
0,
0,
0,
0,
0,
0,
0,
0,
0,
0,
0,
0,
0,
0,
0,
0,
0,
0,
0,
0,
0,
0,
0,
0,
0,
0,
0,
0,
0,
0,
0,
0,
0,
0,
0,
0,
0,
0,
0,
0,
0,
0,
0,
0,
0,
0,
0,
0,
0,
0,
0,
0,
0,
0,
0,
0,
0,
0,
0,
0,
0,
0,
0,
0,
0,
0,
0,
0,
0,
0,
0,
0,
0,
0,
0,
0,
0,
0,
0,
0,
0,
0,
0,
0,
0,
0,
0,
0,
0,
0,
0,
0,
0,
0,
0,
0,
0,
0,
0,
0,
0,
0,
0,
0,
0,
0,
0,
0,
0,
0,
0,
0,
0,
0,
0,
0,
0,
0,
0,
0,
0,
0,
0,
0,
0,
0,
0,
0,
0,
0,
0,
0,
0,
0,
0,
0,
0,
0,
0,
0,
0,
0,
0,
0,
0,
0,
0,
0,
0,
0,
0,
0,
0,
0,
0,
0,
0,
0,
0,
0,
0,
0,
0,
0,
0,
0,
0,
0,
0,
0,
0,
0,
0,
0,
0,
0,
0,
0,
0,
0,
0,
0,
0,
0,
0,
0,
0,
0,
0,
0,
0,
0,
0,
0,
0,
0,
0,
0,
0,
0,
0,
0,
0,
0,
0,
0,
0,
0,
0,
0,
0,
0,
0,
0,
0,
0,
0,
0,
0,
0,
0,
0,
0,
0,
0,
0,
0,
0,
0,
0,
0,
0,
0,
0,
0,
0,
0,
0,
0,
0,
0,
0,
0,
0,
0,
0,
0,
0,
0,
0,
0,
0,
0,
0,
0,
0,
0,
0,
0,
0,
0,
0,
0,
0,
0,
0,
0,
0,
0,
0,
0,
0,
0,
0,
#ENDOFDATA   :