File: N132962/Quantification/15 keV/GMIIIA/GMIIIA K1080[1][4].msa
#FORMAT      : EMSA/MAS Spectral Data File
#VERSION     : 1.0
#TITLE       : GMIIIA K1080[1][all]
#DATE        : 22-SEP-2025
#TIME        : 20:50
#OWNER       : Unknown
#NPOINTS     : 4096
#NCOLUMNS    : 1
#XUNITS      : eV
#YUNITS      : counts
#DATATYPE    : Y
#XPERCHAN    : 9.99778
#OFFSET      : 1.69135
#BEAMKV      : 15
#SIGNALTYPE  : EDS
#ELEVANGLE   : 35
#AZIMANGLE   : 0
#LIVETIME    : 239.939
#REALTIME    : 255.3323
#PROBECUR    : 1.2178
#TAUWIND     : 0
#TDEADLYR    : 0
#TACTLYR     : 0.045
#TALWIND     : 0.025
#CHOFFSET    : 0.0
#XLABEL      : Energy (eV)
#YLABEL      : Counts
#XPOSITION   : 0.44976
#YPOSITION   : 15.76558
#ZPOSITION   : 37.36299
#EDSDET      : SD
##SPECIMEN   : GMIIIA K1080[1][all]
##D2STDCMP   : K1080,(Li:2.79),(B:0.62),(O:41.65),(Mg:1.21),(Al:7.94),(Si:18.7),(Ca:10.72),(Ti:1.2),(Sr:12.68),(Zr:0.74),(Lu:1.76)
##DET_HASH   : 12273538-fd48-a23f-0a19-f1e6fa85caef
##CALIB_HASH : 6abaa72c-aa41-8738-0be9-f592914732f3
##WORKING    : 15.0 mm
##DET_NAME   : EDAX All
##DET_MODE   : MediumLE
#SPECTRUM    :
32,
30,
8,
29,
148,
413,
1063,
2555,
6203,
8692,
7027,
5163,
4765,
5115,
7670,
23679,
85611,
161478,
117948,
31904,
5316,
3254,
3812,
3903,
3621,
3526,
3609,
3894,
4359,
4336,
4520,
4423,
4642,
4918,
5385,
5646,
5317,
5463,
5510,
6247,
8917,
14222,
15596,
11080,
7397,
6357,
7085,
13283,
36130,
69027,
70440,
40966,
20381,
14881,
12435,
16906,
48157,
118243,
165891,
137879,
91157,
57841,
35580,
20402,
11455,
7097,
5463,
5006,
4977,
4607,
4099,
3842,
3672,
3497,
3528,
3438,
3479,
3427,
3069,
2942,
2773,
2762,
2819,
2840,
2673,
2745,
2714,
2860,
2742,
2694,
2563,
2557,
2617,
2646,
2570,
2555,
2461,
2544,
2443,
2529,
2502,
2528,
2460,
2403,
2363,
2499,
2531,
2552,
2501,
2503,
2376,
2356,
2284,
2312,
2238,
2346,
2471,
2587,
2782,
3740,
7382,
16483,
28972,
36643,
30821,
18119,
7822,
3545,
2309,
2121,
2340,
2993,
4135,
5489,
6006,
5061,
3464,
2317,
1964,
1809,
1777,
1729,
1681,
1699,
1608,
1644,
1673,
1933,
2578,
3481,
4142,
3994,
3098,
2166,
1705,
1518,
1454,
1391,
1522,
1455,
1487,
1469,
1511,
1660,
1732,
1705,
1569,
1478,
1397,
1289,
1306,
1343,
1300,
1274,
1335,
1320,
1214,
1294,
1281,
1259,
1342,
1238,
1211,
1273,
1197,
1236,
1183,
1152,
1163,
1091,
1136,
1155,
1132,
1128,
1032,
1085,
1049,
1076,
1002,
1048,
1004,
1082,
996,
1043,
1018,
985,
926,
985,
927,
842,
924,
943,
892,
908,
911,
964,
884,
894,
899,
866,
915,
875,
904,
847,
823,
801,
856,
846,
848,
855,
892,
790,
770,
790,
778,
810,
772,
735,
736,
753,
737,
736,
713,
780,
691,
733,
738,
660,
690,
680,
685,
762,
819,
871,
983,
1022,
974,
841,
752,
673,
647,
691,
612,
614,
566,
619,
571,
546,
603,
564,
599,
591,
574,
545,
572,
541,
529,
546,
525,
523,
504,
530,
493,
574,
496,
508,
527,
549,
545,
595,
564,
587,
495,
524,
501,
477,
462,
436,
455,
472,
493,
471,
489,
450,
441,
455,
372,
396,
388,
418,
400,
400,
402,
329,
380,
359,
354,
349,
360,
363,
341,
363,
336,
333,
323,
325,
339,
363,
347,
341,
306,
311,
326,
323,
284,
300,
330,
296,
309,
309,
302,
314,
284,
318,
326,
268,
314,
257,
287,
293,
260,
277,
249,
246,
287,
235,
251,
226,
224,
273,
224,
244,
236,
225,
223,
223,
188,
233,
202,
212,
220,
179,
179,
212,
189,
215,
172,
190,
188,
182,
183,
180,
168,
174,
156,
176,
168,
153,
134,
180,
170,
169,
156,
160,
155,
138,
152,
154,
151,
148,
121,
135,
119,
129,
130,
122,
125,
138,
123,
108,
113,
147,
90,
101,
87,
103,
100,
94,
117,
94,
104,
96,
98,
89,
96,
96,
65,
84,
92,
86,
84,
87,
77,
77,
70,
75,
85,
66,
72,
75,
70,
76,
52,
61,
56,
62,
63,
47,
46,
38,
46,
46,
57,
46,
54,
38,
37,
43,
48,
44,
44,
26,
32,
38,
35,
30,
34,
35,
29,
23,
34,
34,
32,
29,
33,
16,
23,
12,
19,
16,
21,
16,
18,
18,
17,
19,
17,
8,
15,
8,
6,
11,
6,
7,
3,
7,
4,
3,
2,
3,
3,
0,
0,
0,
0,
0,
0,
1,
0,
0,
1,
0,
0,
0,
0,
0,
0,
0,
0,
0,
0,
0,
0,
1,
1,
1,
0,
0,
0,
1,
0,
0,
0,
0,
0,
0,
1,
0,
0,
0,
0,
0,
1,
0,
1,
0,
0,
0,
0,
1,
0,
0,
0,
0,
0,
0,
0,
0,
0,
0,
0,
0,
0,
0,
0,
0,
0,
0,
0,
0,
0,
0,
0,
0,
0,
0,
0,
0,
0,
0,
0,
0,
0,
0,
0,
0,
0,
0,
0,
0,
0,
0,
0,
0,
0,
0,
0,
0,
0,
0,
0,
0,
0,
0,
0,
0,
0,
0,
0,
0,
0,
0,
1,
0,
0,
0,
0,
0,
0,
0,
0,
0,
0,
0,
0,
0,
0,
0,
1,
0,
0,
0,
0,
0,
0,
0,
0,
0,
0,
0,
0,
0,
0,
0,
0,
0,
0,
0,
0,
0,
0,
0,
0,
0,
0,
0,
0,
0,
0,
0,
0,
0,
0,
0,
0,
1,
0,
0,
0,
0,
0,
0,
0,
0,
0,
1,
0,
0,
0,
0,
0,
0,
0,
0,
0,
0,
0,
0,
0,
0,
0,
0,
0,
0,
0,
0,
0,
0,
0,
0,
0,
0,
0,
0,
0,
0,
0,
0,
0,
0,
0,
0,
0,
0,
0,
1,
0,
0,
0,
0,
0,
0,
0,
0,
0,
0,
0,
0,
0,
0,
0,
0,
0,
0,
0,
0,
0,
0,
0,
0,
0,
0,
0,
0,
0,
0,
0,
0,
0,
0,
0,
0,
0,
0,
0,
0,
0,
0,
0,
0,
0,
1,
0,
0,
0,
0,
0,
0,
0,
0,
0,
0,
0,
0,
0,
0,
0,
0,
0,
0,
0,
0,
0,
0,
0,
0,
0,
0,
0,
0,
0,
0,
0,
0,
0,
0,
0,
0,
0,
0,
0,
0,
0,
0,
0,
0,
0,
0,
0,
0,
0,
0,
0,
0,
0,
0,
0,
0,
0,
0,
0,
0,
0,
0,
0,
0,
0,
0,
0,
0,
0,
0,
0,
0,
0,
0,
0,
0,
0,
0,
0,
0,
0,
0,
0,
0,
0,
0,
0,
0,
0,
0,
0,
0,
0,
0,
0,
0,
0,
0,
0,
0,
0,
0,
0,
0,
0,
0,
0,
0,
0,
0,
0,
0,
0,
0,
0,
0,
0,
0,
0,
0,
0,
0,
0,
0,
0,
0,
0,
0,
0,
0,
0,
0,
0,
0,
0,
0,
0,
0,
0,
0,
0,
0,
0,
0,
0,
0,
0,
0,
0,
0,
0,
0,
0,
0,
0,
0,
0,
0,
0,
0,
0,
0,
0,
0,
0,
0,
0,
0,
0,
0,
0,
0,
0,
0,
0,
0,
0,
0,
0,
0,
0,
0,
0,
1,
0,
0,
0,
0,
0,
0,
0,
0,
0,
0,
0,
0,
0,
0,
0,
0,
0,
0,
0,
0,
0,
0,
0,
0,
0,
0,
0,
0,
0,
0,
0,
0,
0,
0,
0,
0,
0,
0,
0,
0,
0,
0,
0,
0,
0,
0,
0,
0,
0,
0,
0,
0,
0,
0,
0,
0,
0,
0,
0,
0,
0,
0,
0,
0,
0,
0,
0,
0,
0,
0,
0,
0,
0,
0,
0,
0,
0,
0,
0,
0,
0,
0,
0,
0,
0,
0,
0,
0,
0,
0,
0,
0,
0,
0,
0,
0,
0,
0,
0,
0,
0,
0,
0,
0,
0,
0,
0,
0,
0,
0,
0,
0,
0,
0,
0,
0,
0,
0,
0,
0,
0,
0,
0,
0,
0,
0,
0,
0,
0,
0,
0,
0,
0,
0,
0,
0,
0,
0,
0,
0,
0,
0,
0,
0,
0,
0,
0,
0,
0,
0,
0,
0,
0,
0,
0,
0,
0,
0,
0,
0,
0,
0,
0,
0,
0,
0,
0,
0,
0,
0,
0,
0,
0,
0,
0,
0,
0,
0,
0,
0,
0,
0,
0,
0,
0,
0,
0,
0,
0,
0,
0,
0,
0,
0,
0,
0,
0,
0,
0,
0,
0,
0,
0,
0,
0,
0,
0,
0,
0,
0,
0,
0,
0,
0,
0,
0,
0,
0,
0,
0,
0,
0,
0,
0,
0,
0,
0,
0,
0,
0,
0,
0,
0,
0,
0,
0,
0,
0,
0,
0,
0,
0,
0,
0,
0,
0,
0,
0,
0,
0,
0,
0,
0,
0,
0,
0,
0,
0,
0,
0,
0,
0,
0,
0,
0,
0,
0,
0,
0,
0,
0,
0,
0,
0,
0,
0,
0,
0,
0,
0,
0,
0,
0,
0,
0,
0,
0,
0,
0,
0,
0,
0,
0,
0,
0,
0,
0,
0,
0,
0,
0,
0,
0,
0,
0,
0,
0,
0,
0,
0,
0,
0,
0,
0,
0,
0,
0,
0,
0,
0,
0,
0,
0,
0,
0,
0,
0,
0,
0,
0,
0,
0,
0,
0,
0,
0,
0,
0,
0,
0,
0,
0,
0,
0,
0,
0,
0,
0,
0,
0,
0,
0,
0,
0,
0,
0,
0,
0,
0,
0,
0,
0,
0,
0,
0,
0,
0,
0,
0,
0,
0,
0,
0,
0,
0,
0,
0,
0,
0,
0,
0,
0,
0,
0,
0,
0,
0,
0,
0,
0,
0,
0,
0,
0,
0,
0,
0,
0,
0,
0,
0,
0,
0,
0,
0,
0,
0,
0,
0,
0,
0,
0,
0,
0,
0,
0,
0,
0,
0,
0,
#ENDOFDATA   :