File: N132962/Quantification/15 keV/GMIIIA/GMIIIA K252[1][4].msa
#FORMAT      : EMSA/MAS Spectral Data File
#VERSION     : 1.0
#TITLE       : GMIIIA K252[1][all]
#DATE        : 22-SEP-2025
#TIME        : 14:49
#OWNER       : Unknown
#NPOINTS     : 4096
#NCOLUMNS    : 1
#XUNITS      : eV
#YUNITS      : counts
#DATATYPE    : Y
#XPERCHAN    : 9.99778
#OFFSET      : 1.69135
#BEAMKV      : 15
#SIGNALTYPE  : EDS
#ELEVANGLE   : 35
#AZIMANGLE   : 0
#LIVETIME    : 239.9865
#REALTIME    : 257.124
#PROBECUR    : 1.21732
#TAUWIND     : 0
#TDEADLYR    : 0
#TACTLYR     : 0.045
#TALWIND     : 0.025
#CHOFFSET    : 0.0
#XLABEL      : Energy (eV)
#YLABEL      : Counts
#XPOSITION   : 4.68898
#YPOSITION   : 2.61795
#ZPOSITION   : 37.36299
#EDSDET      : SD
##SPECIMEN   : GMIIIA K252[1][all]
##D2STDCMP   : K252,(O:30.83),(Si:18.7),(Mn:3.16),(Co:3.93),(Cu:3.99),(Zn:8.03),(Ba:31.35)
##DET_HASH   : 12273538-fd48-a23f-0a19-f1e6fa85caef
##CALIB_HASH : 6abaa72c-aa41-8738-0be9-f592914732f3
##WORKING    : 15.0 mm
##DET_NAME   : EDAX All
##DET_MODE   : MediumLE
#SPECTRUM    :
32,
27,
14,
27,
142,
571,
1627,
3755,
7794,
9612,
7176,
6428,
7160,
8389,
12348,
34492,
119049,
219158,
161477,
50689,
17689,
13072,
10363,
8583,
9427,
14644,
18024,
13459,
8914,
9340,
14123,
19198,
21705,
29440,
33047,
22273,
10258,
6169,
5097,
4922,
4854,
4983,
5214,
5049,
5272,
5195,
5368,
5612,
5850,
6046,
6360,
6212,
6094,
6215,
6978,
13365,
42996,
103567,
139337,
99262,
42378,
16553,
9176,
6051,
4760,
4348,
4295,
4287,
4389,
4250,
4330,
4348,
4344,
4406,
4531,
4758,
4739,
4629,
4426,
4355,
4182,
4267,
4262,
4277,
4289,
4118,
4221,
4127,
4182,
4185,
4312,
4250,
4138,
4034,
3920,
3936,
3911,
3827,
3740,
3806,
3804,
3755,
3727,
3764,
3604,
3651,
3532,
3580,
3510,
3483,
3629,
3425,
3483,
3464,
3466,
3472,
3442,
3438,
3355,
3293,
3249,
3190,
3216,
3169,
3053,
3134,
3096,
3011,
3043,
3250,
3535,
3909,
4134,
3782,
3502,
3138,
2886,
2970,
2868,
2771,
2865,
3008,
2898,
3242,
3588,
5232,
9843,
18646,
28025,
31903,
26217,
15911,
8088,
4145,
3016,
2759,
2741,
3403,
5300,
9081,
13835,
15895,
14765,
11209,
7989,
5863,
4303,
3462,
3178,
3618,
4809,
6311,
6934,
6201,
4599,
3263,
2426,
2210,
2094,
2065,
2187,
2272,
2670,
3287,
3697,
3666,
3199,
2524,
2153,
2017,
2057,
2140,
2627,
3252,
4141,
5260,
5989,
5942,
4762,
3491,
2412,
1903,
1657,
1639,
1565,
1633,
1548,
1600,
1543,
1592,
1560,
1470,
1590,
1788,
1801,
2047,
1986,
1937,
1836,
1603,
1584,
1467,
1448,
1474,
1419,
1429,
1582,
1818,
2355,
3414,
4056,
4146,
3694,
2807,
2008,
1665,
1340,
1246,
1224,
1232,
1217,
1238,
1182,
1180,
1197,
1200,
1245,
1171,
1223,
1208,
1211,
1249,
1222,
1346,
1457,
1486,
1392,
1301,
1191,
1134,
1097,
1099,
1082,
1232,
1371,
1718,
2205,
2664,
2866,
2605,
2079,
1630,
1305,
1103,
989,
1006,
973,
945,
1027,
929,
918,
957,
1046,
1209,
1618,
2300,
3045,
3608,
3460,
3098,
2355,
1634,
1312,
1054,
911,
956,
1061,
1029,
1014,
885,
859,
779,
778,
751,
810,
763,
693,
727,
723,
716,
771,
750,
700,
698,
737,
765,
876,
887,
963,
1010,
975,
901,
780,
682,
681,
654,
586,
601,
644,
616,
602,
582,
575,
594,
531,
603,
569,
577,
515,
504,
493,
518,
473,
548,
517,
511,
531,
524,
533,
519,
462,
489,
510,
441,
490,
479,
426,
455,
476,
446,
463,
428,
425,
436,
405,
409,
404,
396,
405,
366,
360,
391,
392,
371,
361,
356,
378,
358,
345,
342,
362,
326,
344,
347,
350,
334,
309,
304,
321,
325,
300,
300,
296,
294,
271,
278,
303,
275,
300,
291,
258,
267,
264,
252,
239,
273,
252,
256,
223,
238,
258,
225,
249,
201,
193,
219,
213,
213,
213,
193,
192,
204,
185,
184,
178,
156,
204,
176,
192,
192,
161,
147,
148,
171,
143,
133,
145,
135,
140,
140,
123,
142,
136,
121,
123,
124,
107,
129,
121,
86,
107,
99,
99,
88,
104,
99,
94,
95,
83,
80,
81,
80,
82,
76,
69,
76,
73,
63,
71,
57,
57,
59,
53,
51,
45,
48,
49,
46,
35,
42,
54,
42,
40,
32,
21,
26,
25,
21,
26,
18,
20,
23,
7,
16,
11,
12,
9,
5,
7,
2,
2,
4,
1,
3,
1,
0,
1,
2,
0,
2,
1,
0,
0,
1,
0,
1,
5,
0,
0,
2,
1,
0,
1,
2,
0,
0,
1,
1,
2,
2,
1,
0,
0,
3,
0,
0,
2,
1,
2,
1,
0,
2,
0,
1,
0,
0,
0,
0,
1,
1,
0,
2,
1,
0,
0,
1,
2,
1,
0,
0,
0,
0,
1,
1,
1,
0,
1,
0,
0,
1,
0,
1,
1,
1,
1,
0,
1,
2,
0,
0,
0,
1,
1,
0,
1,
1,
1,
2,
0,
1,
1,
0,
1,
0,
0,
1,
0,
0,
1,
0,
0,
0,
0,
1,
2,
1,
1,
0,
0,
0,
0,
0,
0,
0,
0,
0,
1,
0,
1,
0,
0,
0,
1,
0,
0,
0,
0,
1,
0,
0,
1,
0,
1,
0,
0,
1,
0,
0,
3,
0,
1,
1,
0,
0,
1,
1,
0,
0,
0,
0,
1,
0,
0,
0,
0,
0,
1,
1,
0,
0,
0,
0,
0,
0,
0,
0,
0,
1,
0,
1,
0,
0,
0,
0,
0,
0,
1,
2,
0,
0,
0,
0,
0,
0,
0,
0,
0,
0,
1,
0,
0,
1,
0,
0,
0,
0,
0,
0,
1,
0,
0,
0,
0,
0,
0,
0,
0,
0,
0,
0,
0,
0,
0,
0,
1,
0,
0,
0,
0,
0,
0,
0,
0,
0,
0,
0,
1,
1,
0,
0,
0,
0,
0,
0,
0,
0,
0,
0,
0,
0,
0,
0,
0,
0,
0,
0,
0,
0,
0,
0,
0,
0,
0,
0,
0,
0,
0,
0,
0,
0,
0,
0,
0,
0,
0,
0,
0,
0,
0,
0,
0,
0,
0,
0,
0,
0,
1,
0,
0,
0,
0,
0,
0,
0,
0,
0,
0,
0,
0,
0,
0,
0,
0,
0,
0,
0,
0,
0,
0,
0,
0,
0,
0,
0,
0,
0,
0,
0,
0,
0,
0,
0,
0,
0,
0,
0,
0,
0,
0,
0,
0,
0,
1,
0,
0,
0,
0,
0,
0,
0,
0,
0,
0,
0,
0,
0,
0,
0,
0,
0,
0,
0,
0,
0,
0,
0,
0,
0,
0,
0,
0,
0,
0,
0,
0,
0,
0,
0,
0,
0,
0,
0,
0,
0,
0,
0,
0,
0,
0,
0,
0,
0,
0,
0,
0,
0,
0,
0,
0,
0,
0,
0,
0,
0,
0,
0,
0,
0,
0,
0,
0,
0,
0,
0,
0,
0,
0,
0,
0,
0,
0,
0,
0,
0,
0,
0,
0,
0,
0,
0,
0,
0,
0,
0,
0,
0,
0,
0,
0,
0,
0,
0,
0,
0,
0,
0,
0,
0,
0,
0,
0,
0,
0,
0,
0,
0,
0,
0,
0,
0,
0,
0,
0,
0,
0,
0,
0,
0,
0,
0,
0,
0,
0,
0,
0,
0,
0,
0,
0,
0,
0,
0,
0,
0,
0,
0,
0,
0,
0,
0,
0,
0,
0,
0,
0,
0,
0,
0,
0,
0,
0,
0,
0,
0,
0,
0,
0,
0,
0,
0,
0,
0,
0,
0,
0,
0,
0,
0,
0,
0,
0,
0,
0,
0,
0,
0,
0,
0,
0,
0,
0,
0,
0,
0,
0,
0,
0,
0,
0,
0,
0,
0,
0,
0,
0,
0,
0,
0,
0,
0,
0,
0,
0,
0,
0,
0,
0,
0,
0,
0,
0,
0,
0,
0,
0,
0,
0,
0,
0,
0,
0,
0,
0,
0,
0,
0,
0,
0,
0,
0,
0,
0,
0,
0,
0,
0,
0,
0,
0,
0,
0,
0,
0,
0,
0,
0,
0,
0,
0,
0,
0,
0,
0,
0,
0,
0,
0,
0,
0,
0,
0,
0,
0,
0,
0,
0,
0,
0,
0,
0,
0,
0,
0,
0,
0,
0,
0,
0,
0,
0,
0,
0,
0,
0,
0,
0,
0,
0,
0,
0,
0,
0,
0,
0,
0,
0,
0,
0,
0,
0,
0,
0,
0,
0,
0,
0,
0,
0,
0,
0,
0,
0,
0,
0,
0,
0,
0,
0,
0,
0,
0,
0,
0,
0,
0,
0,
0,
0,
0,
0,
0,
0,
0,
0,
0,
0,
0,
0,
0,
0,
0,
0,
0,
0,
0,
0,
0,
0,
0,
0,
0,
0,
0,
0,
0,
0,
0,
0,
0,
0,
0,
0,
0,
0,
0,
0,
0,
0,
0,
0,
0,
0,
0,
0,
0,
0,
0,
0,
0,
0,
0,
0,
0,
0,
0,
0,
0,
0,
0,
0,
0,
0,
0,
0,
0,
0,
0,
0,
0,
0,
0,
0,
0,
0,
0,
0,
0,
0,
0,
0,
0,
0,
0,
0,
0,
0,
0,
0,
0,
0,
0,
0,
0,
0,
0,
0,
0,
0,
0,
0,
0,
0,
0,
0,
0,
0,
0,
0,
0,
0,
0,
0,
0,
0,
0,
0,
0,
0,
0,
0,
0,
0,
0,
0,
0,
0,
0,
0,
0,
0,
0,
0,
0,
0,
0,
0,
0,
0,
0,
0,
0,
0,
0,
0,
0,
0,
0,
0,
0,
0,
0,
0,
0,
0,
0,
0,
0,
0,
0,
0,
0,
0,
0,
0,
0,
0,
0,
0,
0,
0,
0,
0,
0,
0,
0,
0,
0,
0,
0,
0,
0,
0,
0,
0,
0,
0,
0,
0,
0,
0,
0,
0,
0,
0,
0,
0,
0,
0,
0,
0,
0,
0,
0,
0,
0,
0,
#ENDOFDATA   :