File: N132962/Quantification/15 keV/GMIIIA/GMIIIA K227[1][4].msa
#FORMAT      : EMSA/MAS Spectral Data File
#VERSION     : 1.0
#TITLE       : GMIIIA K227[1][all]
#DATE        : 22-SEP-2025
#TIME        : 14:16
#OWNER       : Unknown
#NPOINTS     : 4096
#NCOLUMNS    : 1
#XUNITS      : eV
#YUNITS      : counts
#DATATYPE    : Y
#XPERCHAN    : 9.99778
#OFFSET      : 1.69135
#BEAMKV      : 15
#SIGNALTYPE  : EDS
#ELEVANGLE   : 35
#AZIMANGLE   : 0
#LIVETIME    : 239.985
#REALTIME    : 261.229
#PROBECUR    : 1.21983
#TAUWIND     : 0
#TDEADLYR    : 0
#TACTLYR     : 0.045
#TALWIND     : 0.025
#CHOFFSET    : 0.0
#XLABEL      : Energy (eV)
#YLABEL      : Counts
#XPOSITION   : 7.72066
#YPOSITION   : 0.36426
#ZPOSITION   : 37.36299
#EDSDET      : SD
##SPECIMEN   : GMIIIA K227[1][all]
##D2STDCMP   : K227,(O:16.39),(Si:9.35),(Pb:74.27)
##DET_HASH   : 12273538-fd48-a23f-0a19-f1e6fa85caef
##CALIB_HASH : 6abaa72c-aa41-8738-0be9-f592914732f3
##WORKING    : 15.0 mm
##DET_NAME   : EDAX All
##DET_MODE   : MediumLE
#SPECTRUM    :
29,
33,
17,
58,
276,
1171,
3166,
6738,
13063,
15814,
10898,
7782,
7247,
7350,
8423,
15543,
41876,
73870,
54962,
19921,
10370,
9746,
10847,
11017,
9199,
7599,
7513,
7789,
8105,
8229,
8280,
8330,
8668,
8709,
8960,
9059,
9220,
9225,
9425,
9496,
9716,
9761,
9874,
9926,
10151,
10069,
10385,
10459,
10623,
10798,
10861,
10755,
10674,
10709,
11267,
15337,
34952,
76582,
101523,
76772,
42529,
27323,
19413,
12773,
9841,
8898,
8636,
8498,
8396,
8484,
8947,
9515,
10745,
11900,
14001,
21849,
49308,
104656,
152921,
147696,
117438,
105979,
89606,
54239,
22883,
10246,
8147,
9961,
11720,
11311,
8756,
6615,
5521,
4992,
5319,
5381,
5479,
5620,
5778,
5835,
5965,
6556,
6696,
6880,
6654,
6032,
5738,
5196,
5048,
4803,
4887,
4717,
4912,
4850,
4897,
4802,
4828,
4762,
4837,
4848,
4642,
4680,
4699,
4663,
4658,
4798,
4710,
4634,
4568,
4562,
4523,
4479,
4498,
4391,
4433,
4555,
4522,
4518,
4534,
4384,
4462,
4448,
4384,
4363,
4539,
4301,
4288,
4242,
4234,
4467,
4377,
4511,
4320,
4147,
4153,
4288,
4238,
4160,
4152,
4138,
4229,
4134,
4131,
4092,
4097,
4016,
3847,
3937,
3728,
3801,
3807,
3791,
3793,
3757,
3702,
3763,
3704,
3749,
3650,
3699,
3623,
3572,
3515,
3549,
3536,
3416,
3387,
3486,
3519,
3356,
3520,
3413,
3390,
3370,
3324,
3375,
3414,
3211,
3332,
3287,
3204,
3125,
3260,
3108,
3233,
3113,
2986,
3165,
3139,
3063,
3144,
3045,
3143,
3147,
3030,
3035,
2976,
3009,
2901,
2887,
2863,
2835,
2834,
2795,
2800,
2750,
2689,
2694,
2773,
2785,
2620,
2782,
2614,
2617,
2622,
2551,
2669,
2655,
2497,
2545,
2546,
2490,
2554,
2499,
2520,
2366,
2515,
2390,
2363,
2450,
2429,
2306,
2315,
2275,
2340,
2342,
2240,
2282,
2189,
2283,
2220,
2260,
2201,
2219,
2098,
2124,
2095,
2037,
2058,
2169,
2052,
2065,
1991,
1985,
1971,
1975,
1929,
1999,
1990,
1986,
1941,
1891,
1915,
1848,
1909,
1854,
1828,
1819,
1778,
1851,
1765,
1726,
1793,
1793,
1693,
1694,
1768,
1722,
1689,
1731,
1691,
1687,
1753,
1680,
1681,
1660,
1598,
1684,
1610,
1555,
1526,
1559,
1477,
1527,
1504,
1516,
1488,
1439,
1381,
1465,
1473,
1441,
1398,
1389,
1412,
1341,
1379,
1368,
1335,
1328,
1288,
1326,
1338,
1265,
1245,
1270,
1275,
1248,
1225,
1231,
1270,
1231,
1198,
1246,
1240,
1300,
1334,
1579,
1844,
2059,
2542,
2719,
2656,
2284,
1968,
1601,
1343,
1146,
1022,
1000,
985,
1006,
941,
957,
960,
990,
979,
936,
946,
881,
913,
891,
892,
905,
821,
878,
844,
865,
870,
856,
831,
799,
754,
808,
840,
776,
790,
746,
786,
733,
722,
716,
708,
730,
664,
647,
683,
677,
651,
650,
611,
652,
619,
647,
631,
632,
614,
624,
626,
538,
607,
559,
558,
508,
558,
551,
557,
629,
669,
698,
728,
722,
685,
606,
608,
474,
487,
474,
466,
421,
415,
436,
431,
418,
414,
405,
383,
370,
329,
351,
337,
316,
324,
323,
317,
321,
300,
303,
309,
280,
274,
270,
231,
235,
244,
252,
237,
211,
221,
205,
221,
224,
210,
205,
207,
191,
179,
166,
157,
160,
153,
166,
157,
147,
133,
122,
137,
107,
119,
103,
124,
101,
96,
86,
98,
88,
73,
63,
74,
65,
63,
54,
40,
38,
31,
28,
23,
25,
15,
7,
13,
3,
4,
2,
6,
3,
2,
3,
3,
3,
2,
3,
2,
3,
4,
3,
1,
6,
1,
1,
8,
6,
2,
1,
1,
2,
4,
1,
6,
2,
4,
5,
1,
0,
3,
1,
2,
1,
3,
2,
2,
3,
5,
4,
1,
3,
2,
0,
6,
4,
2,
4,
0,
1,
2,
1,
2,
0,
2,
0,
0,
0,
0,
1,
1,
1,
2,
6,
2,
1,
0,
1,
3,
3,
1,
3,
4,
0,
1,
2,
2,
2,
2,
2,
0,
2,
0,
1,
1,
1,
2,
1,
1,
0,
3,
0,
0,
1,
0,
1,
1,
0,
4,
3,
1,
1,
0,
0,
2,
0,
0,
0,
1,
1,
1,
2,
0,
2,
2,
2,
0,
1,
1,
0,
0,
1,
0,
1,
0,
1,
2,
1,
1,
1,
0,
0,
2,
0,
1,
2,
0,
2,
0,
1,
1,
1,
0,
1,
0,
0,
0,
0,
0,
2,
0,
1,
1,
1,
0,
0,
3,
1,
2,
0,
0,
0,
2,
0,
2,
0,
1,
2,
0,
0,
1,
0,
0,
0,
0,
0,
0,
0,
0,
1,
0,
2,
0,
0,
0,
0,
1,
0,
1,
1,
0,
1,
0,
1,
0,
0,
2,
1,
0,
0,
0,
1,
0,
2,
1,
0,
3,
1,
2,
0,
0,
0,
0,
0,
1,
0,
0,
0,
0,
3,
1,
0,
0,
0,
0,
0,
0,
0,
0,
0,
0,
0,
1,
0,
0,
0,
1,
0,
0,
0,
0,
0,
0,
0,
0,
1,
0,
0,
1,
0,
0,
0,
0,
0,
1,
1,
0,
0,
0,
1,
1,
0,
1,
0,
1,
0,
2,
0,
0,
0,
0,
0,
0,
0,
0,
0,
0,
0,
0,
0,
0,
1,
0,
0,
0,
0,
0,
0,
1,
0,
0,
1,
0,
0,
0,
0,
0,
1,
0,
0,
0,
0,
0,
0,
0,
0,
0,
0,
0,
0,
0,
0,
0,
0,
0,
1,
0,
0,
0,
0,
0,
0,
0,
0,
0,
0,
0,
0,
0,
0,
1,
0,
0,
0,
0,
0,
0,
0,
0,
0,
0,
0,
0,
0,
0,
0,
0,
0,
0,
0,
0,
0,
0,
0,
0,
0,
0,
0,
0,
0,
0,
0,
0,
0,
0,
0,
0,
0,
0,
0,
0,
0,
0,
0,
0,
0,
0,
0,
0,
0,
0,
0,
0,
0,
0,
0,
0,
0,
0,
0,
0,
0,
0,
0,
0,
0,
0,
0,
0,
0,
0,
0,
0,
0,
0,
0,
0,
0,
0,
0,
0,
0,
0,
0,
0,
0,
0,
0,
0,
0,
0,
0,
0,
0,
0,
0,
0,
0,
0,
0,
0,
0,
0,
0,
0,
0,
0,
0,
0,
0,
0,
0,
0,
0,
0,
0,
0,
0,
0,
0,
0,
0,
0,
0,
0,
0,
0,
0,
0,
0,
0,
0,
0,
0,
0,
0,
0,
0,
0,
0,
0,
0,
0,
0,
0,
0,
0,
0,
0,
0,
0,
0,
0,
0,
0,
0,
0,
0,
0,
0,
0,
0,
0,
0,
0,
0,
0,
0,
0,
0,
0,
0,
0,
0,
0,
0,
0,
0,
0,
0,
0,
0,
0,
0,
0,
0,
0,
0,
0,
0,
0,
0,
0,
0,
0,
0,
0,
0,
0,
0,
0,
0,
0,
0,
0,
0,
0,
0,
0,
0,
0,
0,
0,
0,
0,
0,
0,
0,
0,
0,
0,
0,
0,
0,
0,
0,
0,
0,
0,
0,
0,
0,
0,
0,
0,
0,
0,
0,
0,
0,
0,
0,
0,
0,
0,
0,
0,
0,
0,
0,
0,
0,
0,
0,
0,
0,
0,
0,
0,
0,
0,
0,
0,
0,
0,
0,
0,
0,
0,
0,
0,
0,
0,
0,
0,
0,
0,
0,
0,
0,
0,
0,
0,
0,
0,
0,
0,
0,
0,
0,
0,
0,
0,
0,
0,
0,
0,
0,
0,
0,
0,
0,
0,
0,
0,
0,
0,
0,
0,
0,
0,
0,
0,
0,
0,
0,
0,
0,
0,
0,
0,
0,
0,
0,
0,
0,
0,
0,
0,
0,
0,
0,
0,
0,
0,
0,
0,
0,
0,
0,
0,
0,
0,
0,
0,
0,
0,
0,
0,
0,
0,
0,
0,
0,
0,
0,
0,
0,
0,
0,
0,
0,
0,
0,
0,
0,
0,
0,
0,
0,
0,
0,
0,
0,
0,
0,
0,
0,
0,
0,
0,
0,
0,
0,
0,
0,
0,
0,
0,
0,
0,
0,
0,
0,
0,
0,
0,
0,
0,
0,
0,
0,
0,
0,
0,
0,
0,
0,
0,
0,
0,
0,
0,
0,
0,
0,
0,
0,
0,
0,
0,
0,
0,
0,
0,
0,
0,
0,
0,
0,
0,
0,
0,
0,
0,
0,
0,
0,
0,
0,
0,
0,
0,
0,
0,
0,
0,
0,
0,
0,
0,
0,
0,
0,
0,
0,
0,
0,
0,
0,
0,
0,
0,
0,
0,
0,
0,
0,
0,
0,
0,
0,
0,
0,
0,
0,
0,
0,
0,
0,
0,
0,
0,
0,
0,
0,
0,
0,
0,
0,
0,
0,
0,
0,
0,
0,
0,
0,
0,
0,
0,
0,
0,
0,
0,
0,
0,
0,
0,
0,
0,
0,
0,
0,
0,
0,
0,
0,
0,
0,
0,
0,
0,
0,
0,
0,
0,
0,
0,
0,
0,
0,
#ENDOFDATA   :