File: N132962/Quantification/15 keV/GMIIIA/GMIIIA K1132[4][4].msa
#FORMAT      : EMSA/MAS Spectral Data File
#VERSION     : 1.0
#TITLE       : GMIIIA K1132[4][all]
#DATE        : 22-SEP-2025
#TIME        : 22:27
#OWNER       : Unknown
#NPOINTS     : 4096
#NCOLUMNS    : 1
#XUNITS      : eV
#YUNITS      : counts
#DATATYPE    : Y
#XPERCHAN    : 9.99778
#OFFSET      : 1.69135
#BEAMKV      : 15
#SIGNALTYPE  : EDS
#ELEVANGLE   : 35
#AZIMANGLE   : 0
#LIVETIME    : 239.916
#REALTIME    : 255.33
#PROBECUR    : 1.21595
#TAUWIND     : 0
#TDEADLYR    : 0
#TACTLYR     : 0.045
#TALWIND     : 0.025
#CHOFFSET    : 0.0
#XLABEL      : Energy (eV)
#YLABEL      : Counts
#XPOSITION   : 8.19491
#YPOSITION   : 17.38744
#ZPOSITION   : 37.36299
#EDSDET      : SD
##SPECIMEN   : GMIIIA K1132[4][all]
##D2STDCMP   : K1132,(Li:2.32),(O:41.34),(Al:7.94),(Si:21.39),(Ca:10.72),(Cr:0.51),(Ni:1.18),(Mo:1.67),(Ba:13.43)
##DET_HASH   : 12273538-fd48-a23f-0a19-f1e6fa85caef
##CALIB_HASH : 6abaa72c-aa41-8738-0be9-f592914732f3
##WORKING    : 15.0 mm
##DET_NAME   : EDAX All
##DET_MODE   : MediumLE
#SPECTRUM    :
15,
21,
12,
23,
114,
437,
1211,
2916,
6734,
10182,
8436,
6310,
5326,
5668,
8822,
28402,
104688,
199007,
144468,
39868,
8024,
4395,
4372,
4216,
4356,
5207,
5982,
6414,
7248,
6495,
5182,
4844,
5204,
5606,
6098,
5907,
5474,
4863,
4839,
4896,
4872,
5017,
5215,
5333,
5461,
5552,
6451,
11903,
32415,
61564,
62309,
34139,
13730,
7271,
6901,
14035,
47884,
120970,
163863,
116408,
47410,
17194,
8943,
5253,
4074,
3837,
3783,
3723,
3517,
3332,
3350,
3447,
3457,
3704,
4402,
5878,
7089,
6994,
5753,
4924,
4706,
4382,
3696,
3428,
3224,
3236,
2944,
3001,
3005,
2915,
2863,
3014,
2895,
2891,
2934,
2759,
2702,
2740,
2756,
2840,
2644,
2761,
2623,
2707,
2690,
2671,
2637,
2650,
2655,
2534,
2472,
2435,
2518,
2343,
2440,
2460,
2568,
2730,
2880,
3845,
7182,
16308,
29636,
37036,
31189,
18500,
8126,
3593,
2519,
2366,
2567,
3470,
4763,
6013,
6384,
5383,
3671,
2615,
1999,
1952,
1914,
1992,
2019,
1925,
2140,
2661,
4491,
7705,
11586,
12737,
10669,
6728,
3654,
2300,
1803,
1635,
1810,
2005,
2712,
4075,
5630,
6714,
6130,
4806,
3602,
2731,
2213,
1900,
1887,
1879,
2387,
2937,
3259,
2977,
2311,
1827,
1565,
1562,
1613,
1937,
2108,
2194,
2031,
2117,
2101,
1910,
1841,
1545,
1342,
1294,
1309,
1339,
1370,
1461,
1379,
1334,
1301,
1241,
1298,
1230,
1204,
1137,
1116,
1054,
1074,
1031,
972,
1050,
1048,
1010,
956,
1033,
999,
974,
1030,
973,
956,
933,
985,
865,
949,
945,
958,
968,
897,
889,
892,
855,
855,
796,
803,
835,
840,
826,
844,
788,
823,
845,
794,
788,
818,
795,
794,
760,
771,
927,
993,
1208,
1378,
1381,
1314,
1137,
990,
777,
790,
686,
723,
643,
698,
664,
714,
701,
644,
653,
645,
657,
644,
686,
647,
631,
644,
635,
636,
639,
710,
694,
711,
637,
620,
619,
612,
564,
564,
509,
517,
519,
566,
506,
489,
544,
514,
515,
521,
500,
500,
537,
470,
472,
498,
478,
475,
446,
475,
436,
474,
432,
456,
432,
457,
407,
420,
408,
440,
427,
411,
381,
425,
383,
369,
409,
436,
411,
360,
372,
383,
363,
397,
351,
368,
391,
325,
382,
342,
356,
355,
323,
344,
337,
291,
331,
361,
359,
318,
326,
308,
300,
319,
284,
288,
318,
329,
310,
271,
277,
265,
279,
257,
244,
291,
273,
256,
275,
268,
254,
236,
247,
210,
247,
223,
222,
228,
234,
229,
222,
234,
207,
213,
208,
222,
215,
225,
216,
199,
216,
184,
161,
175,
187,
185,
175,
158,
181,
187,
178,
154,
135,
178,
173,
166,
142,
133,
148,
144,
147,
130,
137,
130,
150,
132,
126,
122,
121,
144,
104,
132,
112,
128,
127,
99,
117,
126,
90,
94,
110,
110,
93,
100,
103,
101,
69,
89,
93,
83,
98,
74,
75,
80,
70,
103,
77,
85,
73,
73,
83,
63,
51,
68,
71,
58,
56,
65,
55,
53,
60,
55,
55,
57,
42,
45,
64,
45,
44,
40,
36,
42,
23,
35,
40,
34,
29,
29,
24,
33,
29,
20,
23,
21,
23,
24,
20,
18,
22,
16,
17,
20,
18,
12,
10,
11,
12,
13,
8,
6,
7,
8,
9,
7,
2,
2,
3,
1,
1,
1,
0,
1,
1,
1,
0,
2,
0,
0,
0,
0,
0,
1,
0,
0,
0,
1,
1,
0,
0,
0,
0,
0,
0,
0,
0,
1,
0,
1,
2,
0,
0,
0,
0,
1,
0,
0,
0,
1,
0,
2,
1,
0,
1,
0,
0,
0,
0,
0,
0,
0,
0,
1,
0,
0,
0,
0,
1,
0,
0,
0,
1,
0,
0,
1,
0,
0,
2,
0,
0,
0,
0,
0,
0,
0,
0,
0,
0,
0,
0,
0,
1,
0,
0,
0,
0,
0,
0,
0,
0,
0,
0,
0,
1,
1,
0,
0,
0,
0,
0,
0,
0,
0,
0,
0,
0,
0,
0,
0,
0,
0,
0,
0,
0,
0,
0,
0,
1,
0,
0,
0,
0,
0,
0,
0,
0,
0,
0,
0,
0,
0,
0,
0,
0,
0,
0,
0,
0,
0,
0,
0,
0,
0,
0,
1,
0,
0,
0,
0,
0,
0,
0,
0,
0,
0,
1,
0,
0,
0,
0,
0,
0,
0,
0,
0,
0,
0,
0,
0,
0,
0,
0,
0,
0,
0,
0,
0,
0,
0,
0,
0,
0,
0,
1,
0,
0,
0,
0,
1,
1,
0,
0,
0,
0,
0,
0,
0,
0,
0,
0,
0,
0,
0,
0,
0,
0,
0,
0,
0,
0,
0,
0,
0,
0,
0,
0,
0,
0,
0,
0,
0,
0,
0,
0,
0,
0,
0,
0,
0,
0,
0,
0,
0,
0,
0,
0,
0,
0,
0,
0,
0,
0,
0,
0,
0,
0,
0,
0,
0,
0,
0,
0,
0,
0,
0,
0,
0,
0,
0,
0,
0,
0,
0,
0,
0,
0,
0,
0,
0,
0,
0,
0,
0,
0,
0,
0,
0,
0,
0,
0,
0,
0,
0,
0,
0,
0,
0,
0,
0,
0,
0,
0,
0,
0,
0,
0,
0,
0,
0,
0,
0,
0,
0,
0,
0,
0,
0,
0,
0,
0,
0,
0,
0,
0,
0,
0,
0,
0,
0,
0,
0,
0,
0,
0,
0,
0,
0,
0,
0,
0,
0,
0,
0,
1,
0,
0,
0,
0,
0,
0,
0,
0,
0,
0,
0,
0,
0,
0,
0,
0,
0,
0,
0,
0,
0,
0,
0,
0,
0,
0,
0,
0,
0,
0,
0,
0,
0,
0,
0,
0,
0,
0,
0,
0,
0,
0,
0,
0,
0,
0,
0,
0,
0,
0,
0,
0,
0,
0,
0,
0,
0,
0,
0,
0,
0,
0,
0,
0,
0,
0,
0,
0,
0,
0,
0,
0,
0,
0,
0,
0,
0,
0,
0,
0,
0,
0,
0,
0,
0,
0,
0,
0,
0,
0,
0,
0,
0,
0,
0,
0,
0,
0,
0,
0,
0,
0,
0,
0,
0,
0,
0,
0,
0,
0,
0,
0,
0,
0,
0,
0,
0,
0,
0,
0,
0,
0,
0,
0,
0,
0,
0,
0,
0,
0,
0,
0,
0,
0,
0,
0,
0,
0,
0,
0,
0,
0,
0,
0,
0,
0,
0,
0,
0,
0,
0,
0,
0,
0,
0,
0,
0,
0,
0,
0,
0,
0,
0,
0,
0,
0,
0,
0,
0,
0,
0,
0,
0,
0,
0,
0,
0,
0,
0,
0,
0,
0,
0,
0,
0,
0,
0,
0,
0,
0,
0,
0,
0,
0,
0,
0,
0,
0,
0,
0,
0,
0,
0,
0,
0,
0,
0,
0,
0,
0,
0,
0,
0,
0,
0,
0,
0,
0,
0,
0,
0,
0,
0,
0,
0,
0,
0,
0,
0,
0,
0,
0,
0,
0,
0,
0,
0,
0,
0,
0,
0,
0,
0,
0,
0,
0,
0,
0,
0,
0,
0,
0,
0,
0,
0,
0,
0,
0,
0,
0,
0,
0,
0,
0,
0,
0,
0,
0,
0,
0,
0,
0,
0,
0,
0,
0,
0,
0,
0,
0,
0,
0,
0,
0,
0,
0,
0,
0,
0,
0,
0,
0,
0,
0,
0,
0,
0,
0,
0,
0,
0,
0,
0,
0,
0,
0,
0,
0,
0,
0,
0,
0,
0,
0,
0,
0,
0,
0,
0,
0,
0,
0,
0,
0,
0,
0,
0,
0,
0,
0,
0,
0,
0,
0,
0,
0,
0,
0,
0,
0,
0,
0,
0,
0,
0,
0,
0,
0,
0,
0,
0,
0,
0,
0,
0,
0,
0,
0,
0,
0,
0,
0,
0,
0,
0,
0,
0,
0,
0,
0,
0,
0,
0,
0,
0,
0,
0,
0,
0,
0,
0,
0,
0,
0,
0,
0,
0,
0,
0,
0,
0,
0,
0,
0,
0,
0,
0,
0,
0,
0,
0,
0,
0,
0,
0,
0,
0,
0,
0,
0,
0,
0,
0,
0,
0,
0,
0,
0,
0,
0,
0,
0,
0,
0,
0,
0,
0,
0,
0,
0,
0,
0,
0,
0,
0,
0,
0,
0,
0,
0,
0,
0,
0,
0,
0,
0,
0,
0,
0,
0,
0,
0,
0,
0,
0,
0,
0,
0,
0,
0,
0,
0,
0,
0,
0,
0,
0,
0,
0,
0,
0,
0,
0,
0,
0,
0,
0,
0,
0,
0,
0,
0,
0,
0,
0,
0,
0,
0,
0,
0,
0,
0,
0,
0,
0,
0,
0,
0,
0,
0,
0,
0,
0,
0,
0,
0,
0,
0,
0,
0,
0,
0,
0,
0,
0,
0,
0,
0,
0,
0,
0,
0,
0,
0,
0,
0,
0,
0,
0,
0,
#ENDOFDATA   :