File: N132962/Quantification/15 keV/GMIIIA/GMIIIA K326[6][4].msa
#FORMAT      : EMSA/MAS Spectral Data File
#VERSION     : 1.0
#TITLE       : GMIIIA K326[6][all]
#DATE        : 22-SEP-2025
#TIME        : 15:35
#OWNER       : Unknown
#NPOINTS     : 4096
#NCOLUMNS    : 1
#XUNITS      : eV
#YUNITS      : counts
#DATATYPE    : Y
#XPERCHAN    : 9.99778
#OFFSET      : 1.69135
#BEAMKV      : 15
#SIGNALTYPE  : EDS
#ELEVANGLE   : 35
#AZIMANGLE   : 0
#LIVETIME    : 239.871
#REALTIME    : 254.444
#PROBECUR    : 1.21681
#TAUWIND     : 0
#TDEADLYR    : 0
#TACTLYR     : 0.045
#TALWIND     : 0.025
#CHOFFSET    : 0.0
#XLABEL      : Energy (eV)
#YLABEL      : Counts
#XPOSITION   : 10.65357
#YPOSITION   : 3.75143
#ZPOSITION   : 37.36299
#EDSDET      : SD
##SPECIMEN   : GMIIIA K326[6][all]
##D2STDCMP   : K326,(B:9.32),(O:51.35),(Na:1.48),(Mg:18.15),(Si:13.98),(Ca:5.72)
##DET_HASH   : 12273538-fd48-a23f-0a19-f1e6fa85caef
##CALIB_HASH : 6abaa72c-aa41-8738-0be9-f592914732f3
##WORKING    : 15.0 mm
##DET_NAME   : EDAX All
##DET_MODE   : MediumLE
#SPECTRUM    :
21,
25,
11,
33,
171,
767,
1631,
2553,
5073,
7019,
5736,
4484,
4456,
5484,
9965,
37975,
144805,
276421,
199672,
51748,
6929,
3648,
5278,
5049,
3527,
2715,
2714,
3044,
3179,
3344,
3474,
3730,
4641,
7870,
13414,
14659,
9536,
5917,
6346,
13405,
48604,
118794,
142841,
80827,
23902,
6331,
3733,
3565,
3698,
3892,
4161,
3895,
3860,
3894,
4532,
9668,
33402,
83224,
113333,
80673,
33290,
12353,
6286,
3816,
2925,
2697,
2611,
2348,
2323,
2413,
2405,
2394,
2338,
2444,
2638,
2758,
2820,
2618,
2354,
2304,
2164,
2266,
2309,
2318,
2195,
2177,
2168,
2124,
2075,
2026,
2017,
1868,
2092,
1942,
1896,
1908,
1921,
1906,
1915,
2102,
2126,
1977,
1848,
1766,
1793,
1738,
1832,
1665,
1715,
1686,
1706,
1631,
1595,
1576,
1646,
1649,
1676,
1698,
1836,
2277,
4382,
9123,
15983,
19972,
17083,
10265,
4591,
2190,
1562,
1446,
1566,
1934,
2526,
3208,
3522,
2992,
2262,
1580,
1238,
1228,
1231,
1300,
1168,
1169,
1108,
1116,
1138,
1078,
1125,
1162,
1208,
1137,
1073,
1038,
1047,
1042,
1050,
1058,
1012,
970,
1025,
940,
961,
904,
943,
987,
1021,
966,
858,
860,
877,
865,
868,
838,
884,
866,
819,
823,
767,
853,
778,
850,
824,
801,
814,
770,
765,
758,
756,
771,
759,
710,
695,
738,
700,
659,
724,
695,
735,
673,
657,
685,
668,
669,
616,
664,
658,
592,
639,
622,
611,
601,
633,
600,
603,
585,
649,
575,
572,
563,
532,
570,
563,
593,
544,
548,
546,
454,
515,
595,
458,
489,
490,
495,
496,
513,
500,
459,
517,
478,
445,
451,
461,
483,
470,
439,
439,
443,
458,
439,
440,
470,
408,
416,
425,
430,
402,
397,
381,
356,
438,
375,
380,
374,
400,
345,
344,
389,
389,
393,
403,
361,
359,
326,
366,
346,
336,
327,
349,
303,
300,
340,
318,
325,
309,
328,
305,
327,
323,
314,
286,
303,
282,
285,
268,
292,
264,
285,
298,
276,
275,
269,
256,
271,
254,
252,
234,
266,
231,
246,
226,
239,
241,
223,
248,
226,
211,
237,
211,
205,
219,
215,
242,
217,
214,
206,
212,
191,
218,
208,
189,
199,
218,
198,
199,
224,
188,
182,
185,
161,
185,
188,
172,
182,
200,
181,
181,
159,
157,
164,
165,
136,
171,
175,
152,
161,
139,
129,
137,
163,
119,
154,
139,
145,
138,
131,
116,
140,
124,
133,
115,
125,
98,
124,
118,
127,
119,
119,
114,
108,
89,
126,
102,
109,
98,
118,
99,
86,
109,
93,
77,
89,
88,
91,
88,
96,
70,
91,
73,
82,
92,
94,
73,
79,
73,
81,
59,
79,
63,
54,
51,
55,
61,
55,
61,
64,
54,
63,
53,
42,
60,
55,
51,
57,
48,
42,
48,
53,
47,
45,
44,
45,
41,
58,
45,
42,
39,
45,
32,
41,
40,
37,
35,
33,
30,
35,
36,
32,
32,
25,
28,
26,
18,
25,
32,
34,
24,
25,
23,
25,
25,
15,
21,
23,
13,
26,
23,
14,
13,
22,
11,
13,
16,
15,
17,
12,
16,
14,
15,
6,
15,
10,
9,
6,
9,
7,
6,
7,
12,
5,
9,
9,
5,
3,
4,
2,
2,
3,
1,
0,
0,
1,
0,
0,
1,
0,
1,
1,
0,
1,
0,
0,
0,
0,
0,
0,
0,
1,
1,
0,
0,
0,
1,
0,
0,
0,
0,
0,
0,
0,
0,
0,
0,
1,
0,
0,
0,
1,
0,
1,
0,
0,
0,
0,
0,
0,
0,
0,
0,
0,
0,
0,
0,
0,
0,
0,
0,
0,
0,
1,
0,
0,
0,
1,
0,
0,
1,
0,
0,
0,
0,
0,
0,
0,
0,
0,
0,
0,
0,
0,
0,
0,
0,
0,
0,
0,
0,
0,
0,
0,
0,
0,
0,
0,
0,
0,
0,
0,
0,
0,
0,
0,
0,
0,
0,
0,
0,
0,
0,
0,
0,
0,
0,
0,
1,
0,
0,
0,
0,
0,
0,
0,
0,
0,
0,
0,
0,
0,
0,
0,
0,
0,
0,
0,
0,
0,
0,
0,
0,
0,
0,
0,
0,
0,
0,
0,
0,
0,
0,
0,
0,
0,
0,
0,
0,
0,
0,
0,
0,
0,
0,
0,
0,
0,
0,
0,
0,
0,
0,
0,
0,
0,
0,
0,
0,
0,
0,
0,
0,
0,
0,
0,
0,
0,
0,
0,
0,
0,
0,
0,
0,
0,
0,
0,
0,
0,
0,
0,
0,
0,
0,
0,
0,
0,
0,
0,
0,
0,
0,
0,
0,
0,
0,
0,
0,
0,
0,
0,
0,
0,
0,
0,
0,
0,
0,
0,
0,
0,
0,
0,
0,
0,
0,
0,
0,
0,
0,
0,
0,
0,
0,
0,
0,
0,
0,
0,
0,
0,
0,
0,
0,
0,
0,
0,
0,
0,
0,
0,
0,
0,
0,
0,
0,
0,
0,
0,
0,
0,
0,
0,
0,
0,
0,
0,
0,
0,
0,
0,
0,
0,
0,
0,
0,
0,
0,
0,
0,
0,
0,
0,
0,
0,
0,
0,
0,
0,
0,
0,
0,
0,
0,
0,
0,
0,
0,
0,
0,
0,
0,
0,
0,
0,
0,
0,
0,
0,
0,
0,
0,
0,
0,
0,
0,
0,
0,
0,
0,
0,
0,
0,
0,
0,
0,
0,
0,
0,
0,
0,
0,
0,
0,
0,
0,
0,
0,
0,
0,
0,
0,
0,
0,
0,
0,
0,
0,
0,
0,
0,
0,
0,
0,
0,
0,
0,
0,
0,
0,
0,
0,
0,
0,
0,
0,
0,
0,
0,
0,
0,
0,
0,
0,
0,
0,
0,
0,
0,
0,
0,
0,
0,
0,
0,
0,
0,
0,
0,
0,
0,
0,
0,
0,
0,
0,
0,
0,
0,
0,
0,
0,
0,
0,
0,
0,
0,
0,
0,
0,
0,
0,
0,
0,
0,
0,
0,
0,
0,
0,
0,
0,
0,
0,
0,
0,
0,
0,
0,
0,
0,
0,
0,
0,
0,
0,
0,
0,
0,
0,
0,
0,
0,
0,
0,
0,
0,
0,
0,
0,
0,
0,
0,
0,
0,
0,
0,
0,
0,
0,
0,
0,
0,
0,
0,
0,
0,
0,
0,
0,
0,
0,
0,
0,
0,
0,
0,
0,
0,
0,
0,
0,
0,
0,
0,
0,
0,
0,
0,
0,
0,
0,
0,
0,
0,
0,
0,
0,
0,
0,
0,
0,
0,
0,
0,
0,
0,
0,
0,
0,
0,
0,
0,
0,
0,
0,
0,
0,
0,
0,
0,
0,
0,
0,
0,
0,
0,
0,
0,
0,
0,
0,
0,
0,
0,
0,
0,
0,
0,
0,
0,
0,
0,
0,
0,
0,
0,
0,
0,
0,
0,
0,
0,
0,
0,
0,
0,
0,
0,
0,
0,
0,
0,
0,
0,
0,
0,
0,
0,
0,
0,
0,
0,
0,
0,
0,
0,
0,
0,
0,
0,
0,
0,
0,
0,
0,
0,
0,
0,
0,
0,
0,
0,
0,
0,
0,
0,
0,
0,
0,
0,
0,
0,
0,
0,
0,
0,
0,
0,
0,
0,
0,
0,
0,
0,
0,
0,
0,
0,
0,
0,
0,
0,
0,
0,
0,
0,
0,
0,
0,
0,
0,
0,
0,
0,
0,
0,
0,
0,
0,
0,
0,
0,
0,
0,
0,
0,
0,
0,
0,
0,
0,
0,
0,
0,
0,
0,
0,
0,
0,
0,
0,
0,
0,
0,
0,
0,
0,
0,
0,
0,
0,
0,
0,
0,
0,
0,
0,
0,
0,
0,
0,
0,
0,
0,
0,
0,
0,
0,
0,
0,
0,
0,
0,
0,
0,
0,
0,
0,
0,
0,
0,
0,
0,
0,
0,
0,
0,
0,
0,
0,
0,
0,
0,
0,
0,
0,
0,
0,
0,
0,
0,
0,
0,
0,
0,
0,
0,
0,
0,
0,
0,
0,
0,
0,
0,
0,
0,
0,
0,
0,
0,
0,
0,
0,
0,
0,
0,
0,
0,
0,
0,
0,
0,
0,
0,
0,
0,
0,
0,
0,
0,
0,
0,
0,
0,
0,
0,
0,
0,
0,
0,
0,
0,
0,
0,
0,
0,
0,
0,
0,
0,
0,
0,
0,
0,
0,
0,
0,
0,
0,
0,
0,
0,
0,
0,
0,
0,
0,
0,
0,
0,
0,
0,
0,
0,
0,
0,
0,
0,
0,
0,
0,
0,
0,
0,
0,
0,
0,
0,
0,
0,
0,
0,
0,
0,
0,
0,
0,
0,
0,
0,
0,
0,
0,
0,
0,
0,
0,
0,
0,
0,
0,
0,
0,
0,
0,
0,
0,
0,
0,
0,
0,
0,
0,
0,
0,
0,
0,
#ENDOFDATA   :