File: N132962/Quantification/15 keV/GMIIIA/GMIIIA K1132[1][4].msa
#FORMAT      : EMSA/MAS Spectral Data File
#VERSION     : 1.0
#TITLE       : GMIIIA K1132[1][all]
#DATE        : 22-SEP-2025
#TIME        : 22:24
#OWNER       : Unknown
#NPOINTS     : 4096
#NCOLUMNS    : 1
#XUNITS      : eV
#YUNITS      : counts
#DATATYPE    : Y
#XPERCHAN    : 9.99778
#OFFSET      : 1.69135
#BEAMKV      : 15
#SIGNALTYPE  : EDS
#ELEVANGLE   : 35
#AZIMANGLE   : 0
#LIVETIME    : 239.94
#REALTIME    : 255.3425
#PROBECUR    : 1.21595
#TAUWIND     : 0
#TDEADLYR    : 0
#TACTLYR     : 0.045
#TALWIND     : 0.025
#CHOFFSET    : 0.0
#XLABEL      : Energy (eV)
#YLABEL      : Counts
#XPOSITION   : 8.25846
#YPOSITION   : 17.45945
#ZPOSITION   : 37.36299
#EDSDET      : SD
##SPECIMEN   : GMIIIA K1132[1][all]
##D2STDCMP   : K1132,(Li:2.32),(O:41.34),(Al:7.94),(Si:21.39),(Ca:10.72),(Cr:0.51),(Ni:1.18),(Mo:1.67),(Ba:13.43)
##DET_HASH   : 12273538-fd48-a23f-0a19-f1e6fa85caef
##CALIB_HASH : 6abaa72c-aa41-8738-0be9-f592914732f3
##WORKING    : 15.0 mm
##DET_NAME   : EDAX All
##DET_MODE   : MediumLE
#SPECTRUM    :
25,
28,
13,
24,
122,
451,
1259,
2962,
6784,
9907,
8503,
6230,
5419,
5599,
8659,
27875,
104074,
197243,
144010,
39729,
8006,
4374,
4117,
4270,
4393,
5201,
6057,
6471,
7144,
6572,
5130,
4789,
5163,
5513,
5853,
5910,
5255,
4818,
4803,
4933,
4898,
5155,
5227,
5259,
5416,
5561,
6380,
11869,
32350,
61797,
62372,
33773,
13313,
7242,
6889,
13768,
48255,
121312,
163934,
116536,
48020,
17351,
8930,
5337,
3987,
3861,
3782,
3726,
3579,
3373,
3381,
3323,
3457,
3761,
4248,
5910,
7193,
6948,
5671,
5140,
4790,
4247,
3831,
3534,
3266,
3187,
3099,
3049,
3016,
3047,
2921,
2924,
2896,
2944,
2800,
2790,
2712,
2718,
2780,
2907,
2747,
2787,
2637,
2702,
2586,
2717,
2607,
2599,
2615,
2580,
2516,
2499,
2460,
2365,
2398,
2590,
2651,
2606,
2934,
3787,
7472,
16410,
29580,
36443,
31070,
18093,
8060,
3520,
2343,
2296,
2627,
3422,
4707,
6109,
6340,
5360,
3686,
2491,
2119,
1973,
1881,
1881,
1987,
1972,
2241,
2757,
4554,
7872,
11404,
12704,
10451,
6730,
3817,
2251,
1776,
1664,
1629,
1918,
2673,
4082,
5764,
6657,
6291,
4994,
3686,
2674,
2258,
1885,
1823,
1983,
2393,
3004,
3205,
2870,
2241,
1807,
1510,
1495,
1671,
1969,
2107,
2194,
2086,
2093,
2057,
1961,
1743,
1513,
1289,
1238,
1329,
1384,
1405,
1444,
1421,
1346,
1260,
1317,
1282,
1227,
1154,
1183,
1124,
1047,
1033,
1069,
1031,
1069,
993,
1080,
996,
1085,
994,
1040,
1039,
995,
996,
999,
970,
897,
901,
933,
906,
905,
923,
839,
898,
899,
882,
851,
908,
859,
819,
853,
845,
757,
850,
839,
749,
829,
786,
818,
852,
783,
815,
890,
984,
1252,
1389,
1451,
1356,
1180,
952,
822,
758,
738,
697,
660,
707,
689,
620,
669,
688,
643,
652,
647,
629,
614,
654,
655,
648,
651,
620,
638,
664,
717,
674,
641,
670,
621,
564,
561,
530,
565,
595,
600,
534,
532,
538,
504,
541,
491,
516,
509,
480,
507,
465,
496,
483,
496,
479,
477,
439,
468,
423,
446,
410,
426,
435,
445,
443,
427,
431,
441,
423,
426,
388,
385,
417,
411,
352,
371,
377,
378,
390,
399,
371,
347,
366,
364,
378,
363,
325,
359,
355,
324,
320,
312,
321,
341,
345,
311,
316,
307,
316,
296,
311,
279,
294,
292,
323,
270,
293,
270,
276,
293,
264,
246,
253,
264,
256,
243,
243,
218,
281,
249,
233,
254,
227,
228,
222,
224,
209,
227,
226,
215,
209,
205,
190,
162,
186,
212,
184,
194,
216,
172,
172,
189,
170,
178,
178,
174,
172,
196,
163,
154,
145,
157,
155,
148,
164,
145,
164,
142,
145,
174,
129,
135,
149,
116,
151,
109,
114,
112,
115,
117,
123,
120,
127,
124,
106,
125,
103,
103,
107,
109,
93,
95,
78,
99,
80,
101,
78,
96,
87,
75,
75,
80,
76,
77,
69,
62,
58,
82,
75,
58,
57,
68,
65,
71,
59,
56,
47,
66,
48,
45,
44,
43,
50,
41,
40,
44,
57,
49,
46,
35,
22,
30,
36,
38,
27,
24,
28,
37,
30,
20,
22,
27,
25,
16,
21,
19,
21,
25,
13,
19,
17,
19,
9,
8,
11,
6,
8,
5,
8,
7,
7,
1,
3,
4,
0,
2,
0,
2,
0,
2,
0,
0,
1,
0,
0,
0,
0,
1,
0,
1,
0,
0,
1,
3,
0,
0,
0,
1,
0,
1,
0,
2,
1,
0,
0,
2,
0,
2,
1,
0,
0,
0,
0,
1,
0,
3,
0,
1,
1,
0,
0,
0,
1,
0,
1,
0,
0,
0,
0,
0,
0,
0,
1,
0,
0,
1,
0,
0,
1,
0,
0,
0,
0,
2,
1,
1,
0,
0,
1,
0,
0,
0,
1,
0,
1,
0,
0,
0,
0,
0,
1,
0,
0,
0,
0,
0,
0,
1,
0,
0,
0,
0,
0,
0,
0,
0,
0,
0,
0,
1,
0,
0,
1,
0,
0,
1,
0,
0,
0,
1,
0,
0,
0,
0,
0,
0,
0,
0,
0,
1,
0,
0,
0,
0,
0,
1,
0,
0,
0,
0,
0,
0,
0,
0,
0,
0,
0,
0,
0,
0,
0,
0,
0,
0,
0,
0,
0,
0,
0,
0,
0,
0,
0,
0,
0,
0,
0,
0,
0,
0,
0,
0,
0,
0,
0,
0,
0,
0,
0,
0,
1,
0,
0,
0,
0,
0,
0,
0,
0,
0,
0,
0,
0,
0,
0,
0,
0,
0,
0,
0,
0,
0,
0,
1,
0,
0,
0,
0,
0,
0,
0,
0,
0,
0,
0,
1,
0,
0,
0,
0,
0,
0,
0,
0,
0,
0,
0,
0,
0,
0,
0,
0,
0,
0,
0,
0,
0,
0,
0,
0,
0,
0,
0,
0,
0,
0,
0,
0,
0,
0,
0,
0,
0,
0,
0,
0,
0,
0,
0,
0,
0,
0,
0,
0,
0,
0,
0,
0,
1,
0,
0,
0,
0,
0,
0,
0,
0,
0,
0,
0,
0,
0,
0,
0,
0,
0,
0,
0,
0,
0,
0,
0,
0,
0,
0,
0,
0,
0,
0,
0,
0,
0,
0,
0,
0,
0,
0,
0,
0,
0,
0,
0,
0,
0,
0,
0,
0,
0,
0,
0,
0,
0,
0,
0,
0,
0,
0,
0,
0,
0,
0,
0,
0,
0,
0,
0,
0,
0,
0,
0,
0,
0,
0,
0,
0,
0,
0,
0,
0,
0,
0,
0,
0,
0,
0,
0,
0,
0,
0,
0,
0,
0,
0,
0,
0,
0,
0,
0,
0,
0,
1,
0,
0,
0,
0,
0,
0,
0,
0,
0,
0,
0,
0,
0,
0,
0,
0,
0,
0,
0,
0,
0,
0,
0,
0,
0,
0,
0,
0,
0,
0,
0,
0,
0,
0,
0,
0,
0,
0,
0,
0,
0,
0,
0,
0,
0,
0,
0,
0,
0,
0,
0,
0,
0,
0,
0,
0,
0,
0,
0,
0,
0,
0,
0,
0,
0,
0,
0,
0,
0,
0,
0,
0,
0,
0,
0,
0,
0,
0,
0,
0,
0,
0,
0,
0,
0,
0,
0,
0,
0,
0,
0,
0,
0,
0,
0,
0,
0,
0,
0,
0,
0,
0,
0,
0,
0,
0,
0,
0,
0,
0,
0,
0,
0,
0,
0,
0,
0,
0,
0,
0,
0,
0,
0,
0,
0,
0,
0,
0,
0,
0,
0,
0,
0,
0,
0,
0,
0,
0,
0,
0,
0,
0,
0,
0,
0,
0,
0,
0,
0,
0,
0,
0,
0,
0,
0,
0,
0,
0,
0,
0,
0,
0,
0,
0,
0,
0,
0,
0,
0,
0,
0,
0,
0,
0,
0,
0,
0,
0,
0,
0,
0,
0,
0,
0,
0,
0,
0,
0,
0,
0,
0,
0,
0,
0,
0,
0,
0,
0,
0,
0,
0,
0,
0,
0,
0,
0,
0,
0,
0,
0,
0,
0,
0,
0,
0,
0,
0,
0,
0,
0,
0,
0,
0,
0,
0,
0,
0,
0,
0,
0,
0,
0,
0,
0,
0,
0,
0,
0,
0,
0,
0,
0,
0,
0,
0,
0,
0,
0,
0,
0,
0,
0,
0,
0,
0,
0,
0,
0,
0,
0,
0,
0,
0,
0,
0,
0,
0,
0,
0,
0,
0,
0,
0,
0,
0,
0,
0,
0,
0,
0,
0,
0,
0,
0,
0,
0,
0,
0,
0,
0,
0,
0,
0,
0,
0,
0,
0,
0,
0,
0,
0,
0,
0,
0,
0,
0,
0,
0,
0,
0,
0,
0,
0,
0,
0,
0,
0,
0,
0,
0,
0,
0,
0,
0,
0,
0,
0,
0,
0,
0,
0,
0,
0,
0,
0,
0,
0,
0,
0,
0,
0,
0,
0,
0,
0,
0,
0,
0,
0,
0,
0,
0,
0,
0,
0,
0,
0,
0,
0,
0,
0,
0,
0,
0,
0,
0,
0,
0,
0,
0,
0,
0,
0,
0,
0,
0,
0,
0,
0,
0,
0,
0,
0,
0,
0,
0,
0,
0,
0,
0,
0,
0,
0,
0,
0,
0,
0,
0,
0,
0,
0,
0,
0,
0,
0,
0,
0,
0,
0,
0,
0,
0,
0,
0,
0,
0,
0,
0,
0,
0,
0,
0,
0,
0,
0,
0,
0,
0,
0,
0,
0,
0,
0,
0,
0,
0,
0,
0,
0,
0,
0,
0,
0,
0,
0,
0,
0,
0,
0,
0,
0,
0,
0,
0,
0,
0,
0,
0,
0,
0,
0,
0,
0,
0,
0,
0,
0,
0,
0,
0,
0,
0,
0,
0,
0,
0,
0,
0,
0,
0,
0,
0,
0,
0,
0,
0,
0,
0,
0,
0,
0,
0,
0,
0,
0,
0,
0,
0,
0,
#ENDOFDATA   :