File: N132962/Quantification/15 keV/GMIIIA/GMIIIA K1235[8][4].msa
#FORMAT      : EMSA/MAS Spectral Data File
#VERSION     : 1.0
#TITLE       : GMIIIA K1235[8][all]
#DATE        : 22-SEP-2025
#TIME        : 23:23
#OWNER       : Unknown
#NPOINTS     : 4096
#NCOLUMNS    : 1
#XUNITS      : eV
#YUNITS      : counts
#DATATYPE    : Y
#XPERCHAN    : 9.99778
#OFFSET      : 1.69135
#BEAMKV      : 15
#SIGNALTYPE  : EDS
#ELEVANGLE   : 35
#AZIMANGLE   : 0
#LIVETIME    : 240.066
#REALTIME    : 255.97
#PROBECUR    : 1.21388
#TAUWIND     : 0
#TDEADLYR    : 0
#TACTLYR     : 0.045
#TALWIND     : 0.025
#CHOFFSET    : 0.0
#XLABEL      : Energy (eV)
#YLABEL      : Counts
#XPOSITION   : 9.24161
#YPOSITION   : 18.96833
#ZPOSITION   : 37.36299
#EDSDET      : SD
##SPECIMEN   : GMIIIA K1235[8][all]
##D2STDCMP   : K1235,(O:39.17),(Al:8.86),(Si:21.16),(Ca:12.15),(Pd:1.74),(Ba:15.23),(Hf:1.7)
##DET_HASH   : 12273538-fd48-a23f-0a19-f1e6fa85caef
##CALIB_HASH : 6abaa72c-aa41-8738-0be9-f592914732f3
##WORKING    : 15.0 mm
##DET_NAME   : EDAX All
##DET_MODE   : MediumLE
#SPECTRUM    :
28,
14,
14,
21,
118,
398,
1225,
3092,
7458,
10936,
9202,
6542,
5650,
5665,
8516,
27248,
98366,
185519,
135956,
38128,
8194,
4571,
4165,
4101,
4329,
5331,
6072,
5660,
4721,
4429,
4266,
4822,
5423,
6004,
6334,
6362,
5620,
5031,
5051,
4966,
5138,
5442,
5603,
5780,
5692,
6090,
6911,
13148,
36374,
70161,
70839,
38123,
15194,
8985,
10216,
18168,
52841,
124984,
166209,
118215,
48515,
17696,
9190,
5627,
4335,
4015,
3924,
3631,
3561,
3471,
3461,
3493,
3405,
3644,
3752,
3895,
3846,
3704,
3502,
3398,
3345,
3199,
3150,
3257,
3127,
3219,
3172,
3203,
3219,
3113,
3114,
3050,
3099,
3014,
3071,
2908,
2935,
2904,
2874,
2930,
2996,
2893,
2758,
2807,
2789,
2817,
2861,
2864,
2727,
2796,
2644,
2708,
2581,
2704,
2563,
2770,
2733,
2835,
3097,
4146,
8424,
18669,
33626,
42218,
35860,
20817,
9090,
4002,
2651,
2504,
2943,
3679,
5419,
6834,
7138,
6016,
4069,
2844,
2183,
2126,
1995,
2000,
2119,
2167,
2311,
3097,
4913,
8750,
13240,
15079,
12322,
7746,
4111,
2521,
1985,
1864,
1896,
2150,
3014,
4524,
6488,
7792,
7196,
5657,
4084,
3174,
2548,
2067,
1957,
2207,
2722,
3305,
3684,
3358,
2667,
1996,
1582,
1481,
1453,
1441,
1542,
1604,
1806,
1977,
2312,
2163,
2019,
1571,
1417,
1351,
1438,
1467,
1544,
1582,
1627,
1490,
1286,
1261,
1232,
1184,
1302,
1320,
1136,
1174,
1120,
1108,
1232,
1091,
1117,
1114,
1058,
1022,
1050,
1060,
1074,
1066,
1019,
1009,
1054,
974,
1029,
998,
1066,
1056,
944,
959,
880,
959,
898,
986,
877,
974,
957,
852,
959,
920,
910,
873,
892,
884,
887,
839,
918,
803,
877,
808,
864,
822,
868,
823,
814,
776,
773,
794,
776,
705,
751,
796,
717,
841,
774,
905,
964,
932,
882,
888,
854,
743,
725,
710,
748,
636,
683,
647,
638,
669,
640,
603,
677,
648,
631,
612,
611,
595,
601,
620,
587,
552,
596,
581,
579,
588,
580,
537,
574,
519,
555,
598,
565,
578,
595,
595,
610,
542,
566,
526,
526,
497,
531,
504,
515,
519,
529,
534,
494,
454,
485,
459,
445,
423,
418,
442,
420,
441,
456,
423,
402,
416,
387,
392,
405,
392,
408,
371,
420,
393,
379,
391,
346,
342,
350,
313,
335,
356,
324,
342,
345,
357,
325,
350,
346,
320,
301,
303,
326,
287,
321,
296,
307,
290,
274,
250,
253,
261,
282,
267,
271,
233,
254,
226,
210,
225,
239,
240,
242,
218,
206,
238,
230,
230,
203,
209,
221,
216,
212,
225,
200,
203,
201,
202,
195,
172,
170,
186,
171,
165,
188,
153,
169,
175,
179,
164,
154,
170,
152,
152,
146,
155,
129,
137,
133,
125,
132,
119,
131,
142,
125,
116,
135,
135,
130,
102,
135,
123,
111,
121,
108,
101,
99,
100,
92,
95,
96,
106,
92,
94,
83,
75,
76,
100,
81,
83,
86,
83,
90,
70,
70,
70,
77,
68,
83,
76,
60,
59,
63,
51,
58,
63,
46,
35,
43,
54,
48,
45,
37,
39,
35,
32,
44,
41,
35,
34,
38,
30,
22,
27,
15,
22,
22,
21,
25,
24,
19,
17,
19,
18,
20,
15,
12,
13,
9,
12,
5,
12,
8,
7,
3,
4,
4,
1,
2,
3,
0,
0,
0,
0,
0,
1,
1,
0,
0,
0,
0,
1,
1,
2,
2,
1,
1,
0,
2,
2,
0,
0,
0,
0,
1,
1,
0,
0,
1,
1,
0,
0,
0,
0,
1,
0,
0,
2,
0,
1,
0,
1,
0,
1,
0,
0,
0,
0,
1,
0,
0,
1,
0,
1,
1,
0,
0,
0,
0,
0,
0,
0,
1,
0,
0,
0,
0,
1,
1,
0,
0,
1,
0,
0,
0,
0,
1,
2,
0,
0,
0,
0,
0,
1,
1,
0,
0,
0,
0,
0,
0,
0,
0,
1,
0,
0,
0,
0,
1,
1,
0,
0,
0,
0,
0,
0,
0,
1,
0,
2,
0,
0,
1,
1,
0,
0,
0,
0,
0,
0,
0,
0,
0,
1,
0,
0,
0,
0,
1,
0,
0,
1,
0,
0,
0,
0,
0,
0,
0,
0,
0,
0,
0,
0,
0,
0,
0,
0,
0,
0,
0,
0,
0,
0,
0,
0,
0,
0,
0,
0,
0,
0,
0,
0,
0,
0,
1,
0,
0,
0,
0,
0,
0,
0,
0,
0,
0,
0,
0,
0,
0,
0,
0,
0,
0,
0,
0,
0,
0,
0,
0,
0,
0,
0,
0,
0,
0,
0,
0,
0,
0,
0,
0,
0,
0,
0,
0,
0,
0,
0,
0,
0,
0,
0,
0,
0,
0,
0,
0,
0,
0,
0,
0,
0,
0,
0,
0,
0,
0,
0,
0,
0,
0,
0,
0,
0,
0,
0,
0,
0,
0,
0,
0,
0,
0,
0,
0,
0,
0,
0,
0,
0,
0,
0,
0,
0,
0,
0,
0,
0,
0,
0,
0,
0,
0,
0,
0,
0,
0,
0,
0,
0,
0,
0,
0,
0,
0,
0,
0,
0,
0,
0,
0,
0,
0,
0,
0,
0,
0,
0,
0,
0,
0,
0,
0,
0,
0,
0,
0,
0,
0,
0,
0,
0,
0,
0,
0,
0,
0,
0,
0,
0,
0,
0,
0,
0,
0,
0,
0,
0,
0,
0,
0,
0,
0,
0,
0,
0,
0,
0,
0,
0,
0,
0,
0,
0,
0,
0,
0,
0,
0,
0,
0,
0,
0,
0,
0,
0,
0,
0,
0,
0,
0,
0,
0,
0,
0,
0,
0,
0,
0,
0,
0,
0,
0,
0,
0,
0,
0,
0,
0,
0,
0,
0,
0,
0,
0,
0,
0,
0,
0,
0,
0,
0,
0,
0,
0,
0,
0,
0,
0,
0,
0,
0,
0,
0,
0,
0,
0,
0,
0,
0,
0,
0,
0,
0,
0,
0,
0,
0,
0,
0,
0,
0,
0,
0,
0,
0,
0,
0,
0,
0,
0,
0,
0,
0,
0,
0,
0,
0,
0,
0,
0,
0,
0,
0,
0,
0,
0,
0,
0,
0,
0,
0,
0,
0,
0,
0,
0,
0,
0,
0,
0,
0,
0,
0,
0,
0,
0,
0,
0,
0,
0,
0,
0,
0,
0,
0,
0,
0,
0,
0,
0,
0,
0,
0,
0,
0,
0,
0,
0,
0,
0,
0,
0,
0,
0,
0,
0,
0,
0,
0,
0,
0,
0,
0,
0,
0,
0,
0,
0,
0,
0,
0,
0,
0,
0,
0,
0,
0,
0,
0,
0,
0,
0,
0,
0,
0,
0,
0,
0,
0,
0,
0,
0,
0,
0,
0,
0,
0,
0,
0,
0,
0,
0,
0,
0,
0,
0,
0,
0,
0,
0,
0,
0,
0,
0,
0,
0,
0,
0,
0,
0,
0,
0,
0,
0,
0,
0,
0,
0,
0,
0,
0,
0,
0,
0,
0,
0,
0,
0,
0,
0,
0,
0,
0,
0,
0,
0,
0,
0,
0,
0,
0,
0,
0,
0,
0,
0,
0,
0,
0,
0,
0,
0,
0,
0,
0,
0,
0,
0,
0,
0,
0,
0,
0,
0,
0,
0,
0,
0,
0,
0,
0,
0,
0,
0,
0,
0,
0,
0,
0,
0,
0,
0,
0,
0,
0,
0,
0,
0,
0,
0,
0,
0,
0,
0,
0,
0,
0,
0,
0,
0,
0,
0,
0,
0,
0,
0,
0,
0,
0,
0,
0,
0,
0,
0,
0,
0,
0,
0,
0,
0,
0,
0,
0,
0,
0,
0,
0,
0,
0,
0,
0,
0,
0,
0,
0,
0,
0,
0,
0,
0,
0,
0,
0,
0,
0,
0,
0,
0,
0,
0,
0,
0,
0,
0,
0,
0,
0,
0,
0,
0,
0,
0,
0,
0,
0,
0,
0,
0,
0,
0,
0,
0,
0,
0,
0,
0,
0,
0,
0,
0,
0,
0,
0,
0,
0,
0,
0,
0,
0,
0,
0,
0,
0,
0,
0,
0,
0,
0,
0,
0,
0,
0,
0,
0,
0,
0,
0,
0,
0,
0,
0,
0,
0,
0,
0,
0,
0,
0,
0,
0,
0,
0,
0,
0,
0,
0,
0,
0,
0,
0,
0,
0,
0,
0,
0,
0,
0,
0,
0,
0,
0,
0,
0,
0,
0,
0,
0,
0,
0,
0,
0,
0,
0,
0,
0,
0,
0,
0,
0,
0,
0,
0,
0,
0,
0,
0,
0,
0,
0,
0,
0,
0,
0,
0,
0,
0,
0,
0,
0,
0,
0,
0,
0,
0,
0,
0,
0,
0,
0,
0,
0,
0,
0,
0,
0,
0,
0,
0,
0,
0,
0,
0,
0,
0,
0,
0,
0,
0,
0,
0,
0,
0,
0,
0,
0,
0,
0,
0,
0,
0,
0,
#ENDOFDATA   :