File: N132962/Quantification/15 keV/GMIIIA/GMIIIA K227[2][4].msa
#FORMAT      : EMSA/MAS Spectral Data File
#VERSION     : 1.0
#TITLE       : GMIIIA K227[2][all]
#DATE        : 22-SEP-2025
#TIME        : 14:17
#OWNER       : Unknown
#NPOINTS     : 4096
#NCOLUMNS    : 1
#XUNITS      : eV
#YUNITS      : counts
#DATATYPE    : Y
#XPERCHAN    : 9.99778
#OFFSET      : 1.69135
#BEAMKV      : 15
#SIGNALTYPE  : EDS
#ELEVANGLE   : 35
#AZIMANGLE   : 0
#LIVETIME    : 240.363
#REALTIME    : 261.675
#PROBECUR    : 1.21983
#TAUWIND     : 0
#TDEADLYR    : 0
#TACTLYR     : 0.045
#TALWIND     : 0.025
#CHOFFSET    : 0.0
#XLABEL      : Energy (eV)
#YLABEL      : Counts
#XPOSITION   : 7.72232
#YPOSITION   : 0.43815
#ZPOSITION   : 37.36299
#EDSDET      : SD
##SPECIMEN   : GMIIIA K227[2][all]
##D2STDCMP   : K227,(O:16.39),(Si:9.35),(Pb:74.27)
##DET_HASH   : 12273538-fd48-a23f-0a19-f1e6fa85caef
##CALIB_HASH : 6abaa72c-aa41-8738-0be9-f592914732f3
##WORKING    : 15.0 mm
##DET_NAME   : EDAX All
##DET_MODE   : MediumLE
#SPECTRUM    :
28,
31,
19,
62,
280,
1191,
3155,
6833,
13021,
15512,
10895,
7905,
7386,
7271,
8589,
15807,
42643,
73822,
54600,
19845,
10498,
9863,
10866,
11158,
9404,
7616,
7645,
7816,
8066,
8001,
8168,
8485,
8682,
8661,
8904,
9089,
9190,
9197,
9406,
9593,
9713,
9721,
10091,
9896,
10155,
10271,
10208,
10421,
10610,
10983,
11007,
10940,
10693,
10822,
11158,
15856,
35402,
77181,
101003,
76946,
43206,
27736,
19771,
12801,
9670,
8977,
8526,
8505,
8440,
8441,
8964,
9631,
10918,
12034,
14034,
21915,
49019,
105107,
153432,
148411,
117485,
106230,
90780,
54185,
22692,
10275,
8249,
9857,
11806,
11318,
9008,
6486,
5340,
5195,
5243,
5352,
5509,
5649,
5616,
5820,
5956,
6401,
6926,
6853,
6703,
6117,
5498,
5317,
5130,
4891,
4884,
4773,
4817,
4817,
4877,
4905,
4996,
4984,
4916,
4910,
4724,
4609,
4748,
4623,
4841,
4696,
4758,
4754,
4517,
4556,
4491,
4467,
4463,
4568,
4386,
4595,
4502,
4503,
4611,
4548,
4474,
4350,
4404,
4270,
4448,
4205,
4210,
4236,
4398,
4391,
4482,
4488,
4352,
4131,
4156,
4113,
4142,
4208,
4148,
4128,
4145,
4081,
4111,
4028,
4097,
4000,
3909,
3901,
3863,
3783,
3801,
3696,
3766,
3884,
3679,
3702,
3696,
3638,
3726,
3677,
3632,
3630,
3541,
3613,
3594,
3483,
3542,
3375,
3381,
3471,
3416,
3385,
3390,
3364,
3213,
3352,
3360,
3291,
3228,
3288,
3305,
3349,
3276,
3169,
3214,
3229,
3160,
3152,
3101,
2998,
3117,
3089,
3074,
3149,
3061,
3048,
2952,
2905,
2911,
2813,
2896,
2903,
2812,
2810,
2788,
2804,
2693,
2731,
2748,
2721,
2682,
2652,
2661,
2657,
2659,
2662,
2565,
2618,
2564,
2539,
2493,
2433,
2538,
2469,
2468,
2434,
2435,
2469,
2530,
2456,
2361,
2417,
2300,
2271,
2267,
2320,
2302,
2250,
2304,
2237,
2258,
2223,
2200,
2229,
2134,
2233,
2129,
2111,
2035,
2038,
2069,
2033,
2095,
2018,
2082,
2062,
1940,
2065,
1986,
1919,
1980,
1957,
1919,
1872,
1881,
1849,
1843,
1810,
1821,
1921,
1745,
1809,
1755,
1832,
1732,
1767,
1809,
1694,
1705,
1719,
1684,
1726,
1667,
1673,
1719,
1708,
1839,
1639,
1597,
1574,
1518,
1505,
1558,
1531,
1496,
1544,
1375,
1498,
1498,
1458,
1446,
1381,
1419,
1457,
1424,
1369,
1405,
1313,
1350,
1322,
1303,
1308,
1333,
1289,
1239,
1276,
1295,
1304,
1258,
1230,
1192,
1203,
1191,
1250,
1223,
1242,
1440,
1584,
1890,
2216,
2451,
2687,
2728,
2310,
1854,
1591,
1271,
1110,
1048,
1074,
959,
1015,
1014,
1064,
989,
953,
940,
931,
926,
905,
915,
913,
900,
924,
853,
817,
797,
817,
852,
846,
832,
813,
762,
799,
769,
733,
746,
759,
696,
786,
787,
690,
641,
677,
678,
648,
694,
667,
684,
649,
683,
639,
629,
620,
614,
647,
580,
612,
596,
543,
538,
527,
548,
551,
565,
561,
566,
672,
719,
749,
735,
740,
672,
632,
571,
528,
453,
444,
422,
404,
441,
415,
429,
396,
412,
399,
392,
387,
305,
316,
357,
322,
304,
305,
288,
326,
304,
322,
279,
250,
291,
235,
267,
258,
242,
267,
250,
205,
219,
258,
206,
226,
191,
201,
187,
210,
190,
167,
199,
183,
164,
155,
140,
147,
143,
116,
143,
138,
111,
139,
104,
94,
100,
77,
91,
87,
83,
64,
71,
75,
55,
56,
46,
30,
37,
38,
21,
24,
14,
17,
9,
8,
5,
6,
6,
3,
1,
8,
5,
7,
3,
4,
3,
3,
6,
3,
5,
5,
4,
4,
6,
1,
4,
2,
3,
1,
3,
2,
6,
2,
3,
1,
1,
6,
2,
3,
2,
1,
3,
3,
1,
1,
4,
2,
1,
2,
2,
3,
4,
1,
4,
3,
1,
4,
0,
0,
1,
2,
2,
2,
1,
0,
2,
3,
3,
4,
1,
3,
1,
1,
1,
3,
5,
0,
1,
0,
4,
0,
0,
3,
0,
1,
1,
3,
1,
2,
0,
0,
3,
2,
0,
1,
3,
2,
0,
1,
4,
1,
2,
1,
1,
2,
0,
0,
0,
1,
0,
1,
1,
3,
1,
1,
1,
1,
2,
1,
1,
2,
0,
2,
1,
2,
0,
0,
0,
3,
1,
0,
1,
1,
2,
1,
3,
4,
4,
1,
4,
0,
1,
0,
0,
1,
0,
0,
0,
0,
0,
1,
0,
0,
0,
1,
1,
0,
1,
0,
0,
0,
0,
0,
0,
0,
3,
0,
2,
1,
0,
0,
1,
2,
2,
1,
0,
2,
1,
0,
0,
1,
1,
2,
0,
0,
1,
1,
0,
0,
0,
0,
0,
0,
0,
0,
0,
0,
0,
0,
1,
0,
0,
1,
1,
1,
1,
2,
0,
0,
0,
1,
1,
2,
0,
2,
0,
1,
0,
0,
1,
0,
0,
2,
0,
0,
0,
0,
1,
0,
0,
0,
0,
0,
1,
0,
0,
0,
0,
0,
0,
1,
0,
0,
0,
0,
0,
1,
0,
0,
0,
1,
0,
0,
0,
0,
1,
0,
0,
0,
0,
0,
0,
0,
0,
0,
0,
0,
0,
0,
0,
0,
0,
0,
0,
0,
0,
0,
0,
0,
0,
0,
0,
0,
0,
0,
0,
0,
0,
0,
0,
0,
0,
0,
1,
0,
0,
0,
0,
0,
0,
0,
0,
0,
0,
0,
0,
0,
0,
0,
0,
0,
0,
0,
0,
0,
0,
0,
0,
0,
0,
0,
0,
0,
0,
0,
1,
0,
0,
0,
0,
0,
0,
0,
0,
0,
0,
1,
0,
0,
0,
1,
0,
0,
0,
0,
0,
0,
0,
0,
0,
0,
0,
0,
0,
0,
1,
0,
0,
0,
0,
0,
0,
0,
0,
0,
1,
0,
0,
0,
0,
0,
0,
0,
0,
0,
0,
0,
0,
0,
0,
0,
0,
0,
0,
0,
0,
0,
0,
0,
0,
0,
0,
0,
0,
0,
0,
0,
0,
0,
0,
0,
0,
0,
0,
0,
0,
0,
0,
0,
0,
0,
0,
0,
0,
0,
0,
0,
0,
0,
0,
0,
1,
0,
0,
0,
0,
0,
0,
0,
0,
0,
0,
0,
0,
0,
0,
0,
0,
0,
0,
0,
0,
0,
0,
0,
0,
0,
0,
0,
0,
0,
0,
0,
0,
0,
0,
0,
0,
0,
0,
0,
0,
0,
0,
0,
0,
0,
0,
0,
0,
0,
0,
0,
0,
0,
0,
0,
0,
0,
0,
0,
0,
0,
0,
0,
0,
0,
0,
0,
0,
0,
0,
0,
0,
0,
0,
0,
0,
0,
0,
0,
0,
0,
0,
0,
0,
0,
0,
0,
0,
0,
0,
0,
0,
0,
0,
0,
0,
0,
0,
0,
0,
0,
0,
0,
0,
0,
0,
0,
0,
0,
0,
0,
0,
0,
0,
0,
0,
0,
0,
0,
0,
0,
0,
0,
0,
0,
0,
0,
0,
0,
0,
0,
0,
0,
0,
0,
0,
0,
0,
0,
0,
0,
0,
0,
0,
0,
0,
0,
0,
0,
0,
0,
0,
0,
0,
0,
0,
0,
0,
0,
0,
0,
0,
0,
0,
0,
0,
0,
0,
0,
0,
0,
0,
0,
0,
0,
0,
0,
0,
0,
0,
0,
0,
0,
0,
0,
0,
0,
0,
0,
0,
0,
0,
0,
0,
0,
0,
0,
0,
0,
0,
0,
0,
0,
0,
0,
0,
0,
0,
0,
0,
0,
0,
0,
0,
0,
0,
0,
0,
0,
0,
0,
0,
0,
0,
0,
0,
0,
0,
0,
0,
0,
0,
0,
0,
0,
0,
0,
0,
0,
0,
0,
0,
0,
0,
0,
0,
0,
0,
0,
0,
0,
0,
0,
0,
0,
0,
0,
0,
0,
0,
0,
0,
0,
0,
0,
0,
0,
0,
0,
0,
0,
0,
0,
0,
0,
0,
0,
0,
0,
0,
0,
0,
0,
0,
0,
0,
0,
0,
0,
0,
0,
0,
0,
0,
0,
0,
0,
0,
0,
0,
0,
0,
0,
0,
0,
0,
0,
0,
0,
0,
0,
0,
0,
0,
0,
0,
0,
0,
0,
0,
0,
0,
0,
0,
0,
0,
0,
0,
0,
0,
0,
0,
0,
0,
0,
0,
0,
0,
0,
0,
0,
0,
0,
0,
0,
0,
0,
0,
0,
0,
0,
0,
0,
0,
0,
0,
0,
0,
0,
0,
0,
0,
0,
0,
0,
0,
0,
0,
0,
0,
0,
0,
0,
0,
0,
0,
0,
0,
0,
0,
0,
0,
0,
0,
0,
0,
0,
0,
0,
0,
0,
0,
0,
0,
0,
0,
0,
0,
0,
0,
0,
0,
0,
0,
0,
0,
0,
0,
0,
0,
0,
0,
0,
0,
0,
0,
0,
0,
0,
0,
0,
0,
0,
0,
0,
0,
0,
0,
0,
0,
0,
0,
0,
0,
0,
0,
0,
0,
0,
0,
0,
0,
0,
0,
0,
0,
0,
#ENDOFDATA   :