File: N132962/Quantification/15 keV/GMIIIA/GMIIIA K1008[5][4].msa
#FORMAT      : EMSA/MAS Spectral Data File
#VERSION     : 1.0
#TITLE       : GMIIIA K1008[5][all]
#DATE        : 22-SEP-2025
#TIME        : 21:47
#OWNER       : Unknown
#NPOINTS     : 4096
#NCOLUMNS    : 1
#XUNITS      : eV
#YUNITS      : counts
#DATATYPE    : Y
#XPERCHAN    : 9.99778
#OFFSET      : 1.69135
#BEAMKV      : 15
#SIGNALTYPE  : EDS
#ELEVANGLE   : 35
#AZIMANGLE   : 0
#LIVETIME    : 240.025
#REALTIME    : 256.547
#PROBECUR    : 1.21615
#TAUWIND     : 0
#TDEADLYR    : 0
#TACTLYR     : 0.045
#TALWIND     : 0.025
#CHOFFSET    : 0.0
#XLABEL      : Energy (eV)
#YLABEL      : Counts
#XPOSITION   : 11.44434
#YPOSITION   : 15.13162
#ZPOSITION   : 37.36299
#EDSDET      : SD
##SPECIMEN   : GMIIIA K1008[5][all]
##D2STDCMP   : K1008,(O:38.68),(Na:1.67),(Al:8.92),(Si:21.02),(Ca:6.75),(Rb:2.06),(Sr:10.05),(Zr:0.83),(Cs:2.12),(Ba:2.02),(Ho:1.96),(Tm:1.97),(Yb:1.98)
##DET_HASH   : 12273538-fd48-a23f-0a19-f1e6fa85caef
##CALIB_HASH : 6abaa72c-aa41-8738-0be9-f592914732f3
##WORKING    : 15.0 mm
##DET_NAME   : EDAX All
##DET_MODE   : MediumLE
#SPECTRUM    :
23,
31,
12,
24,
128,
436,
1145,
2795,
6341,
8623,
6831,
4906,
4759,
5264,
8097,
25445,
91171,
172012,
124576,
34208,
6196,
3762,
3939,
4308,
4293,
4524,
4760,
4777,
4836,
5071,
5228,
5512,
6335,
10000,
16009,
17391,
11450,
7273,
6512,
6470,
6400,
6305,
6337,
7049,
8647,
10450,
11411,
17751,
44005,
83508,
86588,
50300,
22599,
12160,
10204,
18826,
56992,
133369,
180312,
143271,
83391,
48701,
28755,
16622,
9563,
6340,
5240,
5006,
5212,
4613,
4365,
4048,
3829,
3725,
3730,
3734,
3634,
3391,
3314,
3230,
3153,
3071,
3106,
3029,
3044,
3102,
3059,
3016,
3024,
2797,
2970,
3032,
2940,
2944,
2882,
2915,
2799,
2818,
2810,
2790,
2830,
2851,
2791,
2743,
2713,
2792,
2849,
2798,
2751,
2744,
2744,
2600,
2606,
2464,
2572,
2642,
2672,
2810,
2962,
3410,
5673,
11706,
19599,
24434,
20568,
12682,
5901,
3185,
2615,
2360,
2549,
2818,
3767,
4507,
4751,
4147,
3109,
2468,
2211,
2240,
2376,
3037,
3726,
3935,
3530,
2893,
2576,
2818,
3344,
3690,
3288,
2767,
2599,
2642,
2637,
2676,
2404,
2212,
2152,
2210,
2379,
2619,
2517,
2382,
2197,
2117,
1974,
1774,
1759,
1651,
1749,
1821,
1903,
1789,
1731,
1685,
1646,
1589,
1499,
1489,
1504,
1474,
1496,
1620,
1588,
1481,
1560,
1403,
1350,
1368,
1328,
1382,
1323,
1328,
1349,
1267,
1356,
1234,
1283,
1213,
1183,
1202,
1204,
1194,
1194,
1173,
1145,
1185,
1187,
1151,
1172,
1135,
1187,
1125,
1143,
1113,
1079,
1093,
1074,
1101,
1141,
1291,
1420,
1593,
1573,
1544,
1357,
1162,
1015,
931,
984,
950,
955,
975,
1023,
1012,
1151,
1216,
1404,
1434,
1379,
1292,
1124,
1031,
1104,
1120,
1259,
1354,
1365,
1317,
1244,
1100,
1056,
965,
939,
864,
807,
777,
733,
808,
786,
782,
818,
850,
818,
825,
864,
833,
824,
842,
933,
827,
813,
807,
736,
770,
681,
813,
732,
816,
897,
838,
821,
758,
785,
692,
631,
630,
661,
670,
705,
696,
673,
631,
627,
626,
569,
541,
531,
561,
540,
521,
506,
502,
547,
494,
522,
474,
480,
494,
465,
470,
471,
493,
506,
503,
470,
499,
470,
430,
438,
427,
430,
447,
437,
427,
432,
430,
439,
465,
412,
374,
415,
423,
362,
388,
382,
337,
380,
387,
345,
373,
342,
322,
336,
356,
337,
348,
299,
346,
323,
305,
288,
298,
324,
322,
325,
299,
314,
278,
247,
286,
317,
286,
268,
292,
289,
265,
246,
254,
271,
268,
245,
241,
260,
253,
230,
245,
249,
261,
237,
222,
223,
206,
201,
225,
203,
224,
199,
201,
207,
174,
211,
183,
161,
194,
177,
205,
172,
175,
187,
145,
182,
165,
177,
170,
150,
152,
148,
157,
160,
140,
140,
169,
140,
123,
128,
126,
110,
122,
128,
120,
113,
111,
95,
117,
119,
77,
111,
96,
115,
100,
92,
76,
92,
96,
111,
101,
99,
91,
93,
76,
72,
85,
87,
77,
71,
72,
72,
51,
69,
64,
68,
69,
68,
57,
72,
51,
70,
51,
54,
44,
55,
36,
52,
33,
49,
35,
39,
38,
34,
34,
30,
42,
33,
22,
28,
30,
33,
30,
26,
24,
13,
16,
24,
21,
17,
15,
16,
18,
9,
12,
12,
5,
7,
7,
4,
7,
4,
0,
2,
2,
0,
0,
1,
3,
0,
2,
0,
2,
1,
0,
0,
0,
0,
0,
0,
0,
1,
1,
0,
2,
1,
0,
0,
3,
0,
0,
0,
1,
1,
1,
0,
0,
0,
1,
0,
0,
1,
1,
0,
1,
1,
1,
0,
1,
1,
0,
1,
1,
0,
0,
1,
0,
0,
0,
1,
1,
1,
1,
0,
0,
0,
0,
2,
0,
2,
0,
0,
0,
1,
0,
0,
0,
0,
1,
0,
1,
1,
0,
0,
0,
0,
0,
0,
0,
0,
0,
1,
0,
1,
0,
0,
0,
1,
0,
0,
0,
0,
0,
1,
0,
0,
0,
0,
0,
0,
0,
0,
0,
0,
0,
0,
0,
0,
0,
0,
0,
0,
0,
0,
0,
0,
0,
0,
0,
2,
0,
0,
0,
0,
1,
0,
0,
0,
0,
1,
0,
0,
0,
0,
0,
0,
0,
0,
0,
0,
0,
0,
0,
0,
0,
0,
0,
0,
0,
0,
1,
0,
0,
0,
0,
1,
0,
0,
0,
0,
0,
0,
1,
0,
0,
0,
0,
0,
0,
1,
0,
0,
0,
0,
0,
0,
1,
0,
0,
0,
0,
0,
0,
0,
0,
0,
0,
0,
0,
0,
0,
0,
0,
0,
0,
0,
1,
0,
0,
0,
0,
0,
0,
0,
0,
0,
0,
0,
0,
0,
0,
0,
0,
0,
0,
0,
0,
0,
0,
0,
0,
0,
0,
0,
0,
0,
0,
0,
0,
0,
0,
0,
0,
0,
0,
0,
0,
0,
0,
0,
0,
0,
0,
0,
0,
0,
0,
0,
0,
0,
0,
0,
0,
0,
0,
0,
0,
0,
0,
0,
0,
0,
0,
0,
0,
0,
0,
0,
0,
0,
0,
0,
0,
0,
0,
0,
0,
0,
0,
0,
0,
0,
0,
0,
0,
0,
0,
0,
0,
0,
0,
0,
0,
0,
0,
0,
0,
0,
0,
0,
0,
0,
0,
0,
0,
0,
0,
0,
0,
0,
0,
0,
0,
0,
0,
0,
0,
0,
0,
0,
0,
0,
0,
0,
0,
0,
0,
0,
0,
0,
0,
0,
0,
0,
0,
0,
0,
0,
0,
0,
0,
0,
0,
0,
0,
0,
0,
0,
0,
0,
0,
0,
0,
0,
0,
0,
0,
0,
0,
0,
0,
0,
0,
0,
0,
0,
0,
0,
0,
0,
0,
0,
0,
0,
0,
0,
0,
0,
0,
0,
0,
0,
0,
0,
0,
0,
0,
0,
0,
0,
0,
0,
0,
0,
0,
0,
0,
0,
0,
0,
0,
0,
0,
0,
0,
0,
0,
0,
0,
0,
0,
0,
0,
0,
0,
0,
0,
0,
0,
0,
0,
0,
0,
0,
0,
0,
0,
0,
0,
0,
0,
0,
0,
0,
0,
0,
0,
0,
0,
0,
0,
0,
0,
0,
0,
0,
0,
0,
0,
0,
0,
0,
0,
0,
0,
0,
0,
0,
0,
0,
0,
0,
0,
0,
0,
0,
0,
0,
0,
0,
0,
0,
0,
0,
0,
0,
0,
0,
0,
0,
0,
0,
0,
0,
0,
0,
0,
0,
0,
0,
0,
0,
0,
0,
0,
0,
0,
0,
0,
0,
0,
0,
0,
0,
0,
0,
0,
0,
0,
0,
0,
0,
0,
0,
0,
0,
0,
0,
0,
0,
0,
0,
0,
0,
0,
0,
0,
0,
0,
0,
0,
0,
0,
0,
0,
0,
0,
0,
0,
0,
0,
0,
0,
0,
0,
0,
0,
0,
0,
0,
0,
0,
0,
0,
0,
0,
0,
0,
0,
0,
0,
0,
0,
0,
0,
0,
0,
0,
0,
0,
0,
0,
0,
0,
0,
0,
0,
0,
0,
0,
0,
0,
0,
0,
0,
0,
0,
0,
0,
0,
0,
0,
0,
0,
0,
0,
0,
0,
0,
0,
0,
0,
0,
0,
0,
0,
0,
0,
0,
0,
0,
0,
0,
0,
0,
0,
0,
0,
0,
0,
0,
0,
0,
0,
0,
0,
0,
0,
0,
0,
0,
0,
0,
0,
0,
0,
0,
0,
0,
0,
0,
0,
0,
0,
0,
0,
0,
0,
0,
0,
0,
0,
0,
0,
0,
0,
0,
0,
0,
0,
0,
0,
0,
0,
0,
0,
0,
0,
0,
0,
0,
0,
0,
0,
0,
0,
0,
0,
0,
0,
0,
0,
0,
0,
0,
0,
0,
0,
0,
0,
0,
0,
0,
0,
0,
0,
0,
0,
0,
0,
0,
0,
0,
0,
0,
0,
0,
0,
0,
0,
0,
0,
0,
0,
0,
0,
0,
0,
0,
0,
0,
0,
0,
0,
0,
0,
0,
0,
0,
0,
0,
0,
0,
0,
0,
0,
0,
0,
0,
0,
0,
0,
0,
0,
0,
0,
0,
0,
0,
0,
0,
0,
0,
0,
0,
0,
0,
0,
0,
0,
0,
0,
0,
0,
0,
0,
0,
0,
0,
0,
0,
0,
0,
0,
0,
0,
0,
0,
0,
0,
0,
0,
0,
0,
0,
0,
0,
0,
0,
0,
0,
0,
0,
0,
0,
0,
0,
0,
0,
0,
0,
0,
0,
0,
0,
0,
0,
0,
0,
0,
0,
0,
0,
0,
0,
0,
0,
0,
0,
0,
0,
0,
0,
0,
0,
0,
0,
0,
0,
0,
0,
0,
0,
0,
0,
0,
0,
0,
0,
0,
0,
0,
0,
0,
0,
0,
0,
0,
0,
0,
0,
0,
0,
0,
0,
0,
0,
0,
0,
#ENDOFDATA   :