File: N132962/Quantification/15 keV/GMIIIA/GMIIIA K1235[7][4].msa
#FORMAT      : EMSA/MAS Spectral Data File
#VERSION     : 1.0
#TITLE       : GMIIIA K1235[7][all]
#DATE        : 22-SEP-2025
#TIME        : 23:22
#OWNER       : Unknown
#NPOINTS     : 4096
#NCOLUMNS    : 1
#XUNITS      : eV
#YUNITS      : counts
#DATATYPE    : Y
#XPERCHAN    : 9.99778
#OFFSET      : 1.69135
#BEAMKV      : 15
#SIGNALTYPE  : EDS
#ELEVANGLE   : 35
#AZIMANGLE   : 0
#LIVETIME    : 240.042
#REALTIME    : 255.92
#PROBECUR    : 1.21388
#TAUWIND     : 0
#TDEADLYR    : 0
#TACTLYR     : 0.045
#TALWIND     : 0.025
#CHOFFSET    : 0.0
#XLABEL      : Energy (eV)
#YLABEL      : Counts
#XPOSITION   : 9.25745
#YPOSITION   : 18.99052
#ZPOSITION   : 37.36299
#EDSDET      : SD
##SPECIMEN   : GMIIIA K1235[7][all]
##D2STDCMP   : K1235,(O:39.17),(Al:8.86),(Si:21.16),(Ca:12.15),(Pd:1.74),(Ba:15.23),(Hf:1.7)
##DET_HASH   : 12273538-fd48-a23f-0a19-f1e6fa85caef
##CALIB_HASH : 6abaa72c-aa41-8738-0be9-f592914732f3
##WORKING    : 15.0 mm
##DET_NAME   : EDAX All
##DET_MODE   : MediumLE
#SPECTRUM    :
17,
24,
12,
17,
122,
451,
1295,
3501,
9138,
12925,
9598,
6395,
5317,
5613,
8518,
26930,
96876,
183150,
133818,
37593,
8014,
4679,
4140,
4405,
4300,
5255,
6034,
5567,
4656,
4365,
4385,
4755,
5456,
5822,
6263,
6100,
5651,
5265,
4934,
5111,
5070,
5454,
5673,
5833,
5840,
6084,
6889,
13166,
36031,
69423,
70577,
38411,
15207,
9185,
10261,
18604,
52916,
125416,
167126,
118511,
48759,
17762,
9078,
5703,
4261,
4125,
3890,
3704,
3648,
3513,
3433,
3405,
3515,
3502,
3648,
3796,
3954,
3813,
3380,
3324,
3275,
3176,
3225,
3191,
3171,
3263,
3198,
3233,
3112,
3174,
3132,
3038,
3063,
3113,
3014,
2891,
2907,
2922,
2939,
2942,
2869,
2915,
2850,
2755,
2768,
2807,
2828,
2876,
2923,
2721,
2580,
2648,
2565,
2539,
2646,
2714,
2755,
2806,
3049,
4175,
8301,
18414,
33769,
42059,
35467,
20823,
8994,
4031,
2755,
2540,
2925,
3683,
5369,
6646,
7112,
5907,
4135,
2787,
2185,
2003,
2100,
1965,
2062,
2088,
2334,
3127,
5107,
8813,
13224,
14903,
12269,
7657,
4069,
2490,
1915,
1789,
1845,
2178,
2980,
4645,
6566,
7775,
7118,
5524,
4135,
3196,
2473,
2130,
2017,
2156,
2714,
3353,
3537,
3348,
2664,
2039,
1562,
1480,
1485,
1444,
1465,
1657,
1818,
1991,
2176,
2073,
1976,
1665,
1437,
1334,
1364,
1403,
1524,
1537,
1527,
1514,
1339,
1281,
1238,
1228,
1178,
1200,
1163,
1161,
1113,
1158,
1172,
1174,
1129,
1129,
1107,
1064,
1095,
1123,
1093,
1036,
996,
1044,
988,
1021,
986,
988,
969,
995,
1006,
968,
951,
965,
964,
1000,
934,
905,
917,
933,
862,
827,
815,
865,
850,
823,
852,
854,
840,
855,
840,
759,
832,
833,
853,
749,
770,
773,
813,
764,
786,
781,
770,
772,
828,
833,
803,
841,
904,
1018,
938,
897,
771,
745,
695,
727,
694,
691,
661,
710,
680,
628,
646,
688,
612,
604,
575,
606,
614,
629,
574,
592,
545,
570,
601,
540,
554,
573,
600,
539,
568,
539,
553,
547,
558,
583,
615,
570,
532,
592,
536,
524,
523,
503,
497,
520,
502,
498,
481,
520,
504,
441,
448,
422,
460,
473,
427,
429,
411,
440,
402,
391,
412,
382,
415,
402,
429,
386,
393,
397,
383,
390,
374,
392,
393,
394,
390,
358,
352,
349,
314,
320,
358,
330,
340,
328,
334,
337,
315,
347,
318,
294,
288,
284,
286,
304,
304,
286,
297,
281,
282,
272,
270,
266,
266,
262,
213,
253,
256,
229,
240,
199,
227,
244,
237,
203,
187,
218,
217,
218,
233,
225,
221,
221,
214,
201,
194,
202,
185,
175,
172,
178,
175,
184,
178,
161,
151,
160,
149,
149,
145,
166,
167,
172,
155,
142,
140,
141,
150,
152,
124,
120,
144,
110,
118,
121,
124,
139,
105,
116,
130,
116,
127,
111,
106,
107,
96,
104,
87,
88,
110,
99,
85,
80,
82,
104,
87,
71,
76,
83,
73,
76,
66,
71,
69,
61,
69,
49,
66,
58,
53,
42,
69,
51,
57,
50,
54,
45,
40,
56,
47,
42,
40,
43,
39,
30,
35,
41,
36,
28,
30,
21,
28,
22,
20,
16,
21,
21,
17,
19,
22,
22,
19,
14,
13,
13,
6,
10,
6,
7,
10,
9,
6,
4,
2,
6,
2,
1,
1,
0,
1,
1,
2,
1,
3,
0,
1,
0,
1,
0,
0,
1,
0,
0,
0,
0,
1,
0,
1,
1,
0,
0,
1,
0,
0,
1,
1,
2,
0,
1,
0,
0,
1,
0,
0,
1,
0,
0,
0,
0,
0,
0,
3,
0,
0,
1,
0,
0,
0,
0,
2,
0,
1,
0,
0,
0,
2,
0,
0,
0,
0,
0,
0,
1,
0,
1,
0,
0,
1,
0,
1,
1,
0,
0,
0,
0,
0,
0,
1,
1,
1,
0,
0,
0,
0,
0,
0,
1,
0,
0,
0,
0,
0,
0,
0,
3,
1,
0,
0,
0,
0,
0,
0,
0,
0,
0,
0,
0,
0,
0,
0,
0,
0,
0,
0,
1,
0,
1,
0,
0,
0,
0,
0,
0,
0,
0,
0,
0,
1,
0,
0,
0,
0,
0,
1,
0,
0,
0,
0,
0,
0,
0,
0,
0,
0,
0,
0,
0,
0,
0,
0,
0,
0,
0,
0,
0,
0,
0,
0,
0,
0,
0,
0,
0,
0,
0,
0,
0,
0,
0,
0,
0,
0,
0,
0,
0,
0,
0,
0,
0,
0,
0,
0,
0,
0,
0,
0,
0,
0,
0,
0,
0,
0,
0,
0,
0,
0,
0,
0,
0,
0,
0,
0,
0,
0,
0,
0,
0,
0,
0,
0,
0,
0,
0,
0,
0,
0,
0,
0,
0,
0,
0,
0,
0,
0,
0,
0,
0,
0,
0,
0,
0,
0,
0,
0,
0,
0,
0,
0,
0,
0,
0,
0,
0,
0,
0,
0,
0,
0,
0,
0,
0,
0,
0,
0,
0,
0,
0,
0,
0,
0,
0,
0,
0,
0,
0,
0,
0,
0,
0,
0,
0,
0,
0,
0,
0,
0,
0,
0,
0,
0,
0,
0,
0,
0,
0,
0,
0,
0,
0,
0,
0,
0,
0,
0,
0,
0,
0,
0,
0,
0,
0,
0,
0,
0,
0,
0,
0,
0,
0,
0,
0,
0,
0,
0,
0,
0,
0,
0,
0,
0,
0,
0,
0,
0,
0,
0,
0,
0,
0,
0,
0,
0,
0,
0,
0,
0,
0,
0,
0,
0,
0,
0,
0,
0,
0,
0,
0,
0,
0,
0,
0,
0,
0,
0,
0,
0,
0,
0,
0,
0,
0,
0,
0,
0,
0,
0,
0,
0,
0,
0,
0,
0,
0,
0,
0,
0,
0,
0,
0,
0,
0,
0,
0,
0,
0,
0,
0,
0,
0,
0,
0,
0,
0,
0,
0,
0,
0,
0,
0,
0,
0,
0,
0,
0,
0,
0,
0,
0,
0,
0,
0,
0,
0,
0,
0,
0,
0,
0,
0,
0,
0,
0,
0,
0,
0,
0,
0,
0,
0,
0,
0,
0,
0,
0,
0,
0,
0,
0,
0,
0,
0,
0,
0,
0,
0,
0,
0,
0,
0,
0,
0,
0,
0,
0,
0,
0,
0,
0,
0,
0,
0,
0,
0,
0,
0,
0,
0,
0,
0,
0,
0,
0,
0,
0,
0,
0,
0,
0,
0,
0,
0,
0,
0,
0,
0,
0,
0,
0,
0,
0,
0,
0,
0,
0,
0,
0,
0,
0,
0,
0,
0,
0,
0,
0,
0,
0,
0,
0,
0,
0,
0,
0,
0,
0,
0,
0,
0,
0,
0,
0,
0,
0,
0,
0,
0,
0,
0,
0,
0,
0,
0,
0,
0,
0,
0,
0,
0,
0,
0,
0,
0,
0,
0,
0,
0,
0,
0,
0,
0,
0,
0,
0,
0,
0,
0,
0,
0,
0,
0,
0,
0,
0,
0,
0,
0,
0,
0,
0,
0,
0,
0,
0,
0,
0,
0,
0,
0,
0,
0,
0,
0,
0,
0,
0,
0,
0,
0,
0,
0,
0,
0,
0,
0,
0,
0,
0,
0,
0,
0,
0,
0,
0,
0,
0,
0,
0,
0,
0,
0,
0,
0,
0,
0,
0,
0,
0,
0,
0,
0,
0,
0,
0,
0,
0,
0,
0,
0,
0,
0,
0,
0,
0,
0,
0,
0,
0,
0,
0,
0,
0,
0,
0,
0,
0,
0,
0,
0,
0,
0,
0,
0,
0,
0,
0,
0,
0,
0,
0,
0,
0,
0,
0,
0,
0,
0,
0,
0,
0,
0,
0,
0,
0,
0,
0,
0,
0,
0,
0,
0,
0,
0,
0,
0,
0,
0,
0,
0,
0,
0,
0,
0,
0,
0,
0,
0,
0,
0,
0,
0,
0,
0,
0,
0,
0,
0,
0,
0,
0,
0,
0,
0,
0,
0,
0,
0,
0,
0,
0,
0,
0,
0,
0,
0,
0,
0,
0,
0,
0,
0,
0,
0,
0,
0,
0,
0,
0,
0,
0,
0,
0,
0,
0,
0,
0,
0,
0,
0,
0,
0,
0,
0,
0,
0,
0,
0,
0,
0,
0,
0,
0,
0,
0,
0,
0,
0,
0,
0,
0,
0,
0,
0,
0,
0,
0,
0,
0,
0,
0,
0,
0,
0,
0,
0,
0,
0,
0,
0,
0,
0,
0,
0,
0,
0,
0,
0,
0,
0,
0,
0,
0,
0,
0,
0,
0,
0,
0,
0,
0,
0,
0,
0,
0,
0,
0,
0,
0,
0,
0,
0,
0,
0,
0,
0,
0,
0,
0,
0,
0,
0,
0,
0,
0,
0,
0,
0,
0,
0,
0,
0,
0,
0,
0,
0,
0,
0,
0,
0,
0,
0,
0,
0,
0,
0,
0,
0,
0,
0,
0,
0,
0,
0,
#ENDOFDATA   :