File: N132962/Quantification/15 keV/GMIIIA/GMIIIA K227[5][4].msa
#FORMAT      : EMSA/MAS Spectral Data File
#VERSION     : 1.0
#TITLE       : GMIIIA K227[5][all]
#DATE        : 22-SEP-2025
#TIME        : 14:21
#OWNER       : Unknown
#NPOINTS     : 4096
#NCOLUMNS    : 1
#XUNITS      : eV
#YUNITS      : counts
#DATATYPE    : Y
#XPERCHAN    : 9.99778
#OFFSET      : 1.69135
#BEAMKV      : 15
#SIGNALTYPE  : EDS
#ELEVANGLE   : 35
#AZIMANGLE   : 0
#LIVETIME    : 240.2368
#REALTIME    : 261.551
#PROBECUR    : 1.21983
#TAUWIND     : 0
#TDEADLYR    : 0
#TACTLYR     : 0.045
#TALWIND     : 0.025
#CHOFFSET    : 0.0
#XLABEL      : Energy (eV)
#YLABEL      : Counts
#XPOSITION   : 7.67287
#YPOSITION   : 0.38588
#ZPOSITION   : 37.36299
#EDSDET      : SD
##SPECIMEN   : GMIIIA K227[5][all]
##D2STDCMP   : K227,(O:16.39),(Si:9.35),(Pb:74.27)
##DET_HASH   : 12273538-fd48-a23f-0a19-f1e6fa85caef
##CALIB_HASH : 6abaa72c-aa41-8738-0be9-f592914732f3
##WORKING    : 15.0 mm
##DET_NAME   : EDAX All
##DET_MODE   : MediumLE
#SPECTRUM    :
27,
27,
21,
52,
330,
1191,
3103,
7009,
13245,
15893,
11200,
7843,
7428,
7369,
8348,
15793,
42210,
73395,
54705,
19859,
10611,
9722,
10964,
11348,
9336,
7749,
7639,
7737,
8050,
8399,
8443,
8397,
8361,
8836,
8788,
9047,
9113,
9284,
9639,
9594,
9727,
9817,
9848,
10062,
10114,
10177,
10298,
10538,
10832,
10765,
10798,
10855,
10798,
10829,
11400,
15626,
35383,
76780,
101015,
77729,
42801,
27729,
19380,
12758,
9764,
8806,
8678,
8466,
8308,
8479,
8881,
9732,
10883,
12076,
13864,
22034,
49098,
104996,
153935,
147745,
117727,
106917,
91045,
53778,
22815,
10102,
8152,
9809,
11686,
11297,
8903,
6562,
5423,
5213,
5174,
5466,
5528,
5638,
5586,
5764,
6005,
6383,
6930,
6945,
6713,
6061,
5578,
5301,
5147,
5120,
4968,
4955,
4756,
4890,
4904,
4914,
4994,
5108,
4738,
4862,
4672,
4697,
4685,
4620,
4855,
4729,
4684,
4669,
4725,
4467,
4580,
4502,
4461,
4435,
4533,
4514,
4563,
4698,
4520,
4498,
4369,
4349,
4499,
4176,
4267,
4275,
4297,
4125,
4385,
4357,
4456,
4406,
4315,
4300,
4141,
4053,
4207,
4236,
4167,
4130,
4244,
4085,
3971,
4002,
4010,
3979,
3985,
3926,
3958,
3827,
3825,
3643,
3806,
3693,
3722,
3668,
3708,
3715,
3642,
3611,
3633,
3642,
3587,
3542,
3515,
3600,
3464,
3537,
3496,
3387,
3478,
3380,
3462,
3267,
3364,
3406,
3295,
3364,
3216,
3253,
3187,
3198,
3156,
3128,
3104,
3094,
3115,
3013,
3124,
3053,
3010,
3021,
3093,
3065,
3055,
3035,
2976,
2885,
2899,
2847,
2797,
2870,
2840,
2880,
2786,
2825,
2790,
2772,
2707,
2693,
2655,
2706,
2694,
2621,
2706,
2684,
2604,
2695,
2581,
2551,
2595,
2476,
2539,
2570,
2443,
2389,
2391,
2406,
2449,
2487,
2514,
2364,
2327,
2386,
2292,
2287,
2303,
2303,
2232,
2340,
2265,
2162,
2215,
2157,
2169,
2072,
2100,
2097,
2176,
2068,
1988,
2086,
1987,
2046,
2112,
1960,
1964,
2022,
1978,
1870,
1952,
1940,
1901,
1954,
1884,
1899,
1831,
1841,
1848,
1748,
1832,
1846,
1805,
1763,
1876,
1727,
1772,
1712,
1691,
1743,
1683,
1684,
1656,
1704,
1673,
1672,
1687,
1687,
1577,
1611,
1597,
1564,
1579,
1512,
1485,
1516,
1483,
1514,
1434,
1412,
1481,
1443,
1466,
1412,
1354,
1422,
1353,
1366,
1321,
1333,
1364,
1364,
1367,
1310,
1280,
1265,
1272,
1287,
1249,
1221,
1190,
1217,
1211,
1249,
1253,
1322,
1369,
1533,
1867,
2164,
2518,
2622,
2585,
2279,
1919,
1635,
1319,
1169,
1062,
973,
1027,
1003,
1061,
999,
999,
989,
974,
945,
922,
946,
916,
858,
893,
871,
885,
850,
866,
871,
830,
839,
877,
837,
755,
789,
795,
782,
817,
741,
718,
725,
734,
752,
717,
693,
714,
704,
679,
721,
652,
614,
643,
614,
667,
676,
634,
642,
610,
612,
603,
600,
570,
558,
547,
592,
571,
557,
633,
607,
690,
754,
752,
740,
697,
646,
581,
474,
487,
436,
425,
436,
428,
421,
435,
458,
418,
370,
382,
388,
309,
322,
327,
329,
322,
326,
303,
284,
312,
300,
287,
287,
268,
260,
291,
270,
256,
228,
230,
250,
246,
230,
216,
200,
200,
191,
181,
174,
178,
167,
181,
182,
165,
153,
124,
141,
157,
131,
131,
132,
136,
126,
107,
106,
96,
94,
94,
71,
70,
86,
64,
58,
58,
53,
38,
35,
39,
26,
24,
21,
10,
11,
9,
8,
7,
5,
2,
4,
6,
4,
5,
4,
3,
3,
5,
1,
4,
8,
4,
0,
3,
6,
5,
2,
2,
1,
0,
2,
0,
2,
2,
4,
2,
2,
5,
1,
6,
2,
2,
3,
1,
2,
1,
2,
7,
1,
2,
2,
1,
2,
1,
1,
1,
2,
4,
3,
0,
1,
1,
2,
0,
3,
1,
5,
2,
1,
3,
3,
3,
4,
3,
2,
0,
2,
1,
1,
1,
2,
1,
2,
3,
5,
1,
1,
0,
2,
1,
2,
0,
3,
0,
1,
2,
2,
1,
1,
2,
1,
2,
3,
3,
2,
2,
2,
0,
1,
2,
4,
0,
1,
1,
3,
2,
1,
0,
0,
0,
3,
4,
0,
2,
0,
0,
0,
0,
1,
1,
1,
0,
0,
0,
0,
0,
0,
0,
1,
1,
0,
1,
2,
2,
1,
0,
4,
0,
0,
1,
0,
0,
1,
1,
0,
1,
2,
0,
1,
0,
0,
0,
0,
2,
0,
0,
0,
1,
2,
1,
0,
0,
0,
1,
0,
1,
2,
1,
1,
0,
1,
1,
0,
0,
2,
2,
0,
1,
0,
1,
0,
2,
0,
0,
2,
0,
0,
1,
1,
1,
0,
0,
0,
1,
0,
0,
0,
0,
1,
0,
0,
1,
0,
0,
0,
0,
0,
0,
0,
0,
0,
0,
1,
1,
0,
0,
0,
0,
0,
0,
1,
0,
0,
0,
0,
0,
3,
1,
1,
0,
0,
0,
0,
0,
0,
0,
0,
0,
0,
0,
1,
0,
0,
1,
2,
0,
0,
0,
0,
0,
0,
0,
0,
0,
0,
0,
0,
0,
0,
0,
0,
0,
0,
0,
1,
0,
0,
0,
0,
0,
0,
0,
1,
1,
1,
0,
0,
1,
0,
0,
0,
0,
1,
0,
0,
0,
1,
0,
0,
0,
0,
0,
0,
0,
0,
0,
0,
0,
0,
0,
0,
0,
0,
0,
0,
0,
0,
0,
0,
0,
0,
0,
0,
0,
0,
0,
1,
0,
0,
0,
0,
0,
1,
0,
0,
0,
0,
0,
0,
0,
0,
0,
0,
0,
0,
0,
0,
0,
0,
0,
0,
0,
0,
0,
0,
0,
0,
0,
0,
0,
1,
0,
0,
0,
0,
0,
0,
0,
0,
0,
0,
0,
0,
0,
0,
0,
0,
0,
0,
0,
0,
0,
0,
0,
0,
0,
0,
0,
0,
0,
0,
0,
0,
0,
0,
0,
0,
0,
0,
0,
0,
0,
0,
0,
0,
0,
0,
0,
0,
0,
0,
0,
0,
0,
0,
0,
0,
0,
0,
0,
0,
0,
0,
0,
0,
0,
0,
0,
0,
0,
0,
0,
0,
0,
0,
0,
0,
0,
0,
0,
0,
0,
0,
0,
0,
0,
0,
0,
0,
0,
0,
0,
0,
0,
0,
0,
0,
0,
0,
0,
0,
0,
0,
0,
0,
0,
0,
0,
0,
0,
0,
0,
0,
0,
0,
0,
0,
0,
0,
0,
0,
0,
0,
0,
0,
0,
0,
0,
0,
0,
0,
0,
0,
0,
0,
0,
0,
0,
0,
0,
0,
0,
0,
0,
0,
0,
0,
0,
0,
0,
0,
0,
0,
0,
0,
0,
0,
0,
0,
0,
0,
0,
0,
0,
0,
0,
0,
0,
0,
0,
0,
0,
0,
0,
0,
0,
0,
0,
0,
0,
0,
0,
0,
0,
0,
0,
0,
0,
0,
0,
0,
0,
0,
0,
0,
0,
0,
0,
0,
0,
0,
0,
0,
0,
0,
0,
0,
0,
0,
0,
0,
0,
0,
0,
0,
0,
0,
0,
0,
0,
0,
0,
0,
0,
0,
0,
0,
0,
0,
0,
0,
0,
0,
0,
0,
0,
0,
0,
0,
0,
0,
0,
0,
0,
0,
0,
0,
0,
0,
0,
0,
0,
0,
0,
0,
0,
0,
0,
0,
0,
0,
0,
0,
0,
0,
0,
0,
0,
0,
0,
0,
0,
0,
0,
0,
0,
0,
0,
0,
0,
0,
0,
0,
0,
0,
0,
0,
0,
0,
0,
0,
0,
0,
0,
0,
0,
0,
0,
0,
0,
0,
0,
0,
0,
0,
0,
0,
0,
0,
0,
0,
0,
0,
0,
0,
0,
0,
0,
0,
0,
0,
0,
0,
0,
0,
0,
0,
0,
0,
0,
0,
0,
0,
0,
0,
0,
0,
0,
0,
0,
0,
0,
0,
0,
0,
0,
0,
0,
0,
0,
0,
0,
0,
0,
0,
0,
0,
0,
0,
0,
0,
0,
0,
0,
0,
0,
0,
0,
0,
0,
0,
0,
0,
0,
0,
0,
0,
0,
0,
0,
0,
0,
0,
0,
0,
0,
0,
0,
0,
0,
0,
0,
0,
0,
0,
0,
0,
0,
0,
0,
0,
0,
0,
0,
0,
0,
0,
0,
0,
0,
0,
0,
0,
0,
0,
0,
0,
0,
0,
0,
0,
0,
0,
0,
0,
0,
0,
0,
0,
0,
0,
0,
0,
0,
0,
0,
0,
0,
0,
0,
0,
0,
0,
0,
0,
0,
0,
0,
0,
0,
0,
0,
0,
0,
0,
0,
0,
0,
0,
0,
0,
0,
0,
0,
0,
0,
0,
0,
0,
0,
0,
0,
0,
0,
0,
0,
0,
0,
0,
0,
0,
0,
0,
0,
0,
0,
0,
0,
0,
0,
0,
0,
0,
0,
0,
0,
0,
0,
0,
0,
0,
0,
0,
0,
0,
0,
0,
0,
0,
0,
0,
#ENDOFDATA   :