File: N132962/Quantification/15 keV/GMIIIA/GMIIIA K1234[3][4].msa
#FORMAT      : EMSA/MAS Spectral Data File
#VERSION     : 1.0
#TITLE       : GMIIIA K1234[3][all]
#DATE        : 22-SEP-2025
#TIME        : 22:57
#OWNER       : Unknown
#NPOINTS     : 4096
#NCOLUMNS    : 1
#XUNITS      : eV
#YUNITS      : counts
#DATATYPE    : Y
#XPERCHAN    : 9.99778
#OFFSET      : 1.69135
#BEAMKV      : 15
#SIGNALTYPE  : EDS
#ELEVANGLE   : 35
#AZIMANGLE   : 0
#LIVETIME    : 239.886
#REALTIME    : 255.787
#PROBECUR    : 1.21591
#TAUWIND     : 0
#TDEADLYR    : 0
#TACTLYR     : 0.045
#TALWIND     : 0.025
#CHOFFSET    : 0.0
#XLABEL      : Energy (eV)
#YLABEL      : Counts
#XPOSITION   : 2.01161
#YPOSITION   : 17.83916
#ZPOSITION   : 37.36299
#EDSDET      : SD
##SPECIMEN   : GMIIIA K1234[3][all]
##D2STDCMP   : K1234,(O:39.85),(Al:9.15),(Si:21.56),(Ca:12.36),(Ba:15.49),(W:1.59)
##DET_HASH   : 12273538-fd48-a23f-0a19-f1e6fa85caef
##CALIB_HASH : 6abaa72c-aa41-8738-0be9-f592914732f3
##WORKING    : 15.0 mm
##DET_NAME   : EDAX All
##DET_MODE   : MediumLE
#SPECTRUM    :
17,
21,
11,
25,
108,
410,
1169,
2977,
7367,
10902,
9167,
6720,
5491,
5626,
8451,
26617,
97751,
184630,
134682,
37803,
8177,
4534,
4378,
4418,
4457,
5226,
6080,
5501,
4653,
4338,
4448,
4749,
5494,
5797,
6147,
5983,
5555,
5133,
4970,
5253,
5218,
5303,
5531,
5467,
5743,
6124,
7179,
13362,
36899,
69768,
70958,
38914,
14949,
7972,
7037,
14289,
48773,
123575,
169698,
121561,
52532,
20951,
10577,
6203,
4598,
4075,
3960,
3778,
3565,
3450,
3440,
3453,
3404,
3498,
3717,
3859,
3887,
3690,
3521,
3311,
3363,
3234,
3271,
3161,
3070,
3148,
3172,
3051,
3097,
3107,
3228,
3104,
3084,
3038,
2937,
3029,
2831,
2908,
2936,
2837,
2878,
2700,
2867,
2805,
2827,
2764,
2700,
2939,
2911,
2680,
2694,
2672,
2592,
2649,
2544,
2654,
2781,
2945,
3110,
4298,
8593,
18955,
34266,
42858,
36586,
21038,
9158,
4005,
2595,
2523,
3077,
3828,
5382,
7072,
7361,
5989,
4081,
2744,
2209,
2059,
1983,
2096,
2117,
2135,
2400,
3051,
5002,
8881,
13352,
14763,
12183,
7655,
4115,
2470,
1874,
1806,
1829,
2040,
2934,
4652,
6543,
7703,
7252,
5621,
4114,
3247,
2474,
2126,
1983,
2092,
2687,
3352,
3726,
3307,
2665,
2002,
1697,
1546,
1540,
1408,
1429,
1653,
1789,
1989,
2123,
2241,
1893,
1618,
1408,
1327,
1369,
1468,
1503,
1633,
1629,
1384,
1373,
1184,
1240,
1327,
1203,
1217,
1179,
1170,
1160,
1124,
1190,
1091,
1147,
1156,
1119,
1099,
1123,
1132,
1121,
1071,
1052,
999,
1035,
1047,
1003,
987,
973,
978,
941,
986,
908,
945,
939,
919,
887,
976,
893,
869,
832,
861,
878,
835,
876,
853,
854,
858,
812,
847,
852,
867,
806,
816,
875,
788,
793,
796,
798,
733,
827,
693,
772,
746,
708,
758,
701,
746,
731,
791,
648,
684,
706,
737,
666,
681,
688,
665,
667,
626,
687,
720,
676,
753,
813,
778,
878,
784,
727,
673,
665,
612,
543,
541,
619,
577,
576,
554,
594,
540,
515,
493,
578,
554,
534,
525,
501,
530,
544,
522,
489,
455,
498,
484,
494,
465,
501,
485,
480,
465,
459,
407,
436,
485,
435,
480,
450,
466,
449,
417,
490,
457,
403,
427,
417,
430,
437,
416,
427,
441,
377,
361,
384,
340,
378,
333,
347,
342,
340,
348,
305,
331,
347,
320,
311,
312,
348,
305,
313,
336,
305,
304,
318,
304,
300,
274,
293,
269,
302,
266,
284,
261,
255,
261,
264,
267,
266,
268,
246,
276,
223,
239,
249,
268,
224,
231,
234,
237,
198,
207,
214,
188,
233,
215,
197,
217,
207,
204,
202,
204,
188,
165,
193,
180,
168,
169,
163,
166,
176,
181,
147,
171,
162,
149,
156,
130,
144,
138,
154,
150,
144,
128,
143,
126,
127,
137,
113,
124,
123,
125,
105,
112,
96,
112,
97,
124,
108,
95,
101,
79,
96,
80,
72,
86,
88,
69,
89,
66,
83,
79,
71,
82,
66,
83,
64,
77,
71,
62,
70,
60,
69,
63,
67,
59,
57,
41,
46,
48,
44,
27,
44,
44,
38,
37,
28,
45,
34,
30,
30,
38,
22,
37,
30,
26,
34,
20,
31,
19,
26,
14,
17,
12,
13,
13,
6,
13,
8,
8,
8,
9,
6,
6,
4,
6,
6,
4,
1,
1,
4,
1,
0,
0,
1,
0,
0,
0,
0,
3,
0,
0,
2,
1,
0,
2,
0,
2,
0,
0,
0,
0,
0,
2,
1,
4,
0,
0,
0,
0,
1,
0,
0,
0,
1,
3,
0,
0,
0,
2,
0,
1,
0,
0,
0,
0,
0,
0,
0,
1,
1,
0,
0,
0,
0,
1,
0,
0,
1,
0,
0,
1,
0,
0,
1,
0,
1,
0,
0,
0,
0,
2,
0,
0,
1,
0,
0,
1,
0,
0,
0,
1,
0,
0,
1,
0,
0,
0,
0,
2,
0,
0,
0,
1,
0,
0,
1,
0,
0,
0,
1,
0,
0,
1,
0,
0,
0,
0,
0,
0,
0,
0,
1,
0,
0,
0,
0,
0,
0,
0,
0,
0,
0,
0,
0,
0,
0,
0,
0,
0,
0,
0,
0,
1,
0,
0,
0,
0,
0,
0,
0,
0,
0,
0,
0,
0,
0,
1,
0,
0,
0,
0,
0,
0,
0,
0,
0,
0,
0,
0,
0,
0,
0,
0,
0,
0,
0,
0,
0,
0,
0,
0,
0,
0,
0,
0,
0,
0,
0,
0,
0,
0,
0,
0,
0,
0,
0,
0,
0,
0,
0,
0,
0,
0,
0,
0,
0,
0,
0,
0,
0,
0,
0,
0,
0,
0,
0,
0,
0,
0,
0,
0,
0,
0,
0,
0,
0,
0,
0,
0,
0,
0,
0,
0,
0,
0,
0,
0,
0,
0,
0,
0,
0,
0,
0,
0,
0,
0,
0,
0,
0,
0,
0,
0,
0,
0,
0,
0,
0,
0,
0,
0,
0,
1,
0,
0,
0,
0,
0,
0,
0,
0,
0,
0,
0,
0,
0,
0,
0,
0,
0,
0,
0,
0,
0,
0,
0,
0,
0,
0,
0,
0,
0,
0,
0,
0,
0,
0,
0,
0,
0,
1,
0,
0,
0,
0,
0,
0,
0,
0,
0,
0,
0,
0,
0,
0,
0,
0,
0,
0,
0,
0,
0,
0,
0,
0,
0,
0,
0,
0,
1,
0,
0,
0,
0,
0,
0,
0,
0,
0,
0,
0,
0,
0,
0,
0,
0,
0,
0,
0,
0,
0,
0,
0,
0,
0,
0,
0,
0,
0,
0,
0,
0,
0,
0,
0,
0,
0,
0,
0,
0,
1,
0,
0,
0,
0,
0,
0,
0,
0,
0,
0,
0,
0,
0,
0,
0,
0,
0,
0,
0,
0,
0,
0,
0,
0,
0,
0,
0,
0,
0,
0,
0,
0,
0,
0,
0,
0,
0,
0,
0,
0,
0,
0,
0,
0,
0,
0,
0,
0,
0,
0,
0,
0,
0,
0,
0,
0,
0,
0,
0,
0,
0,
0,
0,
0,
0,
0,
0,
0,
0,
0,
0,
0,
0,
0,
0,
0,
0,
0,
0,
0,
0,
0,
0,
0,
0,
0,
0,
0,
0,
0,
0,
0,
0,
0,
0,
0,
0,
0,
0,
0,
0,
0,
0,
0,
0,
0,
0,
0,
0,
0,
0,
0,
0,
0,
0,
0,
0,
0,
0,
0,
0,
0,
0,
0,
0,
0,
0,
0,
0,
0,
0,
0,
0,
0,
0,
0,
0,
0,
0,
0,
0,
0,
0,
0,
0,
0,
0,
0,
0,
0,
0,
0,
0,
0,
0,
0,
0,
0,
0,
0,
0,
0,
0,
0,
0,
0,
0,
0,
0,
0,
0,
0,
0,
0,
0,
0,
0,
0,
0,
0,
0,
0,
0,
0,
0,
0,
0,
0,
0,
0,
0,
0,
0,
0,
0,
0,
0,
0,
0,
0,
0,
0,
0,
0,
0,
0,
0,
0,
0,
0,
0,
0,
0,
0,
0,
0,
0,
0,
0,
0,
0,
0,
0,
0,
0,
0,
0,
0,
0,
0,
0,
0,
0,
0,
0,
0,
0,
0,
0,
0,
0,
0,
0,
0,
0,
0,
0,
0,
0,
0,
0,
0,
0,
0,
0,
0,
0,
0,
0,
0,
0,
0,
0,
0,
0,
0,
0,
0,
0,
0,
0,
0,
0,
0,
0,
0,
0,
0,
0,
0,
0,
0,
0,
0,
0,
0,
0,
0,
0,
0,
0,
0,
0,
0,
0,
0,
0,
0,
0,
0,
0,
0,
0,
0,
0,
0,
0,
0,
0,
0,
0,
0,
0,
0,
0,
0,
0,
0,
0,
0,
0,
0,
0,
0,
0,
0,
0,
0,
0,
0,
0,
0,
0,
0,
0,
0,
0,
0,
0,
0,
0,
0,
0,
0,
0,
0,
0,
0,
0,
0,
0,
0,
0,
0,
0,
0,
0,
0,
0,
0,
0,
0,
0,
0,
0,
0,
0,
0,
0,
0,
0,
0,
0,
0,
0,
0,
0,
0,
0,
0,
0,
0,
0,
0,
0,
0,
0,
0,
0,
0,
0,
0,
0,
0,
0,
0,
0,
0,
0,
0,
0,
0,
0,
0,
0,
0,
0,
0,
0,
0,
0,
0,
0,
0,
0,
0,
0,
0,
0,
0,
0,
0,
0,
0,
0,
0,
0,
0,
0,
0,
0,
0,
0,
0,
0,
0,
0,
0,
0,
0,
0,
0,
0,
0,
0,
0,
0,
0,
0,
0,
0,
0,
0,
0,
0,
0,
0,
0,
0,
0,
0,
0,
0,
0,
0,
0,
0,
0,
0,
0,
0,
0,
0,
0,
0,
0,
0,
0,
0,
0,
0,
0,
0,
0,
0,
0,
0,
0,
0,
0,
0,
0,
0,
0,
0,
0,
0,
0,
0,
0,
0,
0,
#ENDOFDATA   :