File: N132962/Quantification/15 keV/GMIIIA/GMIIIA K252[4][4].msa
#FORMAT      : EMSA/MAS Spectral Data File
#VERSION     : 1.0
#TITLE       : GMIIIA K252[4][all]
#DATE        : 22-SEP-2025
#TIME        : 14:52
#OWNER       : Unknown
#NPOINTS     : 4096
#NCOLUMNS    : 1
#XUNITS      : eV
#YUNITS      : counts
#DATATYPE    : Y
#XPERCHAN    : 9.99778
#OFFSET      : 1.69135
#BEAMKV      : 15
#SIGNALTYPE  : EDS
#ELEVANGLE   : 35
#AZIMANGLE   : 0
#LIVETIME    : 239.945
#REALTIME    : 257.0761
#PROBECUR    : 1.21732
#TAUWIND     : 0
#TDEADLYR    : 0
#TACTLYR     : 0.045
#TALWIND     : 0.025
#CHOFFSET    : 0.0
#XLABEL      : Energy (eV)
#YLABEL      : Counts
#XPOSITION   : 4.71999
#YPOSITION   : 2.58815
#ZPOSITION   : 37.36299
#EDSDET      : SD
##SPECIMEN   : GMIIIA K252[4][all]
##D2STDCMP   : K252,(O:30.83),(Si:18.7),(Mn:3.16),(Co:3.93),(Cu:3.99),(Zn:8.03),(Ba:31.35)
##DET_HASH   : 12273538-fd48-a23f-0a19-f1e6fa85caef
##CALIB_HASH : 6abaa72c-aa41-8738-0be9-f592914732f3
##WORKING    : 15.0 mm
##DET_NAME   : EDAX All
##DET_MODE   : MediumLE
#SPECTRUM    :
29,
34,
14,
37,
137,
551,
1622,
3719,
7673,
9674,
7290,
6316,
7089,
8366,
12443,
35017,
118948,
220244,
161750,
50461,
17409,
13016,
10505,
8511,
9463,
14681,
18070,
13566,
8770,
9286,
14402,
19233,
21753,
29093,
33104,
21993,
10316,
6076,
5069,
4809,
4818,
4931,
4950,
5162,
5139,
5264,
5222,
5499,
5762,
5986,
6351,
6201,
6080,
6295,
7081,
13431,
42562,
103236,
139666,
99207,
42334,
16675,
9141,
6152,
4821,
4426,
4338,
4368,
4262,
4414,
4330,
4502,
4426,
4527,
4580,
4748,
4685,
4580,
4487,
4387,
4240,
4244,
4210,
4215,
4324,
4230,
4179,
4205,
4065,
4262,
4255,
4270,
4167,
4035,
4030,
3944,
3833,
3857,
3814,
3810,
3855,
3845,
3778,
3752,
3729,
3651,
3652,
3650,
3492,
3506,
3589,
3384,
3537,
3572,
3325,
3456,
3478,
3343,
3302,
3242,
3277,
3247,
3195,
3232,
3283,
3159,
3074,
3072,
3161,
3156,
3495,
3981,
4028,
3881,
3519,
2975,
2902,
2966,
2823,
2821,
2818,
2885,
2885,
3246,
3728,
5392,
9911,
18712,
28323,
32006,
26351,
16100,
8043,
4164,
2930,
2708,
2798,
3432,
5446,
9071,
13419,
16098,
14793,
11237,
7963,
5811,
4255,
3349,
3192,
3596,
4884,
6269,
7031,
6308,
4684,
3227,
2478,
2165,
2114,
2150,
2130,
2284,
2803,
3282,
3750,
3637,
3153,
2577,
2097,
1974,
2031,
2277,
2678,
3226,
4065,
5221,
6031,
5878,
4805,
3540,
2537,
1880,
1712,
1640,
1557,
1636,
1656,
1654,
1587,
1531,
1548,
1603,
1661,
1699,
1898,
1898,
1983,
2023,
1799,
1717,
1469,
1454,
1507,
1413,
1415,
1416,
1492,
1862,
2380,
3237,
4004,
4150,
3698,
2776,
2048,
1595,
1414,
1358,
1242,
1249,
1307,
1223,
1249,
1152,
1198,
1188,
1229,
1158,
1200,
1222,
1228,
1199,
1360,
1449,
1470,
1486,
1376,
1296,
1190,
1109,
1084,
1110,
1116,
1159,
1408,
1738,
2189,
2724,
2870,
2556,
2048,
1689,
1204,
1085,
990,
954,
935,
943,
902,
942,
912,
940,
1040,
1194,
1651,
2336,
3117,
3431,
3493,
3114,
2334,
1750,
1192,
1051,
978,
1050,
1031,
1009,
991,
930,
801,
789,
756,
776,
732,
745,
790,
753,
754,
707,
723,
746,
730,
708,
737,
815,
947,
1002,
958,
955,
998,
892,
791,
708,
665,
598,
600,
615,
591,
573,
592,
571,
580,
587,
553,
539,
566,
569,
560,
537,
502,
527,
527,
552,
505,
461,
533,
508,
476,
496,
485,
489,
470,
460,
465,
464,
497,
421,
472,
432,
448,
413,
415,
425,
425,
425,
429,
381,
429,
425,
396,
361,
359,
386,
348,
397,
342,
368,
367,
379,
355,
357,
351,
324,
374,
363,
304,
315,
286,
288,
337,
310,
285,
317,
300,
277,
292,
298,
308,
280,
266,
272,
245,
244,
262,
267,
232,
259,
234,
251,
214,
232,
215,
236,
228,
209,
201,
181,
181,
202,
203,
182,
173,
201,
171,
175,
191,
187,
180,
161,
156,
177,
154,
172,
167,
163,
159,
165,
142,
136,
124,
119,
124,
132,
128,
106,
110,
123,
109,
103,
114,
106,
105,
96,
91,
84,
96,
72,
107,
88,
78,
74,
73,
93,
74,
90,
72,
51,
71,
38,
61,
49,
49,
50,
55,
55,
47,
39,
37,
38,
34,
41,
42,
34,
29,
25,
20,
25,
23,
19,
17,
20,
18,
9,
11,
8,
3,
6,
2,
2,
6,
2,
0,
1,
3,
3,
3,
2,
0,
0,
0,
1,
2,
0,
1,
1,
0,
0,
1,
1,
1,
2,
0,
1,
1,
1,
2,
0,
0,
1,
0,
0,
0,
1,
2,
0,
2,
0,
1,
1,
1,
0,
2,
1,
0,
1,
0,
0,
1,
1,
1,
1,
1,
1,
1,
0,
1,
0,
1,
2,
1,
0,
1,
0,
1,
1,
1,
0,
1,
0,
0,
1,
2,
2,
1,
0,
0,
0,
0,
0,
0,
0,
2,
0,
2,
0,
2,
1,
0,
0,
1,
1,
0,
0,
0,
1,
0,
1,
0,
1,
1,
1,
0,
0,
0,
1,
1,
0,
0,
0,
2,
1,
1,
1,
0,
0,
0,
0,
1,
0,
1,
0,
1,
0,
0,
0,
0,
0,
0,
0,
0,
0,
0,
1,
1,
0,
0,
0,
0,
0,
0,
0,
0,
0,
0,
0,
1,
0,
0,
0,
0,
0,
0,
0,
0,
0,
1,
0,
0,
0,
0,
0,
0,
0,
0,
0,
0,
0,
0,
0,
0,
0,
0,
0,
0,
0,
0,
0,
0,
0,
1,
1,
0,
0,
0,
0,
0,
0,
0,
0,
0,
1,
0,
0,
0,
1,
0,
0,
0,
0,
0,
0,
0,
0,
0,
0,
0,
0,
0,
0,
0,
0,
1,
1,
0,
0,
0,
0,
0,
0,
0,
0,
0,
0,
0,
0,
0,
0,
0,
0,
0,
0,
1,
0,
0,
0,
0,
0,
0,
0,
0,
0,
0,
0,
0,
0,
0,
0,
0,
0,
0,
1,
0,
0,
0,
0,
0,
0,
0,
0,
0,
0,
0,
0,
0,
0,
0,
0,
1,
0,
0,
0,
0,
0,
0,
0,
0,
0,
0,
0,
0,
0,
0,
0,
0,
0,
0,
0,
0,
0,
0,
0,
0,
0,
0,
0,
0,
0,
0,
0,
0,
0,
0,
0,
0,
0,
0,
0,
0,
0,
0,
0,
0,
0,
0,
0,
0,
0,
0,
0,
0,
0,
0,
0,
0,
0,
0,
0,
0,
0,
0,
0,
0,
0,
0,
0,
0,
0,
0,
0,
0,
0,
0,
0,
0,
0,
0,
0,
0,
0,
0,
0,
0,
0,
0,
0,
0,
0,
0,
0,
0,
0,
0,
0,
0,
0,
0,
0,
0,
0,
0,
0,
0,
0,
0,
0,
0,
0,
0,
0,
0,
0,
0,
0,
0,
0,
0,
0,
0,
0,
0,
0,
0,
0,
0,
0,
0,
0,
0,
0,
0,
0,
0,
0,
0,
0,
0,
0,
0,
0,
0,
0,
0,
0,
0,
0,
0,
0,
0,
0,
0,
0,
0,
0,
0,
0,
0,
0,
0,
0,
0,
0,
0,
0,
0,
0,
0,
0,
0,
0,
0,
0,
0,
0,
0,
0,
0,
0,
0,
0,
0,
0,
0,
0,
0,
0,
0,
0,
0,
0,
0,
0,
0,
0,
0,
0,
0,
0,
0,
0,
0,
0,
0,
0,
0,
0,
0,
0,
0,
0,
0,
0,
0,
0,
0,
0,
0,
0,
0,
0,
0,
0,
0,
0,
0,
0,
0,
0,
0,
0,
0,
0,
0,
0,
0,
0,
0,
0,
0,
0,
0,
0,
0,
0,
0,
0,
0,
0,
0,
0,
0,
0,
0,
0,
0,
0,
0,
0,
0,
0,
0,
0,
0,
0,
0,
0,
0,
0,
0,
0,
0,
0,
0,
0,
0,
0,
0,
0,
0,
0,
0,
0,
0,
0,
0,
0,
0,
0,
0,
0,
0,
0,
0,
0,
0,
0,
0,
0,
0,
0,
0,
0,
0,
0,
0,
0,
0,
0,
0,
0,
0,
0,
0,
0,
0,
0,
0,
0,
0,
0,
0,
0,
0,
0,
0,
0,
0,
0,
0,
0,
0,
0,
0,
0,
0,
0,
0,
0,
0,
0,
0,
0,
0,
0,
0,
0,
0,
0,
0,
0,
0,
0,
0,
0,
0,
0,
0,
0,
0,
0,
0,
0,
0,
0,
0,
0,
0,
0,
0,
0,
0,
0,
0,
0,
0,
0,
0,
0,
0,
0,
0,
0,
0,
0,
0,
0,
0,
0,
0,
0,
0,
0,
0,
0,
0,
0,
0,
0,
0,
0,
0,
0,
0,
0,
0,
0,
0,
0,
0,
0,
0,
0,
0,
0,
0,
0,
0,
0,
0,
0,
0,
0,
0,
0,
0,
0,
0,
0,
0,
0,
0,
0,
0,
0,
0,
0,
0,
0,
0,
0,
0,
0,
0,
0,
0,
0,
0,
0,
0,
0,
0,
0,
0,
0,
0,
0,
0,
0,
0,
0,
0,
0,
0,
0,
0,
0,
0,
0,
0,
0,
0,
0,
0,
0,
0,
0,
0,
0,
0,
0,
0,
0,
0,
0,
0,
0,
0,
0,
0,
0,
0,
0,
0,
0,
0,
0,
0,
0,
0,
0,
0,
0,
0,
0,
0,
0,
0,
0,
0,
0,
0,
0,
0,
0,
0,
0,
0,
0,
0,
0,
0,
0,
0,
0,
0,
0,
0,
0,
0,
0,
0,
0,
0,
0,
0,
0,
0,
0,
0,
0,
0,
0,
0,
0,
0,
0,
0,
0,
0,
0,
0,
0,
0,
0,
0,
0,
0,
0,
0,
0,
0,
0,
0,
0,
0,
0,
0,
0,
0,
0,
0,
0,
0,
0,
0,
0,
0,
0,
0,
0,
0,
0,
0,
0,
0,
0,
0,
0,
0,
0,
0,
0,
0,
0,
0,
0,
#ENDOFDATA   :