File: N132962/Quantification/15 keV/GMIIIA/GMIIIA K1235[5][4].msa
#FORMAT      : EMSA/MAS Spectral Data File
#VERSION     : 1.0
#TITLE       : GMIIIA K1235[5][all]
#DATE        : 22-SEP-2025
#TIME        : 23:20
#OWNER       : Unknown
#NPOINTS     : 4096
#NCOLUMNS    : 1
#XUNITS      : eV
#YUNITS      : counts
#DATATYPE    : Y
#XPERCHAN    : 9.99778
#OFFSET      : 1.69135
#BEAMKV      : 15
#SIGNALTYPE  : EDS
#ELEVANGLE   : 35
#AZIMANGLE   : 0
#LIVETIME    : 240.069
#REALTIME    : 255.972
#PROBECUR    : 1.21388
#TAUWIND     : 0
#TDEADLYR    : 0
#TACTLYR     : 0.045
#TALWIND     : 0.025
#CHOFFSET    : 0.0
#XLABEL      : Energy (eV)
#YLABEL      : Counts
#XPOSITION   : 9.20461
#YPOSITION   : 18.98551
#ZPOSITION   : 37.36299
#EDSDET      : SD
##SPECIMEN   : GMIIIA K1235[5][all]
##D2STDCMP   : K1235,(O:39.17),(Al:8.86),(Si:21.16),(Ca:12.15),(Pd:1.74),(Ba:15.23),(Hf:1.7)
##DET_HASH   : 12273538-fd48-a23f-0a19-f1e6fa85caef
##CALIB_HASH : 6abaa72c-aa41-8738-0be9-f592914732f3
##WORKING    : 15.0 mm
##DET_NAME   : EDAX All
##DET_MODE   : MediumLE
#SPECTRUM    :
24,
34,
7,
34,
109,
414,
1222,
3169,
7784,
11416,
9295,
6679,
5382,
5645,
8434,
26614,
97877,
184731,
134929,
37940,
8193,
4672,
4303,
4339,
4372,
5339,
6042,
5577,
4774,
4249,
4526,
4981,
5463,
5789,
6262,
6095,
5595,
5157,
5126,
5151,
5106,
5329,
5661,
5902,
5865,
5937,
6814,
12935,
36663,
70027,
70628,
38434,
15163,
9027,
10186,
18423,
52924,
124833,
166969,
118291,
48877,
17875,
9065,
5568,
4419,
4053,
3895,
3714,
3553,
3450,
3406,
3466,
3571,
3515,
3795,
3953,
3871,
3732,
3543,
3356,
3261,
3206,
3297,
3147,
3136,
3156,
3151,
3301,
3250,
3116,
3203,
3132,
3098,
2940,
2966,
3013,
2976,
2862,
2928,
2922,
2882,
2918,
2778,
2886,
2856,
2814,
2704,
2873,
2899,
2796,
2665,
2585,
2680,
2578,
2576,
2648,
2775,
2846,
3123,
4280,
8236,
18884,
33842,
42135,
35619,
21023,
9249,
4156,
2691,
2552,
2878,
3805,
5372,
6667,
7173,
5863,
4062,
2784,
2254,
2056,
1947,
2064,
2104,
2097,
2347,
3079,
4879,
8852,
13387,
14790,
12461,
7987,
4099,
2509,
1845,
1790,
1935,
2104,
2993,
4559,
6628,
7681,
7062,
5462,
4139,
3151,
2456,
2088,
1993,
2176,
2706,
3406,
3602,
3386,
2587,
1914,
1692,
1491,
1470,
1496,
1485,
1518,
1784,
2034,
2094,
2190,
1890,
1604,
1445,
1321,
1349,
1481,
1476,
1557,
1493,
1446,
1359,
1266,
1294,
1221,
1277,
1183,
1172,
1183,
1116,
1101,
1077,
1139,
1095,
1091,
1087,
1104,
1113,
1190,
1073,
1078,
1023,
1071,
1051,
993,
967,
1009,
1064,
938,
936,
998,
975,
915,
983,
905,
960,
907,
924,
910,
893,
875,
908,
869,
892,
923,
858,
824,
792,
821,
839,
767,
837,
879,
835,
845,
791,
772,
758,
811,
749,
729,
749,
773,
700,
777,
818,
914,
1012,
1000,
926,
871,
805,
727,
729,
659,
722,
682,
704,
634,
714,
631,
672,
644,
676,
624,
643,
568,
635,
616,
589,
589,
628,
582,
544,
571,
555,
571,
571,
536,
577,
481,
554,
557,
613,
610,
584,
582,
591,
550,
508,
494,
538,
543,
519,
529,
533,
514,
540,
501,
475,
480,
465,
423,
441,
432,
385,
419,
424,
415,
426,
424,
393,
431,
417,
400,
372,
387,
420,
357,
384,
345,
400,
381,
364,
382,
361,
350,
359,
381,
360,
327,
308,
331,
359,
315,
329,
313,
323,
322,
300,
285,
351,
297,
257,
274,
270,
287,
275,
281,
289,
280,
266,
236,
234,
293,
244,
270,
242,
233,
254,
242,
222,
202,
235,
213,
214,
219,
224,
212,
225,
205,
183,
172,
219,
210,
210,
181,
198,
185,
187,
175,
140,
202,
167,
169,
185,
162,
159,
160,
161,
158,
156,
159,
129,
172,
137,
144,
130,
148,
146,
110,
137,
126,
143,
118,
114,
119,
101,
107,
137,
91,
93,
125,
103,
113,
99,
100,
106,
90,
93,
87,
90,
92,
87,
70,
66,
81,
69,
78,
85,
67,
76,
55,
73,
63,
79,
62,
55,
56,
64,
72,
51,
56,
45,
48,
45,
58,
48,
38,
44,
39,
29,
48,
37,
36,
26,
38,
42,
33,
36,
23,
19,
24,
36,
23,
31,
26,
22,
15,
14,
21,
19,
11,
20,
11,
12,
10,
6,
10,
12,
6,
5,
6,
3,
8,
3,
2,
1,
1,
1,
0,
0,
1,
1,
1,
0,
0,
1,
0,
1,
0,
1,
0,
0,
1,
2,
1,
1,
1,
0,
0,
1,
0,
0,
1,
0,
1,
0,
0,
0,
0,
0,
1,
0,
2,
0,
0,
0,
0,
0,
0,
0,
0,
0,
0,
0,
1,
1,
0,
1,
0,
0,
1,
1,
0,
0,
2,
1,
0,
0,
0,
1,
1,
0,
0,
1,
0,
0,
0,
1,
0,
0,
0,
0,
0,
0,
0,
0,
0,
0,
1,
0,
1,
0,
0,
0,
0,
0,
0,
0,
1,
1,
0,
0,
1,
0,
3,
1,
0,
1,
0,
0,
0,
1,
0,
0,
0,
0,
0,
0,
0,
0,
0,
0,
0,
0,
0,
0,
1,
0,
0,
0,
0,
0,
0,
0,
0,
0,
0,
1,
0,
0,
0,
0,
0,
0,
0,
0,
0,
0,
0,
0,
0,
0,
0,
0,
0,
0,
0,
0,
0,
0,
0,
0,
0,
0,
0,
0,
0,
0,
0,
2,
0,
0,
0,
0,
0,
0,
0,
0,
0,
0,
0,
0,
0,
0,
0,
0,
0,
0,
0,
0,
0,
0,
0,
0,
0,
0,
0,
0,
0,
0,
0,
0,
0,
0,
0,
0,
0,
0,
0,
0,
0,
0,
0,
0,
0,
0,
0,
0,
0,
0,
0,
0,
0,
0,
0,
1,
0,
0,
0,
0,
0,
0,
0,
0,
0,
0,
0,
0,
0,
0,
0,
0,
0,
1,
1,
0,
0,
0,
0,
0,
1,
0,
0,
0,
0,
0,
0,
0,
0,
0,
0,
0,
0,
0,
0,
0,
0,
0,
0,
0,
0,
0,
0,
0,
0,
0,
0,
0,
0,
0,
0,
0,
0,
0,
0,
0,
0,
0,
0,
0,
0,
0,
0,
0,
0,
0,
0,
0,
0,
0,
0,
0,
0,
0,
0,
0,
0,
0,
0,
0,
0,
0,
0,
0,
0,
0,
0,
0,
0,
0,
0,
0,
0,
0,
0,
0,
0,
0,
0,
0,
0,
0,
0,
0,
0,
0,
0,
0,
0,
0,
0,
0,
0,
0,
0,
0,
0,
0,
0,
0,
0,
0,
0,
0,
0,
0,
0,
0,
0,
0,
0,
0,
0,
0,
0,
0,
0,
0,
0,
0,
0,
0,
0,
0,
0,
0,
0,
0,
0,
0,
0,
0,
0,
0,
0,
0,
0,
0,
0,
0,
0,
0,
0,
0,
0,
0,
0,
0,
0,
0,
0,
0,
0,
0,
0,
0,
0,
0,
0,
0,
0,
0,
0,
0,
0,
0,
0,
0,
0,
0,
0,
0,
0,
0,
0,
0,
0,
0,
0,
0,
0,
0,
0,
0,
0,
0,
0,
0,
0,
0,
0,
0,
0,
0,
0,
0,
0,
0,
0,
0,
0,
0,
0,
0,
0,
0,
0,
0,
0,
0,
0,
0,
0,
0,
0,
0,
0,
0,
0,
0,
0,
0,
0,
0,
0,
0,
0,
0,
0,
0,
0,
0,
0,
0,
0,
0,
0,
0,
0,
0,
0,
0,
0,
0,
0,
0,
0,
0,
0,
0,
0,
0,
0,
0,
0,
0,
0,
0,
0,
0,
0,
0,
0,
0,
0,
0,
0,
0,
0,
0,
0,
0,
0,
0,
0,
0,
0,
0,
0,
0,
0,
0,
0,
0,
0,
0,
0,
0,
0,
0,
0,
0,
0,
0,
0,
0,
0,
0,
0,
0,
0,
0,
0,
0,
0,
0,
0,
0,
0,
0,
0,
0,
0,
0,
0,
0,
0,
0,
0,
0,
0,
0,
0,
0,
0,
0,
0,
0,
0,
0,
0,
0,
0,
0,
0,
0,
0,
0,
0,
0,
0,
0,
0,
0,
0,
0,
0,
0,
0,
0,
0,
0,
0,
0,
0,
0,
0,
0,
0,
0,
0,
0,
0,
0,
0,
0,
0,
0,
0,
0,
0,
0,
0,
0,
0,
0,
0,
0,
0,
0,
0,
0,
0,
0,
0,
0,
0,
0,
0,
0,
0,
0,
0,
0,
0,
0,
0,
0,
0,
0,
0,
0,
0,
0,
0,
0,
0,
0,
0,
0,
0,
0,
0,
0,
0,
0,
0,
0,
0,
0,
0,
0,
0,
0,
0,
0,
0,
0,
0,
0,
0,
0,
0,
0,
0,
0,
0,
0,
0,
0,
0,
0,
0,
0,
0,
0,
0,
0,
0,
0,
0,
0,
0,
0,
0,
0,
0,
0,
0,
0,
0,
0,
0,
0,
0,
0,
0,
0,
0,
0,
0,
0,
0,
0,
0,
0,
0,
0,
0,
0,
0,
0,
0,
0,
0,
0,
0,
0,
0,
0,
0,
0,
0,
0,
0,
0,
0,
0,
0,
0,
0,
0,
0,
0,
0,
0,
0,
0,
0,
0,
0,
0,
0,
0,
0,
0,
0,
0,
0,
0,
0,
0,
0,
0,
0,
0,
0,
0,
0,
0,
0,
0,
0,
0,
0,
0,
0,
0,
0,
0,
0,
0,
0,
0,
0,
0,
0,
0,
0,
0,
0,
0,
0,
0,
0,
0,
0,
0,
0,
0,
0,
0,
0,
0,
0,
0,
0,
0,
0,
0,
0,
0,
0,
0,
0,
0,
0,
0,
0,
0,
0,
0,
0,
0,
0,
0,
0,
0,
0,
0,
0,
0,
0,
0,
0,
0,
0,
0,
0,
0,
0,
0,
0,
0,
0,
0,
0,
0,
0,
0,
0,
0,
0,
0,
0,
0,
0,
0,
0,
#ENDOFDATA   :