File: N132962/Quantification/15 keV/GMIIIA/GMIIIA K1070[3][4].msa
#FORMAT      : EMSA/MAS Spectral Data File
#VERSION     : 1.0
#TITLE       : GMIIIA K1070[3][all]
#DATE        : 22-SEP-2025
#TIME        : 21:03
#OWNER       : Unknown
#NPOINTS     : 4096
#NCOLUMNS    : 1
#XUNITS      : eV
#YUNITS      : counts
#DATATYPE    : Y
#XPERCHAN    : 9.99778
#OFFSET      : 1.69135
#BEAMKV      : 15
#SIGNALTYPE  : EDS
#ELEVANGLE   : 35
#AZIMANGLE   : 0
#LIVETIME    : 239.984
#REALTIME    : 256.167
#PROBECUR    : 1.21822
#TAUWIND     : 0
#TDEADLYR    : 0
#TACTLYR     : 0.045
#TALWIND     : 0.025
#CHOFFSET    : 0.0
#XLABEL      : Energy (eV)
#YLABEL      : Counts
#XPOSITION   : 2.37856
#YPOSITION   : 15.67869
#ZPOSITION   : 37.36299
#EDSDET      : SD
##SPECIMEN   : GMIIIA K1070[3][all]
##D2STDCMP   : K1070,(O:34.31),(Mg:7.54),(Si:18.7),(Ca:8.93),(Zn:10.04),(Ba:11.2),(Pb:9.28)
##DET_HASH   : 12273538-fd48-a23f-0a19-f1e6fa85caef
##CALIB_HASH : 6abaa72c-aa41-8738-0be9-f592914732f3
##WORKING    : 15.0 mm
##DET_NAME   : EDAX All
##DET_MODE   : MediumLE
#SPECTRUM    :
32,
22,
15,
22,
111,
448,
1330,
3268,
7553,
10790,
8723,
6474,
5867,
6223,
8600,
25140,
88868,
165638,
121133,
34357,
8312,
5135,
4997,
5135,
5186,
5780,
6594,
6415,
6695,
7376,
7742,
8824,
17361,
36312,
44786,
29083,
12970,
7021,
6180,
8466,
20299,
44726,
52927,
31609,
11962,
6095,
5412,
5304,
5595,
5714,
5878,
6011,
5855,
6043,
6894,
13280,
43613,
108200,
146687,
104886,
44296,
17565,
9605,
6162,
4829,
4322,
4295,
4088,
4125,
4021,
3977,
4070,
4267,
4315,
4647,
5632,
8208,
13436,
18061,
17533,
14444,
13658,
11727,
8298,
5303,
3881,
3924,
4015,
4265,
4211,
3956,
3587,
3554,
3360,
3249,
3236,
3226,
3300,
3421,
3366,
3549,
3427,
3492,
3344,
3219,
3319,
3145,
3070,
2973,
2897,
2891,
2939,
2883,
3045,
2905,
2918,
2976,
3128,
3277,
4165,
7015,
14890,
25680,
32132,
27143,
16481,
7632,
3964,
2859,
2742,
3090,
3809,
4721,
5948,
6278,
5269,
3867,
2946,
2491,
2422,
2343,
2331,
2303,
2440,
2567,
2922,
4494,
7538,
10691,
11807,
10093,
6557,
3951,
2620,
2196,
2052,
2149,
2308,
2959,
4151,
5612,
6359,
6014,
4857,
3750,
3053,
2521,
2301,
2192,
2261,
2664,
3252,
3444,
3157,
2654,
2167,
1842,
1846,
1711,
1739,
1684,
1778,
1938,
2172,
2286,
2196,
2030,
1746,
1731,
1615,
1598,
1586,
1719,
1763,
1689,
1691,
1559,
1463,
1493,
1467,
1440,
1445,
1354,
1410,
1384,
1372,
1299,
1368,
1308,
1288,
1360,
1281,
1381,
1280,
1391,
1305,
1204,
1257,
1244,
1215,
1210,
1207,
1206,
1188,
1180,
1145,
1153,
1145,
1173,
1104,
1046,
1071,
1093,
1099,
1129,
1079,
1057,
1070,
1046,
956,
1038,
1110,
1034,
995,
1053,
972,
995,
1045,
934,
982,
980,
996,
936,
965,
958,
911,
960,
899,
851,
933,
903,
903,
868,
835,
823,
831,
831,
845,
862,
884,
794,
845,
826,
767,
803,
766,
787,
811,
762,
737,
729,
818,
929,
1111,
1631,
2369,
3315,
3872,
3971,
3404,
2432,
1646,
1150,
869,
744,
684,
676,
611,
615,
626,
680,
636,
636,
641,
660,
622,
622,
559,
598,
584,
579,
617,
603,
613,
684,
639,
734,
941,
957,
956,
878,
812,
742,
645,
558,
489,
505,
476,
509,
523,
473,
485,
472,
455,
475,
439,
449,
424,
454,
445,
434,
432,
442,
469,
403,
438,
443,
479,
483,
459,
538,
499,
519,
520,
416,
438,
390,
377,
362,
373,
359,
332,
386,
342,
322,
344,
351,
350,
301,
317,
313,
297,
279,
296,
317,
316,
295,
279,
266,
303,
262,
276,
276,
261,
257,
281,
257,
277,
249,
250,
238,
201,
242,
220,
236,
207,
253,
213,
228,
217,
212,
209,
185,
223,
187,
205,
195,
203,
190,
176,
207,
204,
191,
158,
171,
147,
189,
172,
182,
186,
169,
175,
154,
175,
163,
143,
152,
122,
131,
134,
134,
142,
132,
121,
120,
118,
125,
116,
99,
105,
86,
108,
102,
112,
92,
73,
85,
86,
96,
87,
83,
61,
104,
63,
70,
74,
80,
61,
81,
58,
58,
72,
58,
52,
55,
61,
56,
68,
57,
45,
59,
47,
41,
47,
40,
36,
48,
33,
24,
33,
33,
29,
26,
29,
21,
22,
24,
15,
18,
10,
11,
7,
17,
8,
11,
2,
5,
1,
6,
5,
4,
1,
2,
1,
1,
1,
0,
1,
1,
1,
3,
1,
1,
0,
1,
3,
2,
0,
0,
0,
1,
0,
1,
1,
1,
1,
0,
0,
2,
2,
0,
0,
0,
0,
0,
0,
1,
0,
2,
1,
0,
3,
0,
0,
0,
0,
0,
0,
0,
0,
1,
1,
0,
0,
1,
0,
0,
1,
1,
0,
1,
2,
0,
0,
0,
2,
1,
1,
0,
0,
0,
0,
1,
0,
0,
0,
0,
1,
0,
1,
1,
0,
0,
0,
0,
1,
1,
1,
0,
0,
0,
0,
1,
0,
1,
0,
0,
0,
0,
0,
1,
0,
0,
0,
1,
0,
0,
0,
0,
1,
0,
2,
0,
0,
1,
0,
1,
0,
0,
0,
0,
1,
0,
0,
0,
0,
0,
0,
0,
0,
0,
1,
0,
0,
0,
0,
0,
0,
1,
0,
1,
1,
0,
0,
0,
0,
0,
0,
0,
0,
1,
0,
0,
0,
1,
0,
0,
0,
0,
0,
0,
0,
0,
0,
0,
0,
0,
1,
0,
0,
0,
0,
1,
1,
0,
0,
0,
0,
0,
1,
0,
0,
0,
0,
0,
0,
0,
0,
0,
0,
0,
0,
0,
0,
0,
0,
0,
0,
1,
1,
0,
0,
0,
0,
0,
0,
0,
0,
0,
0,
0,
0,
0,
0,
0,
1,
0,
0,
0,
0,
0,
0,
0,
1,
0,
0,
0,
0,
0,
0,
0,
0,
0,
0,
0,
0,
0,
0,
0,
0,
0,
0,
0,
0,
0,
0,
0,
0,
0,
0,
0,
0,
0,
0,
0,
0,
0,
0,
0,
0,
0,
0,
0,
0,
0,
0,
0,
0,
0,
0,
0,
0,
0,
0,
0,
0,
0,
0,
0,
0,
0,
0,
0,
0,
0,
0,
0,
0,
0,
0,
0,
0,
0,
0,
0,
0,
0,
0,
0,
0,
0,
0,
0,
0,
0,
0,
0,
0,
0,
0,
0,
0,
0,
0,
0,
0,
0,
0,
0,
0,
0,
0,
0,
0,
0,
0,
0,
0,
0,
0,
0,
0,
0,
0,
0,
0,
0,
0,
0,
0,
0,
0,
0,
0,
0,
0,
0,
0,
0,
0,
0,
0,
0,
0,
0,
0,
0,
0,
0,
0,
0,
0,
0,
0,
0,
0,
0,
0,
0,
0,
0,
0,
0,
0,
0,
0,
0,
0,
0,
0,
0,
0,
0,
0,
0,
0,
0,
0,
0,
0,
0,
0,
0,
0,
0,
0,
0,
0,
0,
0,
0,
0,
0,
0,
0,
0,
0,
0,
0,
0,
0,
0,
0,
0,
0,
0,
0,
0,
0,
0,
0,
0,
0,
0,
0,
0,
0,
0,
0,
0,
0,
0,
0,
0,
0,
0,
0,
0,
0,
0,
0,
0,
0,
0,
0,
0,
0,
0,
0,
0,
0,
0,
0,
0,
0,
0,
0,
0,
0,
0,
0,
0,
0,
0,
0,
0,
0,
0,
0,
0,
0,
0,
0,
0,
0,
0,
0,
0,
0,
0,
0,
0,
0,
0,
0,
0,
0,
0,
0,
0,
0,
0,
0,
0,
0,
0,
0,
0,
0,
0,
0,
0,
0,
0,
0,
0,
0,
0,
0,
0,
0,
0,
0,
0,
0,
0,
0,
0,
0,
0,
0,
0,
0,
0,
0,
0,
0,
0,
0,
0,
0,
0,
0,
0,
0,
0,
0,
0,
0,
0,
0,
0,
0,
0,
0,
0,
0,
0,
0,
0,
0,
0,
0,
0,
0,
0,
0,
0,
0,
0,
0,
0,
0,
0,
0,
0,
0,
0,
0,
0,
0,
0,
0,
0,
0,
0,
0,
0,
0,
0,
0,
0,
0,
0,
0,
0,
0,
0,
0,
0,
0,
0,
0,
0,
0,
0,
0,
0,
0,
0,
0,
0,
0,
0,
0,
0,
0,
0,
0,
0,
0,
0,
0,
0,
0,
0,
0,
0,
0,
0,
0,
0,
0,
0,
0,
0,
0,
0,
0,
0,
0,
0,
0,
0,
0,
0,
0,
0,
0,
0,
0,
0,
0,
0,
0,
0,
0,
0,
0,
0,
0,
0,
0,
0,
0,
0,
0,
0,
0,
0,
0,
0,
0,
0,
0,
0,
0,
0,
0,
0,
0,
0,
0,
0,
0,
0,
0,
0,
0,
0,
0,
0,
0,
0,
0,
0,
0,
0,
0,
0,
0,
0,
0,
0,
0,
0,
0,
0,
0,
0,
0,
0,
0,
0,
0,
0,
0,
0,
0,
0,
0,
0,
0,
0,
0,
0,
0,
0,
0,
0,
0,
0,
0,
0,
0,
0,
0,
0,
0,
0,
0,
0,
0,
0,
0,
0,
0,
0,
0,
0,
0,
0,
0,
0,
0,
0,
0,
0,
0,
0,
0,
0,
0,
0,
0,
0,
0,
0,
0,
0,
0,
0,
0,
0,
0,
0,
0,
0,
0,
0,
0,
0,
0,
0,
0,
0,
0,
0,
0,
0,
0,
0,
0,
0,
0,
0,
0,
0,
0,
0,
0,
0,
0,
0,
0,
0,
0,
0,
0,
0,
0,
0,
0,
0,
0,
0,
0,
0,
0,
0,
0,
0,
0,
0,
0,
0,
0,
0,
0,
0,
0,
0,
0,
0,
0,
0,
0,
0,
0,
0,
0,
0,
0,
0,
0,
0,
0,
0,
0,
0,
0,
0,
0,
0,
0,
0,
0,
0,
0,
0,
0,
0,
0,
0,
0,
0,
0,
0,
0,
0,
0,
0,
0,
0,
0,
0,
#ENDOFDATA   :