File: N132962/Quantification/15 keV/GMIIIA/GMIIIA K252[5][4].msa
#FORMAT      : EMSA/MAS Spectral Data File
#VERSION     : 1.0
#TITLE       : GMIIIA K252[5][all]
#DATE        : 22-SEP-2025
#TIME        : 14:53
#OWNER       : Unknown
#NPOINTS     : 4096
#NCOLUMNS    : 1
#XUNITS      : eV
#YUNITS      : counts
#DATATYPE    : Y
#XPERCHAN    : 9.99778
#OFFSET      : 1.69135
#BEAMKV      : 15
#SIGNALTYPE  : EDS
#ELEVANGLE   : 35
#AZIMANGLE   : 0
#LIVETIME    : 240.007
#REALTIME    : 257.135
#PROBECUR    : 1.21732
#TAUWIND     : 0
#TDEADLYR    : 0
#TACTLYR     : 0.045
#TALWIND     : 0.025
#CHOFFSET    : 0.0
#XLABEL      : Energy (eV)
#YLABEL      : Counts
#XPOSITION   : 4.60999
#YPOSITION   : 2.59049
#ZPOSITION   : 37.36299
#EDSDET      : SD
##SPECIMEN   : GMIIIA K252[5][all]
##D2STDCMP   : K252,(O:30.83),(Si:18.7),(Mn:3.16),(Co:3.93),(Cu:3.99),(Zn:8.03),(Ba:31.35)
##DET_HASH   : 12273538-fd48-a23f-0a19-f1e6fa85caef
##CALIB_HASH : 6abaa72c-aa41-8738-0be9-f592914732f3
##WORKING    : 15.0 mm
##DET_NAME   : EDAX All
##DET_MODE   : MediumLE
#SPECTRUM    :
20,
26,
7,
32,
131,
594,
1739,
3801,
7969,
10042,
7318,
6296,
7066,
8390,
12317,
34607,
118465,
218860,
160901,
49807,
17258,
12818,
10210,
8345,
9472,
14680,
17812,
13423,
8673,
9410,
14333,
19330,
21757,
29118,
32960,
21988,
10390,
6104,
5032,
4868,
4811,
4887,
5086,
5017,
5160,
5215,
5501,
5565,
5925,
6100,
6260,
6239,
6226,
6317,
7049,
13410,
42803,
103714,
139587,
99747,
42246,
16655,
9125,
5813,
4637,
4553,
4377,
4329,
4359,
4338,
4392,
4506,
4505,
4458,
4751,
4812,
4909,
4733,
4593,
4371,
4291,
4327,
4213,
4224,
4121,
4243,
4145,
4113,
4200,
4341,
4302,
4122,
4083,
4053,
3966,
3867,
3768,
3870,
3907,
3813,
3849,
3868,
3827,
3765,
3747,
3712,
3751,
3541,
3552,
3465,
3578,
3621,
3310,
3493,
3437,
3407,
3446,
3418,
3387,
3229,
3277,
3195,
3239,
3147,
3178,
3119,
3073,
3084,
3089,
3344,
3600,
4042,
4102,
3847,
3391,
3035,
3005,
2772,
2891,
2876,
2772,
2967,
3023,
3125,
3732,
5153,
10080,
18279,
28315,
31974,
26378,
16057,
8000,
4198,
2968,
2677,
2851,
3522,
5343,
9079,
13597,
15974,
14526,
11236,
7859,
5759,
4367,
3474,
3188,
3640,
4901,
6381,
7012,
6074,
4523,
3286,
2507,
2102,
2074,
2107,
2126,
2359,
2794,
3389,
3648,
3636,
3173,
2580,
2150,
1995,
2058,
2255,
2667,
3193,
4132,
5242,
5825,
5808,
4640,
3532,
2462,
1898,
1681,
1640,
1584,
1608,
1642,
1627,
1648,
1603,
1540,
1535,
1627,
1844,
1742,
1977,
2059,
1930,
1841,
1551,
1508,
1447,
1358,
1452,
1370,
1485,
1578,
1869,
2434,
3349,
3991,
4145,
3587,
2839,
2001,
1612,
1398,
1259,
1238,
1280,
1221,
1220,
1236,
1198,
1203,
1224,
1212,
1184,
1218,
1235,
1192,
1294,
1276,
1346,
1461,
1507,
1377,
1378,
1161,
1129,
1086,
1075,
1076,
1130,
1358,
1704,
2169,
2725,
2697,
2525,
2072,
1581,
1235,
1032,
1023,
943,
979,
937,
946,
907,
937,
929,
1009,
1197,
1647,
2296,
3054,
3463,
3526,
3098,
2371,
1604,
1288,
1049,
992,
1006,
1074,
1037,
1019,
904,
861,
825,
775,
803,
766,
747,
768,
737,
776,
690,
687,
727,
742,
699,
727,
804,
887,
916,
973,
1047,
930,
881,
766,
735,
669,
621,
659,
641,
585,
597,
583,
628,
567,
568,
582,
518,
549,
562,
560,
538,
557,
545,
495,
550,
512,
536,
530,
498,
501,
490,
447,
455,
497,
478,
457,
434,
446,
458,
468,
457,
464,
447,
407,
411,
416,
420,
393,
382,
418,
388,
382,
367,
383,
353,
345,
365,
350,
360,
291,
346,
360,
347,
319,
341,
327,
316,
343,
308,
347,
299,
292,
282,
324,
294,
284,
294,
301,
312,
266,
282,
256,
259,
218,
255,
248,
257,
252,
218,
229,
235,
220,
214,
206,
242,
223,
242,
228,
211,
201,
186,
211,
179,
185,
184,
194,
178,
180,
163,
177,
175,
159,
155,
148,
154,
153,
168,
140,
154,
148,
119,
146,
123,
134,
115,
122,
128,
113,
115,
105,
92,
105,
94,
99,
96,
96,
98,
90,
77,
67,
83,
77,
61,
94,
69,
63,
81,
63,
75,
66,
62,
50,
64,
58,
62,
52,
54,
43,
59,
49,
34,
40,
39,
41,
27,
22,
25,
20,
27,
13,
15,
18,
15,
19,
19,
9,
6,
9,
5,
2,
3,
2,
3,
1,
2,
1,
2,
1,
1,
3,
0,
0,
1,
1,
2,
0,
0,
3,
0,
1,
1,
2,
0,
0,
1,
0,
0,
1,
1,
0,
0,
1,
2,
1,
0,
0,
1,
1,
3,
4,
1,
0,
2,
0,
1,
0,
0,
0,
3,
2,
0,
0,
1,
2,
0,
1,
0,
0,
1,
0,
0,
0,
1,
1,
0,
0,
0,
1,
0,
1,
1,
1,
0,
2,
1,
1,
2,
0,
0,
1,
0,
0,
1,
0,
3,
0,
1,
0,
2,
1,
1,
0,
0,
0,
0,
3,
0,
0,
0,
0,
1,
0,
0,
0,
1,
0,
0,
0,
0,
0,
0,
0,
0,
1,
0,
2,
0,
0,
0,
0,
0,
1,
0,
0,
0,
0,
0,
0,
1,
0,
0,
1,
0,
0,
1,
0,
2,
1,
0,
0,
0,
0,
0,
0,
0,
0,
0,
0,
0,
0,
0,
0,
0,
0,
0,
0,
0,
1,
0,
0,
0,
0,
0,
2,
0,
0,
0,
0,
0,
0,
0,
0,
0,
0,
0,
0,
1,
0,
0,
0,
0,
0,
0,
1,
0,
0,
0,
0,
0,
1,
0,
0,
0,
0,
1,
0,
0,
0,
0,
0,
0,
0,
0,
0,
0,
0,
0,
0,
0,
0,
0,
0,
0,
0,
0,
0,
0,
0,
0,
0,
0,
0,
0,
0,
0,
0,
0,
0,
0,
0,
0,
0,
0,
0,
0,
0,
0,
2,
0,
0,
0,
0,
0,
0,
0,
0,
0,
0,
0,
0,
0,
0,
0,
0,
0,
0,
0,
0,
0,
0,
0,
0,
0,
0,
0,
0,
0,
0,
0,
1,
0,
1,
1,
0,
0,
0,
0,
0,
0,
0,
0,
0,
0,
0,
0,
0,
0,
0,
0,
0,
0,
0,
0,
0,
0,
0,
0,
0,
0,
0,
0,
0,
0,
0,
0,
0,
0,
0,
0,
0,
0,
0,
0,
0,
0,
0,
0,
0,
0,
0,
0,
0,
0,
0,
0,
0,
0,
1,
0,
0,
0,
0,
0,
0,
0,
0,
0,
0,
0,
0,
0,
0,
0,
0,
0,
0,
0,
0,
0,
0,
0,
0,
0,
0,
0,
0,
0,
0,
0,
0,
0,
0,
0,
0,
0,
0,
0,
0,
0,
0,
0,
0,
0,
0,
0,
0,
0,
0,
0,
0,
0,
0,
0,
0,
0,
0,
0,
0,
0,
0,
0,
0,
0,
0,
0,
0,
0,
0,
0,
0,
0,
0,
0,
0,
0,
0,
0,
0,
0,
0,
0,
0,
0,
0,
0,
0,
0,
0,
0,
0,
0,
0,
0,
0,
0,
0,
0,
0,
0,
0,
0,
0,
0,
0,
0,
0,
0,
0,
0,
0,
0,
0,
0,
0,
0,
0,
0,
0,
0,
0,
0,
0,
0,
0,
0,
0,
0,
0,
0,
0,
0,
0,
0,
0,
0,
0,
0,
0,
0,
0,
0,
0,
0,
0,
0,
0,
0,
0,
0,
0,
0,
0,
0,
0,
0,
0,
0,
0,
0,
0,
0,
0,
0,
0,
0,
0,
0,
0,
0,
0,
0,
0,
0,
0,
0,
0,
0,
0,
0,
0,
0,
0,
0,
0,
0,
0,
0,
0,
0,
0,
0,
0,
0,
0,
0,
0,
0,
0,
0,
0,
0,
0,
0,
0,
0,
0,
0,
0,
0,
0,
0,
0,
0,
0,
0,
0,
0,
0,
0,
0,
0,
0,
0,
0,
0,
0,
0,
0,
0,
0,
0,
0,
0,
0,
0,
0,
0,
0,
0,
0,
0,
0,
0,
0,
0,
0,
0,
0,
0,
0,
0,
0,
0,
0,
0,
0,
0,
0,
0,
0,
0,
0,
0,
0,
0,
0,
0,
0,
0,
0,
0,
0,
0,
0,
0,
0,
0,
0,
0,
0,
0,
0,
0,
0,
0,
0,
0,
0,
0,
0,
0,
0,
0,
0,
0,
0,
0,
0,
0,
0,
0,
0,
0,
0,
0,
0,
0,
0,
0,
0,
0,
0,
0,
0,
0,
0,
0,
0,
0,
0,
0,
0,
0,
0,
0,
0,
0,
0,
0,
0,
0,
0,
0,
0,
0,
0,
0,
0,
0,
0,
0,
0,
0,
0,
0,
0,
0,
0,
0,
0,
0,
0,
0,
0,
0,
0,
0,
0,
0,
0,
0,
0,
0,
0,
0,
0,
0,
0,
0,
0,
0,
0,
0,
0,
0,
0,
0,
0,
0,
0,
0,
0,
0,
0,
0,
0,
0,
0,
0,
0,
0,
0,
0,
0,
0,
0,
0,
0,
0,
0,
0,
0,
0,
0,
0,
0,
0,
0,
0,
0,
0,
0,
0,
0,
0,
0,
0,
0,
0,
0,
0,
0,
0,
0,
0,
0,
0,
0,
0,
0,
0,
0,
0,
0,
0,
0,
0,
0,
0,
0,
0,
0,
0,
0,
0,
0,
0,
0,
0,
0,
0,
0,
0,
0,
0,
0,
0,
0,
0,
0,
0,
0,
0,
0,
0,
0,
0,
0,
0,
0,
0,
0,
0,
0,
0,
0,
0,
0,
0,
0,
0,
0,
0,
0,
0,
0,
0,
0,
0,
0,
0,
0,
0,
0,
0,
0,
0,
0,
0,
0,
0,
0,
0,
0,
0,
0,
0,
0,
0,
0,
0,
0,
0,
0,
0,
0,
0,
0,
0,
0,
0,
0,
0,
0,
0,
0,
0,
0,
0,
0,
0,
0,
0,
0,
0,
0,
0,
#ENDOFDATA   :