File: N132962/Quantification/15 keV/GMIIIA/GMIIIA K1008[2][4].msa
#FORMAT      : EMSA/MAS Spectral Data File
#VERSION     : 1.0
#TITLE       : GMIIIA K1008[2][all]
#DATE        : 22-SEP-2025
#TIME        : 21:44
#OWNER       : Unknown
#NPOINTS     : 4096
#NCOLUMNS    : 1
#XUNITS      : eV
#YUNITS      : counts
#DATATYPE    : Y
#XPERCHAN    : 9.99778
#OFFSET      : 1.69135
#BEAMKV      : 15
#SIGNALTYPE  : EDS
#ELEVANGLE   : 35
#AZIMANGLE   : 0
#LIVETIME    : 239.984
#REALTIME    : 256.496
#PROBECUR    : 1.21615
#TAUWIND     : 0
#TDEADLYR    : 0
#TACTLYR     : 0.045
#TALWIND     : 0.025
#CHOFFSET    : 0.0
#XLABEL      : Energy (eV)
#YLABEL      : Counts
#XPOSITION   : 11.40819
#YPOSITION   : 15.2091
#ZPOSITION   : 37.36299
#EDSDET      : SD
##SPECIMEN   : GMIIIA K1008[2][all]
##D2STDCMP   : K1008,(O:38.68),(Na:1.67),(Al:8.92),(Si:21.02),(Ca:6.75),(Rb:2.06),(Sr:10.05),(Zr:0.83),(Cs:2.12),(Ba:2.02),(Ho:1.96),(Tm:1.97),(Yb:1.98)
##DET_HASH   : 12273538-fd48-a23f-0a19-f1e6fa85caef
##CALIB_HASH : 6abaa72c-aa41-8738-0be9-f592914732f3
##WORKING    : 15.0 mm
##DET_NAME   : EDAX All
##DET_MODE   : MediumLE
#SPECTRUM    :
21,
29,
10,
23,
132,
429,
1122,
2723,
6349,
8547,
6657,
5075,
4781,
5221,
8046,
25277,
90768,
171981,
125607,
33766,
6111,
3563,
4103,
4296,
4261,
4567,
4596,
4669,
4891,
4913,
5236,
5459,
6311,
9900,
16000,
17196,
11372,
7260,
6557,
6538,
6415,
6184,
6404,
7065,
8593,
10268,
11495,
18006,
44271,
82972,
85293,
50614,
22456,
12216,
10374,
18881,
57027,
133044,
180164,
142741,
83227,
48763,
28798,
16584,
9548,
6224,
5204,
4908,
5102,
4714,
4264,
3935,
3841,
3837,
3685,
3637,
3634,
3444,
3394,
3169,
3135,
3080,
3057,
3015,
3126,
3114,
2993,
3037,
3065,
3112,
2947,
2955,
2959,
2868,
2824,
2776,
2886,
2768,
2936,
2811,
2903,
2826,
2721,
2675,
2600,
2686,
2761,
2753,
2793,
2750,
2694,
2700,
2601,
2517,
2611,
2672,
2700,
2790,
2917,
3472,
5877,
11526,
19379,
24165,
20632,
12729,
6040,
3203,
2527,
2394,
2473,
2987,
3756,
4628,
4732,
4140,
3143,
2415,
2192,
2229,
2455,
3031,
3719,
3844,
3618,
2970,
2598,
2828,
3414,
3567,
3330,
2851,
2548,
2624,
2722,
2606,
2325,
2204,
2067,
2237,
2378,
2512,
2494,
2383,
2320,
2121,
1895,
1773,
1682,
1688,
1748,
1820,
1831,
1723,
1672,
1664,
1655,
1650,
1578,
1479,
1441,
1486,
1492,
1550,
1516,
1661,
1441,
1381,
1371,
1287,
1356,
1367,
1329,
1302,
1323,
1316,
1287,
1306,
1282,
1266,
1153,
1198,
1148,
1174,
1216,
1230,
1173,
1124,
1170,
1201,
1155,
1183,
1116,
1177,
1162,
1160,
1083,
1131,
1088,
1137,
1154,
1240,
1420,
1470,
1692,
1527,
1268,
1177,
1061,
1003,
965,
990,
972,
992,
969,
997,
1081,
1185,
1367,
1405,
1345,
1225,
1117,
1043,
1027,
1117,
1299,
1391,
1412,
1282,
1197,
1197,
1006,
952,
826,
821,
803,
815,
782,
783,
777,
794,
894,
880,
851,
860,
794,
825,
866,
885,
849,
898,
817,
776,
710,
741,
763,
730,
761,
844,
857,
834,
852,
805,
758,
716,
671,
613,
610,
637,
623,
659,
684,
629,
664,
565,
565,
579,
563,
529,
561,
538,
496,
500,
548,
523,
478,
495,
504,
535,
517,
493,
512,
512,
506,
471,
476,
440,
442,
429,
431,
466,
447,
464,
435,
448,
457,
435,
445,
399,
444,
402,
433,
420,
393,
383,
377,
386,
396,
381,
364,
345,
363,
341,
359,
363,
348,
365,
314,
340,
313,
322,
349,
305,
308,
355,
288,
277,
286,
260,
294,
293,
288,
281,
274,
254,
275,
257,
255,
238,
241,
235,
241,
240,
262,
254,
249,
226,
249,
211,
251,
221,
220,
224,
241,
200,
213,
189,
217,
221,
223,
178,
206,
179,
204,
189,
157,
194,
180,
212,
172,
205,
184,
161,
174,
170,
136,
162,
165,
157,
141,
143,
134,
121,
151,
141,
130,
151,
130,
127,
140,
128,
128,
119,
134,
131,
121,
111,
95,
131,
98,
92,
109,
110,
86,
97,
95,
96,
95,
78,
81,
88,
87,
80,
74,
100,
75,
74,
70,
64,
64,
68,
78,
65,
68,
52,
68,
56,
61,
65,
42,
42,
34,
35,
46,
44,
46,
40,
34,
41,
30,
35,
35,
45,
39,
31,
36,
20,
32,
22,
30,
20,
22,
23,
18,
21,
18,
13,
17,
11,
10,
8,
12,
5,
7,
3,
5,
3,
1,
1,
1,
0,
3,
0,
1,
1,
1,
1,
1,
1,
2,
0,
0,
0,
1,
0,
1,
0,
1,
0,
1,
3,
1,
0,
0,
0,
0,
0,
0,
1,
1,
0,
0,
0,
0,
0,
0,
0,
0,
1,
0,
1,
2,
1,
2,
0,
0,
0,
0,
1,
0,
0,
0,
0,
0,
0,
0,
1,
0,
0,
0,
1,
0,
2,
0,
0,
0,
0,
1,
0,
0,
0,
2,
0,
0,
1,
0,
0,
0,
2,
0,
0,
0,
0,
0,
0,
0,
0,
0,
0,
0,
0,
0,
1,
0,
0,
1,
0,
0,
0,
0,
0,
0,
1,
0,
1,
0,
0,
1,
0,
0,
0,
0,
0,
0,
0,
0,
1,
0,
0,
0,
0,
0,
0,
0,
0,
0,
0,
0,
0,
0,
0,
0,
0,
0,
0,
0,
0,
0,
0,
0,
0,
0,
1,
0,
0,
0,
0,
0,
0,
0,
1,
0,
0,
0,
0,
0,
0,
0,
0,
0,
0,
0,
0,
0,
0,
0,
0,
0,
0,
0,
0,
0,
0,
0,
0,
0,
0,
0,
1,
0,
0,
0,
0,
0,
0,
0,
0,
0,
0,
0,
0,
0,
0,
0,
0,
0,
0,
0,
0,
0,
0,
0,
0,
0,
0,
0,
0,
0,
0,
0,
0,
1,
0,
0,
0,
0,
0,
0,
0,
0,
0,
0,
0,
1,
0,
0,
0,
0,
0,
0,
0,
0,
0,
0,
0,
0,
0,
0,
0,
0,
0,
0,
0,
0,
0,
0,
0,
0,
0,
0,
0,
0,
0,
0,
0,
0,
0,
0,
0,
0,
0,
0,
0,
0,
0,
0,
0,
0,
0,
0,
0,
0,
0,
0,
0,
0,
0,
0,
0,
0,
0,
0,
0,
0,
0,
0,
0,
0,
0,
0,
0,
0,
0,
0,
0,
0,
0,
0,
0,
0,
0,
0,
0,
0,
0,
0,
0,
0,
0,
0,
0,
0,
0,
0,
0,
0,
0,
0,
0,
0,
0,
0,
0,
0,
0,
0,
0,
0,
0,
0,
0,
0,
0,
0,
0,
0,
0,
0,
0,
0,
0,
0,
0,
0,
0,
0,
0,
0,
0,
0,
0,
0,
0,
0,
0,
0,
0,
0,
0,
0,
0,
0,
0,
0,
0,
0,
0,
0,
0,
0,
0,
0,
0,
0,
0,
0,
0,
0,
0,
0,
0,
0,
0,
0,
0,
0,
0,
0,
0,
0,
0,
0,
0,
0,
0,
0,
0,
0,
0,
0,
0,
0,
0,
0,
0,
0,
0,
0,
0,
0,
0,
0,
0,
0,
0,
0,
0,
0,
0,
0,
0,
0,
0,
0,
0,
0,
0,
0,
0,
0,
0,
0,
0,
0,
0,
0,
0,
0,
0,
0,
0,
0,
0,
0,
0,
0,
0,
0,
0,
0,
0,
0,
0,
0,
0,
0,
0,
0,
0,
0,
0,
0,
0,
0,
0,
0,
0,
0,
0,
0,
0,
0,
0,
0,
0,
0,
0,
0,
0,
0,
0,
0,
0,
0,
0,
0,
0,
0,
0,
0,
0,
0,
0,
0,
0,
0,
0,
0,
0,
0,
0,
0,
0,
0,
0,
0,
0,
0,
0,
0,
0,
0,
0,
0,
0,
0,
0,
0,
0,
0,
0,
0,
0,
0,
0,
0,
0,
0,
0,
0,
0,
0,
0,
0,
0,
0,
0,
0,
0,
0,
0,
0,
0,
0,
0,
0,
0,
0,
0,
0,
0,
0,
0,
0,
0,
0,
0,
0,
0,
0,
0,
0,
0,
0,
0,
0,
0,
0,
0,
0,
0,
0,
0,
0,
0,
0,
0,
0,
0,
0,
0,
0,
0,
0,
0,
0,
0,
0,
0,
0,
0,
0,
0,
0,
0,
0,
0,
0,
0,
0,
0,
0,
0,
0,
0,
0,
0,
0,
0,
0,
0,
0,
0,
0,
0,
0,
0,
0,
0,
0,
0,
0,
0,
0,
0,
0,
0,
0,
0,
0,
0,
0,
0,
0,
0,
0,
0,
0,
0,
0,
0,
0,
0,
0,
0,
0,
0,
0,
0,
0,
0,
0,
0,
0,
0,
0,
0,
0,
0,
0,
0,
0,
0,
0,
0,
0,
0,
0,
0,
0,
0,
0,
0,
0,
0,
0,
0,
0,
0,
0,
0,
0,
0,
0,
0,
0,
0,
0,
0,
0,
0,
0,
0,
0,
0,
0,
0,
0,
0,
0,
0,
0,
0,
0,
0,
0,
0,
0,
0,
0,
0,
0,
0,
0,
0,
0,
0,
0,
0,
0,
0,
0,
0,
0,
0,
0,
0,
0,
0,
0,
0,
0,
0,
0,
0,
0,
0,
0,
0,
0,
0,
0,
0,
0,
0,
0,
0,
0,
0,
0,
0,
0,
0,
0,
0,
0,
0,
0,
0,
0,
0,
0,
0,
0,
0,
0,
0,
0,
0,
0,
0,
0,
0,
0,
0,
0,
0,
0,
0,
0,
0,
0,
0,
0,
0,
0,
0,
0,
0,
0,
0,
0,
0,
0,
0,
0,
0,
0,
0,
0,
0,
0,
0,
0,
0,
0,
0,
0,
0,
0,
0,
0,
0,
0,
0,
0,
0,
0,
0,
0,
0,
0,
0,
0,
0,
0,
0,
0,
0,
0,
0,
0,
0,
0,
0,
0,
0,
0,
0,
0,
0,
0,
0,
0,
0,
0,
0,
0,
0,
0,
0,
0,
0,
0,
0,
0,
0,
0,
0,
0,
0,
0,
0,
0,
0,
#ENDOFDATA   :