File: N132962/Quantification/15 keV/GMIIIA/GMIIIA K1010[1][4].msa
#FORMAT      : EMSA/MAS Spectral Data File
#VERSION     : 1.0
#TITLE       : GMIIIA K1010[1][all]
#DATE        : 22-SEP-2025
#TIME        : 21:32
#OWNER       : Unknown
#NPOINTS     : 4096
#NCOLUMNS    : 1
#XUNITS      : eV
#YUNITS      : counts
#DATATYPE    : Y
#XPERCHAN    : 9.99778
#OFFSET      : 1.69135
#BEAMKV      : 15
#SIGNALTYPE  : EDS
#ELEVANGLE   : 35
#AZIMANGLE   : 0
#LIVETIME    : 240.069
#REALTIME    : 256.305
#PROBECUR    : 1.21615
#TAUWIND     : 0
#TDEADLYR    : 0
#TACTLYR     : 0.045
#TALWIND     : 0.025
#CHOFFSET    : 0.0
#XLABEL      : Energy (eV)
#YLABEL      : Counts
#XPOSITION   : 8.8174
#YPOSITION   : 15.4853
#ZPOSITION   : 37.36299
#EDSDET      : SD
##SPECIMEN   : GMIIIA K1010[1][all]
##D2STDCMP   : K1010,(O:38.96),(Al:8.92),(Si:21.02),(K:1.87),(Ca:6.75),(Ge:1.56),(Rb:2.06),(Sr:10.05),(Te:0.9),(Cs:2.12),(La:1.92),(Eu:1.94),(Gd:1.95)
##DET_HASH   : 12273538-fd48-a23f-0a19-f1e6fa85caef
##CALIB_HASH : 6abaa72c-aa41-8738-0be9-f592914732f3
##WORKING    : 15.0 mm
##DET_NAME   : EDAX All
##DET_MODE   : MediumLE
#SPECTRUM    :
29,
15,
12,
37,
125,
419,
1188,
2884,
6839,
8946,
6618,
4837,
4811,
5268,
8058,
24943,
90183,
170271,
124109,
33922,
6084,
3782,
4095,
4372,
4241,
4199,
4465,
5052,
5633,
5982,
5760,
5638,
5594,
6285,
7328,
7547,
7269,
8175,
10809,
14459,
15415,
11627,
8109,
6541,
6402,
6548,
7485,
14084,
38374,
73944,
75102,
41251,
16991,
9687,
9350,
18407,
56729,
133023,
180534,
143155,
84039,
49060,
29164,
16520,
9525,
6043,
4646,
3947,
3478,
3291,
3210,
3244,
3245,
3381,
3661,
3838,
3935,
3975,
3566,
3283,
3096,
3058,
3105,
3021,
2964,
3024,
2966,
2977,
2905,
2995,
2950,
2819,
2937,
3013,
2814,
2796,
2816,
2854,
2891,
2835,
2850,
2701,
2753,
2653,
2698,
2793,
2883,
3329,
4533,
6866,
9103,
9100,
6935,
4273,
3074,
2694,
2733,
2996,
3366,
4275,
6600,
11859,
20074,
24203,
20858,
12839,
6522,
3570,
2601,
2430,
2443,
2791,
3706,
4743,
4908,
4470,
3484,
2645,
2232,
2240,
2480,
3000,
3675,
4005,
3550,
2839,
2182,
1873,
1746,
1994,
1989,
2129,
2486,
3315,
3686,
3863,
3339,
2720,
2172,
1916,
1789,
1750,
1760,
1761,
2010,
1975,
2083,
2134,
2205,
2106,
1922,
1782,
1736,
1666,
1577,
1659,
1611,
1640,
1684,
1661,
1670,
1667,
1643,
1431,
1366,
1402,
1424,
1313,
1327,
1302,
1350,
1466,
1707,
1954,
2211,
2193,
2044,
1736,
1531,
1630,
1783,
1984,
2035,
1880,
1550,
1390,
1278,
1154,
1107,
1074,
1127,
1165,
1224,
1283,
1466,
1529,
1433,
1328,
1154,
1113,
1141,
1186,
1274,
1328,
1311,
1312,
1249,
1273,
1148,
1140,
1104,
950,
953,
949,
930,
974,
991,
960,
1013,
934,
886,
883,
845,
849,
847,
791,
888,
880,
885,
842,
868,
844,
891,
830,
739,
727,
747,
748,
775,
805,
762,
765,
710,
674,
730,
692,
705,
655,
746,
695,
657,
665,
686,
646,
620,
651,
626,
631,
589,
596,
662,
647,
569,
591,
604,
609,
569,
610,
548,
607,
533,
542,
525,
525,
482,
524,
536,
542,
514,
508,
493,
523,
541,
490,
473,
525,
497,
495,
478,
477,
464,
471,
455,
451,
401,
473,
439,
477,
425,
406,
409,
409,
406,
425,
423,
496,
503,
507,
599,
577,
587,
533,
480,
416,
373,
380,
370,
335,
318,
348,
355,
352,
353,
354,
315,
338,
321,
308,
333,
304,
312,
312,
314,
309,
279,
298,
297,
263,
288,
284,
279,
274,
257,
293,
299,
300,
293,
282,
265,
256,
262,
240,
258,
256,
255,
227,
228,
239,
251,
208,
214,
216,
212,
234,
229,
210,
212,
190,
177,
190,
179,
176,
197,
190,
179,
174,
155,
165,
148,
183,
161,
169,
172,
161,
158,
159,
155,
134,
151,
140,
155,
122,
134,
148,
120,
128,
124,
107,
125,
139,
118,
130,
116,
105,
136,
96,
133,
106,
103,
120,
111,
98,
97,
75,
77,
77,
80,
84,
89,
81,
85,
78,
75,
83,
70,
64,
64,
62,
59,
64,
64,
72,
60,
63,
59,
68,
58,
46,
70,
58,
59,
54,
34,
46,
46,
40,
51,
39,
40,
44,
22,
31,
31,
22,
23,
31,
20,
27,
21,
20,
25,
37,
21,
19,
17,
21,
24,
9,
17,
7,
4,
12,
5,
8,
2,
5,
2,
4,
2,
2,
2,
2,
0,
0,
1,
0,
0,
0,
0,
1,
0,
0,
0,
0,
1,
0,
0,
0,
0,
0,
0,
0,
0,
1,
1,
2,
0,
0,
0,
0,
0,
1,
0,
0,
1,
0,
1,
0,
0,
1,
0,
0,
3,
1,
1,
0,
0,
0,
0,
1,
1,
0,
1,
0,
0,
1,
0,
0,
0,
0,
1,
0,
1,
0,
0,
0,
0,
0,
0,
0,
1,
0,
1,
0,
0,
0,
0,
1,
0,
0,
0,
0,
2,
0,
0,
1,
0,
0,
1,
0,
1,
0,
0,
0,
0,
0,
0,
0,
0,
0,
0,
0,
0,
0,
0,
1,
0,
1,
0,
0,
0,
0,
0,
0,
0,
0,
0,
0,
0,
0,
0,
0,
0,
0,
0,
0,
0,
0,
0,
0,
0,
0,
0,
0,
0,
0,
0,
0,
0,
0,
0,
0,
0,
1,
0,
0,
0,
0,
0,
0,
0,
0,
0,
0,
0,
1,
0,
0,
0,
0,
0,
0,
0,
0,
0,
0,
0,
0,
0,
0,
0,
0,
0,
0,
0,
0,
0,
0,
0,
0,
0,
0,
0,
1,
0,
0,
0,
0,
0,
0,
0,
0,
0,
0,
0,
0,
0,
0,
0,
0,
0,
0,
0,
0,
0,
0,
0,
0,
0,
0,
0,
0,
0,
0,
0,
0,
0,
0,
0,
0,
0,
0,
0,
0,
0,
0,
0,
0,
0,
0,
1,
0,
0,
0,
0,
0,
0,
0,
0,
0,
0,
0,
0,
0,
0,
0,
0,
0,
0,
0,
0,
0,
0,
0,
0,
0,
0,
0,
0,
0,
0,
0,
0,
0,
0,
0,
0,
0,
0,
0,
0,
0,
0,
0,
0,
0,
0,
0,
0,
0,
0,
0,
0,
0,
0,
0,
0,
0,
0,
0,
0,
0,
0,
0,
0,
0,
0,
0,
0,
0,
0,
0,
0,
0,
0,
0,
0,
0,
0,
0,
0,
0,
0,
0,
0,
0,
0,
0,
0,
0,
0,
0,
0,
0,
0,
0,
0,
0,
0,
0,
0,
0,
0,
0,
0,
0,
0,
0,
0,
0,
0,
0,
0,
0,
0,
0,
0,
0,
0,
0,
0,
0,
0,
0,
0,
0,
0,
0,
0,
0,
0,
0,
0,
0,
0,
0,
0,
0,
0,
0,
0,
0,
0,
0,
0,
0,
0,
0,
0,
0,
0,
0,
0,
0,
0,
0,
0,
0,
0,
0,
0,
0,
0,
0,
0,
0,
0,
0,
0,
0,
0,
0,
0,
0,
0,
0,
0,
0,
0,
0,
0,
0,
0,
0,
0,
0,
0,
0,
0,
0,
0,
0,
0,
0,
0,
0,
0,
0,
0,
0,
0,
0,
0,
0,
0,
0,
0,
0,
0,
0,
0,
0,
0,
0,
0,
0,
0,
0,
0,
0,
0,
0,
0,
0,
0,
0,
0,
0,
0,
0,
0,
0,
0,
0,
0,
0,
0,
0,
0,
0,
0,
0,
0,
0,
0,
0,
0,
0,
0,
0,
0,
0,
0,
0,
0,
0,
0,
0,
0,
0,
0,
0,
0,
0,
0,
0,
0,
0,
0,
0,
0,
0,
0,
0,
0,
0,
0,
0,
0,
0,
0,
0,
0,
0,
0,
0,
0,
0,
0,
0,
0,
0,
0,
0,
0,
0,
0,
0,
0,
0,
0,
0,
0,
0,
0,
0,
0,
0,
0,
0,
0,
0,
0,
0,
0,
0,
0,
0,
0,
0,
0,
0,
0,
0,
0,
0,
0,
0,
0,
0,
0,
0,
0,
0,
0,
0,
0,
0,
0,
0,
0,
0,
0,
0,
0,
0,
0,
0,
0,
0,
0,
0,
0,
0,
0,
0,
0,
0,
0,
0,
0,
0,
0,
0,
0,
0,
0,
0,
0,
0,
0,
0,
0,
0,
0,
0,
0,
0,
0,
0,
0,
0,
0,
0,
0,
0,
0,
0,
0,
0,
0,
0,
0,
0,
0,
0,
0,
0,
0,
0,
0,
0,
0,
0,
0,
0,
0,
0,
0,
0,
0,
0,
0,
0,
0,
0,
0,
0,
0,
0,
0,
0,
0,
0,
0,
0,
0,
0,
0,
0,
0,
0,
0,
0,
0,
0,
0,
0,
0,
0,
0,
0,
0,
0,
0,
0,
0,
0,
0,
0,
0,
0,
0,
0,
0,
0,
0,
0,
0,
0,
0,
0,
0,
0,
0,
0,
0,
0,
0,
0,
0,
0,
0,
0,
0,
0,
0,
0,
0,
0,
0,
0,
0,
0,
0,
0,
0,
0,
0,
0,
0,
0,
0,
0,
0,
0,
0,
0,
0,
0,
0,
0,
0,
0,
0,
0,
0,
0,
0,
0,
0,
0,
0,
0,
0,
0,
0,
0,
0,
0,
0,
0,
0,
0,
0,
0,
0,
0,
0,
0,
0,
0,
0,
0,
0,
0,
0,
0,
0,
0,
0,
0,
0,
0,
0,
0,
0,
0,
0,
0,
0,
0,
0,
0,
0,
0,
0,
0,
0,
0,
0,
0,
0,
0,
0,
0,
0,
0,
0,
0,
0,
0,
0,
0,
0,
0,
0,
0,
0,
0,
0,
0,
0,
0,
0,
0,
0,
0,
0,
0,
0,
0,
0,
0,
0,
0,
0,
0,
0,
0,
0,
0,
0,
0,
0,
0,
0,
0,
0,
0,
0,
0,
0,
0,
0,
0,
0,
0,
0,
0,
0,
0,
0,
0,
0,
0,
0,
0,
0,
0,
0,
0,
0,
0,
0,
0,
#ENDOFDATA   :