File: N132962/Quantification/15 keV/GMIIIA/GMIIIA K1010[3][4].msa
#FORMAT      : EMSA/MAS Spectral Data File
#VERSION     : 1.0
#TITLE       : GMIIIA K1010[3][all]
#DATE        : 22-SEP-2025
#TIME        : 21:34
#OWNER       : Unknown
#NPOINTS     : 4096
#NCOLUMNS    : 1
#XUNITS      : eV
#YUNITS      : counts
#DATATYPE    : Y
#XPERCHAN    : 9.99778
#OFFSET      : 1.69135
#BEAMKV      : 15
#SIGNALTYPE  : EDS
#ELEVANGLE   : 35
#AZIMANGLE   : 0
#LIVETIME    : 239.915
#REALTIME    : 256.172
#PROBECUR    : 1.21615
#TAUWIND     : 0
#TDEADLYR    : 0
#TACTLYR     : 0.045
#TALWIND     : 0.025
#CHOFFSET    : 0.0
#XLABEL      : Energy (eV)
#YLABEL      : Counts
#XPOSITION   : 8.89438
#YPOSITION   : 15.3603
#ZPOSITION   : 37.36299
#EDSDET      : SD
##SPECIMEN   : GMIIIA K1010[3][all]
##D2STDCMP   : K1010,(O:38.96),(Al:8.92),(Si:21.02),(K:1.87),(Ca:6.75),(Ge:1.56),(Rb:2.06),(Sr:10.05),(Te:0.9),(Cs:2.12),(La:1.92),(Eu:1.94),(Gd:1.95)
##DET_HASH   : 12273538-fd48-a23f-0a19-f1e6fa85caef
##CALIB_HASH : 6abaa72c-aa41-8738-0be9-f592914732f3
##WORKING    : 15.0 mm
##DET_NAME   : EDAX All
##DET_MODE   : MediumLE
#SPECTRUM    :
26,
22,
14,
37,
115,
422,
1113,
2754,
6343,
8543,
6729,
4956,
4686,
5120,
8060,
25183,
91090,
171183,
124960,
33820,
6051,
3657,
4029,
4295,
4167,
4213,
4469,
5060,
5694,
5940,
5895,
5672,
5564,
5767,
6536,
6794,
6810,
8081,
11023,
14669,
15238,
11758,
7991,
6505,
6451,
6778,
7559,
14381,
38724,
74484,
75422,
40917,
16932,
9874,
9365,
18374,
56571,
134128,
182684,
144070,
84977,
49194,
29245,
16685,
9551,
5987,
4752,
3917,
3490,
3236,
3240,
3163,
3377,
3450,
3585,
3656,
3558,
3338,
3330,
3178,
3184,
3026,
2971,
3006,
2991,
3057,
2927,
3024,
3001,
2865,
2921,
2849,
2835,
2857,
2869,
2821,
2793,
2834,
2929,
2914,
2817,
2824,
2810,
2704,
2742,
2764,
2947,
3284,
4586,
6853,
8992,
8982,
6580,
4324,
2904,
2689,
2874,
2898,
3330,
4280,
6420,
12024,
20124,
24646,
21247,
12922,
6540,
3725,
2625,
2339,
2392,
2812,
3708,
4615,
4949,
4358,
3345,
2521,
2207,
2177,
2507,
3045,
3730,
3833,
3423,
2790,
2169,
1921,
1928,
1970,
1973,
2186,
2520,
3189,
3740,
3813,
3407,
2765,
2121,
1856,
1781,
1721,
1771,
1861,
1950,
2026,
2046,
2252,
2247,
2175,
1982,
1775,
1665,
1619,
1597,
1602,
1660,
1659,
1647,
1693,
1590,
1642,
1545,
1499,
1502,
1387,
1384,
1348,
1322,
1312,
1431,
1502,
1673,
2004,
2205,
2205,
2001,
1676,
1479,
1546,
1810,
2023,
2024,
1898,
1670,
1285,
1201,
1195,
1163,
1106,
1135,
1198,
1294,
1316,
1468,
1475,
1420,
1291,
1212,
1149,
1120,
1174,
1298,
1267,
1470,
1393,
1303,
1284,
1141,
1151,
1039,
1029,
941,
968,
952,
997,
1040,
1064,
998,
938,
878,
823,
786,
844,
791,
822,
768,
832,
883,
860,
905,
846,
839,
771,
778,
804,
768,
788,
806,
819,
799,
759,
731,
746,
726,
701,
734,
684,
694,
650,
704,
713,
666,
659,
664,
694,
627,
668,
672,
669,
577,
614,
614,
591,
553,
586,
581,
578,
596,
546,
515,
557,
574,
510,
553,
538,
510,
561,
577,
475,
491,
492,
529,
483,
489,
485,
503,
510,
461,
480,
435,
435,
489,
444,
441,
401,
449,
416,
447,
424,
449,
469,
392,
404,
427,
393,
474,
594,
554,
644,
580,
571,
437,
434,
368,
417,
348,
353,
325,
354,
319,
332,
347,
354,
364,
351,
306,
340,
329,
335,
324,
344,
274,
307,
335,
289,
301,
302,
277,
305,
244,
284,
285,
308,
308,
279,
285,
292,
300,
269,
254,
246,
219,
239,
213,
236,
270,
228,
241,
209,
205,
226,
260,
199,
185,
211,
203,
201,
199,
205,
178,
189,
206,
191,
152,
157,
179,
174,
163,
172,
183,
164,
155,
156,
131,
161,
147,
163,
159,
147,
126,
136,
133,
143,
136,
108,
131,
128,
112,
117,
123,
117,
121,
93,
112,
114,
108,
111,
101,
87,
87,
102,
89,
88,
92,
97,
89,
94,
88,
86,
87,
83,
79,
74,
58,
74,
66,
59,
64,
62,
69,
69,
56,
70,
51,
61,
68,
59,
40,
46,
54,
55,
44,
53,
38,
52,
46,
38,
41,
34,
45,
40,
33,
36,
35,
46,
17,
23,
30,
28,
33,
20,
19,
14,
13,
14,
11,
16,
18,
15,
13,
14,
7,
11,
5,
8,
4,
4,
3,
2,
1,
0,
0,
1,
0,
1,
1,
1,
0,
0,
2,
0,
0,
0,
0,
0,
0,
2,
1,
1,
2,
0,
0,
0,
1,
1,
0,
0,
0,
1,
0,
0,
1,
0,
0,
1,
0,
0,
1,
0,
0,
0,
1,
0,
0,
1,
0,
0,
0,
0,
1,
0,
1,
0,
0,
2,
0,
0,
0,
0,
0,
0,
2,
0,
0,
1,
1,
0,
1,
0,
0,
0,
1,
1,
0,
1,
0,
0,
1,
0,
0,
0,
0,
1,
0,
0,
0,
0,
0,
0,
0,
1,
1,
0,
0,
0,
0,
0,
0,
0,
1,
0,
0,
0,
0,
0,
1,
0,
1,
0,
0,
0,
0,
0,
0,
0,
0,
0,
0,
0,
0,
0,
0,
0,
0,
0,
0,
0,
0,
0,
0,
0,
1,
0,
0,
0,
0,
0,
0,
0,
0,
0,
0,
0,
0,
1,
0,
0,
0,
0,
0,
0,
0,
0,
0,
0,
0,
0,
0,
0,
0,
0,
0,
0,
0,
0,
0,
1,
0,
0,
0,
0,
0,
0,
0,
0,
0,
0,
0,
0,
0,
0,
0,
0,
0,
0,
0,
0,
0,
0,
0,
0,
0,
1,
0,
0,
0,
0,
0,
0,
0,
0,
0,
0,
0,
0,
0,
0,
0,
0,
0,
0,
0,
0,
0,
0,
0,
0,
0,
0,
0,
0,
0,
0,
0,
0,
0,
0,
0,
0,
0,
0,
0,
0,
0,
1,
0,
0,
0,
0,
0,
0,
0,
0,
0,
0,
0,
0,
0,
0,
0,
0,
0,
0,
0,
0,
0,
0,
0,
0,
0,
0,
0,
0,
0,
0,
0,
0,
0,
0,
0,
0,
0,
0,
0,
0,
0,
0,
0,
0,
0,
0,
0,
0,
0,
0,
0,
0,
0,
0,
0,
0,
0,
0,
0,
0,
0,
0,
0,
0,
0,
0,
0,
0,
0,
0,
0,
0,
0,
0,
0,
0,
0,
0,
0,
0,
0,
0,
0,
0,
0,
0,
0,
0,
0,
0,
0,
0,
0,
0,
0,
0,
0,
0,
0,
0,
0,
0,
0,
0,
0,
0,
0,
0,
0,
0,
0,
0,
0,
0,
0,
0,
0,
0,
0,
0,
0,
0,
0,
0,
0,
0,
0,
0,
0,
0,
0,
0,
0,
0,
0,
0,
0,
0,
0,
0,
0,
0,
0,
0,
0,
0,
0,
0,
0,
0,
0,
0,
0,
0,
0,
0,
0,
0,
0,
0,
0,
0,
0,
0,
0,
0,
0,
0,
0,
0,
0,
0,
0,
0,
0,
0,
0,
0,
0,
0,
0,
0,
0,
0,
0,
0,
0,
0,
0,
0,
0,
0,
0,
0,
0,
0,
0,
0,
0,
0,
0,
0,
0,
0,
0,
0,
0,
0,
0,
0,
0,
0,
0,
0,
0,
0,
0,
0,
0,
0,
0,
0,
0,
0,
0,
0,
0,
0,
0,
0,
0,
0,
0,
0,
0,
0,
0,
0,
0,
0,
0,
0,
0,
0,
0,
0,
0,
0,
0,
0,
0,
0,
0,
0,
0,
0,
0,
0,
0,
0,
0,
0,
0,
0,
0,
0,
0,
0,
0,
0,
0,
0,
0,
0,
0,
0,
0,
0,
0,
0,
0,
0,
0,
0,
0,
0,
0,
0,
0,
0,
0,
0,
0,
0,
0,
0,
0,
0,
0,
0,
0,
0,
0,
0,
0,
0,
0,
0,
0,
0,
0,
0,
0,
0,
0,
0,
0,
0,
0,
0,
0,
0,
0,
0,
0,
0,
0,
0,
0,
0,
0,
0,
0,
0,
0,
0,
0,
0,
0,
0,
0,
0,
0,
0,
0,
0,
0,
0,
0,
0,
0,
0,
0,
0,
0,
0,
0,
0,
0,
0,
0,
0,
0,
0,
0,
0,
0,
0,
0,
0,
0,
0,
0,
0,
0,
0,
0,
0,
0,
0,
0,
0,
0,
0,
0,
0,
0,
0,
0,
0,
0,
0,
0,
0,
0,
0,
0,
0,
0,
0,
0,
0,
0,
0,
0,
0,
0,
0,
0,
0,
0,
0,
0,
0,
0,
0,
0,
0,
0,
0,
0,
0,
0,
0,
0,
0,
0,
0,
0,
0,
0,
0,
0,
0,
0,
0,
0,
0,
0,
0,
0,
0,
0,
0,
0,
0,
0,
0,
0,
0,
0,
0,
0,
0,
0,
0,
0,
0,
0,
0,
0,
0,
0,
0,
0,
0,
0,
0,
0,
0,
0,
0,
0,
0,
0,
0,
0,
0,
0,
0,
0,
0,
0,
0,
0,
0,
0,
0,
0,
0,
0,
0,
0,
0,
0,
0,
0,
0,
0,
0,
0,
0,
0,
0,
0,
0,
0,
0,
0,
0,
0,
0,
0,
0,
0,
0,
0,
0,
0,
0,
0,
0,
0,
0,
0,
0,
0,
0,
0,
0,
0,
0,
0,
0,
0,
0,
0,
0,
0,
0,
0,
0,
0,
0,
0,
0,
0,
0,
0,
0,
0,
0,
0,
0,
0,
0,
0,
0,
0,
0,
0,
0,
0,
0,
0,
0,
0,
0,
0,
0,
0,
0,
0,
0,
0,
0,
0,
0,
0,
0,
0,
0,
0,
0,
0,
0,
0,
0,
0,
0,
0,
0,
0,
0,
0,
0,
0,
0,
0,
0,
0,
0,
0,
0,
0,
0,
0,
0,
0,
0,
0,
0,
0,
0,
0,
0,
0,
0,
0,
0,
0,
0,
0,
0,
0,
0,
0,
0,
0,
0,
#ENDOFDATA   :