File: N132962/Quantification/15 keV/GMIIIA/GMIIIA K1012[5][4].msa
#FORMAT      : EMSA/MAS Spectral Data File
#VERSION     : 1.0
#TITLE       : GMIIIA K1012[5][all]
#DATE        : 22-SEP-2025
#TIME        : 21:26
#OWNER       : Unknown
#NPOINTS     : 4096
#NCOLUMNS    : 1
#XUNITS      : eV
#YUNITS      : counts
#DATATYPE    : Y
#XPERCHAN    : 9.99778
#OFFSET      : 1.69135
#BEAMKV      : 15
#SIGNALTYPE  : EDS
#ELEVANGLE   : 35
#AZIMANGLE   : 0
#LIVETIME    : 239.934
#REALTIME    : 256.612
#PROBECUR    : 1.21822
#TAUWIND     : 0
#TDEADLYR    : 0
#TACTLYR     : 0.045
#TALWIND     : 0.025
#CHOFFSET    : 0.0
#XLABEL      : Energy (eV)
#YLABEL      : Counts
#XPOSITION   : 6.87432
#YPOSITION   : 15.44878
#ZPOSITION   : 37.36299
#EDSDET      : SD
##SPECIMEN   : GMIIIA K1012[5][all]
##D2STDCMP   : K1012,(O:39.34),(Na:1.48),(Mg:9.05),(Al:7.94),(Si:18.7),(P:0.63),(K:1.66),(Ca:0.4),(Ga:1.49),(Se:0.71),(In:1.65),(Cs:1.89),(Ba:13.43),(Ce:1.63)
##DET_HASH   : 12273538-fd48-a23f-0a19-f1e6fa85caef
##CALIB_HASH : 6abaa72c-aa41-8738-0be9-f592914732f3
##WORKING    : 15.0 mm
##DET_NAME   : EDAX All
##DET_MODE   : MediumLE
#SPECTRUM    :
23,
25,
10,
23,
121,
428,
1162,
2846,
6379,
7907,
5803,
5027,
5645,
6686,
10775,
35392,
129987,
246671,
179901,
48537,
9129,
4830,
4704,
4731,
4731,
5415,
5913,
5568,
5108,
5326,
5462,
5689,
6743,
9683,
15380,
18084,
15244,
12715,
9646,
10262,
24514,
55988,
66588,
39129,
13786,
6465,
6041,
10771,
29277,
56597,
56922,
31042,
12448,
6775,
6354,
12429,
43143,
107660,
145361,
103708,
42987,
15868,
8043,
5184,
4019,
4440,
5489,
6352,
5785,
4294,
3485,
3424,
3293,
3474,
3469,
3615,
3633,
3431,
3339,
3074,
3150,
3051,
3106,
3163,
2996,
2979,
2923,
2917,
3026,
2980,
2951,
3117,
3025,
2848,
2865,
2917,
2835,
2932,
2875,
2878,
2916,
2871,
2738,
2729,
2752,
2662,
3044,
3706,
5610,
8783,
11339,
10378,
7169,
4453,
3295,
3247,
3545,
3581,
3539,
3399,
3469,
3565,
3854,
4059,
3692,
3058,
2513,
2282,
2294,
2273,
2434,
2447,
2722,
2609,
2369,
2274,
2138,
1978,
2084,
2092,
2375,
2890,
3631,
3876,
3829,
3503,
4641,
7358,
11077,
12058,
10088,
6535,
3921,
2989,
2649,
2448,
2384,
2472,
3162,
4547,
6316,
7521,
6933,
5548,
4144,
3126,
2512,
2055,
1861,
2021,
2325,
2888,
3089,
3047,
2636,
2415,
2054,
2011,
1817,
1609,
1401,
1556,
1604,
1797,
1967,
2092,
1917,
1669,
1500,
1427,
1262,
1348,
1431,
1439,
1431,
1415,
1268,
1266,
1227,
1233,
1129,
1233,
1173,
1211,
1146,
1168,
1028,
1101,
1040,
1082,
1058,
1052,
1087,
1107,
1052,
1091,
1002,
964,
964,
1001,
986,
945,
896,
999,
911,
903,
900,
942,
920,
859,
859,
870,
913,
893,
866,
932,
804,
858,
840,
761,
814,
835,
802,
777,
807,
741,
792,
781,
821,
738,
822,
728,
764,
716,
738,
703,
791,
683,
689,
709,
713,
663,
722,
682,
664,
674,
614,
670,
662,
628,
630,
630,
595,
625,
601,
642,
606,
583,
553,
624,
567,
608,
594,
565,
600,
556,
545,
542,
551,
541,
576,
529,
529,
577,
518,
508,
500,
499,
533,
489,
477,
457,
474,
529,
534,
578,
714,
786,
818,
777,
709,
580,
477,
480,
443,
458,
401,
423,
448,
397,
402,
421,
406,
391,
369,
389,
378,
370,
388,
385,
400,
348,
352,
374,
366,
397,
354,
376,
343,
357,
345,
379,
367,
363,
343,
362,
314,
291,
307,
294,
281,
290,
294,
321,
254,
300,
283,
274,
294,
290,
274,
231,
284,
251,
263,
281,
255,
256,
231,
243,
227,
190,
224,
228,
229,
229,
217,
191,
221,
219,
210,
212,
208,
246,
173,
181,
197,
188,
197,
191,
188,
166,
165,
180,
184,
162,
172,
174,
149,
146,
188,
165,
153,
156,
138,
149,
144,
147,
166,
151,
138,
120,
144,
141,
122,
139,
117,
115,
103,
119,
110,
114,
99,
99,
124,
107,
91,
94,
111,
99,
98,
93,
89,
78,
89,
75,
102,
85,
81,
86,
79,
65,
92,
70,
69,
67,
65,
76,
63,
50,
59,
72,
57,
54,
48,
51,
55,
59,
45,
42,
53,
52,
36,
31,
34,
41,
49,
34,
41,
50,
33,
36,
32,
36,
21,
25,
21,
25,
30,
26,
24,
27,
18,
15,
15,
17,
16,
17,
6,
14,
7,
11,
11,
10,
8,
8,
3,
0,
5,
2,
1,
1,
1,
1,
0,
0,
0,
0,
0,
1,
0,
0,
0,
1,
0,
1,
1,
0,
1,
1,
0,
0,
0,
0,
0,
0,
1,
0,
0,
0,
0,
0,
0,
0,
1,
0,
0,
0,
0,
0,
0,
0,
0,
1,
0,
0,
0,
0,
0,
1,
2,
0,
0,
1,
1,
1,
0,
0,
0,
0,
0,
0,
1,
0,
0,
0,
1,
0,
0,
0,
1,
1,
0,
1,
0,
0,
0,
0,
0,
0,
1,
1,
0,
0,
0,
0,
0,
1,
0,
0,
0,
0,
0,
1,
0,
0,
0,
0,
0,
0,
0,
0,
0,
0,
0,
0,
0,
0,
0,
0,
0,
0,
0,
0,
0,
1,
0,
0,
0,
0,
0,
0,
2,
0,
0,
0,
0,
0,
0,
0,
0,
0,
0,
0,
0,
0,
0,
0,
0,
1,
0,
0,
0,
0,
0,
0,
0,
0,
1,
0,
0,
0,
0,
0,
0,
0,
0,
0,
0,
0,
0,
0,
0,
0,
0,
0,
0,
0,
0,
0,
0,
0,
0,
0,
0,
0,
1,
1,
0,
0,
0,
0,
0,
0,
0,
0,
0,
0,
0,
0,
0,
1,
0,
0,
0,
0,
0,
0,
0,
0,
0,
0,
0,
0,
0,
0,
0,
0,
0,
0,
0,
0,
0,
0,
0,
0,
0,
0,
0,
0,
0,
0,
0,
0,
0,
0,
0,
0,
0,
0,
0,
0,
0,
0,
0,
0,
0,
0,
0,
0,
0,
0,
0,
0,
0,
0,
0,
0,
0,
1,
0,
0,
0,
0,
0,
0,
0,
0,
0,
0,
0,
0,
0,
0,
0,
0,
0,
0,
0,
0,
0,
0,
0,
0,
0,
0,
0,
0,
0,
0,
0,
0,
0,
0,
0,
0,
0,
0,
0,
0,
0,
0,
0,
0,
0,
0,
0,
0,
0,
0,
0,
0,
0,
0,
0,
0,
0,
0,
0,
0,
0,
0,
0,
0,
0,
0,
0,
0,
0,
0,
0,
0,
0,
0,
0,
0,
0,
0,
0,
0,
0,
0,
0,
0,
0,
0,
0,
0,
0,
0,
0,
0,
0,
0,
0,
0,
0,
0,
0,
0,
0,
0,
0,
0,
0,
0,
0,
0,
0,
0,
0,
0,
0,
0,
0,
0,
0,
0,
0,
0,
0,
0,
0,
0,
0,
0,
0,
0,
0,
0,
0,
0,
0,
0,
0,
0,
0,
0,
0,
0,
0,
0,
0,
0,
0,
0,
0,
0,
0,
0,
0,
0,
0,
0,
0,
0,
0,
0,
0,
0,
0,
0,
0,
0,
0,
0,
0,
0,
0,
0,
0,
0,
0,
0,
0,
0,
0,
0,
0,
0,
0,
0,
0,
0,
0,
0,
0,
0,
0,
0,
0,
0,
0,
0,
0,
0,
0,
0,
0,
0,
0,
0,
0,
0,
0,
0,
0,
0,
0,
0,
0,
0,
0,
0,
0,
0,
0,
0,
0,
0,
0,
0,
0,
0,
0,
0,
0,
0,
0,
0,
0,
0,
0,
0,
0,
0,
0,
0,
0,
0,
0,
0,
0,
0,
0,
0,
0,
0,
0,
0,
0,
0,
0,
0,
0,
0,
0,
0,
0,
0,
0,
0,
0,
0,
0,
0,
0,
0,
0,
0,
0,
0,
0,
0,
0,
0,
0,
0,
0,
0,
0,
0,
0,
0,
0,
0,
0,
0,
0,
0,
0,
0,
0,
0,
0,
0,
0,
0,
0,
0,
0,
0,
0,
0,
0,
0,
0,
0,
0,
0,
0,
0,
0,
0,
0,
0,
0,
0,
0,
0,
0,
0,
0,
0,
0,
0,
0,
0,
0,
0,
0,
0,
0,
0,
0,
0,
0,
0,
0,
0,
0,
0,
0,
0,
0,
0,
0,
0,
0,
0,
0,
0,
0,
0,
0,
0,
0,
0,
0,
0,
0,
0,
0,
0,
0,
0,
0,
0,
0,
0,
0,
0,
0,
0,
0,
0,
0,
0,
0,
0,
0,
0,
0,
0,
0,
0,
0,
0,
0,
0,
0,
0,
0,
0,
0,
0,
0,
0,
0,
0,
0,
0,
0,
0,
0,
0,
0,
0,
0,
0,
0,
0,
0,
0,
0,
0,
0,
0,
0,
0,
0,
0,
0,
0,
0,
0,
0,
0,
0,
0,
0,
0,
0,
0,
0,
0,
0,
0,
0,
0,
0,
0,
0,
0,
0,
0,
0,
0,
0,
0,
0,
0,
0,
0,
0,
0,
0,
0,
0,
0,
0,
0,
0,
0,
0,
0,
0,
0,
0,
0,
0,
0,
0,
0,
0,
0,
0,
0,
0,
0,
0,
0,
0,
0,
0,
0,
0,
0,
0,
0,
0,
0,
0,
0,
0,
0,
0,
0,
0,
0,
0,
0,
0,
0,
0,
0,
0,
0,
0,
0,
0,
0,
0,
0,
0,
0,
0,
0,
0,
0,
0,
0,
0,
0,
0,
0,
0,
0,
0,
0,
0,
0,
0,
0,
0,
0,
0,
0,
0,
0,
0,
0,
0,
0,
0,
0,
0,
0,
0,
0,
0,
0,
0,
0,
0,
0,
0,
0,
0,
0,
0,
0,
0,
0,
0,
0,
0,
0,
0,
0,
0,
0,
0,
0,
0,
0,
0,
0,
0,
0,
0,
0,
0,
0,
0,
0,
0,
0,
0,
0,
0,
0,
0,
0,
0,
0,
0,
0,
0,
0,
0,
0,
0,
0,
0,
0,
0,
0,
0,
0,
0,
0,
0,
0,
0,
0,
#ENDOFDATA   :