File: N132962/Quantification/15 keV/GMIIIA/GMIIIA K1053[1][4].msa
#FORMAT      : EMSA/MAS Spectral Data File
#VERSION     : 1.0
#TITLE       : GMIIIA K1053[1][all]
#DATE        : 22-SEP-2025
#TIME        : 21:11
#OWNER       : Unknown
#NPOINTS     : 4096
#NCOLUMNS    : 1
#XUNITS      : eV
#YUNITS      : counts
#DATATYPE    : Y
#XPERCHAN    : 9.99778
#OFFSET      : 1.69135
#BEAMKV      : 15
#SIGNALTYPE  : EDS
#ELEVANGLE   : 35
#AZIMANGLE   : 0
#LIVETIME    : 239.904
#REALTIME    : 261.03
#PROBECUR    : 1.21822
#TAUWIND     : 0
#TDEADLYR    : 0
#TACTLYR     : 0.045
#TALWIND     : 0.025
#CHOFFSET    : 0.0
#XLABEL      : Energy (eV)
#YLABEL      : Counts
#XPOSITION   : 4.51383
#YPOSITION   : 15.42983
#ZPOSITION   : 37.36299
#EDSDET      : SD
##SPECIMEN   : GMIIIA K1053[1][all]
##D2STDCMP   : K1053,(O:16.13),(F:0.39),(Si:9.35),(Cl:0.64),(Br:1.09),(I:1.37),(Pb:71.02)
##DET_HASH   : 12273538-fd48-a23f-0a19-f1e6fa85caef
##CALIB_HASH : 6abaa72c-aa41-8738-0be9-f592914732f3
##WORKING    : 15.0 mm
##DET_NAME   : EDAX All
##DET_MODE   : MediumLE
#SPECTRUM    :
30,
24,
13,
51,
283,
1136,
3077,
6826,
12917,
15588,
10847,
7836,
7351,
7553,
8532,
15345,
41242,
72182,
53721,
19566,
10566,
9533,
10533,
10686,
8921,
7681,
7556,
7712,
8311,
8282,
8194,
8457,
8479,
8823,
9078,
8938,
9201,
9236,
9376,
9469,
9662,
9724,
10140,
10091,
10342,
10408,
10571,
11086,
12957,
15395,
15802,
14113,
12158,
11037,
11061,
15214,
34303,
74173,
99170,
74991,
41644,
26609,
18738,
12461,
9643,
8791,
8410,
8281,
8459,
8447,
8627,
9418,
10469,
11863,
13625,
21157,
47307,
100298,
147718,
142521,
114073,
102120,
86520,
52141,
22278,
10630,
9660,
12376,
14069,
12535,
9200,
6664,
5417,
5547,
5567,
5492,
5745,
5681,
5598,
5651,
5870,
6297,
6721,
6769,
6453,
6071,
5622,
5290,
5197,
4805,
4963,
4832,
4856,
4768,
4769,
4920,
4923,
4978,
4950,
4891,
4708,
4671,
4591,
4589,
4701,
4745,
4658,
4641,
4636,
5078,
5662,
5946,
5690,
5223,
4835,
4571,
4530,
4545,
4641,
4863,
4979,
5038,
4905,
4740,
4523,
4378,
4383,
4329,
4425,
4560,
4609,
4542,
4455,
4207,
4259,
4139,
4100,
4183,
4178,
4319,
4187,
4183,
4061,
3979,
3935,
3923,
3901,
3936,
3848,
3818,
3707,
3841,
3688,
3778,
3577,
3719,
3655,
3631,
3689,
3633,
3497,
3547,
3437,
3556,
3544,
3527,
3462,
3383,
3464,
3376,
3256,
3385,
3318,
3328,
3355,
3242,
3283,
3276,
3108,
3236,
3191,
3088,
3063,
3209,
3078,
3165,
3054,
3023,
3069,
2915,
3086,
3082,
3051,
3034,
3155,
2965,
2931,
2891,
2876,
2888,
2850,
2781,
2978,
2793,
2704,
2609,
2700,
2629,
2741,
2670,
2711,
2712,
2630,
2671,
2640,
2554,
2598,
2604,
2519,
2502,
2525,
2438,
2481,
2407,
2471,
2417,
2459,
2392,
2508,
2385,
2397,
2362,
2279,
2133,
2312,
2280,
2257,
2212,
2223,
2131,
2255,
2102,
2173,
2135,
2138,
2069,
2182,
2135,
2038,
2090,
2069,
2058,
1962,
2075,
1993,
1958,
1876,
1953,
1940,
1943,
1911,
1917,
1831,
1784,
1830,
1835,
1895,
1879,
1775,
1800,
1845,
1828,
1776,
1742,
1739,
1722,
1738,
1646,
1685,
1678,
1660,
1681,
1697,
1672,
1631,
1628,
1648,
1604,
1615,
1659,
1597,
1536,
1491,
1523,
1511,
1382,
1508,
1492,
1475,
1406,
1368,
1417,
1428,
1341,
1387,
1340,
1415,
1311,
1343,
1369,
1256,
1307,
1219,
1338,
1243,
1320,
1204,
1181,
1261,
1244,
1178,
1181,
1145,
1205,
1244,
1235,
1325,
1484,
1832,
2146,
2459,
2602,
2617,
2273,
1998,
1524,
1303,
1146,
1038,
1056,
1016,
975,
1012,
943,
901,
965,
978,
901,
976,
938,
895,
869,
920,
841,
852,
846,
868,
853,
830,
759,
789,
765,
796,
803,
725,
776,
725,
728,
737,
721,
742,
672,
735,
710,
677,
657,
714,
652,
702,
662,
632,
646,
584,
596,
614,
661,
584,
591,
621,
562,
515,
542,
518,
562,
569,
605,
575,
617,
647,
717,
738,
721,
680,
670,
549,
512,
450,
425,
420,
395,
437,
380,
437,
431,
413,
353,
382,
374,
332,
318,
314,
304,
281,
301,
300,
278,
282,
259,
260,
276,
273,
278,
253,
244,
278,
234,
262,
226,
256,
222,
209,
222,
212,
211,
189,
174,
184,
198,
179,
160,
153,
136,
149,
119,
121,
128,
143,
124,
122,
118,
113,
115,
109,
104,
88,
85,
58,
69,
75,
71,
49,
46,
51,
43,
35,
22,
20,
18,
23,
14,
8,
10,
5,
6,
8,
7,
5,
4,
5,
2,
2,
5,
8,
1,
3,
4,
3,
3,
4,
2,
5,
4,
2,
3,
5,
5,
3,
2,
6,
1,
4,
3,
2,
4,
1,
4,
7,
2,
2,
2,
3,
3,
3,
1,
1,
1,
3,
1,
1,
0,
1,
4,
3,
4,
0,
0,
3,
1,
0,
3,
0,
4,
2,
1,
2,
2,
4,
2,
1,
1,
4,
1,
4,
2,
2,
2,
1,
2,
1,
1,
3,
1,
3,
1,
0,
3,
2,
0,
1,
0,
1,
1,
0,
0,
0,
2,
1,
2,
2,
2,
2,
0,
1,
2,
1,
2,
0,
1,
0,
0,
2,
1,
1,
3,
0,
1,
0,
2,
2,
0,
1,
4,
3,
3,
2,
1,
2,
4,
0,
0,
1,
1,
2,
0,
0,
0,
2,
2,
1,
0,
1,
0,
0,
2,
0,
1,
1,
1,
0,
1,
2,
0,
0,
0,
0,
1,
0,
2,
0,
2,
1,
0,
0,
0,
1,
0,
1,
2,
0,
0,
2,
1,
0,
1,
0,
0,
1,
0,
1,
0,
0,
1,
1,
2,
0,
0,
0,
0,
0,
0,
0,
1,
0,
1,
1,
0,
1,
1,
0,
0,
0,
1,
1,
0,
1,
0,
1,
0,
0,
0,
0,
0,
0,
0,
1,
0,
0,
0,
0,
0,
1,
0,
1,
0,
0,
0,
0,
0,
0,
0,
0,
0,
1,
1,
0,
0,
0,
1,
0,
0,
2,
0,
0,
0,
1,
0,
0,
0,
0,
0,
0,
1,
0,
0,
0,
0,
0,
1,
0,
0,
0,
0,
0,
0,
1,
1,
0,
0,
0,
0,
0,
0,
0,
0,
0,
0,
0,
0,
0,
1,
0,
0,
0,
0,
0,
0,
0,
0,
0,
0,
0,
0,
0,
0,
0,
0,
0,
1,
0,
0,
0,
0,
0,
0,
0,
0,
0,
0,
0,
0,
0,
0,
0,
0,
0,
0,
0,
0,
0,
0,
1,
0,
0,
0,
0,
0,
0,
0,
0,
0,
0,
0,
0,
0,
1,
0,
0,
0,
0,
0,
0,
0,
0,
0,
0,
0,
0,
0,
0,
0,
0,
0,
0,
0,
0,
0,
0,
0,
0,
0,
0,
0,
0,
0,
0,
0,
0,
0,
0,
0,
0,
0,
0,
0,
0,
0,
0,
0,
0,
0,
0,
0,
0,
0,
0,
0,
0,
0,
0,
0,
0,
0,
0,
0,
0,
0,
0,
0,
0,
0,
0,
0,
0,
0,
0,
0,
0,
0,
0,
0,
0,
0,
0,
0,
0,
0,
0,
0,
0,
0,
0,
0,
0,
0,
0,
0,
0,
0,
0,
0,
0,
0,
0,
0,
0,
0,
0,
0,
0,
0,
0,
0,
0,
0,
0,
0,
0,
0,
0,
0,
0,
0,
0,
0,
0,
0,
0,
0,
0,
0,
0,
0,
0,
0,
0,
0,
0,
0,
0,
0,
0,
0,
0,
0,
0,
0,
0,
0,
0,
0,
0,
0,
0,
0,
0,
0,
0,
0,
0,
0,
0,
0,
0,
0,
0,
0,
0,
0,
0,
0,
0,
0,
0,
0,
0,
0,
0,
0,
0,
0,
0,
0,
0,
0,
0,
0,
0,
0,
0,
0,
0,
0,
0,
0,
0,
0,
0,
0,
0,
0,
0,
0,
0,
0,
0,
0,
0,
0,
0,
0,
0,
0,
0,
0,
0,
0,
0,
0,
0,
0,
0,
0,
0,
0,
0,
0,
0,
0,
0,
0,
0,
0,
0,
0,
0,
0,
0,
0,
0,
0,
0,
0,
0,
0,
0,
0,
0,
0,
0,
0,
0,
0,
0,
0,
0,
0,
0,
0,
0,
0,
0,
0,
0,
0,
0,
0,
0,
0,
0,
0,
0,
0,
0,
0,
0,
0,
0,
0,
0,
0,
0,
0,
0,
0,
0,
0,
0,
0,
0,
0,
0,
0,
0,
0,
0,
0,
0,
0,
0,
0,
0,
0,
0,
0,
0,
0,
0,
0,
0,
0,
0,
0,
0,
0,
0,
0,
0,
0,
0,
0,
0,
0,
0,
0,
0,
0,
0,
0,
0,
0,
0,
0,
0,
0,
0,
0,
0,
0,
0,
0,
0,
0,
0,
0,
0,
0,
0,
0,
0,
0,
0,
0,
0,
0,
0,
0,
0,
0,
0,
0,
0,
0,
0,
0,
0,
0,
0,
0,
0,
0,
0,
0,
0,
0,
0,
0,
0,
0,
0,
0,
0,
0,
0,
0,
0,
0,
0,
0,
0,
0,
0,
0,
0,
0,
0,
0,
0,
0,
0,
0,
0,
0,
0,
0,
0,
0,
0,
0,
0,
0,
0,
0,
0,
0,
0,
0,
0,
0,
0,
0,
0,
0,
0,
0,
0,
0,
0,
0,
0,
0,
0,
0,
0,
0,
0,
0,
0,
0,
0,
0,
0,
0,
0,
0,
0,
0,
0,
0,
0,
0,
0,
0,
0,
0,
0,
0,
0,
0,
0,
0,
0,
0,
0,
0,
0,
0,
0,
0,
0,
0,
0,
0,
0,
0,
0,
0,
0,
0,
0,
0,
0,
0,
0,
0,
0,
0,
0,
0,
0,
0,
0,
0,
0,
0,
0,
0,
0,
0,
0,
0,
0,
0,
0,
0,
0,
0,
0,
0,
0,
0,
0,
0,
0,
0,
0,
0,
0,
0,
0,
0,
0,
0,
0,
0,
0,
0,
0,
0,
0,
0,
0,
0,
0,
0,
0,
0,
#ENDOFDATA   :