File: N132962/Quantification/15 keV/GMIIIA/GMIIIA K251[2][4].msa
#FORMAT      : EMSA/MAS Spectral Data File
#VERSION     : 1.0
#TITLE       : GMIIIA K251[2][all]
#DATE        : 22-SEP-2025
#TIME        : 14:58
#OWNER       : Unknown
#NPOINTS     : 4096
#NCOLUMNS    : 1
#XUNITS      : eV
#YUNITS      : counts
#DATATYPE    : Y
#XPERCHAN    : 9.99778
#OFFSET      : 1.69135
#BEAMKV      : 15
#SIGNALTYPE  : EDS
#ELEVANGLE   : 35
#AZIMANGLE   : 0
#LIVETIME    : 239.936
#REALTIME    : 259.147
#PROBECUR    : 1.21732
#TAUWIND     : 0
#TDEADLYR    : 0
#TACTLYR     : 0.045
#TALWIND     : 0.025
#CHOFFSET    : 0.0
#XLABEL      : Energy (eV)
#YLABEL      : Counts
#XPOSITION   : 7.0718
#YPOSITION   : 2.45775
#ZPOSITION   : 37.36299
#EDSDET      : SD
##SPECIMEN   : GMIIIA K251[2][all]
##D2STDCMP   : K251,(O:23.02),(Al:1.32),(Si:14.02),(Ba:8.96),(Ta:4.09),(Pb:44.1),(Bi:4.48)
##DET_HASH   : 12273538-fd48-a23f-0a19-f1e6fa85caef
##CALIB_HASH : 6abaa72c-aa41-8738-0be9-f592914732f3
##WORKING    : 15.0 mm
##DET_NAME   : EDAX All
##DET_MODE   : MediumLE
#SPECTRUM    :
31,
25,
10,
47,
248,
812,
2419,
5502,
10691,
13330,
9347,
7078,
7007,
7420,
9346,
19804,
60080,
108428,
79927,
26094,
10179,
7803,
7536,
7997,
7670,
7575,
7877,
7803,
7382,
6994,
7028,
7505,
7971,
8113,
8109,
8250,
8159,
8099,
8044,
8039,
8242,
8205,
8573,
9012,
9532,
9497,
9497,
10403,
14130,
20131,
20192,
14931,
11065,
9999,
10907,
18877,
50791,
110357,
142884,
103879,
49731,
24782,
15384,
10297,
8053,
7497,
7210,
6918,
6792,
6550,
6765,
7248,
7975,
8770,
9963,
14225,
28814,
57888,
85250,
84165,
71194,
66682,
56782,
35595,
18807,
11161,
8259,
8020,
8893,
8562,
7254,
5984,
5238,
4862,
4753,
4593,
4867,
4930,
4881,
4991,
5048,
5444,
5626,
5625,
5685,
5357,
4994,
4729,
4604,
4391,
4333,
4272,
4336,
4283,
4362,
4316,
4443,
4290,
4336,
4198,
4205,
4178,
4138,
4069,
4055,
4095,
4098,
4015,
3915,
4113,
4035,
4045,
4077,
4083,
3979,
3985,
3977,
3799,
3863,
3947,
3925,
3864,
3816,
3741,
3963,
4443,
5679,
8088,
10777,
11838,
10407,
7360,
5101,
4027,
3582,
3498,
3536,
3830,
4310,
5336,
6586,
7329,
6849,
5964,
4979,
4172,
3713,
3628,
3526,
3639,
3866,
4370,
4542,
4169,
3770,
3403,
3288,
3087,
3004,
2979,
2986,
3108,
3195,
3288,
3484,
3370,
3294,
2950,
2921,
2848,
2885,
2932,
3032,
3016,
2913,
2855,
2722,
2766,
2693,
2646,
2525,
2708,
2662,
2561,
2516,
2545,
2479,
2548,
2402,
2529,
2393,
2427,
2511,
2488,
2438,
2485,
2499,
2474,
2284,
2374,
2310,
2357,
2236,
2223,
2238,
2252,
2157,
2169,
2041,
2168,
2092,
2081,
2161,
2118,
2160,
2050,
2034,
2046,
2077,
2033,
2011,
2096,
1910,
2002,
1972,
1993,
2080,
1882,
2011,
1919,
1886,
1981,
1882,
1873,
1846,
1884,
1797,
1870,
1800,
1766,
1756,
1761,
1698,
1792,
1664,
1690,
1805,
1844,
1860,
2081,
2233,
2268,
2267,
2160,
1881,
1760,
1698,
1615,
1535,
1547,
1559,
1523,
1431,
1447,
1509,
1463,
1378,
1503,
1391,
1394,
1453,
1343,
1345,
1354,
1403,
1380,
1327,
1312,
1358,
1383,
1315,
1378,
1348,
1231,
1318,
1253,
1388,
1357,
1312,
1421,
1455,
1425,
1391,
1354,
1304,
1281,
1235,
1299,
1161,
1233,
1245,
1234,
1247,
1270,
1141,
1119,
1091,
1085,
1059,
1040,
1027,
1023,
974,
999,
1022,
949,
956,
965,
1019,
972,
969,
915,
956,
934,
879,
995,
1055,
1111,
1251,
1386,
1554,
1694,
1708,
1482,
1301,
1191,
980,
882,
852,
895,
876,
876,
873,
848,
856,
764,
735,
785,
725,
662,
703,
688,
719,
672,
677,
675,
603,
640,
652,
645,
619,
559,
624,
631,
586,
590,
561,
569,
579,
570,
532,
549,
524,
497,
544,
507,
530,
507,
466,
458,
498,
489,
509,
502,
479,
477,
463,
417,
416,
426,
436,
455,
387,
421,
388,
409,
423,
470,
466,
535,
513,
485,
494,
455,
397,
378,
338,
311,
324,
323,
316,
324,
309,
317,
320,
285,
301,
261,
297,
231,
228,
235,
222,
243,
243,
242,
240,
202,
213,
204,
200,
173,
217,
189,
186,
180,
161,
166,
155,
147,
151,
156,
137,
156,
134,
104,
130,
141,
121,
116,
100,
96,
82,
87,
93,
113,
97,
100,
88,
99,
80,
74,
82,
74,
63,
63,
59,
53,
56,
51,
44,
37,
38,
31,
26,
27,
23,
11,
14,
6,
6,
7,
6,
6,
4,
6,
2,
2,
2,
2,
3,
2,
2,
3,
1,
2,
2,
5,
0,
4,
2,
3,
3,
0,
1,
1,
0,
4,
2,
3,
2,
3,
6,
0,
3,
2,
4,
3,
1,
1,
5,
4,
2,
2,
3,
1,
1,
0,
3,
0,
1,
1,
2,
2,
0,
1,
1,
0,
0,
3,
0,
2,
0,
1,
2,
1,
2,
1,
0,
1,
1,
2,
0,
0,
0,
2,
0,
1,
1,
0,
0,
0,
3,
1,
1,
0,
0,
3,
0,
3,
1,
2,
1,
0,
1,
2,
3,
2,
1,
0,
0,
0,
1,
2,
2,
1,
2,
1,
2,
1,
1,
1,
0,
1,
1,
0,
2,
3,
0,
1,
0,
0,
0,
0,
0,
0,
1,
0,
0,
0,
1,
0,
1,
0,
1,
2,
0,
0,
3,
0,
0,
0,
0,
0,
0,
0,
1,
0,
0,
1,
2,
0,
0,
0,
0,
1,
2,
0,
1,
0,
0,
0,
0,
1,
0,
1,
0,
1,
1,
1,
0,
0,
0,
0,
0,
1,
0,
0,
2,
1,
1,
0,
0,
0,
1,
0,
1,
0,
0,
0,
0,
0,
1,
0,
1,
0,
0,
0,
0,
0,
0,
1,
0,
0,
0,
0,
0,
0,
0,
0,
0,
0,
1,
0,
0,
0,
0,
0,
1,
0,
0,
1,
0,
0,
0,
0,
0,
0,
0,
0,
1,
0,
0,
0,
0,
0,
0,
0,
1,
0,
0,
0,
1,
0,
1,
0,
0,
0,
0,
0,
0,
0,
0,
0,
0,
0,
0,
0,
0,
0,
0,
0,
0,
0,
0,
0,
1,
0,
0,
1,
1,
0,
0,
0,
0,
0,
0,
1,
0,
1,
0,
0,
0,
0,
0,
0,
0,
0,
0,
0,
0,
0,
0,
0,
0,
0,
0,
0,
0,
0,
0,
0,
0,
0,
0,
0,
0,
0,
0,
0,
0,
0,
0,
0,
0,
0,
0,
0,
0,
0,
0,
0,
0,
0,
0,
0,
0,
0,
0,
0,
0,
0,
0,
0,
0,
0,
1,
0,
0,
0,
0,
0,
0,
0,
0,
0,
0,
0,
0,
0,
0,
0,
0,
0,
0,
0,
0,
0,
0,
0,
0,
0,
0,
0,
0,
0,
0,
0,
0,
0,
0,
0,
0,
0,
0,
0,
0,
0,
0,
0,
0,
0,
0,
0,
0,
0,
0,
0,
0,
0,
0,
0,
0,
0,
0,
0,
0,
0,
0,
0,
0,
0,
0,
0,
0,
0,
0,
0,
0,
0,
0,
0,
0,
0,
0,
0,
0,
0,
0,
0,
0,
0,
0,
0,
0,
0,
0,
0,
0,
0,
0,
0,
0,
0,
0,
0,
0,
0,
0,
0,
0,
0,
0,
0,
0,
0,
0,
0,
0,
0,
0,
0,
0,
0,
0,
0,
0,
0,
0,
0,
0,
0,
0,
0,
0,
0,
0,
0,
0,
0,
0,
0,
0,
0,
0,
0,
0,
0,
0,
0,
0,
0,
0,
0,
0,
0,
0,
0,
0,
0,
0,
0,
0,
0,
0,
0,
0,
0,
0,
0,
0,
0,
0,
0,
0,
0,
0,
0,
0,
0,
0,
0,
0,
0,
0,
0,
0,
0,
0,
0,
0,
0,
0,
0,
0,
0,
0,
0,
0,
0,
0,
0,
0,
0,
0,
0,
0,
0,
0,
0,
0,
0,
0,
0,
0,
0,
0,
0,
0,
0,
0,
0,
0,
0,
0,
0,
0,
0,
0,
0,
0,
0,
0,
0,
0,
0,
0,
0,
0,
0,
0,
0,
0,
0,
0,
0,
0,
0,
0,
0,
0,
0,
0,
0,
0,
0,
0,
0,
0,
0,
0,
0,
0,
0,
0,
0,
0,
0,
0,
0,
0,
0,
0,
0,
0,
0,
0,
0,
0,
0,
0,
0,
0,
0,
0,
0,
0,
0,
0,
0,
0,
0,
0,
0,
0,
0,
0,
0,
0,
0,
0,
0,
0,
0,
0,
0,
0,
0,
0,
0,
0,
0,
0,
0,
0,
0,
0,
0,
0,
0,
0,
0,
0,
0,
0,
0,
0,
0,
0,
0,
0,
0,
0,
0,
0,
0,
0,
0,
0,
0,
0,
0,
0,
0,
0,
0,
0,
0,
0,
0,
0,
0,
0,
0,
0,
0,
0,
0,
0,
0,
0,
0,
0,
0,
0,
0,
0,
0,
0,
0,
0,
0,
0,
0,
0,
0,
0,
0,
0,
0,
0,
0,
0,
0,
0,
0,
0,
0,
0,
0,
0,
0,
0,
0,
0,
0,
0,
0,
0,
0,
0,
0,
0,
0,
0,
0,
0,
0,
0,
0,
0,
0,
0,
0,
0,
0,
0,
0,
0,
0,
0,
0,
0,
0,
0,
0,
0,
0,
0,
0,
0,
0,
0,
0,
0,
0,
0,
0,
0,
0,
0,
0,
0,
0,
0,
0,
0,
0,
0,
0,
0,
0,
0,
0,
0,
0,
0,
0,
0,
0,
0,
0,
0,
0,
0,
0,
0,
0,
0,
0,
0,
0,
0,
0,
0,
0,
0,
0,
0,
0,
0,
0,
0,
0,
0,
0,
0,
0,
0,
0,
0,
0,
0,
0,
0,
0,
0,
0,
0,
0,
0,
0,
0,
0,
0,
0,
0,
0,
0,
0,
0,
0,
0,
0,
0,
0,
0,
0,
0,
0,
0,
0,
0,
0,
0,
0,
0,
0,
0,
0,
0,
0,
0,
0,
0,
0,
#ENDOFDATA   :