File: N132962/Quantification/15 keV/GMIIIA/GMIIIA K1001[5][4].msa
#FORMAT      : EMSA/MAS Spectral Data File
#VERSION     : 1.0
#TITLE       : GMIIIA K1001[5][all]
#DATE        : 22-SEP-2025
#TIME        : 21:57
#OWNER       : Unknown
#NPOINTS     : 4096
#NCOLUMNS    : 1
#XUNITS      : eV
#YUNITS      : counts
#DATATYPE    : Y
#XPERCHAN    : 9.99778
#OFFSET      : 1.69135
#BEAMKV      : 15
#SIGNALTYPE  : EDS
#ELEVANGLE   : 35
#AZIMANGLE   : 0
#LIVETIME    : 239.943
#REALTIME    : 256.231
#PROBECUR    : 1.21615
#TAUWIND     : 0
#TDEADLYR    : 0
#TACTLYR     : 0.045
#TALWIND     : 0.025
#CHOFFSET    : 0.0
#XLABEL      : Energy (eV)
#YLABEL      : Counts
#XPOSITION   : 13.48517
#YPOSITION   : 15.0143
#ZPOSITION   : 37.36299
#EDSDET      : SD
##SPECIMEN   : GMIIIA K1001[5][all]
##D2STDCMP   : K1001,(O:39.47),(Na:1.67),(Mg:1.36),(Al:8.92),(Si:21.02),(K:1.87),(Ca:6.75),(Rb:2.06),(Sr:10.05),(Pr:1.92),(Nd:1.93),(Er:1.97),(Pb:1.04)
##DET_HASH   : 12273538-fd48-a23f-0a19-f1e6fa85caef
##CALIB_HASH : 6abaa72c-aa41-8738-0be9-f592914732f3
##WORKING    : 15.0 mm
##DET_NAME   : EDAX All
##DET_MODE   : MediumLE
#SPECTRUM    :
29,
20,
10,
22,
113,
396,
1147,
3075,
7406,
9880,
6849,
4739,
4473,
4973,
7677,
24116,
88490,
167835,
122854,
32879,
5664,
3383,
4074,
4544,
4486,
4477,
4312,
4578,
4695,
5302,
5955,
7094,
8194,
10640,
16321,
17032,
11393,
7088,
6293,
6519,
9346,
14755,
16611,
11950,
7935,
7573,
10194,
18128,
42349,
76512,
75822,
41118,
16891,
9682,
9518,
18565,
57775,
133869,
181639,
145210,
84161,
49589,
29225,
16711,
9408,
6063,
4615,
3767,
3395,
3112,
3160,
3154,
3220,
3308,
3618,
3622,
3837,
4149,
4579,
4345,
4014,
3886,
3717,
3416,
3108,
2931,
2874,
2930,
2927,
2898,
2824,
2882,
2710,
2817,
2783,
2805,
2870,
2703,
2777,
2798,
2804,
2756,
2640,
2640,
2701,
2784,
2806,
3183,
4304,
6531,
8700,
8650,
6470,
4094,
3052,
2562,
2628,
2901,
3223,
4024,
6289,
11846,
19528,
23700,
20403,
12054,
5884,
2939,
2239,
2201,
2249,
2722,
3414,
4319,
4545,
3906,
3096,
2288,
2098,
1839,
1851,
1857,
1845,
1833,
1825,
1780,
1757,
1729,
1804,
1872,
1832,
1826,
1684,
1687,
1774,
1641,
1681,
1611,
1585,
1582,
1653,
1550,
1635,
1572,
1721,
2070,
2435,
2694,
2844,
2551,
2153,
1972,
1990,
2258,
2397,
2281,
1913,
1699,
1412,
1408,
1509,
1697,
1892,
1988,
1871,
1707,
1606,
1497,
1530,
1599,
1712,
1696,
1653,
1628,
1577,
1499,
1474,
1376,
1191,
1238,
1197,
1210,
1276,
1252,
1273,
1300,
1163,
1059,
1171,
1077,
1151,
1139,
1145,
1100,
1091,
1080,
1052,
1068,
1058,
1032,
1032,
1044,
1040,
974,
948,
954,
953,
972,
1053,
1224,
1387,
1511,
1435,
1335,
1166,
988,
908,
861,
850,
848,
836,
862,
799,
781,
742,
806,
794,
822,
773,
814,
753,
804,
762,
698,
745,
723,
767,
775,
880,
882,
937,
900,
874,
814,
680,
677,
679,
723,
679,
709,
740,
720,
729,
684,
667,
679,
649,
594,
597,
575,
594,
543,
549,
559,
581,
541,
531,
516,
496,
543,
502,
563,
541,
532,
570,
549,
519,
499,
532,
540,
499,
490,
509,
514,
514,
465,
460,
440,
445,
489,
441,
438,
481,
460,
448,
415,
427,
444,
439,
423,
425,
402,
381,
396,
378,
392,
396,
364,
389,
357,
372,
328,
366,
366,
390,
348,
340,
374,
326,
339,
312,
315,
294,
320,
283,
282,
338,
318,
272,
256,
331,
329,
305,
307,
290,
281,
287,
253,
279,
262,
271,
257,
264,
268,
285,
294,
270,
234,
241,
227,
227,
226,
219,
232,
228,
250,
221,
217,
202,
203,
223,
220,
231,
212,
208,
219,
180,
173,
171,
186,
183,
190,
161,
165,
209,
172,
157,
154,
167,
162,
155,
152,
144,
158,
137,
164,
155,
138,
146,
116,
125,
125,
111,
112,
120,
145,
130,
112,
115,
97,
133,
124,
112,
108,
96,
83,
104,
97,
113,
83,
82,
88,
71,
100,
83,
89,
85,
84,
83,
90,
85,
80,
62,
68,
70,
74,
64,
67,
61,
60,
67,
71,
49,
66,
57,
56,
48,
41,
50,
35,
34,
42,
36,
35,
32,
33,
33,
29,
42,
32,
43,
40,
34,
29,
17,
30,
21,
22,
24,
22,
23,
21,
24,
25,
7,
16,
13,
16,
18,
9,
7,
17,
6,
5,
8,
4,
3,
6,
5,
1,
0,
0,
1,
1,
0,
0,
1,
1,
0,
0,
0,
0,
1,
0,
1,
0,
1,
2,
0,
1,
0,
0,
0,
0,
2,
1,
0,
1,
1,
1,
0,
2,
1,
0,
0,
0,
0,
0,
0,
0,
0,
1,
1,
0,
0,
0,
0,
0,
0,
0,
0,
0,
0,
0,
0,
0,
0,
0,
0,
0,
0,
1,
0,
0,
0,
0,
1,
0,
0,
0,
0,
1,
0,
0,
1,
0,
0,
0,
0,
0,
0,
1,
0,
0,
0,
0,
0,
1,
0,
0,
0,
1,
0,
0,
0,
0,
0,
0,
0,
0,
0,
0,
1,
0,
0,
0,
0,
1,
0,
1,
0,
0,
0,
0,
0,
0,
1,
0,
0,
1,
0,
0,
0,
0,
0,
0,
0,
0,
0,
0,
0,
0,
0,
0,
0,
0,
0,
0,
0,
0,
0,
0,
0,
0,
0,
0,
0,
0,
0,
0,
0,
0,
0,
0,
0,
0,
0,
0,
0,
0,
0,
0,
0,
0,
0,
0,
0,
0,
0,
0,
0,
0,
0,
0,
0,
0,
0,
0,
0,
0,
0,
0,
0,
0,
0,
0,
1,
0,
0,
0,
0,
0,
0,
0,
0,
0,
0,
0,
0,
0,
0,
0,
0,
0,
0,
0,
0,
0,
0,
0,
0,
0,
0,
0,
0,
0,
0,
0,
0,
0,
0,
0,
0,
0,
0,
0,
0,
0,
0,
0,
0,
0,
0,
0,
0,
0,
0,
0,
0,
0,
0,
0,
0,
0,
0,
0,
0,
0,
0,
0,
0,
0,
0,
0,
0,
0,
0,
0,
0,
0,
0,
0,
0,
0,
0,
0,
0,
0,
0,
0,
0,
0,
0,
0,
0,
0,
0,
0,
0,
0,
0,
0,
0,
0,
0,
0,
0,
0,
0,
0,
0,
0,
0,
0,
0,
0,
0,
0,
0,
0,
0,
0,
0,
0,
0,
0,
0,
0,
0,
0,
0,
0,
0,
0,
0,
0,
0,
0,
0,
0,
0,
0,
0,
0,
0,
0,
0,
0,
0,
0,
0,
0,
0,
0,
0,
0,
0,
0,
0,
0,
0,
0,
0,
0,
0,
0,
0,
0,
0,
0,
0,
0,
0,
0,
0,
0,
0,
0,
0,
0,
0,
0,
0,
0,
0,
0,
0,
0,
0,
0,
0,
0,
0,
0,
0,
0,
0,
0,
0,
0,
0,
0,
0,
0,
0,
0,
0,
0,
0,
0,
0,
0,
0,
0,
0,
0,
0,
0,
0,
0,
0,
0,
0,
0,
0,
0,
0,
0,
0,
0,
0,
0,
0,
0,
0,
0,
0,
0,
0,
0,
0,
0,
0,
0,
0,
0,
0,
0,
0,
0,
0,
0,
0,
0,
0,
0,
0,
0,
0,
0,
0,
0,
0,
0,
0,
0,
0,
0,
0,
0,
0,
0,
0,
0,
0,
0,
0,
0,
0,
0,
0,
0,
0,
0,
0,
0,
0,
0,
0,
0,
0,
0,
0,
0,
0,
0,
0,
0,
0,
0,
0,
0,
0,
0,
0,
0,
0,
0,
0,
0,
0,
0,
0,
0,
0,
0,
0,
0,
0,
0,
0,
0,
0,
0,
0,
0,
0,
0,
0,
0,
0,
0,
0,
0,
0,
0,
0,
0,
0,
0,
0,
0,
0,
0,
0,
0,
0,
0,
0,
0,
0,
0,
0,
0,
0,
0,
0,
0,
0,
0,
0,
0,
0,
0,
0,
0,
0,
0,
0,
0,
0,
0,
0,
0,
0,
0,
0,
0,
0,
0,
0,
0,
0,
0,
0,
0,
0,
0,
0,
0,
0,
0,
0,
0,
0,
0,
0,
0,
0,
0,
0,
0,
0,
0,
0,
0,
0,
0,
0,
0,
0,
0,
0,
0,
0,
0,
0,
0,
0,
0,
0,
0,
0,
0,
0,
0,
0,
0,
0,
0,
0,
0,
0,
0,
0,
0,
0,
0,
0,
0,
0,
0,
0,
0,
0,
0,
0,
0,
0,
0,
0,
0,
0,
0,
0,
0,
0,
0,
0,
0,
0,
0,
0,
0,
0,
0,
0,
0,
0,
0,
0,
0,
0,
0,
0,
0,
0,
0,
0,
0,
0,
0,
0,
0,
0,
0,
0,
0,
0,
0,
0,
0,
0,
0,
0,
0,
0,
0,
0,
0,
0,
0,
0,
0,
0,
0,
0,
0,
0,
0,
0,
0,
0,
0,
0,
0,
0,
0,
0,
0,
0,
0,
0,
0,
0,
0,
0,
0,
0,
0,
0,
0,
0,
0,
0,
0,
0,
0,
0,
0,
0,
0,
0,
0,
0,
0,
0,
0,
0,
0,
0,
0,
0,
0,
0,
0,
0,
0,
0,
0,
0,
0,
0,
0,
0,
0,
0,
0,
0,
0,
0,
0,
0,
0,
0,
0,
0,
0,
0,
0,
0,
0,
0,
0,
0,
0,
0,
0,
0,
0,
0,
0,
0,
0,
0,
0,
0,
0,
0,
0,
0,
0,
0,
0,
0,
0,
0,
0,
0,
0,
0,
0,
0,
0,
0,
0,
0,
0,
0,
0,
0,
0,
0,
0,
0,
0,
0,
0,
0,
0,
0,
0,
0,
0,
0,
0,
0,
0,
0,
0,
0,
0,
0,
0,
0,
0,
0,
0,
0,
0,
0,
0,
0,
0,
0,
0,
0,
0,
0,
0,
0,
0,
0,
0,
0,
0,
0,
0,
0,
0,
0,
0,
0,
0,
0,
0,
0,
0,
0,
0,
0,
0,
0,
0,
0,
0,
#ENDOFDATA   :