File: N132962/Quantification/15 keV/GMIIIA/GMIIIA K309[1][4].msa
#FORMAT      : EMSA/MAS Spectral Data File
#VERSION     : 1.0
#TITLE       : GMIIIA K309[1][all]
#DATE        : 22-SEP-2025
#TIME        : 15:21
#OWNER       : Unknown
#NPOINTS     : 4096
#NCOLUMNS    : 1
#XUNITS      : eV
#YUNITS      : counts
#DATATYPE    : Y
#XPERCHAN    : 9.99778
#OFFSET      : 1.69135
#BEAMKV      : 15
#SIGNALTYPE  : EDS
#ELEVANGLE   : 35
#AZIMANGLE   : 0
#LIVETIME    : 239.912
#REALTIME    : 255.525
#PROBECUR    : 1.21681
#TAUWIND     : 0
#TDEADLYR    : 0
#TACTLYR     : 0.045
#TALWIND     : 0.025
#CHOFFSET    : 0.0
#XLABEL      : Energy (eV)
#YLABEL      : Counts
#XPOSITION   : 12.57046
#YPOSITION   : 3.74988
#ZPOSITION   : 37.36299
#EDSDET      : SD
##SPECIMEN   : GMIIIA K309[1][all]
##D2STDCMP   : K309,(O:38.72),(Al:7.94),(Si:18.7),(Ca:10.72),(Fe:10.49),(Ba:13.43)
##DET_HASH   : 12273538-fd48-a23f-0a19-f1e6fa85caef
##CALIB_HASH : 6abaa72c-aa41-8738-0be9-f592914732f3
##WORKING    : 15.0 mm
##DET_NAME   : EDAX All
##DET_MODE   : MediumLE
#SPECTRUM    :
30,
31,
12,
21,
109,
418,
1180,
3025,
7089,
10726,
9069,
6804,
5835,
6062,
9044,
28792,
103363,
194367,
141550,
40251,
10520,
7434,
10019,
15678,
15284,
9164,
6359,
5246,
4304,
3987,
4015,
4454,
4892,
5370,
5655,
5655,
5111,
4836,
4773,
4811,
4946,
5061,
5086,
5271,
5386,
5669,
6610,
11891,
31244,
59523,
59811,
33467,
13229,
7431,
6657,
12850,
43166,
105334,
142895,
101703,
42368,
15984,
8319,
5422,
4177,
4160,
3920,
3799,
3548,
3584,
3522,
3452,
3647,
3693,
3823,
3890,
3923,
3838,
3541,
3518,
3378,
3464,
3417,
3295,
3199,
3289,
3282,
3180,
3157,
3108,
3224,
3210,
3186,
3003,
2916,
3037,
3032,
2981,
2977,
3116,
2937,
3004,
2924,
2962,
2923,
2877,
2880,
2916,
2873,
2730,
2746,
2643,
2553,
2640,
2591,
2616,
2718,
2862,
3084,
4099,
7850,
17170,
30787,
38357,
32536,
19350,
8575,
3817,
2701,
2494,
2897,
3705,
5103,
6346,
6711,
5563,
3951,
2755,
2236,
2115,
2076,
2021,
2062,
2159,
2330,
2931,
4835,
8008,
11892,
13189,
11158,
7014,
3913,
2426,
1919,
1824,
1901,
2141,
2784,
4224,
5994,
7149,
6675,
5222,
3788,
2917,
2458,
2065,
1956,
2128,
2584,
3159,
3442,
3134,
2513,
1967,
1647,
1458,
1376,
1507,
1483,
1576,
1768,
1935,
2066,
2121,
1877,
1647,
1421,
1376,
1355,
1408,
1452,
1518,
1572,
1382,
1377,
1280,
1304,
1290,
1201,
1210,
1162,
1157,
1157,
1156,
1162,
1209,
1383,
1952,
3526,
6078,
9339,
11582,
10503,
7675,
4775,
2529,
1563,
1157,
1003,
1021,
1024,
976,
982,
1012,
984,
1004,
982,
969,
1071,
1139,
1409,
1694,
2010,
2145,
2084,
1769,
1355,
1028,
957,
820,
859,
881,
768,
864,
789,
797,
831,
779,
796,
782,
743,
810,
772,
758,
694,
722,
710,
706,
657,
734,
734,
710,
727,
675,
669,
672,
636,
695,
637,
676,
675,
654,
657,
603,
631,
586,
639,
627,
600,
554,
612,
612,
597,
633,
553,
610,
582,
560,
572,
549,
544,
585,
527,
533,
543,
546,
536,
504,
536,
525,
497,
519,
507,
497,
487,
471,
489,
495,
454,
431,
444,
449,
460,
472,
461,
443,
426,
450,
428,
423,
402,
453,
415,
409,
385,
396,
413,
395,
427,
365,
388,
379,
391,
339,
385,
367,
389,
402,
357,
353,
364,
327,
298,
322,
359,
328,
330,
298,
341,
302,
301,
287,
312,
302,
272,
281,
272,
248,
277,
278,
250,
275,
247,
252,
246,
261,
255,
253,
283,
248,
235,
239,
252,
232,
220,
236,
217,
242,
219,
243,
213,
211,
200,
215,
183,
211,
181,
196,
199,
205,
215,
175,
186,
194,
179,
158,
171,
153,
187,
170,
156,
137,
173,
162,
139,
141,
151,
158,
156,
157,
127,
142,
137,
140,
124,
111,
123,
127,
136,
130,
115,
117,
107,
119,
125,
108,
110,
106,
108,
100,
98,
103,
103,
73,
87,
77,
87,
78,
84,
78,
78,
79,
76,
73,
69,
97,
70,
78,
73,
66,
63,
78,
51,
52,
53,
59,
63,
57,
52,
36,
52,
39,
49,
46,
44,
52,
38,
25,
34,
33,
33,
47,
33,
23,
15,
21,
26,
31,
16,
19,
20,
30,
14,
22,
21,
20,
14,
14,
11,
8,
11,
6,
7,
3,
5,
0,
4,
3,
1,
2,
0,
1,
1,
0,
0,
2,
1,
2,
0,
1,
1,
0,
0,
0,
0,
0,
0,
1,
0,
0,
0,
0,
0,
0,
1,
2,
0,
1,
1,
1,
0,
1,
1,
2,
0,
0,
0,
0,
0,
1,
1,
0,
0,
0,
0,
1,
1,
0,
0,
0,
1,
0,
0,
1,
0,
2,
0,
0,
0,
1,
0,
0,
1,
0,
1,
0,
0,
0,
0,
0,
1,
1,
0,
0,
0,
0,
0,
0,
0,
1,
0,
0,
0,
0,
2,
0,
0,
0,
0,
0,
0,
1,
0,
0,
0,
0,
1,
0,
0,
1,
0,
0,
0,
0,
0,
0,
0,
0,
0,
0,
0,
0,
0,
0,
0,
0,
0,
0,
0,
0,
0,
0,
1,
0,
0,
0,
0,
0,
0,
0,
0,
0,
0,
0,
0,
0,
0,
0,
0,
0,
0,
0,
0,
0,
0,
0,
0,
0,
0,
0,
0,
0,
0,
0,
0,
0,
0,
0,
0,
0,
0,
0,
0,
1,
0,
0,
0,
0,
0,
0,
0,
0,
0,
0,
0,
0,
0,
0,
0,
0,
1,
0,
0,
0,
0,
0,
0,
0,
0,
0,
0,
0,
0,
0,
0,
0,
0,
0,
0,
0,
0,
0,
0,
0,
0,
0,
0,
0,
0,
0,
0,
0,
0,
0,
0,
0,
0,
0,
0,
0,
0,
0,
0,
0,
0,
0,
0,
0,
0,
0,
0,
0,
0,
0,
0,
0,
0,
0,
0,
0,
0,
0,
0,
0,
0,
0,
0,
0,
0,
0,
0,
0,
0,
0,
0,
0,
0,
0,
0,
0,
0,
0,
0,
0,
0,
0,
0,
0,
0,
0,
0,
0,
0,
0,
0,
0,
0,
0,
0,
0,
0,
0,
0,
0,
0,
0,
0,
0,
0,
0,
0,
0,
0,
0,
0,
0,
0,
0,
0,
0,
0,
0,
0,
0,
0,
0,
0,
0,
0,
0,
0,
0,
0,
0,
0,
0,
0,
0,
0,
0,
0,
0,
0,
0,
0,
0,
0,
0,
0,
0,
0,
0,
0,
0,
0,
0,
0,
0,
0,
0,
0,
0,
0,
0,
0,
0,
0,
0,
0,
0,
0,
0,
0,
0,
0,
0,
0,
0,
0,
0,
0,
0,
0,
0,
0,
0,
0,
0,
0,
0,
0,
0,
0,
0,
0,
0,
0,
0,
0,
0,
0,
0,
0,
0,
0,
0,
0,
0,
0,
0,
0,
0,
0,
0,
0,
0,
0,
0,
0,
0,
0,
0,
0,
0,
0,
0,
0,
0,
0,
0,
0,
0,
0,
0,
0,
0,
0,
0,
0,
0,
0,
0,
0,
0,
0,
0,
0,
0,
0,
0,
0,
0,
0,
0,
0,
0,
0,
0,
0,
0,
0,
0,
0,
0,
0,
0,
0,
0,
0,
0,
0,
0,
0,
0,
0,
0,
0,
0,
0,
0,
0,
0,
0,
0,
0,
0,
0,
0,
0,
0,
0,
0,
0,
0,
0,
0,
0,
0,
0,
0,
0,
0,
0,
0,
0,
0,
0,
0,
0,
0,
0,
0,
0,
0,
0,
0,
0,
0,
0,
0,
0,
0,
0,
0,
0,
0,
0,
0,
0,
0,
0,
0,
0,
0,
0,
0,
0,
0,
0,
0,
0,
0,
0,
0,
0,
0,
0,
0,
0,
0,
0,
0,
0,
0,
0,
0,
0,
0,
0,
0,
0,
0,
0,
0,
0,
0,
0,
0,
0,
0,
0,
0,
0,
0,
0,
0,
0,
0,
0,
0,
0,
0,
0,
0,
0,
0,
0,
0,
0,
0,
0,
0,
0,
0,
0,
0,
0,
0,
0,
0,
0,
0,
0,
0,
0,
0,
0,
0,
0,
0,
0,
0,
0,
0,
0,
0,
0,
0,
0,
0,
0,
0,
0,
0,
0,
0,
0,
0,
0,
0,
0,
0,
0,
0,
0,
0,
0,
0,
0,
0,
0,
0,
0,
0,
0,
0,
0,
0,
0,
0,
0,
0,
0,
0,
0,
0,
0,
0,
0,
0,
0,
0,
0,
0,
0,
0,
0,
0,
0,
0,
0,
0,
0,
0,
0,
0,
0,
0,
0,
0,
0,
0,
0,
0,
0,
0,
0,
0,
0,
0,
0,
0,
0,
0,
0,
0,
0,
0,
0,
0,
0,
0,
0,
0,
0,
0,
0,
0,
0,
0,
0,
0,
0,
0,
0,
0,
0,
0,
0,
0,
0,
0,
0,
0,
0,
0,
0,
0,
0,
0,
0,
0,
0,
0,
0,
0,
0,
0,
0,
0,
0,
0,
0,
0,
0,
0,
0,
0,
0,
0,
0,
0,
0,
0,
0,
0,
0,
0,
0,
0,
0,
0,
0,
0,
0,
0,
0,
0,
0,
0,
0,
0,
0,
0,
0,
0,
0,
0,
0,
0,
0,
0,
0,
0,
0,
0,
0,
0,
0,
0,
0,
0,
0,
0,
0,
0,
0,
0,
0,
0,
0,
0,
0,
0,
0,
0,
0,
0,
0,
0,
0,
0,
0,
0,
0,
0,
0,
0,
0,
0,
0,
0,
0,
0,
0,
0,
0,
0,
0,
0,
0,
0,
0,
0,
0,
0,
0,
0,
0,
0,
0,
0,
0,
0,
0,
0,
0,
0,
0,
0,
0,
0,
0,
0,
0,
0,
0,
0,
0,
0,
0,
0,
0,
0,
0,
0,
0,
0,
0,
0,
0,
0,
0,
0,
0,
0,
0,
0,
0,
0,
0,
0,
0,
0,
#ENDOFDATA   :