File: N132962/Quantification/15 keV/GMIIIA/GMIIIA K1235[2][4].msa
#FORMAT      : EMSA/MAS Spectral Data File
#VERSION     : 1.0
#TITLE       : GMIIIA K1235[2][all]
#DATE        : 22-SEP-2025
#TIME        : 23:17
#OWNER       : Unknown
#NPOINTS     : 4096
#NCOLUMNS    : 1
#XUNITS      : eV
#YUNITS      : counts
#DATATYPE    : Y
#XPERCHAN    : 9.99778
#OFFSET      : 1.69135
#BEAMKV      : 15
#SIGNALTYPE  : EDS
#ELEVANGLE   : 35
#AZIMANGLE   : 0
#LIVETIME    : 240.006
#REALTIME    : 255.918
#PROBECUR    : 1.21388
#TAUWIND     : 0
#TDEADLYR    : 0
#TACTLYR     : 0.045
#TALWIND     : 0.025
#CHOFFSET    : 0.0
#XLABEL      : Energy (eV)
#YLABEL      : Counts
#XPOSITION   : 9.30153
#YPOSITION   : 19.00127
#ZPOSITION   : 37.36299
#EDSDET      : SD
##SPECIMEN   : GMIIIA K1235[2][all]
##D2STDCMP   : K1235,(O:39.17),(Al:8.86),(Si:21.16),(Ca:12.15),(Pd:1.74),(Ba:15.23),(Hf:1.7)
##DET_HASH   : 12273538-fd48-a23f-0a19-f1e6fa85caef
##CALIB_HASH : 6abaa72c-aa41-8738-0be9-f592914732f3
##WORKING    : 15.0 mm
##DET_NAME   : EDAX All
##DET_MODE   : MediumLE
#SPECTRUM    :
22,
23,
16,
16,
98,
416,
1157,
3023,
6987,
10660,
9037,
6659,
5393,
5586,
8535,
27009,
98347,
185742,
136153,
37641,
8120,
4536,
4231,
4184,
4360,
5350,
5934,
5579,
4781,
4479,
4464,
4863,
5480,
5788,
6204,
6133,
5551,
4983,
4988,
4955,
5106,
5396,
5606,
5706,
5911,
5940,
6959,
13379,
36469,
70041,
70832,
38657,
15162,
8972,
10267,
18518,
52600,
124555,
166614,
118780,
48308,
17832,
9215,
5633,
4442,
4088,
3856,
3809,
3543,
3481,
3438,
3415,
3421,
3574,
3754,
3828,
3943,
3568,
3520,
3333,
3227,
3267,
3236,
3173,
3164,
3162,
3164,
3196,
3175,
3229,
3073,
3029,
3116,
3073,
3079,
3007,
3006,
2854,
2917,
2950,
3037,
2822,
2866,
2831,
2787,
2853,
2854,
2928,
2804,
2787,
2660,
2622,
2640,
2712,
2534,
2626,
2806,
2850,
3191,
4232,
8230,
18599,
33424,
42259,
35950,
21117,
8973,
3965,
2673,
2577,
2933,
3780,
5312,
6843,
7296,
5809,
4084,
2778,
2202,
2132,
2034,
2117,
2014,
2052,
2401,
3087,
4925,
8860,
13197,
14746,
12456,
7757,
4248,
2501,
1937,
1804,
1847,
2148,
2916,
4711,
6724,
7667,
7260,
5600,
4098,
3107,
2557,
2124,
1927,
2083,
2690,
3367,
3598,
3325,
2608,
2017,
1681,
1484,
1426,
1476,
1519,
1672,
1796,
1943,
2099,
2206,
1849,
1686,
1385,
1379,
1386,
1516,
1531,
1552,
1515,
1466,
1372,
1255,
1171,
1264,
1167,
1178,
1204,
1204,
1191,
1098,
1176,
1132,
1080,
1071,
1076,
1113,
1056,
1166,
1091,
1081,
1058,
1037,
1018,
1001,
949,
1032,
991,
944,
962,
979,
985,
923,
964,
896,
966,
928,
921,
866,
884,
848,
963,
866,
886,
886,
839,
888,
896,
813,
860,
868,
878,
840,
845,
778,
775,
794,
760,
729,
705,
736,
734,
765,
737,
789,
829,
912,
923,
954,
1030,
902,
810,
734,
715,
655,
669,
671,
661,
752,
701,
625,
647,
587,
674,
640,
637,
566,
593,
668,
604,
595,
558,
640,
616,
548,
562,
575,
533,
533,
548,
554,
549,
620,
575,
540,
560,
609,
577,
540,
516,
523,
450,
526,
477,
500,
497,
558,
529,
519,
481,
452,
443,
473,
446,
441,
426,
420,
447,
428,
464,
381,
438,
422,
382,
413,
389,
372,
391,
340,
348,
366,
389,
357,
404,
355,
365,
361,
368,
338,
342,
336,
347,
367,
365,
332,
333,
337,
321,
307,
327,
318,
318,
313,
284,
275,
263,
294,
276,
259,
255,
246,
313,
303,
260,
256,
244,
278,
234,
245,
251,
246,
229,
276,
221,
239,
231,
219,
210,
212,
223,
215,
196,
199,
198,
206,
184,
192,
182,
163,
193,
179,
183,
179,
173,
159,
162,
176,
173,
142,
172,
157,
157,
149,
160,
127,
155,
137,
147,
140,
117,
129,
121,
131,
135,
119,
103,
119,
119,
101,
109,
109,
93,
116,
102,
116,
101,
98,
88,
76,
114,
108,
98,
97,
94,
80,
87,
87,
95,
78,
67,
69,
67,
66,
65,
84,
63,
85,
55,
55,
53,
57,
63,
48,
45,
58,
59,
48,
57,
61,
43,
34,
43,
48,
43,
53,
31,
42,
31,
28,
31,
36,
28,
16,
25,
37,
21,
22,
13,
25,
28,
11,
17,
18,
12,
14,
12,
9,
12,
11,
4,
8,
2,
5,
4,
5,
0,
6,
1,
1,
1,
0,
1,
1,
0,
0,
1,
2,
0,
0,
3,
0,
2,
1,
0,
1,
0,
1,
0,
1,
0,
1,
2,
0,
0,
0,
2,
0,
0,
0,
0,
0,
1,
0,
0,
1,
1,
0,
0,
0,
0,
0,
1,
0,
0,
1,
1,
0,
0,
1,
1,
0,
0,
0,
0,
0,
0,
0,
0,
0,
1,
1,
1,
0,
0,
0,
0,
0,
0,
0,
0,
1,
0,
0,
0,
0,
0,
0,
0,
1,
0,
1,
0,
0,
0,
0,
0,
0,
0,
0,
0,
0,
0,
1,
0,
0,
0,
0,
0,
0,
0,
0,
0,
0,
1,
0,
0,
0,
0,
0,
0,
0,
0,
0,
0,
0,
0,
0,
0,
0,
0,
0,
0,
0,
0,
0,
0,
0,
0,
0,
0,
0,
0,
0,
0,
0,
0,
0,
0,
0,
0,
0,
0,
0,
0,
1,
0,
0,
0,
0,
0,
0,
0,
0,
0,
0,
0,
0,
0,
0,
0,
0,
0,
0,
0,
0,
0,
0,
0,
0,
0,
0,
0,
0,
0,
0,
0,
0,
0,
0,
0,
1,
0,
0,
0,
0,
0,
0,
0,
0,
0,
0,
0,
0,
0,
0,
0,
0,
0,
0,
0,
1,
0,
0,
0,
0,
0,
0,
0,
0,
0,
0,
0,
0,
0,
0,
0,
0,
0,
0,
0,
0,
0,
0,
0,
0,
0,
0,
1,
0,
0,
0,
0,
0,
0,
0,
0,
1,
0,
0,
0,
0,
0,
0,
0,
0,
0,
0,
0,
0,
0,
0,
0,
0,
0,
0,
0,
0,
0,
0,
0,
0,
0,
0,
0,
0,
0,
0,
0,
0,
0,
0,
0,
0,
0,
0,
0,
0,
0,
0,
0,
0,
0,
0,
0,
0,
0,
0,
0,
0,
0,
0,
0,
0,
0,
0,
0,
0,
0,
0,
0,
0,
0,
0,
0,
0,
0,
0,
0,
0,
0,
0,
0,
0,
0,
0,
0,
0,
0,
0,
0,
0,
0,
0,
0,
0,
0,
0,
0,
0,
0,
0,
0,
0,
0,
0,
0,
0,
0,
0,
0,
0,
0,
0,
0,
0,
0,
0,
0,
0,
0,
0,
0,
0,
0,
0,
0,
0,
0,
0,
0,
0,
0,
0,
0,
0,
0,
0,
0,
0,
0,
0,
0,
0,
0,
0,
0,
0,
0,
0,
0,
0,
0,
0,
0,
0,
0,
0,
0,
0,
0,
0,
0,
0,
0,
0,
0,
0,
0,
0,
0,
0,
0,
0,
0,
0,
0,
0,
0,
0,
0,
0,
0,
0,
0,
0,
0,
0,
0,
0,
0,
0,
0,
0,
0,
0,
0,
0,
0,
0,
0,
0,
0,
0,
0,
0,
0,
0,
0,
0,
0,
0,
0,
0,
0,
0,
0,
0,
0,
0,
0,
0,
0,
0,
0,
0,
0,
0,
0,
0,
0,
0,
0,
0,
0,
0,
0,
0,
0,
0,
0,
0,
0,
0,
0,
0,
0,
0,
0,
0,
0,
0,
0,
0,
0,
0,
0,
0,
0,
0,
0,
0,
0,
0,
0,
0,
0,
0,
0,
0,
0,
0,
0,
0,
0,
0,
0,
0,
0,
0,
0,
0,
0,
0,
0,
0,
0,
0,
0,
0,
0,
0,
0,
0,
0,
0,
0,
0,
0,
0,
0,
0,
0,
0,
0,
0,
0,
0,
0,
0,
0,
0,
0,
0,
0,
0,
0,
0,
0,
0,
0,
0,
0,
0,
0,
0,
0,
0,
0,
0,
0,
0,
0,
0,
0,
0,
0,
0,
0,
0,
0,
0,
0,
0,
0,
0,
0,
0,
0,
0,
0,
0,
0,
0,
0,
0,
0,
0,
0,
0,
0,
0,
0,
0,
0,
0,
0,
0,
0,
0,
0,
0,
0,
0,
0,
0,
0,
0,
0,
0,
0,
0,
0,
0,
0,
0,
0,
0,
0,
0,
0,
0,
0,
0,
0,
0,
0,
0,
0,
0,
0,
0,
0,
0,
0,
0,
0,
0,
0,
0,
0,
0,
0,
0,
0,
0,
0,
0,
0,
0,
0,
0,
0,
0,
0,
0,
0,
0,
0,
0,
0,
0,
0,
0,
0,
0,
0,
0,
0,
0,
0,
0,
0,
0,
0,
0,
0,
0,
0,
0,
0,
0,
0,
0,
0,
0,
0,
0,
0,
0,
0,
0,
0,
0,
0,
0,
0,
0,
0,
0,
0,
0,
0,
0,
0,
0,
0,
0,
0,
0,
0,
0,
0,
0,
0,
0,
0,
0,
0,
0,
0,
0,
0,
0,
0,
0,
0,
0,
0,
0,
0,
0,
0,
0,
0,
0,
0,
0,
0,
0,
0,
0,
0,
0,
0,
0,
0,
0,
0,
0,
0,
0,
0,
0,
0,
0,
0,
0,
0,
0,
0,
0,
0,
0,
0,
0,
0,
0,
0,
0,
0,
0,
0,
0,
0,
0,
0,
0,
0,
0,
0,
0,
0,
0,
0,
0,
0,
0,
0,
0,
0,
0,
0,
0,
0,
0,
0,
0,
0,
0,
0,
0,
0,
0,
0,
0,
0,
0,
0,
0,
0,
0,
0,
0,
0,
0,
0,
0,
0,
0,
0,
0,
0,
0,
0,
0,
0,
0,
0,
0,
0,
0,
0,
0,
0,
0,
0,
0,
0,
0,
0,
0,
0,
0,
0,
0,
0,
0,
0,
0,
0,
0,
0,
0,
0,
0,
0,
0,
0,
0,
0,
0,
#ENDOFDATA   :