File: N132962/Quantification/15 keV/GMIIIA/GMIIIA K229[6][4].msa
#FORMAT      : EMSA/MAS Spectral Data File
#VERSION     : 1.0
#TITLE       : GMIIIA K229[6][all]
#DATE        : 22-SEP-2025
#TIME        : 14:30
#OWNER       : Unknown
#NPOINTS     : 4096
#NCOLUMNS    : 1
#XUNITS      : eV
#YUNITS      : counts
#DATATYPE    : Y
#XPERCHAN    : 9.99778
#OFFSET      : 1.69135
#BEAMKV      : 15
#SIGNALTYPE  : EDS
#ELEVANGLE   : 35
#AZIMANGLE   : 0
#LIVETIME    : 239.832
#REALTIME    : 260.072
#PROBECUR    : 1.21983
#TAUWIND     : 0
#TDEADLYR    : 0
#TACTLYR     : 0.045
#TALWIND     : 0.025
#CHOFFSET    : 0.0
#XLABEL      : Energy (eV)
#YLABEL      : Counts
#XPOSITION   : 5.91893
#YPOSITION   : 0.66477
#ZPOSITION   : 37.36299
#EDSDET      : SD
##SPECIMEN   : GMIIIA K229[6][all]
##D2STDCMP   : K229,(O:20.99),(Si:14.02),(Pb:64.98)
##DET_HASH   : 12273538-fd48-a23f-0a19-f1e6fa85caef
##CALIB_HASH : 6abaa72c-aa41-8738-0be9-f592914732f3
##WORKING    : 15.0 mm
##DET_NAME   : EDAX All
##DET_MODE   : MediumLE
#SPECTRUM    :
25,
29,
14,
58,
252,
970,
2472,
5827,
12059,
14584,
10057,
7154,
6841,
7077,
8361,
17637,
51272,
91883,
67893,
22263,
9637,
8200,
8139,
8668,
7870,
7069,
6920,
7114,
7549,
7692,
7596,
7859,
7991,
8113,
8255,
8293,
8544,
8695,
8755,
8828,
9000,
9258,
9155,
9428,
9428,
9542,
9449,
9794,
9931,
10337,
10377,
10244,
10055,
10080,
10917,
17061,
45042,
103359,
139061,
103044,
51860,
27885,
18460,
11698,
8564,
7899,
7580,
7393,
7237,
7581,
7867,
8437,
9383,
10469,
12184,
18821,
41792,
88811,
129320,
124046,
99009,
89928,
76014,
45438,
19544,
8996,
7255,
8988,
10599,
10248,
8015,
5964,
5037,
4586,
4775,
4942,
5016,
5244,
5237,
5303,
5400,
5878,
6204,
6340,
6251,
5518,
5122,
4881,
4602,
4562,
4379,
4413,
4496,
4311,
4427,
4464,
4549,
4494,
4452,
4367,
4370,
4257,
4299,
4325,
4512,
4275,
4216,
4218,
4095,
4133,
4015,
4218,
4027,
4061,
3982,
4086,
4141,
4167,
4139,
4114,
4152,
3841,
3938,
3797,
3845,
3913,
3783,
3852,
3817,
3922,
3965,
3882,
3862,
3901,
3689,
3757,
3708,
3665,
3734,
3651,
3671,
3655,
3622,
3651,
3502,
3580,
3460,
3432,
3443,
3357,
3396,
3334,
3396,
3413,
3363,
3261,
3303,
3169,
3275,
3212,
3237,
3148,
3174,
3277,
3056,
3191,
3217,
3022,
3110,
3213,
3126,
3086,
3035,
3020,
2950,
2978,
2887,
2955,
2963,
2902,
2714,
2967,
2786,
2743,
2756,
2698,
2686,
2822,
2707,
2676,
2746,
2787,
2763,
2767,
2769,
2754,
2626,
2636,
2539,
2525,
2616,
2562,
2494,
2524,
2548,
2478,
2394,
2392,
2399,
2303,
2419,
2465,
2411,
2357,
2336,
2320,
2359,
2286,
2165,
2263,
2148,
2177,
2103,
2120,
2235,
2075,
2174,
2111,
2157,
2131,
2037,
2097,
2086,
2090,
2010,
1924,
1983,
1929,
1923,
1908,
1938,
1871,
1854,
1917,
1938,
1833,
1874,
1829,
1872,
1853,
1805,
1818,
1813,
1757,
1738,
1786,
1702,
1764,
1753,
1659,
1682,
1717,
1607,
1609,
1620,
1618,
1558,
1608,
1526,
1607,
1670,
1485,
1589,
1588,
1507,
1489,
1395,
1465,
1550,
1431,
1447,
1456,
1411,
1416,
1502,
1528,
1493,
1449,
1431,
1375,
1359,
1281,
1323,
1328,
1343,
1334,
1287,
1272,
1242,
1199,
1307,
1244,
1257,
1221,
1254,
1190,
1188,
1161,
1222,
1129,
1165,
1142,
1086,
1152,
1068,
1100,
1050,
1057,
1054,
1098,
1071,
1067,
1061,
1019,
1066,
1133,
1233,
1342,
1491,
1845,
2136,
2230,
2165,
2003,
1605,
1329,
1112,
1010,
925,
853,
869,
829,
854,
837,
824,
799,
818,
807,
817,
782,
746,
821,
772,
760,
767,
723,
734,
762,
744,
687,
677,
722,
713,
672,
620,
668,
662,
617,
606,
633,
610,
606,
622,
598,
547,
571,
537,
577,
568,
552,
540,
582,
538,
518,
539,
529,
552,
537,
524,
467,
482,
457,
457,
447,
435,
476,
482,
490,
555,
635,
631,
627,
559,
506,
488,
458,
410,
393,
353,
352,
361,
375,
334,
356,
343,
346,
344,
294,
273,
289,
294,
280,
277,
282,
246,
250,
241,
252,
218,
252,
218,
213,
205,
225,
177,
214,
194,
210,
193,
183,
203,
164,
166,
177,
150,
142,
153,
135,
120,
156,
111,
125,
122,
120,
126,
114,
97,
76,
89,
89,
76,
83,
70,
82,
74,
72,
61,
49,
49,
43,
46,
36,
53,
25,
27,
16,
16,
27,
20,
12,
9,
7,
5,
4,
4,
3,
2,
4,
4,
1,
2,
1,
2,
4,
6,
4,
3,
2,
3,
2,
1,
1,
5,
6,
6,
4,
2,
2,
0,
3,
1,
1,
1,
0,
0,
2,
4,
1,
2,
3,
1,
1,
3,
2,
1,
1,
1,
1,
1,
3,
2,
0,
1,
2,
0,
0,
2,
2,
1,
1,
1,
2,
5,
0,
2,
1,
4,
3,
1,
1,
1,
5,
4,
1,
0,
1,
2,
2,
0,
3,
1,
4,
3,
0,
0,
1,
1,
1,
0,
1,
3,
2,
0,
1,
3,
0,
2,
0,
1,
1,
0,
2,
2,
1,
0,
1,
0,
0,
1,
1,
2,
1,
1,
1,
1,
0,
1,
0,
2,
1,
1,
3,
2,
0,
0,
1,
0,
0,
0,
1,
1,
0,
1,
1,
0,
1,
1,
0,
0,
0,
0,
1,
1,
1,
1,
0,
1,
0,
0,
0,
2,
0,
0,
1,
1,
1,
1,
0,
0,
0,
0,
1,
0,
0,
1,
0,
1,
0,
0,
0,
0,
1,
0,
0,
2,
0,
0,
0,
2,
1,
0,
1,
1,
1,
1,
2,
0,
0,
0,
0,
1,
0,
0,
0,
1,
0,
0,
0,
0,
1,
1,
0,
1,
0,
0,
0,
0,
1,
0,
1,
0,
0,
0,
0,
0,
1,
0,
0,
1,
0,
0,
0,
0,
0,
0,
0,
0,
1,
0,
0,
0,
0,
0,
0,
0,
1,
1,
0,
0,
1,
0,
0,
0,
0,
0,
0,
0,
0,
0,
0,
0,
0,
0,
0,
0,
0,
0,
0,
0,
0,
0,
0,
0,
0,
0,
0,
0,
1,
0,
0,
0,
0,
0,
0,
0,
0,
1,
0,
0,
0,
0,
0,
0,
0,
0,
0,
0,
1,
0,
0,
0,
0,
0,
0,
0,
0,
0,
0,
0,
0,
0,
0,
0,
0,
0,
0,
0,
0,
0,
0,
0,
0,
0,
0,
0,
0,
0,
0,
0,
0,
1,
0,
0,
0,
0,
0,
0,
0,
0,
0,
0,
0,
1,
0,
0,
0,
0,
0,
0,
0,
0,
0,
0,
0,
0,
0,
0,
0,
0,
0,
0,
0,
0,
0,
0,
0,
0,
0,
0,
0,
0,
0,
0,
0,
0,
0,
0,
0,
0,
0,
0,
0,
0,
0,
0,
0,
0,
0,
0,
0,
0,
0,
0,
0,
0,
0,
0,
0,
0,
0,
0,
0,
0,
0,
0,
0,
0,
0,
0,
0,
0,
0,
0,
0,
0,
0,
0,
0,
0,
0,
0,
0,
0,
0,
0,
0,
0,
0,
0,
0,
0,
0,
0,
0,
0,
0,
0,
0,
0,
0,
0,
0,
0,
0,
0,
0,
0,
0,
0,
0,
0,
0,
0,
0,
0,
0,
0,
0,
0,
0,
0,
0,
0,
0,
0,
0,
0,
0,
0,
0,
0,
0,
0,
0,
0,
0,
0,
0,
0,
0,
0,
0,
0,
0,
0,
0,
0,
0,
0,
0,
0,
0,
0,
0,
0,
0,
0,
0,
0,
0,
0,
0,
0,
0,
0,
0,
0,
0,
0,
0,
0,
0,
0,
0,
0,
0,
0,
0,
0,
0,
0,
0,
0,
0,
0,
0,
0,
0,
0,
0,
0,
0,
0,
0,
0,
0,
0,
0,
0,
0,
0,
0,
0,
0,
0,
0,
0,
0,
0,
0,
0,
0,
0,
0,
0,
0,
0,
0,
0,
0,
0,
0,
0,
0,
0,
0,
0,
0,
0,
0,
0,
0,
0,
0,
0,
0,
0,
0,
0,
0,
0,
0,
0,
0,
0,
0,
0,
0,
0,
0,
0,
0,
0,
0,
0,
0,
0,
0,
0,
0,
0,
0,
0,
0,
0,
0,
0,
0,
0,
0,
0,
0,
0,
0,
0,
0,
0,
0,
0,
0,
0,
0,
0,
0,
0,
0,
0,
0,
0,
0,
0,
0,
0,
0,
0,
0,
0,
0,
0,
0,
0,
0,
0,
0,
0,
0,
0,
0,
0,
0,
0,
0,
0,
0,
0,
0,
0,
0,
0,
0,
0,
0,
0,
0,
0,
0,
0,
0,
0,
0,
0,
0,
0,
0,
0,
0,
0,
0,
0,
0,
0,
0,
0,
0,
0,
0,
0,
0,
0,
0,
0,
0,
0,
0,
0,
0,
0,
0,
0,
0,
0,
0,
0,
0,
0,
0,
0,
0,
0,
0,
0,
0,
0,
0,
0,
0,
0,
0,
0,
0,
0,
0,
0,
0,
0,
0,
0,
0,
0,
0,
0,
0,
0,
0,
0,
0,
0,
0,
0,
0,
0,
0,
0,
0,
0,
0,
0,
0,
0,
0,
0,
0,
0,
0,
0,
0,
0,
0,
0,
0,
0,
0,
0,
0,
0,
0,
0,
0,
0,
0,
0,
0,
0,
0,
0,
0,
0,
0,
0,
0,
0,
0,
0,
0,
0,
0,
0,
0,
0,
0,
0,
0,
0,
0,
0,
0,
0,
0,
0,
0,
0,
0,
0,
0,
0,
0,
0,
0,
0,
0,
0,
0,
0,
0,
0,
0,
0,
0,
0,
0,
0,
0,
0,
0,
0,
0,
0,
0,
0,
0,
0,
0,
0,
0,
0,
0,
0,
0,
0,
0,
0,
0,
0,
0,
0,
0,
0,
0,
0,
0,
0,
0,
0,
0,
0,
0,
0,
0,
0,
0,
0,
0,
0,
0,
0,
0,
0,
0,
0,
0,
0,
0,
0,
0,
0,
0,
#ENDOFDATA   :