File: N132962/Quantification/15 keV/GMIIIA/GMIIIA K230[0][4].msa
#FORMAT      : EMSA/MAS Spectral Data File
#VERSION     : 1.0
#TITLE       : GMIIIA K230[0][all]
#DATE        : 22-SEP-2025
#TIME        : 14:31
#OWNER       : Unknown
#NPOINTS     : 4096
#NCOLUMNS    : 1
#XUNITS      : eV
#YUNITS      : counts
#DATATYPE    : Y
#XPERCHAN    : 9.99778
#OFFSET      : 1.69135
#BEAMKV      : 15
#SIGNALTYPE  : EDS
#ELEVANGLE   : 35
#AZIMANGLE   : 0
#LIVETIME    : 239.844
#REALTIME    : 258.607
#PROBECUR    : 1.21983
#TAUWIND     : 0
#TDEADLYR    : 0
#TACTLYR     : 0.045
#TALWIND     : 0.025
#CHOFFSET    : 0.0
#XLABEL      : Energy (eV)
#YLABEL      : Counts
#XPOSITION   : 3.84332
#YPOSITION   : 0.88108
#ZPOSITION   : 37.36299
#EDSDET      : SD
##SPECIMEN   : GMIIIA K230[0][all]
##D2STDCMP   : K230,(O:24.49),(Al:2.65),(Si:14.02),(Zn:4.02),(Ba:8.96),(Ta:4.09),(Pb:41.77)
##DET_HASH   : 12273538-fd48-a23f-0a19-f1e6fa85caef
##CALIB_HASH : 6abaa72c-aa41-8738-0be9-f592914732f3
##WORKING    : 15.0 mm
##DET_NAME   : EDAX All
##DET_MODE   : MediumLE
#SPECTRUM    :
32,
26,
16,
46,
202,
732,
2023,
4941,
10483,
13257,
9054,
6681,
6843,
7348,
9355,
21283,
67369,
122735,
90973,
28522,
10011,
7558,
7421,
7833,
7387,
7333,
7874,
7602,
7362,
7872,
7886,
8371,
11974,
20068,
24578,
19171,
11459,
8173,
7552,
7463,
7377,
7788,
7993,
8444,
8680,
8715,
8798,
10403,
17352,
27245,
27329,
18081,
11372,
9272,
10185,
17491,
47748,
105089,
135386,
98877,
47133,
22985,
14191,
9441,
7370,
7304,
7953,
8078,
7815,
6979,
6538,
7008,
7557,
7891,
9192,
12951,
26755,
53699,
77297,
74016,
58998,
53815,
46037,
28382,
13371,
7061,
6337,
7175,
8271,
8113,
6442,
5340,
4750,
4662,
4465,
4477,
4668,
4612,
4647,
4772,
4810,
5065,
5490,
5233,
5116,
4977,
4649,
4432,
4320,
4184,
4210,
4142,
4166,
4120,
4162,
4161,
4111,
4207,
3989,
4103,
4005,
3979,
3990,
4059,
4074,
3955,
3914,
3804,
3768,
3836,
3827,
4018,
3898,
3939,
3855,
3724,
3711,
3755,
3652,
3691,
3617,
3538,
3536,
3563,
3758,
4167,
5347,
7815,
10478,
11426,
10137,
7085,
4979,
3707,
3448,
3276,
3387,
3606,
3948,
5037,
6203,
6773,
6614,
5557,
4704,
4055,
3673,
3333,
3283,
3385,
3729,
4228,
4180,
4053,
3483,
3285,
2948,
2795,
2801,
2790,
2795,
2756,
2992,
3201,
3128,
3172,
2946,
2841,
2684,
2678,
2613,
2687,
2666,
2823,
2703,
2707,
2624,
2444,
2432,
2515,
2406,
2335,
2353,
2202,
2311,
2295,
2343,
2365,
2345,
2311,
2291,
2317,
2320,
2304,
2359,
2299,
2252,
2291,
2097,
2154,
2032,
2215,
2117,
2080,
2018,
1973,
2018,
2052,
1898,
1982,
2078,
2042,
1943,
1943,
1972,
1915,
1907,
1758,
1947,
1925,
1840,
1878,
1802,
1880,
1833,
1822,
1812,
1845,
1798,
1882,
1718,
1767,
1675,
1722,
1753,
1646,
1682,
1649,
1609,
1619,
1641,
1637,
1570,
1609,
1615,
1560,
1640,
1652,
1741,
1905,
2038,
2143,
2047,
1876,
1785,
1677,
1437,
1415,
1407,
1378,
1370,
1445,
1411,
1542,
1740,
2042,
2542,
2703,
2760,
2440,
2163,
1741,
1565,
1315,
1308,
1217,
1237,
1215,
1218,
1275,
1198,
1146,
1204,
1228,
1196,
1198,
1203,
1160,
1238,
1267,
1292,
1301,
1224,
1241,
1253,
1183,
1223,
1222,
1366,
1309,
1320,
1329,
1222,
1114,
1107,
1011,
1005,
1002,
978,
979,
911,
882,
896,
867,
879,
815,
935,
891,
842,
870,
882,
859,
841,
874,
884,
883,
899,
1022,
1143,
1258,
1480,
1498,
1444,
1266,
1148,
1028,
852,
723,
721,
767,
743,
697,
712,
700,
761,
687,
667,
623,
685,
628,
624,
636,
600,
572,
605,
578,
617,
605,
587,
589,
562,
560,
563,
512,
506,
492,
552,
522,
497,
487,
506,
509,
508,
450,
469,
457,
466,
432,
439,
404,
424,
445,
407,
461,
396,
377,
414,
413,
398,
395,
393,
366,
312,
343,
384,
367,
408,
386,
406,
431,
469,
446,
433,
365,
335,
311,
314,
288,
262,
263,
312,
273,
249,
239,
254,
277,
249,
252,
227,
220,
225,
210,
218,
193,
201,
211,
198,
222,
187,
160,
168,
171,
162,
152,
150,
157,
147,
137,
113,
152,
166,
140,
132,
124,
123,
107,
115,
103,
106,
116,
127,
101,
84,
88,
110,
78,
90,
75,
73,
59,
60,
62,
47,
51,
51,
65,
32,
31,
28,
31,
25,
33,
23,
22,
19,
13,
18,
7,
13,
9,
6,
6,
1,
5,
3,
2,
1,
1,
3,
3,
1,
0,
1,
2,
1,
4,
1,
1,
3,
2,
1,
2,
2,
1,
3,
1,
2,
1,
2,
1,
0,
1,
2,
2,
1,
1,
1,
2,
0,
1,
1,
0,
1,
5,
2,
0,
0,
2,
1,
1,
0,
2,
2,
0,
2,
0,
0,
0,
5,
1,
0,
2,
1,
0,
1,
1,
3,
3,
0,
2,
2,
1,
0,
3,
0,
1,
0,
2,
0,
2,
0,
0,
3,
1,
0,
2,
3,
2,
1,
1,
0,
2,
1,
2,
0,
1,
0,
2,
1,
0,
0,
1,
0,
0,
0,
1,
1,
0,
2,
1,
1,
0,
0,
0,
0,
1,
1,
0,
0,
1,
0,
0,
0,
1,
0,
0,
0,
1,
1,
1,
1,
0,
1,
1,
0,
2,
0,
0,
1,
2,
1,
0,
1,
0,
1,
1,
0,
0,
1,
0,
1,
0,
0,
1,
0,
0,
1,
1,
0,
0,
0,
0,
0,
2,
0,
1,
0,
0,
1,
0,
0,
0,
0,
1,
0,
0,
0,
0,
0,
0,
0,
0,
0,
0,
0,
1,
1,
0,
0,
1,
0,
0,
0,
0,
0,
1,
0,
0,
0,
0,
1,
0,
0,
0,
0,
0,
0,
0,
1,
0,
0,
0,
1,
0,
0,
0,
0,
1,
0,
0,
0,
1,
0,
0,
0,
1,
0,
0,
0,
0,
0,
0,
0,
0,
0,
0,
0,
1,
0,
0,
0,
1,
0,
0,
0,
0,
0,
1,
0,
0,
2,
0,
0,
0,
0,
0,
0,
0,
0,
0,
0,
0,
0,
0,
0,
0,
0,
0,
0,
0,
0,
0,
0,
0,
0,
0,
0,
0,
0,
0,
0,
0,
0,
0,
0,
0,
0,
0,
0,
0,
0,
0,
0,
0,
0,
0,
0,
0,
0,
0,
0,
0,
0,
0,
0,
0,
0,
0,
0,
0,
0,
0,
0,
0,
0,
0,
0,
0,
0,
0,
0,
0,
0,
0,
0,
0,
0,
0,
0,
0,
0,
0,
0,
0,
0,
0,
0,
0,
0,
0,
0,
0,
0,
0,
0,
0,
0,
0,
0,
0,
0,
0,
0,
0,
0,
0,
0,
0,
0,
1,
0,
0,
0,
0,
0,
0,
0,
0,
0,
0,
0,
0,
0,
0,
0,
0,
0,
0,
0,
0,
0,
0,
0,
0,
0,
0,
0,
0,
0,
0,
0,
0,
0,
0,
0,
0,
0,
0,
0,
0,
0,
0,
0,
0,
0,
0,
0,
0,
0,
0,
0,
0,
0,
0,
0,
0,
0,
0,
0,
0,
0,
0,
0,
0,
0,
0,
0,
0,
0,
0,
0,
0,
0,
0,
0,
0,
0,
0,
0,
0,
0,
0,
0,
0,
0,
0,
0,
0,
0,
0,
0,
0,
0,
0,
0,
0,
0,
0,
0,
0,
0,
0,
0,
0,
0,
0,
0,
0,
0,
0,
0,
0,
0,
0,
0,
0,
0,
0,
0,
0,
0,
0,
0,
0,
0,
0,
0,
0,
0,
0,
0,
0,
0,
0,
0,
0,
0,
0,
0,
0,
0,
0,
0,
0,
0,
0,
0,
0,
0,
0,
0,
0,
0,
0,
0,
0,
0,
0,
0,
0,
0,
0,
0,
0,
0,
0,
0,
0,
0,
0,
0,
0,
0,
0,
0,
0,
0,
0,
0,
0,
0,
0,
0,
0,
0,
0,
0,
0,
0,
0,
0,
0,
0,
0,
0,
0,
0,
0,
0,
0,
0,
0,
0,
0,
0,
0,
0,
0,
0,
0,
0,
0,
0,
0,
0,
0,
0,
0,
0,
0,
0,
0,
0,
0,
0,
0,
0,
0,
0,
0,
0,
0,
0,
0,
0,
0,
0,
0,
0,
0,
0,
0,
0,
0,
0,
0,
0,
0,
0,
0,
0,
0,
0,
0,
0,
0,
0,
0,
0,
0,
0,
0,
0,
0,
0,
0,
0,
0,
0,
0,
0,
0,
0,
0,
0,
0,
0,
0,
0,
0,
0,
0,
0,
0,
0,
0,
0,
0,
0,
0,
0,
0,
0,
0,
0,
0,
0,
0,
0,
0,
0,
0,
0,
0,
0,
0,
0,
0,
0,
0,
0,
0,
0,
0,
0,
0,
0,
0,
0,
0,
0,
0,
0,
0,
0,
0,
0,
0,
0,
0,
0,
0,
0,
0,
0,
0,
0,
0,
0,
0,
0,
0,
0,
0,
0,
0,
0,
0,
0,
0,
0,
0,
0,
0,
0,
0,
0,
0,
0,
0,
0,
0,
0,
0,
0,
0,
0,
0,
0,
0,
0,
0,
0,
0,
0,
0,
0,
0,
0,
0,
0,
0,
0,
0,
0,
0,
0,
0,
0,
0,
0,
0,
0,
0,
0,
0,
0,
0,
0,
0,
0,
0,
0,
0,
0,
0,
0,
0,
0,
0,
0,
0,
0,
0,
0,
0,
0,
0,
0,
0,
0,
0,
0,
0,
0,
0,
0,
0,
0,
0,
0,
0,
0,
0,
0,
0,
0,
0,
0,
0,
0,
0,
0,
0,
0,
0,
0,
0,
0,
0,
0,
0,
0,
0,
0,
0,
0,
0,
0,
0,
0,
0,
0,
0,
0,
0,
0,
0,
0,
0,
0,
0,
0,
0,
0,
0,
0,
0,
0,
0,
0,
0,
0,
0,
0,
0,
0,
0,
0,
0,
0,
0,
0,
0,
0,
0,
0,
0,
0,
0,
0,
0,
0,
0,
0,
0,
#ENDOFDATA   :