File: N132962/Quantification/15 keV/GMIIIA/GMIIIA K251[4][4].msa
#FORMAT      : EMSA/MAS Spectral Data File
#VERSION     : 1.0
#TITLE       : GMIIIA K251[4][all]
#DATE        : 22-SEP-2025
#TIME        : 15:00
#OWNER       : Unknown
#NPOINTS     : 4096
#NCOLUMNS    : 1
#XUNITS      : eV
#YUNITS      : counts
#DATATYPE    : Y
#XPERCHAN    : 9.99778
#OFFSET      : 1.69135
#BEAMKV      : 15
#SIGNALTYPE  : EDS
#ELEVANGLE   : 35
#AZIMANGLE   : 0
#LIVETIME    : 239.993
#REALTIME    : 259.181
#PROBECUR    : 1.21732
#TAUWIND     : 0
#TDEADLYR    : 0
#TACTLYR     : 0.045
#TALWIND     : 0.025
#CHOFFSET    : 0.0
#XLABEL      : Energy (eV)
#YLABEL      : Counts
#XPOSITION   : 7.09377
#YPOSITION   : 2.51252
#ZPOSITION   : 37.36299
#EDSDET      : SD
##SPECIMEN   : GMIIIA K251[4][all]
##D2STDCMP   : K251,(O:23.02),(Al:1.32),(Si:14.02),(Ba:8.96),(Ta:4.09),(Pb:44.1),(Bi:4.48)
##DET_HASH   : 12273538-fd48-a23f-0a19-f1e6fa85caef
##CALIB_HASH : 6abaa72c-aa41-8738-0be9-f592914732f3
##WORKING    : 15.0 mm
##DET_NAME   : EDAX All
##DET_MODE   : MediumLE
#SPECTRUM    :
31,
38,
9,
50,
180,
857,
2423,
5330,
10721,
13316,
9387,
7134,
6991,
7476,
9159,
20139,
59987,
107555,
79713,
26208,
10375,
7926,
7617,
8042,
7723,
7744,
8051,
7672,
7424,
7064,
7066,
7445,
7934,
8030,
8304,
8227,
7976,
7848,
7867,
8084,
8249,
8422,
8567,
8916,
9248,
9291,
9333,
10185,
14363,
19798,
20040,
14701,
10964,
9790,
10865,
18884,
50471,
110618,
143071,
104309,
49554,
24613,
15408,
10386,
8114,
7619,
6974,
6746,
6550,
6585,
6982,
7249,
7862,
8535,
9900,
14146,
28685,
58481,
84689,
83981,
71063,
66488,
56857,
35603,
18664,
10957,
8333,
8200,
8834,
8457,
7169,
6006,
5303,
4960,
4679,
4674,
4826,
4979,
5026,
5030,
5158,
5330,
5608,
5769,
5567,
5174,
4951,
4703,
4527,
4487,
4342,
4281,
4247,
4162,
4168,
4414,
4383,
4300,
4314,
4311,
4117,
4126,
4117,
4111,
4182,
4289,
4080,
4015,
3894,
3951,
4041,
4210,
4052,
3998,
4009,
3912,
3979,
3897,
3877,
3831,
3789,
3797,
3742,
3903,
3993,
4518,
5586,
7970,
10816,
11982,
10336,
7424,
5079,
4082,
3555,
3593,
3608,
3756,
4276,
5384,
6609,
7253,
6860,
5853,
5057,
4243,
3843,
3576,
3486,
3549,
3940,
4293,
4490,
4146,
3773,
3413,
3171,
3036,
3053,
3130,
2971,
3009,
3141,
3321,
3391,
3344,
3269,
3034,
2904,
2827,
2905,
2901,
2971,
2984,
2907,
2879,
2701,
2729,
2699,
2763,
2662,
2603,
2610,
2568,
2529,
2389,
2431,
2566,
2548,
2479,
2446,
2483,
2463,
2563,
2432,
2496,
2352,
2336,
2379,
2369,
2287,
2237,
2275,
2228,
2267,
2232,
2200,
2219,
2131,
2207,
2171,
2132,
2151,
2135,
2147,
2163,
2043,
2076,
2037,
2100,
2030,
2010,
1934,
2027,
1944,
2022,
2039,
1942,
1935,
1988,
1862,
1896,
1900,
1879,
1867,
1907,
1779,
1749,
1794,
1790,
1729,
1745,
1680,
1765,
1739,
1710,
1726,
1768,
1897,
2045,
2296,
2406,
2370,
2193,
1889,
1696,
1665,
1576,
1579,
1551,
1533,
1434,
1473,
1501,
1485,
1502,
1473,
1399,
1471,
1468,
1436,
1376,
1431,
1392,
1402,
1344,
1323,
1334,
1322,
1329,
1342,
1303,
1323,
1340,
1353,
1276,
1306,
1287,
1309,
1397,
1398,
1461,
1419,
1312,
1251,
1276,
1199,
1236,
1225,
1195,
1202,
1226,
1217,
1198,
1157,
1121,
1050,
1062,
1020,
1008,
1049,
1085,
1028,
1031,
962,
957,
994,
995,
956,
962,
945,
949,
879,
992,
972,
937,
979,
1110,
1263,
1400,
1612,
1769,
1638,
1444,
1277,
1182,
954,
838,
831,
860,
849,
872,
822,
798,
804,
744,
753,
748,
747,
722,
699,
682,
713,
692,
668,
684,
642,
675,
628,
609,
594,
647,
589,
623,
624,
649,
603,
548,
617,
559,
558,
556,
540,
539,
501,
509,
544,
518,
510,
492,
482,
506,
549,
453,
465,
469,
487,
416,
459,
421,
412,
433,
402,
419,
393,
416,
430,
451,
466,
478,
483,
502,
447,
418,
384,
361,
340,
334,
297,
336,
303,
341,
332,
311,
339,
300,
303,
282,
245,
268,
253,
253,
253,
226,
237,
207,
226,
221,
203,
227,
212,
202,
192,
215,
190,
161,
162,
165,
151,
148,
158,
161,
163,
136,
116,
109,
153,
125,
135,
125,
123,
93,
104,
115,
88,
104,
82,
106,
97,
74,
81,
66,
74,
70,
50,
71,
53,
51,
48,
39,
25,
28,
40,
24,
38,
24,
17,
13,
6,
7,
11,
6,
2,
4,
1,
4,
2,
2,
2,
0,
5,
3,
1,
3,
1,
1,
3,
0,
6,
1,
4,
2,
4,
4,
1,
1,
1,
3,
3,
3,
7,
1,
2,
2,
0,
1,
1,
1,
3,
1,
1,
2,
1,
5,
2,
3,
2,
2,
0,
4,
1,
0,
2,
1,
1,
1,
1,
3,
1,
4,
3,
2,
2,
2,
1,
0,
2,
3,
1,
3,
1,
0,
1,
1,
1,
1,
0,
1,
3,
1,
0,
0,
0,
2,
6,
0,
1,
1,
1,
0,
1,
2,
2,
3,
0,
1,
1,
0,
0,
0,
1,
0,
1,
1,
0,
0,
2,
2,
2,
1,
0,
0,
2,
0,
0,
1,
1,
2,
0,
0,
1,
0,
1,
0,
0,
1,
0,
1,
0,
0,
1,
0,
0,
0,
0,
1,
0,
0,
0,
1,
2,
0,
0,
0,
0,
1,
1,
1,
2,
0,
0,
0,
0,
0,
0,
0,
1,
0,
1,
0,
0,
0,
1,
0,
0,
0,
1,
1,
0,
0,
0,
0,
0,
1,
0,
0,
0,
0,
0,
1,
0,
0,
0,
2,
0,
0,
0,
0,
1,
0,
1,
0,
0,
0,
0,
0,
0,
0,
0,
1,
0,
0,
0,
0,
0,
0,
0,
0,
0,
0,
0,
0,
0,
0,
1,
0,
0,
0,
1,
1,
0,
0,
0,
0,
0,
0,
0,
1,
0,
1,
0,
0,
0,
1,
0,
0,
0,
0,
1,
0,
0,
0,
0,
1,
0,
0,
0,
0,
0,
0,
0,
0,
0,
0,
0,
0,
0,
0,
0,
0,
0,
0,
0,
0,
0,
1,
0,
0,
0,
1,
0,
0,
0,
0,
0,
0,
0,
0,
0,
0,
0,
0,
0,
0,
0,
0,
1,
1,
0,
0,
0,
0,
0,
0,
0,
0,
0,
0,
0,
0,
0,
0,
0,
0,
0,
0,
0,
1,
0,
0,
2,
0,
0,
0,
0,
1,
0,
0,
0,
0,
0,
0,
0,
0,
0,
0,
0,
0,
0,
0,
0,
0,
0,
0,
0,
0,
0,
0,
0,
0,
0,
0,
0,
0,
0,
0,
0,
0,
0,
0,
0,
0,
0,
0,
0,
0,
0,
0,
0,
0,
0,
0,
0,
0,
0,
0,
1,
0,
0,
0,
0,
0,
1,
0,
0,
0,
0,
0,
0,
0,
0,
0,
0,
0,
0,
0,
0,
0,
0,
0,
0,
0,
0,
0,
0,
0,
0,
0,
0,
0,
0,
0,
0,
0,
0,
0,
0,
0,
0,
0,
0,
0,
0,
0,
0,
0,
1,
0,
0,
0,
0,
0,
0,
0,
0,
0,
0,
0,
0,
0,
0,
0,
0,
0,
0,
0,
0,
0,
0,
0,
0,
0,
0,
0,
0,
0,
0,
0,
0,
0,
0,
0,
0,
0,
0,
0,
0,
0,
0,
0,
0,
0,
0,
0,
0,
0,
0,
0,
0,
0,
0,
0,
0,
0,
0,
0,
0,
0,
0,
0,
0,
0,
0,
0,
0,
0,
0,
0,
0,
0,
0,
0,
0,
0,
0,
0,
0,
0,
0,
0,
0,
0,
0,
0,
0,
0,
0,
0,
0,
0,
0,
0,
0,
0,
0,
0,
0,
0,
0,
0,
0,
0,
0,
0,
0,
0,
0,
0,
0,
0,
0,
0,
0,
0,
0,
0,
0,
0,
0,
0,
0,
0,
0,
0,
0,
0,
0,
0,
0,
0,
0,
0,
0,
0,
0,
0,
0,
0,
0,
0,
0,
0,
0,
0,
0,
0,
0,
0,
0,
0,
0,
0,
0,
0,
0,
0,
0,
0,
0,
0,
0,
0,
0,
0,
0,
0,
0,
0,
0,
0,
0,
0,
0,
0,
0,
0,
0,
0,
0,
0,
0,
0,
0,
0,
0,
0,
0,
0,
0,
0,
0,
0,
0,
0,
0,
0,
0,
0,
0,
0,
0,
0,
0,
0,
0,
0,
0,
0,
0,
0,
0,
0,
0,
0,
0,
0,
0,
0,
0,
0,
0,
0,
0,
0,
0,
0,
0,
0,
0,
0,
0,
0,
0,
0,
0,
0,
0,
0,
0,
0,
0,
0,
0,
0,
0,
0,
0,
0,
0,
0,
0,
0,
0,
0,
0,
0,
0,
0,
0,
0,
0,
0,
0,
0,
0,
0,
0,
0,
0,
0,
0,
0,
0,
0,
0,
0,
0,
0,
0,
0,
0,
0,
0,
0,
0,
0,
0,
0,
0,
0,
0,
0,
0,
0,
0,
0,
0,
0,
0,
0,
0,
0,
0,
0,
0,
0,
0,
0,
0,
0,
0,
0,
0,
0,
0,
0,
0,
0,
0,
0,
0,
0,
0,
0,
0,
0,
0,
0,
0,
0,
0,
0,
0,
0,
0,
0,
0,
0,
0,
0,
0,
0,
0,
0,
0,
0,
0,
0,
0,
0,
0,
0,
0,
0,
0,
0,
0,
0,
0,
0,
0,
0,
0,
0,
0,
0,
0,
0,
0,
0,
0,
0,
0,
0,
0,
0,
0,
0,
0,
0,
0,
0,
0,
0,
0,
0,
0,
0,
0,
0,
0,
0,
0,
0,
0,
0,
0,
0,
0,
0,
0,
0,
0,
0,
0,
0,
0,
0,
0,
0,
0,
0,
0,
0,
0,
0,
0,
0,
0,
0,
0,
0,
0,
0,
0,
0,
0,
0,
0,
0,
0,
0,
0,
0,
0,
0,
0,
0,
0,
0,
0,
0,
0,
0,
0,
0,
#ENDOFDATA   :