File: N132962/Quantification/15 keV/GMIIIA/GMIIIA K227[3][4].msa
#FORMAT      : EMSA/MAS Spectral Data File
#VERSION     : 1.0
#TITLE       : GMIIIA K227[3][all]
#DATE        : 22-SEP-2025
#TIME        : 14:19
#OWNER       : Unknown
#NPOINTS     : 4096
#NCOLUMNS    : 1
#XUNITS      : eV
#YUNITS      : counts
#DATATYPE    : Y
#XPERCHAN    : 9.99778
#OFFSET      : 1.69135
#BEAMKV      : 15
#SIGNALTYPE  : EDS
#ELEVANGLE   : 35
#AZIMANGLE   : 0
#LIVETIME    : 240.476
#REALTIME    : 261.799
#PROBECUR    : 1.21983
#TAUWIND     : 0
#TDEADLYR    : 0
#TACTLYR     : 0.045
#TALWIND     : 0.025
#CHOFFSET    : 0.0
#XLABEL      : Energy (eV)
#YLABEL      : Counts
#XPOSITION   : 7.66607
#YPOSITION   : 0.40631
#ZPOSITION   : 37.36299
#EDSDET      : SD
##SPECIMEN   : GMIIIA K227[3][all]
##D2STDCMP   : K227,(O:16.39),(Si:9.35),(Pb:74.27)
##DET_HASH   : 12273538-fd48-a23f-0a19-f1e6fa85caef
##CALIB_HASH : 6abaa72c-aa41-8738-0be9-f592914732f3
##WORKING    : 15.0 mm
##DET_NAME   : EDAX All
##DET_MODE   : MediumLE
#SPECTRUM    :
38,
30,
17,
53,
292,
1224,
3255,
6842,
13077,
15794,
11138,
7844,
7558,
7620,
8377,
15552,
42211,
74430,
55077,
20153,
10669,
9955,
11118,
11433,
9208,
7748,
7421,
7895,
8101,
8380,
8314,
8259,
8834,
8851,
9048,
8950,
9114,
9211,
9413,
9503,
9690,
9886,
9890,
10123,
9894,
10423,
10328,
10580,
10553,
10893,
11068,
10926,
10818,
10719,
11245,
15724,
35227,
76763,
101372,
77333,
42792,
27287,
19371,
13159,
9703,
9040,
8645,
8258,
8383,
8762,
8907,
9771,
10798,
11730,
14069,
22129,
49529,
104944,
153533,
148274,
117995,
105891,
90938,
54082,
22921,
10125,
8200,
9757,
11696,
11350,
8830,
6497,
5415,
5142,
5159,
5323,
5628,
5713,
5844,
5736,
6047,
6405,
6816,
7000,
6697,
6154,
5582,
5324,
4973,
4951,
4799,
4931,
4758,
4725,
4773,
4786,
4852,
4928,
4906,
4912,
4643,
4521,
4755,
4849,
4848,
4715,
4765,
4678,
4613,
4490,
4479,
4378,
4260,
4503,
4413,
4464,
4659,
4650,
4548,
4494,
4445,
4429,
4301,
4330,
4226,
4321,
4275,
4261,
4396,
4506,
4370,
4335,
4237,
4321,
4273,
4141,
4299,
4095,
4136,
4147,
4285,
4187,
4082,
3978,
4100,
3944,
3923,
3915,
3894,
3794,
3906,
3816,
3711,
3788,
3648,
3802,
3697,
3678,
3602,
3672,
3547,
3621,
3654,
3632,
3594,
3550,
3530,
3410,
3558,
3377,
3437,
3339,
3341,
3382,
3300,
3343,
3375,
3343,
3312,
3203,
3184,
3233,
3183,
3235,
3130,
3161,
3107,
3074,
3071,
3061,
3028,
2987,
3163,
3103,
3066,
3032,
3068,
3004,
2860,
2977,
2876,
2793,
2784,
2830,
2717,
2769,
2741,
2754,
2747,
2704,
2732,
2675,
2591,
2590,
2596,
2627,
2705,
2499,
2573,
2465,
2514,
2516,
2466,
2407,
2529,
2377,
2467,
2453,
2499,
2449,
2405,
2367,
2341,
2292,
2282,
2324,
2271,
2390,
2287,
2270,
2308,
2209,
2135,
2198,
2145,
2181,
2223,
2049,
2091,
2138,
2022,
2007,
1978,
2084,
2063,
2027,
1969,
1977,
1908,
1954,
1968,
1853,
1868,
1994,
1866,
1855,
1858,
1820,
1838,
1827,
1891,
1754,
1783,
1770,
1756,
1776,
1621,
1657,
1744,
1744,
1691,
1700,
1628,
1701,
1712,
1690,
1680,
1678,
1668,
1617,
1545,
1520,
1568,
1540,
1465,
1448,
1494,
1435,
1475,
1523,
1399,
1426,
1440,
1465,
1398,
1354,
1417,
1370,
1381,
1354,
1338,
1357,
1325,
1269,
1361,
1297,
1273,
1269,
1227,
1249,
1264,
1147,
1181,
1165,
1239,
1309,
1432,
1619,
1883,
2238,
2525,
2588,
2667,
2313,
2032,
1564,
1343,
1194,
1087,
1031,
1029,
1014,
986,
938,
945,
930,
985,
906,
929,
900,
952,
941,
861,
879,
852,
881,
894,
859,
864,
752,
792,
848,
810,
775,
796,
772,
748,
737,
751,
747,
724,
727,
714,
705,
699,
681,
651,
663,
640,
687,
628,
661,
609,
643,
629,
618,
634,
667,
584,
618,
570,
547,
572,
571,
523,
528,
622,
657,
685,
725,
707,
736,
670,
575,
525,
522,
421,
415,
422,
429,
387,
389,
443,
423,
388,
366,
390,
334,
383,
322,
357,
325,
318,
322,
302,
259,
294,
300,
298,
280,
273,
265,
262,
273,
254,
238,
246,
258,
245,
213,
215,
214,
186,
180,
210,
174,
209,
163,
186,
168,
156,
160,
139,
144,
127,
145,
141,
121,
111,
111,
99,
106,
108,
92,
80,
85,
80,
72,
77,
70,
61,
59,
53,
36,
40,
32,
24,
23,
24,
11,
9,
11,
15,
5,
3,
3,
6,
8,
3,
3,
1,
8,
3,
2,
3,
2,
2,
4,
3,
0,
5,
3,
5,
8,
0,
5,
2,
3,
5,
3,
3,
2,
6,
4,
3,
1,
2,
3,
1,
3,
1,
4,
6,
1,
4,
3,
5,
3,
3,
5,
2,
1,
10,
3,
3,
1,
2,
3,
5,
1,
1,
3,
1,
0,
2,
4,
1,
3,
1,
3,
2,
5,
1,
1,
3,
1,
1,
3,
4,
1,
3,
0,
0,
0,
3,
4,
2,
4,
0,
0,
4,
3,
0,
0,
4,
6,
2,
6,
2,
2,
1,
2,
1,
2,
1,
1,
3,
0,
2,
1,
0,
1,
0,
0,
1,
1,
1,
1,
3,
2,
0,
4,
1,
1,
2,
1,
2,
0,
0,
2,
0,
0,
0,
2,
2,
0,
0,
1,
0,
2,
3,
0,
2,
0,
2,
1,
2,
1,
2,
2,
2,
1,
1,
1,
2,
0,
0,
0,
0,
2,
3,
1,
0,
0,
0,
0,
0,
1,
1,
0,
0,
1,
0,
0,
0,
0,
2,
1,
0,
0,
0,
1,
2,
0,
2,
0,
0,
0,
0,
0,
1,
2,
0,
0,
0,
0,
2,
0,
0,
0,
2,
0,
0,
0,
0,
0,
0,
0,
0,
1,
0,
0,
1,
1,
0,
0,
1,
0,
0,
0,
0,
1,
0,
2,
0,
1,
0,
0,
0,
0,
0,
1,
0,
0,
1,
0,
0,
0,
0,
0,
0,
0,
1,
0,
0,
0,
0,
0,
1,
0,
1,
0,
0,
0,
0,
0,
0,
0,
1,
0,
0,
0,
0,
0,
0,
0,
1,
0,
0,
0,
0,
0,
0,
0,
0,
0,
0,
0,
0,
0,
0,
0,
0,
0,
0,
0,
0,
0,
0,
0,
1,
0,
0,
0,
0,
0,
0,
0,
0,
0,
0,
1,
0,
0,
0,
0,
0,
0,
0,
0,
0,
0,
0,
1,
0,
0,
0,
0,
0,
0,
0,
0,
0,
0,
0,
0,
0,
0,
0,
1,
0,
0,
0,
0,
0,
0,
0,
0,
0,
0,
0,
0,
0,
0,
0,
0,
0,
0,
0,
0,
0,
0,
0,
0,
0,
0,
0,
0,
0,
0,
0,
0,
0,
0,
0,
0,
0,
0,
0,
0,
0,
0,
0,
0,
0,
0,
0,
1,
0,
0,
0,
0,
0,
0,
0,
0,
0,
0,
0,
0,
0,
0,
0,
0,
0,
0,
0,
0,
0,
0,
0,
0,
0,
0,
0,
0,
0,
0,
0,
0,
0,
0,
0,
0,
0,
0,
0,
0,
0,
0,
0,
0,
0,
0,
0,
0,
0,
0,
0,
0,
0,
0,
0,
0,
0,
0,
0,
0,
0,
0,
0,
0,
0,
0,
0,
0,
0,
0,
0,
0,
0,
0,
0,
0,
0,
0,
0,
0,
0,
0,
0,
0,
0,
0,
0,
0,
0,
0,
0,
0,
0,
0,
0,
0,
0,
0,
0,
0,
0,
0,
0,
0,
0,
0,
0,
0,
0,
0,
0,
0,
0,
0,
0,
0,
0,
0,
0,
0,
0,
0,
0,
0,
0,
0,
0,
0,
0,
0,
0,
0,
0,
0,
0,
0,
0,
0,
0,
0,
0,
0,
0,
0,
0,
0,
0,
0,
0,
0,
0,
0,
0,
0,
0,
0,
0,
0,
0,
0,
0,
0,
0,
0,
0,
0,
0,
0,
0,
0,
0,
0,
0,
0,
0,
0,
0,
0,
0,
0,
0,
0,
0,
0,
0,
0,
0,
0,
0,
0,
0,
0,
0,
0,
0,
0,
0,
0,
0,
0,
0,
0,
0,
0,
0,
0,
0,
0,
0,
0,
0,
0,
0,
0,
0,
0,
0,
0,
0,
0,
0,
0,
0,
0,
0,
0,
0,
0,
0,
0,
0,
0,
0,
0,
0,
0,
0,
0,
0,
0,
0,
0,
0,
0,
0,
0,
0,
0,
0,
0,
0,
0,
0,
0,
0,
0,
0,
0,
0,
0,
0,
0,
0,
0,
0,
0,
0,
0,
0,
0,
0,
0,
0,
0,
0,
0,
0,
0,
0,
0,
0,
0,
0,
0,
0,
0,
0,
0,
0,
0,
0,
0,
0,
0,
0,
0,
0,
0,
0,
0,
0,
0,
0,
0,
0,
0,
0,
0,
0,
0,
0,
0,
0,
0,
0,
0,
0,
0,
0,
0,
0,
0,
0,
0,
0,
0,
0,
0,
0,
0,
0,
0,
0,
0,
0,
0,
0,
0,
0,
0,
0,
0,
0,
0,
0,
0,
0,
0,
0,
0,
0,
0,
0,
0,
0,
0,
0,
0,
0,
0,
0,
0,
0,
0,
0,
0,
0,
0,
0,
0,
0,
0,
0,
0,
0,
0,
0,
0,
0,
0,
0,
0,
0,
0,
0,
0,
0,
0,
0,
0,
0,
0,
0,
0,
0,
0,
0,
0,
0,
0,
0,
0,
0,
0,
0,
0,
0,
0,
0,
0,
0,
0,
0,
0,
0,
0,
0,
0,
0,
0,
0,
0,
0,
0,
0,
0,
0,
0,
0,
0,
0,
0,
0,
0,
0,
0,
0,
0,
0,
0,
0,
0,
0,
0,
0,
0,
0,
0,
0,
0,
0,
0,
0,
0,
0,
0,
0,
0,
0,
0,
0,
0,
0,
0,
0,
0,
0,
0,
0,
0,
0,
0,
0,
0,
0,
0,
0,
0,
0,
0,
0,
0,
0,
0,
0,
0,
0,
0,
#ENDOFDATA   :