File: N132962/Quantification/15 keV/GMIIIA/GMIIIA K253[0][4].msa
#FORMAT      : EMSA/MAS Spectral Data File
#VERSION     : 1.0
#TITLE       : GMIIIA K253[0][all]
#DATE        : 22-SEP-2025
#TIME        : 14:39
#OWNER       : Unknown
#NPOINTS     : 4096
#NCOLUMNS    : 1
#XUNITS      : eV
#YUNITS      : counts
#DATATYPE    : Y
#XPERCHAN    : 9.99778
#OFFSET      : 1.69135
#BEAMKV      : 15
#SIGNALTYPE  : EDS
#ELEVANGLE   : 35
#AZIMANGLE   : 0
#LIVETIME    : 239.922
#REALTIME    : 257.063
#PROBECUR    : 1.21983
#TAUWIND     : 0
#TDEADLYR    : 0
#TACTLYR     : 0.045
#TALWIND     : 0.025
#CHOFFSET    : 0.0
#XLABEL      : Energy (eV)
#YLABEL      : Counts
#XPOSITION   : 2.54222
#YPOSITION   : 2.32937
#ZPOSITION   : 37.36299
#EDSDET      : SD
##SPECIMEN   : GMIIIA K253[0][all]
##D2STDCMP   : K253,(O:31.64),(Si:18.7),(Mn:6.32),(Co:1.97),(Cu:2.0),(Zn:8.03),(Ba:31.35)
##DET_HASH   : 12273538-fd48-a23f-0a19-f1e6fa85caef
##CALIB_HASH : 6abaa72c-aa41-8738-0be9-f592914732f3
##WORKING    : 15.0 mm
##DET_NAME   : EDAX All
##DET_MODE   : MediumLE
#SPECTRUM    :
28,
37,
21,
36,
157,
599,
1629,
3688,
7838,
9999,
7341,
6290,
7155,
8572,
12495,
35159,
120075,
222765,
164981,
51945,
19462,
15607,
12028,
8157,
8226,
11612,
13866,
10861,
7691,
8023,
10939,
14087,
18283,
27893,
32576,
22178,
10197,
6208,
5085,
4787,
4883,
4864,
5116,
5092,
5253,
5332,
5460,
5406,
5819,
6203,
6413,
6147,
6156,
6364,
7032,
13500,
43042,
105160,
140454,
100689,
42825,
16472,
9151,
5882,
4777,
4394,
4322,
4325,
4321,
4357,
4348,
4358,
4475,
4407,
4574,
4729,
4770,
4581,
4506,
4281,
4246,
4265,
4253,
4244,
4233,
4139,
4008,
4183,
4162,
4168,
4335,
4240,
4305,
4107,
4013,
3860,
3958,
3865,
3818,
3919,
3831,
3815,
3853,
3721,
3758,
3820,
3631,
3631,
3582,
3421,
3508,
3452,
3477,
3458,
3439,
3471,
3387,
3518,
3310,
3294,
3173,
3172,
3159,
3188,
3142,
3138,
3218,
3138,
3041,
3241,
3559,
3863,
4060,
3825,
3403,
3216,
3000,
2870,
2839,
2918,
2864,
2889,
2844,
3264,
3772,
5414,
9812,
18736,
28423,
32539,
26674,
16104,
8022,
4149,
2911,
2672,
2843,
3517,
5371,
9173,
13402,
16274,
15066,
11285,
8024,
5843,
4421,
3515,
3117,
3682,
4920,
6301,
6843,
6167,
4590,
3172,
2463,
2155,
2094,
2085,
2116,
2393,
2726,
3263,
3811,
3575,
3129,
2453,
2183,
2040,
2052,
2409,
2933,
3953,
5825,
8284,
9681,
9462,
7369,
4932,
3128,
2100,
1688,
1682,
1573,
1599,
1551,
1584,
1613,
1637,
1596,
1568,
1662,
1903,
2071,
2343,
2467,
2461,
2138,
1873,
1596,
1427,
1384,
1384,
1358,
1396,
1452,
1628,
1859,
2423,
2792,
2819,
2709,
2099,
1747,
1466,
1267,
1239,
1234,
1212,
1224,
1250,
1175,
1204,
1196,
1234,
1149,
1186,
1220,
1170,
1135,
1183,
1184,
1329,
1361,
1274,
1246,
1198,
1237,
1134,
1046,
1093,
1026,
1093,
1191,
1371,
1701,
1940,
1966,
1884,
1554,
1267,
1140,
1045,
1030,
993,
954,
950,
877,
930,
903,
874,
1054,
1234,
1709,
2281,
3080,
3490,
3532,
3121,
2286,
1641,
1198,
1024,
903,
927,
866,
937,
817,
845,
830,
757,
749,
783,
810,
766,
759,
749,
740,
715,
787,
680,
698,
649,
735,
716,
851,
958,
1033,
1041,
940,
878,
833,
736,
625,
587,
551,
563,
572,
584,
616,
593,
573,
565,
597,
567,
548,
550,
571,
540,
571,
521,
555,
476,
528,
507,
504,
491,
481,
476,
493,
449,
483,
496,
437,
472,
455,
442,
453,
433,
443,
447,
442,
396,
421,
436,
418,
414,
387,
413,
416,
362,
396,
372,
383,
366,
378,
352,
334,
362,
345,
342,
349,
334,
342,
341,
315,
310,
284,
322,
309,
319,
269,
269,
293,
303,
285,
277,
228,
255,
236,
287,
272,
261,
263,
236,
228,
242,
224,
231,
244,
223,
224,
250,
216,
200,
166,
190,
208,
197,
186,
191,
190,
171,
184,
177,
185,
173,
177,
162,
164,
149,
151,
155,
144,
130,
140,
148,
138,
141,
147,
149,
131,
113,
114,
117,
103,
121,
116,
103,
105,
110,
111,
98,
87,
91,
86,
77,
83,
85,
72,
92,
71,
89,
82,
78,
72,
58,
72,
65,
67,
53,
52,
55,
45,
46,
40,
49,
45,
30,
40,
30,
35,
29,
38,
21,
24,
37,
29,
18,
19,
19,
16,
11,
20,
10,
10,
6,
7,
5,
3,
1,
1,
2,
1,
1,
0,
2,
2,
1,
1,
0,
1,
1,
4,
1,
0,
1,
1,
1,
0,
1,
0,
3,
1,
1,
2,
0,
0,
1,
0,
1,
1,
0,
1,
1,
0,
1,
1,
2,
0,
0,
2,
0,
0,
1,
0,
0,
0,
4,
0,
0,
3,
0,
2,
2,
1,
2,
1,
0,
0,
1,
0,
1,
1,
1,
0,
0,
0,
0,
0,
3,
0,
0,
0,
1,
0,
0,
0,
1,
0,
0,
0,
0,
0,
2,
0,
0,
0,
2,
0,
1,
0,
0,
3,
1,
0,
0,
0,
0,
0,
0,
0,
1,
2,
0,
0,
1,
0,
0,
0,
1,
0,
0,
0,
1,
0,
0,
0,
1,
0,
1,
0,
0,
0,
1,
0,
1,
0,
0,
0,
0,
0,
1,
1,
0,
0,
0,
1,
0,
0,
1,
0,
0,
1,
0,
0,
0,
0,
0,
0,
1,
0,
1,
0,
0,
0,
0,
1,
1,
0,
0,
0,
0,
1,
0,
0,
0,
0,
0,
2,
0,
0,
0,
0,
0,
0,
0,
0,
0,
0,
0,
0,
1,
0,
1,
0,
0,
0,
0,
0,
0,
0,
0,
0,
0,
0,
0,
0,
0,
0,
0,
0,
0,
0,
0,
0,
0,
0,
0,
0,
0,
0,
0,
0,
0,
0,
0,
0,
0,
0,
0,
0,
0,
0,
0,
0,
0,
0,
0,
0,
0,
0,
0,
0,
0,
1,
0,
0,
0,
0,
0,
0,
1,
0,
0,
0,
0,
0,
0,
0,
0,
0,
0,
0,
0,
0,
0,
0,
0,
0,
0,
1,
0,
0,
0,
0,
0,
0,
0,
0,
0,
0,
0,
0,
0,
0,
0,
0,
0,
0,
0,
0,
0,
0,
0,
0,
0,
0,
0,
0,
0,
0,
0,
0,
0,
0,
0,
0,
0,
0,
0,
0,
0,
0,
0,
0,
0,
0,
0,
0,
0,
0,
0,
0,
0,
0,
0,
0,
0,
0,
0,
0,
0,
0,
0,
0,
0,
0,
0,
0,
1,
0,
0,
0,
0,
0,
0,
0,
0,
0,
0,
0,
0,
0,
0,
0,
0,
0,
0,
0,
0,
0,
0,
0,
0,
0,
0,
0,
0,
0,
0,
0,
0,
0,
0,
0,
0,
0,
0,
0,
0,
0,
0,
0,
0,
0,
0,
0,
0,
0,
0,
0,
0,
0,
0,
0,
0,
0,
0,
0,
0,
0,
0,
0,
0,
0,
0,
0,
0,
0,
0,
0,
0,
0,
0,
0,
0,
0,
0,
0,
0,
0,
0,
0,
0,
0,
0,
0,
0,
0,
0,
0,
0,
0,
0,
0,
0,
0,
0,
0,
0,
0,
0,
0,
0,
0,
0,
0,
0,
0,
0,
0,
0,
0,
0,
0,
0,
0,
0,
0,
0,
0,
0,
0,
0,
0,
0,
0,
0,
0,
0,
0,
0,
0,
0,
0,
0,
0,
0,
0,
0,
0,
0,
0,
0,
0,
0,
0,
0,
0,
0,
0,
0,
0,
0,
0,
0,
0,
0,
0,
0,
0,
0,
0,
0,
0,
0,
0,
0,
0,
0,
0,
0,
0,
0,
0,
0,
0,
0,
0,
0,
0,
0,
0,
0,
0,
0,
0,
0,
0,
0,
0,
0,
0,
0,
0,
0,
0,
0,
0,
0,
0,
0,
0,
0,
0,
0,
0,
0,
0,
0,
0,
0,
0,
0,
0,
0,
0,
0,
0,
0,
0,
0,
0,
0,
0,
0,
0,
0,
0,
0,
0,
0,
0,
0,
0,
0,
0,
0,
0,
0,
0,
0,
0,
0,
0,
0,
0,
0,
0,
0,
0,
0,
0,
0,
0,
0,
0,
0,
0,
0,
0,
0,
0,
0,
0,
0,
0,
0,
0,
0,
0,
0,
0,
0,
0,
0,
0,
0,
0,
0,
0,
0,
0,
0,
0,
0,
0,
0,
0,
0,
0,
0,
0,
0,
0,
0,
0,
0,
0,
0,
0,
0,
0,
0,
0,
0,
0,
0,
0,
0,
0,
0,
0,
0,
0,
0,
0,
0,
0,
0,
0,
0,
0,
0,
0,
0,
0,
0,
0,
0,
0,
0,
0,
0,
0,
0,
0,
0,
0,
0,
0,
0,
0,
0,
0,
0,
0,
0,
0,
0,
0,
0,
0,
0,
0,
0,
0,
0,
0,
0,
0,
0,
0,
0,
0,
0,
0,
0,
0,
0,
0,
0,
0,
0,
0,
0,
0,
0,
0,
0,
0,
0,
0,
0,
0,
0,
0,
0,
0,
0,
0,
0,
0,
0,
0,
0,
0,
0,
0,
0,
0,
0,
0,
0,
0,
0,
0,
0,
0,
0,
0,
0,
0,
0,
0,
0,
0,
0,
0,
0,
0,
0,
0,
0,
0,
0,
0,
0,
0,
0,
0,
0,
0,
0,
0,
0,
0,
0,
0,
0,
0,
0,
0,
0,
0,
0,
0,
0,
0,
0,
0,
0,
0,
0,
0,
0,
0,
0,
0,
0,
0,
0,
0,
0,
0,
0,
0,
0,
0,
0,
0,
0,
0,
0,
0,
0,
0,
0,
0,
0,
0,
0,
0,
0,
0,
0,
0,
0,
0,
0,
0,
0,
0,
0,
0,
0,
0,
0,
0,
0,
0,
0,
0,
0,
0,
0,
0,
0,
0,
0,
0,
0,
0,
0,
0,
0,
0,
0,
0,
0,
0,
0,
0,
0,
0,
0,
0,
0,
0,
0,
0,
0,
0,
0,
#ENDOFDATA   :