File: N132962/Quantification/15 keV/GMIIIA/GMIIIA K1012[0][4].msa
#FORMAT      : EMSA/MAS Spectral Data File
#VERSION     : 1.0
#TITLE       : GMIIIA K1012[0][all]
#DATE        : 22-SEP-2025
#TIME        : 21:20
#OWNER       : Unknown
#NPOINTS     : 4096
#NCOLUMNS    : 1
#XUNITS      : eV
#YUNITS      : counts
#DATATYPE    : Y
#XPERCHAN    : 9.99778
#OFFSET      : 1.69135
#BEAMKV      : 15
#SIGNALTYPE  : EDS
#ELEVANGLE   : 35
#AZIMANGLE   : 0
#LIVETIME    : 239.992
#REALTIME    : 256.683
#PROBECUR    : 1.21822
#TAUWIND     : 0
#TDEADLYR    : 0
#TACTLYR     : 0.045
#TALWIND     : 0.025
#CHOFFSET    : 0.0
#XLABEL      : Energy (eV)
#YLABEL      : Counts
#XPOSITION   : 6.85805
#YPOSITION   : 15.49176
#ZPOSITION   : 37.36299
#EDSDET      : SD
##SPECIMEN   : GMIIIA K1012[0][all]
##D2STDCMP   : K1012,(O:39.34),(Na:1.48),(Mg:9.05),(Al:7.94),(Si:18.7),(P:0.63),(K:1.66),(Ca:0.4),(Ga:1.49),(Se:0.71),(In:1.65),(Cs:1.89),(Ba:13.43),(Ce:1.63)
##DET_HASH   : 12273538-fd48-a23f-0a19-f1e6fa85caef
##CALIB_HASH : 6abaa72c-aa41-8738-0be9-f592914732f3
##WORKING    : 15.0 mm
##DET_NAME   : EDAX All
##DET_MODE   : MediumLE
#SPECTRUM    :
23,
32,
16,
22,
108,
429,
1137,
2835,
6315,
8113,
5830,
4986,
5631,
6776,
10935,
35661,
130494,
245941,
178898,
48721,
8895,
4941,
4777,
4809,
4771,
5332,
5967,
5705,
5204,
5384,
5488,
5856,
6608,
9711,
15659,
18002,
15615,
12627,
9668,
10249,
24824,
55689,
66656,
38994,
14026,
6517,
6198,
10904,
29591,
56558,
57185,
31008,
12714,
6917,
6167,
12608,
42899,
106794,
146477,
103678,
43026,
16163,
8266,
5012,
4083,
4304,
5660,
6385,
5631,
4317,
3527,
3356,
3265,
3364,
3507,
3728,
3686,
3420,
3260,
3224,
3029,
3000,
3098,
3137,
2973,
3024,
3027,
2935,
3000,
2907,
3090,
2940,
3002,
2878,
2813,
2840,
2813,
2920,
2831,
2861,
2909,
2868,
2651,
2718,
2693,
2724,
2911,
3693,
5769,
8934,
11166,
10494,
7257,
4297,
3258,
3326,
3517,
3641,
3503,
3422,
3475,
3592,
3831,
3967,
3849,
3018,
2566,
2299,
2222,
2301,
2348,
2534,
2601,
2578,
2335,
2206,
2095,
2065,
2083,
2118,
2378,
2876,
3557,
3930,
3713,
3550,
4624,
7200,
10857,
11903,
9999,
6573,
4076,
2910,
2712,
2514,
2372,
2385,
3058,
4353,
6347,
7447,
6951,
5473,
4109,
3214,
2448,
2041,
1875,
2026,
2437,
3025,
3082,
3067,
2744,
2337,
2085,
1932,
1626,
1630,
1483,
1514,
1677,
1863,
1972,
1989,
1926,
1650,
1485,
1388,
1381,
1402,
1410,
1463,
1441,
1386,
1241,
1216,
1259,
1299,
1214,
1223,
1229,
1106,
1082,
1100,
1106,
1076,
1123,
1015,
1029,
1007,
1044,
1100,
1029,
1044,
1018,
1062,
986,
945,
901,
947,
979,
913,
958,
910,
908,
930,
880,
907,
906,
931,
890,
874,
882,
918,
845,
817,
792,
798,
785,
750,
734,
785,
764,
754,
765,
796,
789,
750,
770,
757,
735,
732,
719,
716,
735,
699,
698,
717,
679,
716,
677,
660,
695,
655,
668,
644,
624,
674,
643,
629,
654,
631,
601,
677,
603,
560,
565,
603,
589,
612,
543,
560,
557,
550,
524,
564,
556,
542,
504,
560,
560,
500,
538,
511,
521,
501,
484,
449,
492,
469,
493,
533,
582,
592,
723,
776,
790,
771,
661,
588,
503,
472,
468,
434,
426,
474,
429,
397,
413,
451,
417,
460,
411,
386,
405,
409,
365,
363,
378,
401,
348,
350,
348,
327,
349,
366,
340,
350,
369,
361,
400,
356,
333,
314,
301,
306,
331,
319,
300,
283,
303,
307,
300,
281,
262,
273,
267,
274,
258,
270,
281,
248,
258,
261,
250,
236,
243,
239,
225,
230,
217,
232,
252,
221,
202,
230,
228,
226,
215,
220,
219,
196,
197,
204,
207,
184,
192,
193,
195,
195,
143,
181,
172,
165,
186,
167,
174,
143,
149,
141,
144,
144,
166,
139,
157,
147,
131,
133,
142,
142,
153,
140,
119,
136,
117,
123,
118,
107,
125,
121,
106,
116,
102,
104,
111,
82,
108,
110,
93,
100,
90,
96,
81,
86,
71,
68,
74,
76,
87,
72,
68,
74,
65,
59,
72,
71,
80,
77,
70,
62,
45,
52,
61,
50,
47,
43,
39,
43,
46,
55,
43,
25,
43,
29,
32,
39,
35,
31,
22,
33,
27,
30,
22,
19,
23,
34,
18,
19,
20,
13,
20,
14,
14,
13,
15,
22,
12,
11,
9,
10,
4,
10,
4,
5,
2,
3,
2,
3,
1,
1,
1,
1,
2,
1,
0,
1,
0,
0,
0,
1,
0,
0,
1,
1,
0,
2,
1,
0,
0,
0,
3,
0,
0,
0,
0,
1,
1,
0,
0,
0,
0,
0,
0,
1,
0,
1,
0,
0,
0,
0,
0,
0,
0,
0,
0,
0,
0,
0,
0,
0,
0,
2,
0,
0,
1,
0,
1,
0,
0,
0,
1,
1,
0,
0,
0,
1,
0,
0,
0,
1,
0,
0,
0,
0,
0,
0,
0,
0,
0,
0,
0,
0,
0,
0,
0,
0,
0,
0,
0,
0,
0,
1,
0,
1,
0,
0,
1,
0,
0,
1,
0,
1,
0,
1,
0,
0,
0,
0,
0,
1,
0,
0,
0,
0,
0,
0,
0,
0,
0,
0,
0,
0,
0,
0,
2,
0,
0,
0,
0,
0,
0,
0,
0,
0,
0,
0,
1,
0,
0,
0,
0,
0,
0,
0,
0,
0,
0,
0,
0,
0,
0,
0,
0,
0,
0,
0,
0,
0,
0,
0,
0,
0,
0,
0,
0,
0,
0,
0,
0,
0,
0,
0,
0,
0,
0,
0,
0,
0,
0,
0,
0,
0,
0,
0,
0,
0,
0,
0,
0,
0,
0,
0,
0,
0,
0,
0,
0,
0,
0,
0,
0,
0,
0,
0,
0,
0,
0,
0,
0,
0,
0,
0,
0,
0,
0,
0,
0,
0,
0,
0,
1,
1,
0,
0,
1,
0,
0,
0,
0,
0,
0,
0,
0,
0,
0,
0,
0,
0,
0,
0,
0,
0,
0,
0,
0,
0,
0,
0,
0,
0,
0,
0,
0,
0,
0,
0,
0,
0,
0,
0,
0,
0,
0,
0,
0,
0,
0,
0,
0,
0,
0,
0,
0,
0,
0,
0,
0,
0,
0,
0,
0,
0,
0,
0,
0,
0,
0,
0,
0,
0,
0,
0,
0,
0,
0,
0,
0,
0,
0,
0,
0,
0,
0,
0,
0,
0,
0,
0,
0,
0,
0,
0,
0,
0,
0,
0,
0,
0,
0,
0,
0,
0,
0,
0,
0,
0,
0,
0,
0,
0,
0,
0,
0,
0,
0,
0,
0,
0,
0,
0,
0,
0,
0,
0,
0,
0,
0,
0,
0,
0,
0,
0,
0,
0,
0,
0,
0,
0,
0,
0,
0,
0,
0,
0,
0,
0,
0,
0,
0,
0,
0,
0,
0,
0,
0,
0,
0,
0,
0,
0,
0,
0,
0,
0,
0,
0,
0,
0,
0,
0,
0,
0,
0,
0,
0,
0,
0,
0,
0,
0,
0,
0,
0,
0,
0,
0,
0,
0,
0,
0,
0,
0,
0,
0,
0,
0,
0,
0,
0,
0,
0,
0,
0,
0,
0,
0,
0,
0,
0,
0,
0,
0,
0,
0,
0,
0,
0,
0,
0,
0,
0,
0,
0,
0,
0,
0,
0,
0,
0,
0,
0,
0,
0,
0,
0,
0,
0,
0,
0,
0,
0,
0,
0,
0,
0,
0,
0,
0,
0,
0,
0,
0,
0,
0,
0,
0,
0,
0,
0,
0,
0,
0,
0,
0,
0,
0,
0,
0,
0,
0,
0,
0,
0,
0,
0,
0,
0,
0,
0,
0,
0,
0,
0,
0,
0,
0,
0,
0,
0,
0,
0,
0,
0,
0,
0,
0,
0,
0,
0,
0,
0,
0,
0,
0,
0,
0,
0,
0,
0,
0,
0,
0,
0,
0,
0,
0,
0,
0,
0,
0,
0,
0,
0,
0,
0,
0,
0,
0,
0,
0,
0,
0,
0,
0,
0,
0,
0,
0,
0,
0,
0,
0,
0,
0,
0,
0,
0,
0,
0,
0,
0,
0,
0,
0,
0,
0,
0,
0,
0,
0,
0,
0,
0,
0,
0,
0,
0,
0,
0,
0,
0,
0,
0,
0,
0,
0,
0,
0,
0,
0,
0,
0,
0,
0,
0,
0,
0,
0,
0,
0,
0,
0,
0,
0,
0,
0,
0,
0,
0,
0,
0,
0,
0,
0,
0,
0,
0,
0,
0,
0,
0,
0,
0,
0,
0,
0,
0,
0,
0,
0,
0,
0,
0,
0,
0,
0,
0,
0,
0,
0,
0,
0,
0,
0,
0,
0,
0,
0,
0,
0,
0,
0,
0,
0,
0,
0,
0,
0,
0,
0,
0,
0,
0,
0,
0,
0,
0,
0,
0,
0,
0,
0,
0,
0,
0,
0,
0,
0,
0,
0,
0,
0,
0,
0,
0,
0,
0,
0,
0,
0,
0,
0,
0,
0,
0,
0,
0,
0,
0,
0,
0,
0,
0,
0,
0,
0,
0,
0,
0,
0,
0,
0,
0,
0,
0,
0,
0,
0,
0,
0,
0,
0,
0,
0,
0,
0,
0,
0,
0,
0,
0,
0,
0,
0,
0,
0,
0,
0,
0,
0,
0,
0,
0,
0,
0,
0,
0,
0,
0,
0,
0,
0,
0,
0,
0,
0,
0,
0,
0,
0,
0,
0,
0,
0,
0,
0,
0,
0,
0,
0,
0,
0,
0,
0,
0,
0,
0,
0,
0,
0,
0,
0,
0,
0,
0,
0,
0,
0,
0,
0,
0,
0,
0,
0,
0,
0,
0,
0,
0,
0,
0,
0,
0,
0,
0,
0,
0,
0,
0,
0,
0,
0,
0,
0,
0,
0,
0,
0,
0,
0,
0,
0,
0,
0,
0,
0,
0,
0,
0,
0,
0,
0,
0,
0,
0,
0,
0,
0,
0,
0,
0,
0,
0,
0,
0,
0,
0,
0,
0,
0,
0,
0,
0,
0,
#ENDOFDATA   :