File: N132962/Quantification/15 keV/GMIIIA/GMIIIA K326[1][4].msa
#FORMAT      : EMSA/MAS Spectral Data File
#VERSION     : 1.0
#TITLE       : GMIIIA K326[1][all]
#DATE        : 22-SEP-2025
#TIME        : 15:29
#OWNER       : Unknown
#NPOINTS     : 4096
#NCOLUMNS    : 1
#XUNITS      : eV
#YUNITS      : counts
#DATATYPE    : Y
#XPERCHAN    : 9.99778
#OFFSET      : 1.69135
#BEAMKV      : 15
#SIGNALTYPE  : EDS
#ELEVANGLE   : 35
#AZIMANGLE   : 0
#LIVETIME    : 239.995
#REALTIME    : 254.636
#PROBECUR    : 1.21681
#TAUWIND     : 0
#TDEADLYR    : 0
#TACTLYR     : 0.045
#TALWIND     : 0.025
#CHOFFSET    : 0.0
#XLABEL      : Energy (eV)
#YLABEL      : Counts
#XPOSITION   : 10.63415
#YPOSITION   : 3.7839
#ZPOSITION   : 37.36299
#EDSDET      : SD
##SPECIMEN   : GMIIIA K326[1][all]
##D2STDCMP   : K326,(B:9.32),(O:51.35),(Na:1.48),(Mg:18.15),(Si:13.98),(Ca:5.72)
##DET_HASH   : 12273538-fd48-a23f-0a19-f1e6fa85caef
##CALIB_HASH : 6abaa72c-aa41-8738-0be9-f592914732f3
##WORKING    : 15.0 mm
##DET_NAME   : EDAX All
##DET_MODE   : MediumLE
#SPECTRUM    :
28,
23,
9,
20,
172,
793,
1621,
2310,
4777,
6735,
5465,
4478,
4681,
5500,
10115,
38470,
147199,
280085,
202994,
52602,
6820,
2925,
3787,
3860,
2972,
2644,
2877,
3097,
3207,
3442,
3543,
3637,
4584,
7773,
13725,
14933,
9637,
6015,
6373,
13788,
48728,
120191,
145006,
81886,
24263,
6398,
3700,
3526,
3549,
3841,
3975,
3950,
4000,
3871,
4555,
9622,
33562,
83399,
113090,
80518,
33399,
12291,
6178,
3794,
2993,
2752,
2535,
2493,
2379,
2358,
2339,
2341,
2398,
2338,
2639,
2698,
2706,
2593,
2436,
2296,
2191,
2237,
2208,
2270,
2222,
2172,
2195,
2083,
2136,
2043,
2011,
2148,
2040,
2018,
1991,
1942,
1915,
1980,
1970,
2112,
2061,
1945,
1848,
1873,
1874,
1754,
1773,
1713,
1723,
1682,
1685,
1723,
1574,
1606,
1568,
1626,
1709,
1714,
1860,
2300,
4456,
9294,
16173,
20040,
17447,
10245,
4637,
2166,
1508,
1468,
1603,
1891,
2555,
3232,
3463,
3096,
2193,
1622,
1370,
1350,
1322,
1230,
1264,
1143,
1089,
1184,
1118,
1164,
1070,
1167,
1136,
1076,
1097,
1021,
1033,
1034,
1029,
1040,
1024,
1018,
981,
1038,
961,
1043,
947,
974,
998,
979,
900,
935,
869,
904,
918,
873,
862,
865,
882,
837,
831,
800,
821,
836,
836,
806,
792,
779,
751,
771,
761,
732,
711,
712,
780,
713,
712,
708,
685,
742,
688,
724,
685,
669,
615,
705,
675,
648,
653,
631,
636,
599,
600,
605,
628,
599,
605,
620,
594,
575,
575,
585,
556,
593,
569,
530,
535,
537,
514,
518,
506,
493,
530,
484,
523,
516,
505,
511,
475,
521,
465,
489,
496,
455,
441,
448,
403,
498,
436,
447,
441,
428,
402,
459,
425,
441,
414,
430,
416,
382,
369,
382,
402,
392,
374,
391,
382,
381,
357,
377,
353,
349,
388,
335,
341,
350,
324,
319,
351,
346,
366,
353,
310,
363,
318,
316,
310,
309,
333,
314,
299,
288,
294,
292,
286,
272,
281,
270,
293,
270,
261,
296,
267,
259,
259,
263,
244,
249,
232,
285,
229,
275,
265,
227,
245,
218,
228,
233,
224,
242,
252,
209,
229,
215,
230,
204,
204,
226,
217,
189,
195,
213,
174,
199,
184,
200,
180,
194,
182,
174,
184,
186,
182,
175,
188,
180,
172,
165,
168,
172,
156,
142,
155,
164,
147,
138,
160,
167,
153,
146,
129,
125,
143,
122,
139,
137,
122,
151,
145,
134,
129,
124,
120,
120,
137,
131,
121,
97,
110,
129,
104,
103,
103,
98,
94,
110,
115,
93,
89,
93,
101,
110,
97,
76,
94,
73,
76,
80,
81,
72,
71,
77,
78,
85,
81,
76,
75,
71,
60,
69,
68,
55,
72,
71,
71,
69,
58,
61,
75,
60,
55,
57,
67,
55,
50,
50,
59,
60,
41,
47,
39,
36,
50,
53,
35,
44,
50,
47,
52,
39,
32,
40,
40,
32,
36,
24,
35,
35,
20,
41,
29,
35,
27,
26,
29,
29,
27,
23,
22,
20,
27,
19,
24,
17,
18,
18,
19,
14,
16,
17,
13,
20,
10,
16,
18,
14,
22,
10,
8,
8,
8,
16,
11,
6,
9,
7,
9,
11,
1,
7,
3,
3,
4,
3,
4,
4,
1,
1,
3,
2,
2,
0,
1,
0,
1,
1,
0,
0,
0,
1,
0,
0,
1,
0,
0,
0,
0,
1,
0,
1,
0,
0,
0,
0,
1,
0,
0,
0,
0,
0,
0,
1,
0,
1,
0,
0,
0,
0,
0,
1,
0,
0,
0,
0,
0,
1,
0,
0,
0,
0,
0,
0,
0,
0,
0,
0,
0,
0,
0,
0,
0,
0,
1,
0,
0,
0,
0,
0,
0,
0,
0,
1,
0,
0,
1,
0,
0,
0,
0,
0,
0,
0,
0,
0,
0,
0,
0,
0,
0,
0,
0,
0,
1,
0,
0,
0,
0,
0,
0,
0,
0,
1,
0,
0,
0,
0,
0,
0,
0,
0,
0,
0,
0,
0,
0,
0,
0,
0,
0,
0,
0,
0,
0,
0,
0,
0,
0,
0,
0,
0,
0,
0,
0,
0,
0,
0,
0,
0,
0,
0,
0,
0,
0,
0,
0,
0,
0,
0,
0,
0,
0,
0,
0,
0,
0,
0,
0,
0,
0,
0,
0,
0,
0,
0,
0,
0,
0,
0,
0,
0,
0,
0,
0,
0,
0,
0,
0,
0,
0,
0,
0,
0,
0,
0,
0,
0,
0,
0,
0,
0,
0,
0,
0,
0,
0,
0,
0,
0,
0,
0,
0,
0,
0,
0,
0,
0,
0,
0,
0,
0,
0,
0,
0,
0,
0,
0,
0,
0,
0,
0,
0,
0,
0,
0,
0,
0,
0,
0,
0,
0,
0,
0,
0,
0,
0,
0,
0,
0,
0,
0,
0,
0,
0,
0,
0,
0,
0,
0,
0,
0,
0,
0,
0,
0,
0,
0,
0,
0,
0,
0,
0,
0,
0,
0,
0,
0,
0,
0,
0,
0,
0,
0,
0,
0,
0,
0,
0,
0,
0,
0,
0,
0,
0,
0,
0,
1,
0,
0,
0,
0,
0,
0,
0,
0,
0,
0,
0,
0,
0,
0,
0,
0,
0,
0,
0,
0,
0,
0,
0,
0,
0,
0,
0,
0,
0,
0,
0,
0,
0,
0,
0,
0,
0,
0,
0,
0,
0,
0,
0,
0,
0,
0,
0,
0,
0,
0,
0,
0,
0,
0,
0,
0,
0,
0,
0,
0,
0,
0,
0,
0,
0,
0,
0,
0,
0,
0,
0,
0,
0,
0,
0,
0,
0,
0,
0,
0,
0,
0,
0,
0,
0,
0,
0,
0,
0,
0,
0,
0,
0,
0,
0,
0,
0,
0,
0,
0,
0,
0,
0,
0,
0,
0,
0,
0,
0,
0,
0,
0,
0,
0,
0,
0,
0,
0,
0,
0,
0,
0,
0,
0,
0,
0,
0,
0,
0,
0,
0,
0,
0,
0,
0,
0,
0,
0,
0,
0,
0,
0,
0,
0,
0,
0,
0,
0,
0,
0,
0,
0,
0,
0,
0,
0,
0,
0,
0,
0,
0,
0,
0,
0,
0,
0,
0,
0,
0,
0,
0,
0,
0,
0,
0,
0,
0,
0,
0,
0,
0,
0,
0,
0,
0,
0,
0,
0,
0,
0,
0,
0,
0,
0,
0,
0,
0,
0,
0,
0,
0,
0,
0,
0,
0,
0,
0,
0,
0,
0,
0,
0,
0,
0,
0,
0,
0,
0,
0,
0,
0,
0,
0,
0,
0,
0,
0,
0,
0,
0,
0,
0,
0,
0,
0,
0,
0,
0,
0,
0,
0,
0,
0,
0,
0,
0,
0,
0,
0,
0,
0,
0,
0,
0,
0,
0,
0,
0,
0,
0,
0,
0,
0,
0,
0,
0,
0,
0,
0,
0,
0,
0,
0,
0,
0,
0,
0,
0,
0,
0,
0,
0,
0,
0,
0,
0,
0,
0,
0,
0,
0,
0,
0,
0,
0,
0,
0,
0,
0,
0,
0,
0,
0,
0,
0,
0,
0,
0,
0,
0,
0,
0,
0,
0,
0,
0,
0,
0,
0,
0,
0,
0,
0,
0,
0,
0,
0,
0,
0,
0,
0,
0,
0,
0,
0,
0,
0,
0,
0,
0,
0,
0,
0,
0,
0,
0,
0,
0,
0,
0,
0,
0,
0,
0,
0,
0,
0,
0,
0,
0,
0,
0,
0,
0,
0,
0,
0,
0,
0,
0,
0,
0,
0,
0,
0,
0,
0,
0,
0,
0,
0,
0,
0,
0,
0,
0,
0,
0,
0,
0,
0,
0,
0,
0,
0,
0,
0,
0,
0,
0,
0,
0,
0,
0,
0,
0,
0,
0,
0,
0,
0,
0,
0,
0,
0,
0,
0,
0,
0,
0,
0,
0,
0,
0,
0,
0,
0,
0,
0,
0,
0,
0,
0,
0,
0,
0,
0,
0,
0,
0,
0,
0,
0,
0,
0,
0,
0,
0,
0,
0,
0,
0,
0,
0,
0,
0,
0,
0,
0,
0,
0,
0,
0,
0,
0,
0,
0,
0,
0,
0,
0,
0,
0,
0,
0,
0,
0,
0,
0,
0,
0,
0,
0,
0,
0,
0,
0,
0,
0,
0,
0,
0,
0,
0,
0,
0,
0,
0,
0,
0,
0,
0,
0,
0,
0,
0,
0,
0,
0,
0,
0,
0,
0,
0,
0,
0,
0,
0,
0,
0,
0,
0,
0,
0,
0,
0,
0,
0,
0,
0,
0,
0,
0,
0,
0,
0,
0,
0,
0,
0,
0,
0,
0,
0,
0,
0,
0,
0,
0,
0,
0,
0,
0,
0,
0,
0,
0,
0,
0,
0,
0,
0,
0,
0,
0,
0,
0,
0,
0,
0,
0,
0,
0,
0,
0,
0,
0,
0,
0,
0,
0,
0,
#ENDOFDATA   :