File: N132962/Quantification/15 keV/GMIIIA/GMIIIA K1229[1][4].msa
#FORMAT      : EMSA/MAS Spectral Data File
#VERSION     : 1.0
#TITLE       : GMIIIA K1229[1][all]
#DATE        : 22-SEP-2025
#TIME        : 22:44
#OWNER       : Unknown
#NPOINTS     : 4096
#NCOLUMNS    : 1
#XUNITS      : eV
#YUNITS      : counts
#DATATYPE    : Y
#XPERCHAN    : 9.99778
#OFFSET      : 1.69135
#BEAMKV      : 15
#SIGNALTYPE  : EDS
#ELEVANGLE   : 35
#AZIMANGLE   : 0
#LIVETIME    : 239.9747
#REALTIME    : 256.035
#PROBECUR    : 1.21591
#TAUWIND     : 0
#TDEADLYR    : 0
#TACTLYR     : 0.045
#TALWIND     : 0.025
#CHOFFSET    : 0.0
#XLABEL      : Energy (eV)
#YLABEL      : Counts
#XPOSITION   : 3.97542
#YPOSITION   : 17.53248
#ZPOSITION   : 37.36299
#EDSDET      : SD
##SPECIMEN   : GMIIIA K1229[1][all]
##D2STDCMP   : K1229,(O:41.02),(Mg:1.77),(Al:9.34),(Si:22.0),(Ca:10.51),(Sr:7.46),(Ba:7.9)
##DET_HASH   : 12273538-fd48-a23f-0a19-f1e6fa85caef
##CALIB_HASH : 6abaa72c-aa41-8738-0be9-f592914732f3
##WORKING    : 15.0 mm
##DET_NAME   : EDAX All
##DET_MODE   : MediumLE
#SPECTRUM    :
34,
23,
9,
26,
120,
398,
1028,
2646,
6319,
9043,
7425,
5505,
4888,
5231,
7915,
25398,
94660,
179866,
130670,
35803,
6631,
3817,
3704,
3849,
3855,
4493,
5008,
4883,
4585,
4370,
4477,
4699,
5239,
5530,
5923,
6226,
5515,
5375,
5522,
6042,
9431,
16421,
18437,
12909,
7715,
6224,
7063,
13718,
39200,
75876,
76870,
41688,
16254,
8916,
7892,
15288,
52008,
131408,
181580,
139971,
75917,
41297,
23937,
13670,
8141,
5536,
4370,
3769,
3293,
3192,
3012,
3080,
3245,
3320,
3487,
3616,
3505,
3297,
3161,
3073,
2970,
2995,
2978,
2923,
2876,
2873,
2970,
2891,
2815,
2716,
2846,
2930,
2724,
2685,
2657,
2670,
2634,
2768,
2651,
2717,
2631,
2635,
2581,
2579,
2542,
2573,
2574,
2686,
2598,
2596,
2525,
2456,
2375,
2379,
2490,
2436,
2663,
2654,
2875,
3783,
7224,
16297,
29367,
36387,
30428,
17776,
7893,
3497,
2476,
2390,
2450,
3319,
4451,
5878,
5958,
5013,
3567,
2413,
2019,
1890,
1846,
1904,
1880,
1836,
1983,
2265,
3314,
5150,
7418,
8483,
6981,
4694,
2911,
1967,
1661,
1621,
1617,
1785,
2197,
3038,
4019,
4493,
4234,
3521,
2754,
2169,
1945,
1685,
1697,
1716,
1984,
2292,
2453,
2318,
1958,
1618,
1380,
1332,
1352,
1340,
1342,
1433,
1524,
1612,
1735,
1620,
1560,
1364,
1300,
1175,
1235,
1218,
1294,
1279,
1299,
1273,
1190,
1206,
1125,
1126,
1173,
1087,
1099,
1078,
1079,
1066,
1044,
1053,
1030,
979,
1020,
978,
1012,
1047,
938,
1041,
956,
902,
932,
862,
929,
952,
913,
925,
892,
880,
859,
894,
834,
885,
862,
890,
831,
849,
805,
816,
800,
807,
798,
790,
802,
790,
757,
773,
781,
761,
719,
788,
718,
733,
691,
744,
721,
715,
676,
736,
688,
676,
681,
655,
617,
639,
601,
664,
695,
627,
622,
634,
644,
633,
611,
600,
573,
592,
571,
570,
571,
559,
597,
553,
512,
555,
570,
549,
522,
548,
520,
470,
539,
540,
525,
493,
488,
492,
451,
481,
461,
454,
491,
487,
450,
449,
460,
431,
460,
433,
447,
434,
482,
414,
423,
424,
406,
410,
423,
381,
393,
368,
411,
384,
398,
364,
412,
405,
373,
359,
375,
364,
346,
409,
358,
359,
378,
335,
329,
310,
311,
314,
343,
305,
304,
320,
294,
289,
294,
301,
322,
275,
325,
266,
279,
289,
271,
262,
264,
281,
287,
260,
258,
235,
268,
250,
233,
243,
228,
252,
243,
226,
224,
252,
215,
230,
233,
223,
213,
224,
211,
200,
190,
205,
196,
181,
202,
206,
188,
184,
172,
178,
179,
156,
156,
179,
180,
176,
147,
149,
180,
150,
121,
156,
163,
158,
136,
153,
142,
141,
153,
147,
115,
118,
119,
126,
133,
113,
118,
129,
118,
98,
107,
104,
95,
122,
108,
105,
93,
83,
95,
78,
93,
83,
98,
89,
86,
94,
82,
99,
90,
74,
77,
72,
68,
79,
70,
59,
66,
68,
56,
72,
68,
63,
55,
49,
51,
55,
46,
37,
54,
50,
41,
36,
46,
45,
45,
41,
35,
41,
27,
39,
41,
30,
38,
28,
31,
29,
30,
27,
22,
22,
24,
18,
19,
10,
18,
14,
17,
14,
10,
8,
17,
8,
8,
11,
12,
4,
4,
4,
2,
1,
1,
3,
1,
3,
1,
1,
2,
0,
2,
0,
0,
1,
0,
0,
0,
1,
1,
0,
0,
0,
0,
1,
1,
0,
2,
0,
0,
0,
0,
0,
0,
0,
0,
0,
0,
0,
0,
0,
1,
0,
0,
1,
0,
1,
0,
0,
0,
0,
0,
1,
0,
0,
0,
0,
0,
0,
0,
0,
0,
0,
0,
0,
0,
0,
1,
0,
1,
1,
0,
3,
0,
1,
0,
1,
0,
1,
0,
0,
0,
0,
0,
0,
0,
0,
0,
0,
1,
1,
0,
0,
0,
1,
0,
0,
0,
0,
0,
1,
0,
1,
1,
0,
0,
0,
0,
0,
0,
1,
0,
0,
0,
0,
1,
0,
0,
0,
0,
0,
0,
0,
0,
0,
0,
0,
0,
0,
0,
1,
0,
0,
0,
0,
0,
0,
0,
0,
0,
1,
0,
0,
0,
0,
0,
0,
0,
0,
1,
0,
0,
0,
0,
0,
0,
0,
0,
1,
0,
0,
0,
0,
0,
0,
1,
0,
0,
0,
0,
0,
0,
0,
0,
0,
0,
0,
0,
0,
0,
0,
0,
0,
0,
0,
0,
0,
0,
0,
0,
0,
0,
0,
0,
0,
0,
0,
0,
0,
0,
0,
0,
0,
0,
0,
0,
0,
0,
0,
0,
0,
0,
0,
0,
0,
0,
0,
0,
0,
0,
0,
0,
0,
0,
0,
0,
0,
0,
0,
0,
1,
0,
0,
0,
0,
0,
0,
0,
0,
0,
0,
0,
0,
0,
0,
0,
1,
0,
0,
0,
0,
0,
0,
0,
0,
0,
0,
0,
0,
0,
0,
0,
0,
0,
0,
0,
0,
0,
0,
0,
0,
0,
0,
0,
0,
0,
0,
0,
0,
0,
0,
0,
0,
0,
0,
0,
0,
0,
0,
0,
0,
0,
0,
0,
0,
0,
0,
0,
0,
0,
0,
0,
0,
0,
0,
0,
0,
0,
0,
0,
0,
0,
0,
0,
0,
0,
0,
0,
0,
0,
0,
0,
0,
0,
0,
0,
0,
0,
0,
0,
0,
0,
0,
0,
0,
0,
0,
0,
0,
0,
0,
0,
0,
0,
0,
0,
0,
0,
0,
0,
0,
0,
0,
0,
0,
0,
0,
0,
0,
0,
0,
0,
0,
0,
0,
0,
0,
0,
0,
0,
0,
0,
0,
0,
0,
0,
0,
0,
0,
0,
0,
0,
0,
0,
0,
0,
0,
0,
0,
0,
0,
0,
0,
0,
0,
0,
0,
0,
0,
0,
0,
0,
0,
0,
0,
0,
0,
0,
0,
0,
0,
0,
0,
0,
0,
0,
0,
0,
0,
0,
0,
0,
0,
0,
0,
0,
0,
0,
0,
0,
0,
0,
0,
0,
0,
0,
0,
0,
0,
0,
0,
0,
0,
0,
0,
0,
0,
0,
0,
0,
0,
0,
0,
0,
0,
0,
0,
0,
0,
0,
0,
0,
0,
0,
0,
0,
0,
0,
0,
0,
0,
0,
0,
0,
0,
0,
0,
0,
0,
0,
0,
0,
0,
0,
0,
0,
0,
0,
0,
0,
0,
0,
0,
0,
0,
0,
0,
0,
0,
0,
0,
0,
0,
0,
0,
0,
0,
0,
0,
0,
0,
0,
0,
0,
0,
0,
0,
0,
0,
0,
0,
0,
0,
0,
0,
0,
0,
0,
0,
0,
0,
0,
0,
0,
0,
0,
0,
0,
0,
0,
0,
0,
0,
0,
0,
0,
0,
0,
0,
0,
0,
0,
0,
0,
0,
0,
0,
0,
0,
0,
0,
0,
0,
0,
0,
0,
0,
0,
0,
0,
0,
0,
0,
0,
0,
0,
0,
0,
0,
0,
0,
0,
0,
0,
0,
0,
0,
0,
0,
0,
0,
0,
0,
0,
0,
0,
0,
0,
0,
0,
0,
0,
0,
0,
0,
0,
0,
0,
0,
0,
0,
0,
0,
0,
0,
0,
0,
0,
0,
0,
0,
0,
0,
0,
0,
0,
0,
0,
0,
0,
0,
0,
0,
0,
0,
0,
0,
0,
0,
0,
0,
0,
0,
0,
0,
0,
0,
0,
0,
0,
0,
0,
0,
0,
0,
0,
0,
0,
0,
0,
0,
0,
0,
0,
0,
0,
0,
0,
0,
0,
0,
0,
0,
0,
0,
0,
0,
0,
0,
0,
0,
0,
0,
0,
0,
0,
0,
0,
0,
0,
0,
0,
0,
0,
0,
0,
0,
0,
0,
0,
0,
0,
0,
0,
0,
0,
0,
0,
0,
0,
0,
0,
0,
0,
0,
0,
0,
0,
0,
0,
0,
0,
0,
0,
0,
0,
0,
0,
0,
0,
0,
0,
0,
0,
0,
0,
0,
0,
0,
0,
0,
0,
0,
0,
0,
0,
0,
0,
0,
0,
0,
0,
0,
0,
0,
0,
0,
0,
0,
0,
0,
0,
0,
0,
0,
0,
0,
0,
0,
0,
0,
0,
0,
0,
0,
0,
0,
0,
0,
0,
0,
0,
0,
0,
0,
0,
0,
0,
0,
0,
0,
0,
0,
0,
0,
0,
0,
0,
0,
0,
0,
0,
0,
0,
0,
0,
0,
0,
0,
0,
0,
0,
0,
0,
0,
0,
0,
0,
0,
0,
0,
0,
0,
0,
0,
0,
0,
0,
0,
0,
0,
0,
0,
0,
0,
0,
0,
0,
0,
0,
0,
0,
0,
0,
0,
0,
0,
0,
0,
0,
0,
0,
0,
0,
0,
0,
0,
0,
0,
0,
0,
0,
0,
0,
0,
0,
0,
0,
0,
0,
0,
#ENDOFDATA   :