File: N132962/Quantification/15 keV/GMIIIA/GMIIIA K1235[1][4].msa
#FORMAT      : EMSA/MAS Spectral Data File
#VERSION     : 1.0
#TITLE       : GMIIIA K1235[1][all]
#DATE        : 22-SEP-2025
#TIME        : 23:15
#OWNER       : Unknown
#NPOINTS     : 4096
#NCOLUMNS    : 1
#XUNITS      : eV
#YUNITS      : counts
#DATATYPE    : Y
#XPERCHAN    : 9.99778
#OFFSET      : 1.69135
#BEAMKV      : 15
#SIGNALTYPE  : EDS
#ELEVANGLE   : 35
#AZIMANGLE   : 0
#LIVETIME    : 239.996
#REALTIME    : 255.855
#PROBECUR    : 1.21388
#TAUWIND     : 0
#TDEADLYR    : 0
#TACTLYR     : 0.045
#TALWIND     : 0.025
#CHOFFSET    : 0.0
#XLABEL      : Energy (eV)
#YLABEL      : Counts
#XPOSITION   : 9.26184
#YPOSITION   : 19.00976
#ZPOSITION   : 37.36299
#EDSDET      : SD
##SPECIMEN   : GMIIIA K1235[1][all]
##D2STDCMP   : K1235,(O:39.17),(Al:8.86),(Si:21.16),(Ca:12.15),(Pd:1.74),(Ba:15.23),(Hf:1.7)
##DET_HASH   : 12273538-fd48-a23f-0a19-f1e6fa85caef
##CALIB_HASH : 6abaa72c-aa41-8738-0be9-f592914732f3
##WORKING    : 15.0 mm
##DET_NAME   : EDAX All
##DET_MODE   : MediumLE
#SPECTRUM    :
18,
24,
8,
30,
103,
442,
1305,
4150,
11408,
15628,
10184,
6326,
5465,
5601,
8343,
26366,
96263,
180596,
131981,
37073,
7783,
4367,
4054,
4314,
4388,
5326,
5939,
5512,
4718,
4397,
4396,
4817,
5565,
5799,
6174,
6075,
5609,
5221,
5225,
5084,
5223,
5402,
5859,
5887,
5900,
5871,
6970,
13131,
35870,
69146,
70627,
38293,
15258,
9018,
10090,
18579,
52824,
125734,
168217,
118788,
48934,
17843,
9019,
5590,
4286,
4054,
3877,
3689,
3589,
3467,
3483,
3467,
3393,
3542,
3712,
3794,
3751,
3620,
3498,
3362,
3306,
3317,
3275,
3247,
3208,
3146,
3174,
3222,
3311,
3332,
3130,
3119,
3028,
2979,
2949,
3040,
2800,
2920,
2870,
2931,
2863,
2879,
2842,
2765,
2755,
2810,
2858,
2896,
2823,
2708,
2677,
2560,
2658,
2616,
2664,
2765,
2788,
2819,
3090,
4149,
8384,
18701,
33534,
41934,
35586,
20802,
9115,
3866,
2671,
2556,
2831,
3835,
5410,
6718,
7014,
5850,
4083,
2753,
2114,
2081,
2024,
2000,
2049,
2168,
2360,
2952,
5032,
8862,
13167,
14735,
12145,
7762,
4146,
2586,
1971,
1769,
1857,
2179,
3019,
4549,
6591,
7718,
7067,
5601,
4181,
3055,
2490,
2058,
1948,
2087,
2719,
3372,
3642,
3309,
2580,
1999,
1612,
1541,
1527,
1542,
1533,
1568,
1732,
2024,
2150,
2163,
1899,
1589,
1403,
1386,
1388,
1390,
1581,
1562,
1493,
1419,
1377,
1302,
1280,
1161,
1197,
1166,
1188,
1156,
1125,
1118,
1158,
1172,
1116,
1085,
1086,
1101,
1083,
1102,
1128,
1068,
967,
1004,
998,
967,
996,
981,
997,
1079,
954,
956,
948,
915,
953,
936,
885,
934,
861,
849,
929,
935,
888,
893,
849,
837,
870,
879,
811,
811,
861,
782,
817,
799,
851,
774,
754,
785,
775,
748,
776,
763,
745,
743,
777,
720,
850,
868,
958,
978,
985,
886,
801,
739,
685,
670,
642,
687,
635,
689,
626,
576,
624,
654,
633,
626,
598,
627,
656,
610,
534,
565,
551,
570,
592,
534,
543,
510,
604,
565,
538,
569,
547,
535,
570,
598,
604,
594,
587,
521,
548,
502,
489,
492,
494,
517,
494,
566,
492,
469,
484,
455,
456,
457,
490,
440,
434,
391,
443,
409,
380,
385,
421,
361,
388,
420,
373,
371,
382,
380,
352,
344,
346,
378,
352,
354,
332,
351,
354,
342,
326,
312,
373,
355,
316,
324,
331,
304,
330,
327,
330,
299,
310,
309,
304,
297,
280,
273,
297,
273,
263,
274,
270,
273,
254,
250,
246,
229,
211,
252,
264,
243,
205,
232,
251,
228,
225,
212,
216,
212,
204,
195,
215,
200,
190,
183,
210,
187,
198,
207,
185,
188,
180,
194,
175,
173,
176,
161,
157,
160,
146,
145,
159,
165,
147,
131,
153,
125,
130,
126,
124,
135,
140,
123,
118,
128,
108,
119,
111,
119,
116,
106,
115,
113,
108,
92,
99,
119,
81,
92,
93,
93,
87,
99,
78,
69,
79,
83,
69,
89,
78,
63,
77,
75,
44,
65,
53,
56,
72,
60,
58,
45,
59,
41,
61,
53,
43,
48,
47,
52,
36,
43,
40,
40,
45,
40,
48,
34,
30,
27,
30,
26,
17,
28,
21,
26,
23,
19,
19,
24,
17,
19,
18,
16,
14,
13,
12,
9,
13,
7,
7,
4,
4,
2,
5,
3,
0,
0,
1,
2,
2,
0,
0,
0,
0,
1,
1,
0,
0,
3,
0,
0,
1,
1,
0,
0,
0,
1,
0,
0,
0,
0,
0,
0,
1,
0,
0,
1,
1,
0,
0,
0,
0,
1,
1,
0,
0,
0,
0,
1,
0,
0,
0,
0,
0,
1,
0,
0,
0,
0,
0,
0,
0,
0,
0,
0,
0,
0,
0,
0,
0,
0,
0,
0,
0,
0,
1,
0,
1,
0,
1,
0,
0,
1,
0,
1,
0,
0,
0,
1,
0,
0,
0,
1,
0,
0,
0,
0,
0,
0,
0,
0,
0,
1,
0,
0,
0,
2,
0,
0,
1,
0,
0,
0,
0,
0,
0,
1,
0,
0,
0,
1,
0,
0,
0,
0,
0,
0,
1,
0,
0,
0,
0,
0,
0,
0,
0,
0,
0,
0,
0,
0,
0,
0,
0,
1,
0,
0,
1,
0,
0,
0,
0,
0,
0,
0,
0,
1,
0,
0,
0,
0,
0,
0,
0,
0,
0,
0,
0,
0,
0,
0,
0,
0,
0,
1,
0,
0,
0,
0,
0,
0,
0,
0,
0,
0,
0,
0,
0,
0,
1,
0,
0,
0,
0,
1,
0,
0,
1,
0,
0,
0,
0,
0,
0,
0,
0,
0,
0,
0,
0,
0,
0,
0,
0,
0,
0,
0,
0,
0,
0,
0,
0,
0,
0,
0,
0,
0,
0,
0,
0,
0,
0,
0,
0,
0,
0,
0,
0,
0,
0,
0,
0,
0,
0,
0,
0,
0,
0,
0,
0,
0,
0,
0,
0,
0,
0,
0,
0,
0,
0,
0,
0,
0,
0,
0,
0,
0,
0,
0,
0,
0,
0,
0,
0,
0,
0,
0,
0,
0,
0,
0,
0,
0,
0,
0,
0,
0,
0,
0,
0,
0,
0,
0,
0,
0,
0,
0,
0,
0,
0,
0,
0,
0,
0,
0,
0,
0,
0,
0,
0,
0,
0,
0,
0,
0,
0,
0,
0,
0,
0,
0,
0,
0,
0,
0,
0,
0,
0,
0,
0,
0,
0,
0,
0,
0,
0,
0,
0,
0,
0,
0,
0,
0,
0,
0,
0,
0,
0,
0,
0,
0,
0,
0,
0,
0,
0,
0,
0,
0,
0,
0,
0,
0,
0,
0,
0,
0,
0,
0,
0,
0,
0,
0,
0,
0,
0,
0,
0,
0,
0,
0,
0,
0,
0,
0,
0,
0,
0,
0,
0,
0,
0,
0,
0,
0,
0,
0,
0,
0,
0,
0,
0,
0,
0,
0,
0,
0,
0,
0,
0,
0,
0,
0,
0,
0,
0,
0,
0,
0,
0,
0,
0,
0,
0,
0,
0,
0,
0,
0,
0,
0,
0,
0,
0,
0,
0,
0,
0,
0,
0,
0,
0,
0,
0,
0,
0,
0,
0,
0,
0,
0,
0,
0,
0,
0,
0,
0,
0,
0,
0,
0,
0,
0,
0,
0,
0,
0,
0,
0,
0,
0,
0,
0,
0,
0,
0,
0,
0,
0,
0,
0,
0,
0,
0,
0,
0,
0,
0,
0,
0,
0,
0,
0,
0,
0,
0,
0,
0,
0,
0,
0,
0,
0,
0,
0,
0,
0,
0,
0,
0,
0,
0,
0,
0,
0,
0,
0,
0,
0,
0,
0,
0,
0,
0,
0,
0,
0,
0,
0,
0,
0,
0,
0,
0,
0,
0,
0,
0,
0,
0,
0,
0,
0,
0,
0,
0,
0,
0,
0,
0,
0,
0,
0,
0,
0,
0,
0,
0,
0,
0,
0,
0,
0,
0,
0,
0,
0,
0,
0,
0,
0,
0,
0,
0,
0,
0,
0,
0,
0,
0,
0,
0,
0,
0,
0,
0,
0,
0,
0,
0,
0,
0,
0,
0,
0,
0,
0,
0,
0,
0,
0,
0,
0,
0,
0,
0,
0,
0,
0,
0,
0,
0,
0,
0,
0,
0,
0,
0,
0,
0,
0,
0,
0,
0,
0,
0,
0,
0,
0,
0,
0,
0,
0,
0,
0,
0,
0,
0,
0,
0,
0,
0,
0,
0,
0,
0,
0,
0,
0,
0,
0,
0,
0,
0,
0,
0,
0,
0,
0,
0,
0,
0,
0,
0,
0,
0,
0,
0,
0,
0,
0,
0,
0,
0,
0,
0,
0,
0,
0,
0,
0,
0,
0,
0,
0,
0,
0,
0,
0,
0,
0,
0,
0,
0,
0,
0,
0,
0,
0,
0,
0,
0,
0,
0,
0,
0,
0,
0,
0,
0,
0,
0,
0,
0,
0,
0,
0,
0,
0,
0,
0,
0,
0,
0,
0,
0,
0,
0,
0,
0,
0,
0,
0,
0,
0,
0,
0,
0,
0,
0,
0,
0,
0,
0,
0,
0,
0,
0,
0,
0,
0,
0,
0,
0,
0,
0,
0,
0,
0,
0,
0,
0,
0,
0,
0,
0,
0,
0,
0,
0,
0,
0,
0,
0,
0,
0,
0,
0,
0,
0,
0,
0,
0,
0,
0,
0,
0,
0,
0,
0,
0,
0,
0,
0,
0,
0,
0,
0,
0,
0,
0,
0,
0,
0,
0,
0,
0,
0,
0,
0,
0,
0,
0,
0,
0,
0,
0,
0,
0,
0,
0,
0,
0,
0,
0,
0,
0,
0,
0,
0,
0,
0,
0,
0,
0,
0,
0,
0,
0,
0,
0,
0,
0,
0,
0,
0,
0,
0,
0,
0,
0,
0,
0,
0,
0,
0,
0,
0,
0,
0,
0,
0,
0,
0,
0,
0,
0,
0,
0,
0,
0,
#ENDOFDATA   :