File: N132962/Quantification/15 keV/GMIIIA/GMIIIA K1080[7][4].msa
#FORMAT      : EMSA/MAS Spectral Data File
#VERSION     : 1.0
#TITLE       : GMIIIA K1080[7][all]
#DATE        : 22-SEP-2025
#TIME        : 20:57
#OWNER       : Unknown
#NPOINTS     : 4096
#NCOLUMNS    : 1
#XUNITS      : eV
#YUNITS      : counts
#DATATYPE    : Y
#XPERCHAN    : 9.99778
#OFFSET      : 1.69135
#BEAMKV      : 15
#SIGNALTYPE  : EDS
#ELEVANGLE   : 35
#AZIMANGLE   : 0
#LIVETIME    : 239.951
#REALTIME    : 255.333
#PROBECUR    : 1.2178
#TAUWIND     : 0
#TDEADLYR    : 0
#TACTLYR     : 0.045
#TALWIND     : 0.025
#CHOFFSET    : 0.0
#XLABEL      : Energy (eV)
#YLABEL      : Counts
#XPOSITION   : 0.33998
#YPOSITION   : 15.75693
#ZPOSITION   : 37.36299
#EDSDET      : SD
##SPECIMEN   : GMIIIA K1080[7][all]
##D2STDCMP   : K1080,(Li:2.79),(B:0.62),(O:41.65),(Mg:1.21),(Al:7.94),(Si:18.7),(Ca:10.72),(Ti:1.2),(Sr:12.68),(Zr:0.74),(Lu:1.76)
##DET_HASH   : 12273538-fd48-a23f-0a19-f1e6fa85caef
##CALIB_HASH : 6abaa72c-aa41-8738-0be9-f592914732f3
##WORKING    : 15.0 mm
##DET_NAME   : EDAX All
##DET_MODE   : MediumLE
#SPECTRUM    :
24,
28,
9,
27,
132,
413,
1144,
2485,
5923,
8579,
7098,
5296,
4786,
5030,
7703,
23374,
85710,
162042,
117852,
31657,
5270,
3118,
3633,
3746,
3548,
3571,
3727,
4031,
4203,
4310,
4398,
4544,
4766,
5032,
5370,
5442,
5481,
5295,
5427,
6281,
8966,
14064,
15676,
11228,
7385,
6435,
7027,
13096,
36068,
69178,
70990,
40592,
20268,
14771,
12537,
16851,
48507,
117889,
165272,
138234,
90137,
57643,
35418,
20399,
11415,
7043,
5553,
4975,
4984,
4508,
3980,
3820,
3638,
3446,
3534,
3479,
3292,
3263,
3006,
2933,
2749,
2827,
2822,
2773,
2784,
2830,
2722,
2768,
2697,
2652,
2608,
2609,
2586,
2555,
2616,
2504,
2533,
2504,
2569,
2500,
2570,
2489,
2408,
2363,
2525,
2463,
2463,
2448,
2483,
2494,
2327,
2352,
2221,
2313,
2161,
2322,
2438,
2633,
2777,
3824,
7186,
16332,
29246,
36557,
31116,
18116,
7889,
3402,
2273,
2206,
2410,
2803,
4266,
5564,
5912,
4959,
3444,
2427,
1943,
1840,
1816,
1759,
1737,
1696,
1626,
1608,
1782,
1934,
2592,
3423,
4206,
3862,
3055,
2210,
1696,
1504,
1511,
1449,
1387,
1414,
1445,
1477,
1562,
1668,
1701,
1694,
1561,
1451,
1467,
1319,
1322,
1368,
1250,
1311,
1287,
1282,
1218,
1209,
1238,
1265,
1273,
1265,
1265,
1245,
1211,
1169,
1150,
1195,
1102,
1150,
1098,
1080,
1150,
1117,
1084,
1063,
1055,
1072,
1092,
1035,
1036,
1008,
1068,
961,
947,
973,
968,
972,
937,
920,
969,
980,
982,
923,
955,
920,
897,
863,
904,
908,
887,
842,
840,
804,
845,
818,
889,
849,
828,
851,
760,
801,
770,
770,
826,
775,
740,
769,
715,
735,
788,
729,
747,
717,
702,
726,
717,
742,
688,
729,
724,
771,
837,
841,
951,
968,
926,
853,
749,
691,
620,
622,
600,
614,
564,
611,
593,
567,
576,
557,
567,
584,
514,
568,
588,
531,
553,
542,
515,
520,
536,
560,
506,
517,
550,
557,
528,
595,
550,
578,
630,
563,
541,
498,
488,
486,
472,
459,
465,
474,
476,
517,
486,
497,
472,
435,
419,
394,
426,
378,
388,
418,
415,
393,
390,
357,
343,
367,
321,
310,
360,
372,
371,
331,
348,
371,
360,
338,
361,
335,
318,
332,
345,
332,
316,
309,
302,
312,
304,
308,
323,
311,
298,
263,
276,
271,
273,
278,
266,
277,
256,
252,
255,
239,
248,
215,
228,
256,
234,
240,
237,
254,
252,
229,
201,
203,
236,
189,
230,
192,
206,
189,
200,
170,
219,
207,
187,
184,
180,
187,
160,
198,
216,
175,
157,
165,
167,
154,
137,
157,
157,
144,
153,
148,
144,
148,
137,
166,
117,
130,
161,
136,
123,
141,
135,
96,
130,
135,
118,
118,
107,
125,
98,
94,
121,
104,
100,
117,
90,
119,
88,
98,
91,
96,
90,
89,
75,
84,
83,
89,
87,
70,
74,
63,
64,
73,
74,
79,
74,
73,
67,
70,
68,
70,
60,
66,
57,
55,
45,
62,
57,
49,
53,
48,
50,
50,
47,
46,
39,
34,
42,
40,
45,
29,
27,
38,
32,
49,
22,
33,
28,
23,
21,
32,
21,
21,
18,
13,
21,
23,
22,
23,
17,
11,
11,
13,
11,
12,
6,
15,
5,
5,
9,
6,
3,
4,
5,
1,
3,
0,
3,
1,
0,
1,
0,
0,
4,
2,
0,
0,
1,
0,
0,
0,
0,
0,
0,
1,
0,
2,
1,
0,
0,
0,
0,
0,
0,
0,
0,
0,
0,
0,
0,
0,
0,
1,
0,
0,
0,
0,
1,
0,
0,
0,
0,
0,
0,
0,
0,
0,
0,
0,
0,
0,
0,
0,
1,
0,
0,
0,
0,
0,
0,
0,
0,
0,
0,
0,
0,
0,
0,
0,
0,
0,
0,
0,
0,
1,
0,
0,
0,
0,
0,
0,
0,
1,
0,
0,
0,
0,
0,
0,
0,
0,
1,
1,
0,
0,
0,
0,
0,
0,
0,
0,
0,
0,
0,
0,
0,
0,
1,
0,
0,
0,
2,
0,
0,
0,
0,
0,
0,
0,
0,
0,
0,
0,
1,
0,
0,
0,
0,
0,
0,
0,
0,
0,
0,
0,
0,
0,
0,
0,
0,
0,
0,
0,
0,
0,
0,
0,
0,
0,
0,
0,
0,
1,
0,
0,
0,
0,
0,
0,
0,
0,
0,
0,
0,
0,
0,
0,
0,
0,
0,
0,
0,
0,
0,
0,
0,
1,
0,
0,
0,
0,
0,
0,
0,
0,
0,
0,
0,
0,
0,
0,
0,
0,
0,
0,
0,
0,
0,
0,
0,
0,
0,
0,
0,
0,
0,
0,
0,
0,
0,
0,
0,
0,
0,
0,
0,
0,
0,
0,
0,
0,
0,
0,
0,
0,
0,
0,
0,
0,
0,
0,
0,
0,
0,
0,
0,
0,
0,
0,
0,
0,
0,
0,
0,
0,
0,
0,
0,
0,
0,
0,
0,
0,
0,
0,
0,
0,
0,
0,
0,
0,
0,
0,
0,
1,
0,
0,
0,
0,
0,
0,
0,
0,
0,
0,
0,
0,
0,
0,
0,
0,
0,
0,
0,
0,
0,
0,
0,
0,
0,
0,
0,
0,
0,
0,
0,
0,
0,
0,
0,
0,
0,
0,
0,
0,
0,
0,
0,
0,
0,
0,
0,
0,
0,
0,
0,
0,
0,
0,
0,
0,
0,
0,
0,
0,
0,
0,
0,
0,
0,
0,
0,
0,
0,
0,
0,
0,
0,
0,
0,
0,
0,
0,
0,
0,
0,
0,
0,
0,
0,
0,
0,
0,
0,
0,
0,
0,
0,
0,
0,
0,
0,
0,
0,
0,
0,
0,
0,
0,
0,
0,
0,
0,
0,
0,
0,
0,
0,
0,
0,
0,
0,
0,
0,
0,
0,
0,
0,
0,
0,
0,
0,
0,
0,
0,
0,
0,
0,
0,
0,
0,
0,
0,
0,
0,
0,
0,
0,
0,
0,
0,
0,
0,
0,
0,
0,
0,
0,
0,
0,
0,
0,
0,
0,
0,
0,
0,
0,
0,
0,
0,
0,
0,
0,
0,
0,
0,
0,
0,
0,
0,
0,
0,
0,
0,
0,
0,
0,
0,
0,
0,
0,
0,
0,
0,
0,
0,
0,
0,
0,
0,
0,
0,
0,
0,
0,
0,
0,
0,
0,
0,
0,
0,
0,
0,
0,
0,
0,
0,
0,
0,
0,
0,
0,
0,
0,
0,
0,
0,
0,
0,
0,
0,
0,
0,
0,
0,
0,
0,
0,
0,
0,
0,
0,
0,
0,
0,
0,
0,
0,
0,
0,
0,
0,
0,
0,
0,
0,
0,
0,
0,
0,
0,
0,
0,
0,
0,
0,
0,
0,
0,
0,
0,
0,
0,
0,
0,
0,
0,
0,
0,
0,
0,
0,
0,
0,
0,
0,
0,
0,
0,
0,
0,
0,
0,
0,
0,
0,
0,
0,
0,
0,
0,
0,
0,
0,
0,
0,
0,
0,
0,
0,
0,
0,
0,
0,
0,
0,
0,
0,
0,
0,
0,
0,
0,
0,
0,
0,
0,
0,
0,
0,
0,
0,
0,
0,
0,
0,
0,
0,
0,
0,
0,
0,
0,
0,
0,
0,
0,
0,
0,
0,
0,
0,
0,
0,
0,
0,
0,
0,
0,
0,
0,
0,
0,
0,
0,
0,
0,
0,
0,
0,
0,
0,
0,
0,
0,
0,
0,
0,
0,
0,
0,
0,
0,
0,
0,
0,
0,
0,
0,
0,
0,
0,
0,
0,
0,
0,
0,
0,
0,
0,
0,
0,
0,
0,
0,
0,
0,
0,
0,
0,
0,
0,
0,
0,
0,
0,
0,
0,
0,
0,
0,
0,
0,
0,
0,
0,
0,
0,
0,
0,
0,
0,
0,
0,
0,
0,
0,
0,
0,
0,
0,
0,
0,
0,
0,
0,
0,
0,
0,
0,
0,
0,
0,
0,
0,
0,
0,
0,
0,
0,
0,
0,
0,
0,
0,
0,
0,
0,
0,
0,
0,
0,
0,
0,
0,
0,
0,
0,
0,
0,
0,
0,
0,
0,
0,
0,
0,
0,
0,
0,
0,
0,
0,
0,
0,
0,
0,
0,
0,
0,
0,
0,
0,
0,
0,
0,
0,
0,
0,
0,
0,
0,
0,
0,
0,
0,
0,
0,
0,
0,
0,
0,
0,
0,
0,
0,
0,
0,
0,
0,
0,
0,
0,
0,
0,
0,
0,
0,
0,
0,
0,
0,
0,
0,
0,
0,
0,
0,
0,
0,
0,
0,
0,
0,
0,
0,
0,
0,
0,
0,
0,
0,
0,
0,
0,
0,
0,
0,
0,
0,
0,
0,
0,
0,
0,
0,
0,
0,
0,
0,
0,
0,
0,
0,
0,
0,
0,
0,
0,
0,
0,
0,
0,
0,
0,
0,
0,
0,
0,
0,
0,
#ENDOFDATA   :