File: N132962/Quantification/15 keV/GMIIIA/GMIIIA K249[3][4].msa
#FORMAT      : EMSA/MAS Spectral Data File
#VERSION     : 1.0
#TITLE       : GMIIIA K249[3][all]
#DATE        : 22-SEP-2025
#TIME        : 15:07
#OWNER       : Unknown
#NPOINTS     : 4096
#NCOLUMNS    : 1
#XUNITS      : eV
#YUNITS      : counts
#DATATYPE    : Y
#XPERCHAN    : 9.99778
#OFFSET      : 1.69135
#BEAMKV      : 15
#SIGNALTYPE  : EDS
#ELEVANGLE   : 35
#AZIMANGLE   : 0
#LIVETIME    : 239.968
#REALTIME    : 258.854
#PROBECUR    : 1.21732
#TAUWIND     : 0
#TDEADLYR    : 0
#TACTLYR     : 0.045
#TALWIND     : 0.025
#CHOFFSET    : 0.0
#XLABEL      : Energy (eV)
#YLABEL      : Counts
#XPOSITION   : 9.16395
#YPOSITION   : 2.29314
#ZPOSITION   : 37.36299
#EDSDET      : SD
##SPECIMEN   : GMIIIA K249[3][all]
##D2STDCMP   : K249,(O:24.49),(Al:2.65),(Si:14.02),(Ba:8.96),(Ta:8.19),(Pb:39.45),(Bi:2.24)
##DET_HASH   : 12273538-fd48-a23f-0a19-f1e6fa85caef
##CALIB_HASH : 6abaa72c-aa41-8738-0be9-f592914732f3
##WORKING    : 15.0 mm
##DET_NAME   : EDAX All
##DET_MODE   : MediumLE
#SPECTRUM    :
37,
39,
20,
38,
205,
837,
2377,
5124,
10255,
13058,
9558,
7273,
7079,
7459,
9268,
20548,
62503,
112674,
82697,
26500,
9724,
7571,
6924,
7279,
7127,
7301,
7853,
7725,
7067,
7035,
6942,
7388,
7759,
8072,
7984,
8081,
8041,
7791,
7817,
7967,
7812,
8209,
8529,
9194,
9972,
9969,
9712,
11517,
18418,
28756,
29281,
19124,
11862,
9914,
11358,
21359,
57092,
119356,
149912,
108415,
51560,
24068,
14328,
9663,
7626,
7300,
7104,
6543,
6316,
6195,
6494,
6868,
7451,
8024,
9119,
13195,
25331,
50585,
72742,
71467,
58878,
54849,
46795,
29418,
15074,
8842,
7290,
7954,
8633,
8229,
7014,
5561,
4939,
4763,
4613,
4714,
4827,
5264,
5801,
6163,
6411,
6171,
5696,
5762,
5969,
5721,
5345,
4993,
4543,
4444,
4375,
4373,
4296,
4374,
4280,
4265,
4201,
4283,
4262,
4093,
4074,
3900,
4073,
3983,
3932,
3888,
3905,
3859,
3937,
3856,
3921,
3941,
3991,
3994,
3940,
3820,
3857,
3784,
3778,
3751,
3746,
3706,
3612,
3670,
3878,
4143,
5519,
7793,
10564,
11412,
10079,
7237,
4929,
3927,
3506,
3377,
3432,
3561,
4128,
5137,
6254,
6944,
6634,
5606,
4710,
4061,
3733,
3507,
3268,
3671,
3804,
4313,
4389,
4064,
3624,
3294,
3052,
2941,
2996,
2890,
2829,
2920,
2937,
3260,
3217,
3272,
3100,
2968,
2829,
2804,
2702,
2835,
2834,
2826,
2765,
2811,
2626,
2539,
2648,
2533,
2469,
2451,
2442,
2418,
2470,
2432,
2346,
2411,
2433,
2351,
2468,
2312,
2400,
2373,
2466,
2293,
2302,
2271,
2195,
2189,
2181,
2199,
2210,
2123,
2242,
2167,
2003,
2135,
1985,
2070,
2012,
2090,
2036,
2034,
1976,
2051,
1982,
2063,
1968,
2017,
1952,
1959,
1936,
1870,
1827,
1898,
1834,
1807,
1806,
1834,
1789,
1808,
1778,
1731,
1683,
1747,
1721,
1675,
1712,
1721,
1620,
1682,
1632,
1572,
1670,
1659,
1685,
1817,
2101,
2360,
2745,
2875,
2955,
2550,
2171,
1770,
1666,
1568,
1516,
1543,
1390,
1466,
1434,
1527,
1480,
1415,
1367,
1325,
1345,
1382,
1335,
1383,
1240,
1373,
1308,
1308,
1270,
1239,
1255,
1245,
1336,
1249,
1203,
1218,
1217,
1285,
1274,
1281,
1386,
1364,
1529,
1590,
1567,
1417,
1364,
1282,
1202,
1225,
1189,
1233,
1207,
1344,
1356,
1232,
1175,
1054,
1087,
1052,
958,
1027,
986,
965,
950,
926,
961,
948,
894,
884,
913,
891,
877,
900,
857,
932,
857,
958,
984,
989,
1158,
1343,
1471,
1552,
1498,
1353,
1164,
1014,
895,
875,
829,
800,
808,
793,
822,
813,
780,
652,
668,
725,
640,
677,
679,
644,
631,
674,
649,
631,
652,
632,
643,
606,
576,
591,
591,
598,
527,
553,
501,
560,
560,
508,
527,
515,
512,
509,
534,
498,
477,
440,
463,
461,
457,
481,
430,
456,
438,
455,
446,
444,
416,
396,
380,
395,
374,
345,
406,
389,
411,
438,
478,
465,
483,
445,
426,
370,
370,
337,
309,
306,
269,
280,
283,
297,
288,
283,
279,
272,
275,
237,
245,
223,
239,
238,
221,
228,
188,
224,
228,
198,
207,
201,
185,
175,
169,
171,
175,
166,
173,
154,
163,
144,
162,
138,
118,
138,
129,
139,
120,
133,
114,
119,
109,
111,
117,
96,
93,
89,
101,
92,
72,
81,
69,
67,
61,
61,
50,
56,
53,
49,
49,
48,
36,
41,
38,
29,
25,
24,
18,
12,
10,
7,
5,
4,
5,
4,
5,
4,
3,
0,
1,
2,
0,
4,
1,
1,
3,
2,
2,
2,
3,
4,
0,
0,
6,
2,
5,
1,
3,
3,
1,
0,
1,
1,
2,
0,
2,
1,
3,
1,
0,
1,
1,
1,
2,
0,
0,
4,
0,
0,
1,
1,
0,
2,
1,
0,
1,
1,
1,
1,
0,
0,
1,
1,
3,
1,
2,
2,
0,
3,
0,
0,
2,
0,
0,
0,
1,
0,
0,
1,
2,
2,
2,
1,
1,
1,
3,
0,
0,
1,
1,
2,
0,
2,
1,
0,
1,
1,
1,
1,
1,
0,
0,
1,
1,
0,
1,
1,
2,
1,
0,
0,
1,
1,
0,
0,
2,
2,
1,
1,
0,
0,
1,
2,
1,
0,
1,
0,
2,
1,
0,
0,
2,
0,
0,
0,
2,
0,
0,
0,
2,
2,
1,
1,
0,
4,
0,
0,
0,
0,
1,
0,
0,
0,
0,
1,
1,
1,
2,
0,
0,
0,
0,
0,
0,
2,
0,
2,
0,
0,
0,
0,
0,
0,
0,
0,
0,
0,
0,
1,
0,
0,
0,
0,
0,
0,
1,
1,
0,
1,
1,
1,
0,
0,
0,
0,
0,
0,
1,
0,
0,
0,
0,
0,
0,
2,
0,
0,
0,
0,
0,
0,
0,
0,
0,
0,
0,
1,
1,
0,
0,
0,
0,
1,
0,
1,
0,
0,
0,
0,
0,
0,
0,
0,
0,
0,
1,
1,
0,
0,
0,
0,
0,
0,
1,
0,
1,
0,
0,
0,
0,
0,
0,
0,
0,
0,
0,
0,
0,
0,
0,
0,
0,
0,
0,
0,
0,
1,
0,
0,
0,
0,
1,
0,
1,
0,
1,
0,
0,
0,
0,
0,
0,
0,
0,
0,
1,
0,
0,
1,
0,
0,
0,
0,
0,
0,
0,
0,
0,
0,
0,
0,
0,
0,
0,
0,
0,
0,
0,
0,
0,
0,
0,
0,
0,
0,
0,
0,
0,
0,
0,
0,
0,
0,
0,
0,
0,
0,
0,
0,
0,
0,
0,
0,
0,
0,
0,
0,
0,
0,
0,
0,
0,
0,
0,
0,
0,
0,
0,
0,
0,
0,
0,
0,
0,
0,
0,
0,
0,
0,
0,
0,
0,
0,
0,
0,
0,
0,
0,
0,
1,
0,
0,
0,
0,
0,
0,
0,
0,
0,
0,
0,
1,
0,
0,
0,
0,
0,
0,
0,
0,
0,
0,
0,
0,
0,
0,
0,
0,
0,
0,
0,
1,
0,
0,
0,
0,
0,
0,
0,
0,
0,
0,
0,
0,
0,
0,
0,
0,
0,
0,
0,
0,
0,
0,
0,
0,
0,
0,
0,
0,
0,
0,
0,
0,
0,
0,
0,
0,
0,
0,
0,
0,
0,
1,
0,
0,
0,
0,
0,
0,
0,
0,
0,
0,
0,
0,
0,
0,
0,
0,
0,
0,
0,
0,
0,
0,
0,
0,
0,
0,
0,
0,
0,
0,
0,
0,
0,
0,
0,
0,
0,
0,
0,
0,
0,
0,
0,
0,
0,
0,
0,
0,
0,
0,
0,
0,
0,
0,
0,
0,
0,
0,
0,
0,
0,
0,
0,
0,
0,
0,
0,
0,
0,
0,
0,
0,
0,
0,
0,
0,
0,
0,
0,
0,
0,
0,
0,
0,
0,
0,
0,
0,
0,
0,
0,
0,
0,
0,
0,
0,
0,
0,
0,
0,
0,
0,
0,
0,
0,
0,
0,
0,
0,
0,
0,
0,
0,
0,
0,
0,
0,
0,
0,
0,
0,
0,
0,
0,
0,
0,
0,
0,
0,
0,
0,
0,
0,
0,
0,
0,
0,
0,
0,
0,
0,
0,
0,
0,
0,
0,
0,
0,
0,
0,
0,
0,
0,
0,
0,
0,
0,
0,
0,
0,
0,
0,
0,
0,
0,
0,
0,
0,
0,
0,
0,
0,
0,
0,
0,
0,
0,
0,
0,
0,
0,
0,
0,
0,
0,
0,
0,
0,
0,
0,
0,
0,
0,
0,
0,
0,
0,
0,
0,
0,
0,
0,
0,
0,
0,
0,
0,
0,
0,
0,
0,
0,
0,
0,
0,
0,
0,
0,
0,
0,
0,
0,
0,
0,
0,
0,
0,
0,
0,
0,
0,
0,
0,
0,
0,
0,
0,
0,
0,
0,
0,
0,
0,
0,
0,
0,
0,
0,
0,
0,
0,
0,
0,
0,
0,
0,
0,
0,
0,
0,
0,
0,
0,
0,
0,
0,
0,
0,
0,
0,
0,
0,
0,
0,
0,
0,
0,
0,
0,
0,
0,
0,
0,
0,
0,
0,
0,
0,
0,
0,
0,
0,
0,
0,
0,
0,
0,
0,
0,
0,
0,
0,
0,
0,
0,
0,
0,
0,
0,
0,
0,
0,
0,
0,
0,
0,
0,
0,
0,
0,
0,
0,
0,
0,
0,
0,
0,
0,
0,
0,
0,
0,
0,
0,
0,
0,
0,
0,
0,
0,
0,
0,
0,
0,
0,
0,
0,
0,
0,
0,
0,
0,
0,
0,
0,
0,
0,
0,
0,
0,
0,
0,
0,
0,
0,
0,
0,
0,
0,
0,
0,
0,
0,
0,
0,
0,
0,
0,
0,
0,
0,
0,
0,
0,
0,
0,
0,
0,
0,
0,
0,
0,
0,
0,
0,
0,
0,
0,
0,
0,
0,
0,
0,
0,
0,
0,
0,
0,
0,
0,
0,
0,
0,
0,
0,
0,
0,
0,
0,
0,
0,
0,
0,
#ENDOFDATA   :