File: N132962/Quantification/15 keV/GMIIIA/GMIIIA K1234[5][4].msa
#FORMAT      : EMSA/MAS Spectral Data File
#VERSION     : 1.0
#TITLE       : GMIIIA K1234[5][all]
#DATE        : 22-SEP-2025
#TIME        : 22:59
#OWNER       : Unknown
#NPOINTS     : 4096
#NCOLUMNS    : 1
#XUNITS      : eV
#YUNITS      : counts
#DATATYPE    : Y
#XPERCHAN    : 9.99778
#OFFSET      : 1.69135
#BEAMKV      : 15
#SIGNALTYPE  : EDS
#ELEVANGLE   : 35
#AZIMANGLE   : 0
#LIVETIME    : 239.933
#REALTIME    : 255.8464
#PROBECUR    : 1.21591
#TAUWIND     : 0
#TDEADLYR    : 0
#TACTLYR     : 0.045
#TALWIND     : 0.025
#CHOFFSET    : 0.0
#XLABEL      : Energy (eV)
#YLABEL      : Counts
#XPOSITION   : 2.01468
#YPOSITION   : 17.84858
#ZPOSITION   : 37.36299
#EDSDET      : SD
##SPECIMEN   : GMIIIA K1234[5][all]
##D2STDCMP   : K1234,(O:39.85),(Al:9.15),(Si:21.56),(Ca:12.36),(Ba:15.49),(W:1.59)
##DET_HASH   : 12273538-fd48-a23f-0a19-f1e6fa85caef
##CALIB_HASH : 6abaa72c-aa41-8738-0be9-f592914732f3
##WORKING    : 15.0 mm
##DET_NAME   : EDAX All
##DET_MODE   : MediumLE
#SPECTRUM    :
25,
23,
7,
16,
102,
454,
1155,
3073,
7140,
10696,
9034,
6688,
5604,
5629,
8626,
26624,
97714,
184839,
135370,
37694,
7957,
4547,
4107,
4290,
4386,
5311,
6043,
5498,
4639,
4382,
4374,
4678,
5399,
5881,
6142,
6196,
5528,
5154,
5083,
5095,
5183,
5240,
5375,
5564,
5808,
6108,
7085,
13156,
36635,
70296,
71480,
38926,
15040,
7578,
7177,
14231,
49302,
123996,
169075,
122576,
52864,
20730,
10871,
6253,
4386,
4251,
4028,
3765,
3654,
3550,
3376,
3429,
3314,
3519,
3667,
3864,
3761,
3644,
3404,
3368,
3215,
3228,
3251,
3222,
3196,
3252,
3124,
3117,
3086,
3130,
3040,
3181,
3018,
3025,
2997,
2982,
2949,
2927,
2896,
2847,
2928,
2869,
2871,
2864,
2769,
2778,
2796,
2835,
2845,
2765,
2674,
2657,
2602,
2576,
2577,
2717,
2800,
2829,
3161,
4265,
8338,
18917,
33969,
43060,
36518,
21071,
9269,
3938,
2648,
2514,
2948,
3838,
5314,
7033,
7230,
6020,
4091,
2833,
2064,
2010,
2067,
2065,
2081,
2122,
2277,
2993,
5005,
8913,
13266,
14807,
12222,
7551,
4157,
2477,
1859,
1792,
1842,
2193,
2857,
4448,
6445,
7601,
7119,
5643,
4147,
3129,
2405,
2063,
1919,
2127,
2754,
3336,
3611,
3390,
2585,
2028,
1647,
1508,
1468,
1448,
1413,
1651,
1766,
2094,
2172,
2186,
1958,
1602,
1443,
1333,
1316,
1464,
1499,
1568,
1466,
1442,
1293,
1234,
1281,
1273,
1236,
1212,
1201,
1178,
1149,
1092,
1090,
1083,
1049,
1085,
1095,
1135,
1073,
1113,
1040,
1083,
1016,
1060,
998,
986,
967,
981,
985,
1007,
941,
972,
960,
1008,
879,
959,
907,
938,
885,
860,
919,
861,
889,
855,
853,
865,
810,
844,
842,
844,
835,
831,
846,
866,
833,
819,
808,
774,
802,
753,
784,
728,
779,
703,
749,
788,
688,
762,
666,
706,
710,
666,
683,
685,
684,
643,
685,
667,
630,
666,
687,
694,
709,
726,
779,
838,
829,
770,
707,
635,
600,
630,
572,
583,
557,
565,
529,
552,
568,
575,
549,
547,
529,
589,
542,
504,
534,
486,
488,
531,
512,
490,
524,
442,
502,
462,
475,
465,
469,
434,
466,
481,
425,
397,
432,
461,
459,
481,
453,
467,
433,
430,
407,
430,
431,
435,
412,
436,
390,
388,
399,
431,
373,
377,
380,
392,
344,
366,
327,
361,
345,
358,
310,
334,
311,
318,
324,
306,
304,
321,
282,
315,
314,
289,
312,
296,
283,
292,
301,
253,
279,
277,
278,
260,
237,
247,
301,
254,
258,
230,
248,
254,
234,
248,
247,
236,
234,
232,
237,
214,
204,
203,
201,
206,
201,
208,
209,
206,
183,
194,
169,
185,
201,
170,
177,
184,
156,
169,
163,
164,
162,
151,
152,
144,
147,
143,
137,
154,
150,
135,
138,
136,
125,
121,
121,
103,
109,
116,
121,
105,
117,
112,
131,
121,
113,
96,
104,
100,
92,
76,
85,
85,
90,
76,
85,
81,
78,
61,
83,
77,
71,
82,
75,
58,
68,
65,
69,
73,
61,
71,
36,
52,
50,
49,
54,
50,
40,
58,
51,
53,
39,
43,
45,
35,
34,
32,
41,
36,
32,
32,
34,
26,
23,
32,
22,
29,
32,
23,
20,
15,
18,
20,
15,
21,
13,
14,
13,
9,
9,
10,
9,
3,
8,
5,
3,
1,
0,
3,
0,
2,
2,
0,
0,
1,
1,
1,
0,
0,
0,
0,
0,
1,
1,
1,
1,
0,
1,
1,
0,
0,
1,
0,
0,
0,
1,
0,
0,
0,
0,
1,
0,
0,
1,
3,
2,
1,
0,
0,
0,
0,
0,
0,
0,
1,
0,
0,
0,
0,
1,
1,
1,
0,
1,
0,
0,
0,
0,
0,
1,
0,
0,
0,
2,
0,
0,
0,
0,
1,
0,
0,
2,
0,
0,
0,
0,
0,
1,
0,
0,
0,
1,
0,
0,
1,
0,
0,
0,
0,
1,
0,
0,
0,
0,
0,
0,
0,
0,
0,
0,
0,
1,
1,
0,
0,
0,
0,
0,
0,
0,
0,
0,
0,
0,
0,
0,
0,
0,
0,
0,
0,
0,
0,
0,
2,
0,
1,
1,
0,
0,
0,
0,
0,
0,
0,
0,
0,
0,
0,
0,
0,
0,
0,
1,
0,
0,
0,
0,
0,
0,
0,
0,
0,
0,
0,
0,
0,
0,
0,
0,
0,
0,
0,
0,
0,
0,
0,
0,
0,
0,
0,
0,
0,
0,
0,
0,
0,
0,
0,
1,
0,
0,
0,
0,
0,
0,
0,
1,
0,
0,
0,
0,
0,
1,
0,
0,
0,
0,
0,
0,
0,
0,
0,
0,
0,
0,
0,
0,
0,
0,
0,
0,
0,
0,
0,
0,
0,
0,
0,
0,
0,
0,
0,
1,
0,
0,
0,
0,
0,
0,
0,
0,
0,
0,
0,
0,
0,
0,
0,
0,
0,
0,
0,
0,
0,
0,
0,
0,
0,
0,
0,
0,
0,
0,
0,
0,
0,
0,
0,
0,
0,
0,
0,
0,
0,
0,
0,
0,
0,
0,
0,
0,
0,
0,
0,
0,
0,
0,
0,
0,
0,
0,
0,
0,
0,
0,
0,
0,
0,
0,
0,
0,
0,
0,
0,
0,
0,
0,
0,
0,
0,
0,
1,
0,
0,
0,
0,
0,
0,
0,
0,
0,
0,
0,
0,
0,
0,
0,
0,
0,
0,
0,
0,
0,
0,
0,
0,
0,
0,
0,
0,
0,
0,
0,
0,
0,
0,
0,
0,
0,
0,
0,
0,
0,
0,
0,
0,
0,
0,
0,
0,
0,
0,
0,
0,
0,
0,
0,
0,
0,
0,
0,
0,
0,
0,
0,
0,
0,
0,
0,
0,
0,
0,
0,
0,
0,
0,
0,
0,
0,
0,
0,
0,
0,
0,
0,
0,
0,
0,
0,
0,
0,
0,
0,
0,
0,
0,
0,
0,
0,
0,
0,
0,
0,
0,
0,
0,
0,
0,
0,
0,
0,
0,
0,
0,
0,
0,
0,
0,
0,
0,
0,
0,
0,
0,
0,
0,
0,
0,
0,
0,
0,
0,
0,
0,
0,
0,
0,
0,
0,
0,
0,
0,
0,
0,
0,
0,
0,
0,
0,
0,
0,
0,
0,
0,
0,
0,
0,
0,
0,
0,
0,
0,
0,
0,
0,
0,
0,
0,
0,
0,
0,
0,
0,
0,
0,
0,
0,
0,
0,
0,
0,
0,
0,
0,
0,
0,
0,
0,
0,
0,
0,
0,
0,
0,
0,
0,
0,
0,
0,
0,
0,
0,
0,
0,
0,
0,
0,
0,
0,
0,
0,
0,
0,
0,
0,
0,
0,
0,
0,
0,
0,
0,
0,
0,
0,
0,
0,
0,
0,
0,
0,
0,
0,
0,
0,
0,
0,
0,
0,
0,
0,
0,
0,
0,
0,
0,
0,
0,
0,
0,
0,
0,
0,
0,
0,
0,
0,
0,
0,
0,
0,
0,
0,
0,
0,
0,
0,
0,
0,
0,
0,
0,
0,
0,
0,
0,
0,
0,
0,
0,
0,
0,
0,
0,
0,
0,
0,
0,
0,
0,
0,
0,
0,
0,
0,
0,
0,
0,
0,
0,
0,
0,
0,
0,
0,
0,
0,
0,
0,
0,
0,
0,
0,
0,
0,
0,
0,
0,
0,
0,
0,
0,
0,
0,
0,
0,
0,
0,
0,
0,
0,
0,
0,
0,
0,
0,
0,
0,
0,
0,
0,
0,
0,
0,
0,
0,
0,
0,
0,
0,
0,
0,
0,
0,
0,
0,
0,
0,
0,
0,
0,
0,
0,
0,
0,
0,
0,
0,
0,
0,
0,
0,
0,
0,
0,
0,
0,
0,
0,
0,
0,
0,
0,
0,
0,
0,
0,
0,
0,
0,
0,
0,
0,
0,
0,
0,
0,
0,
0,
0,
0,
0,
0,
0,
0,
0,
0,
0,
0,
0,
0,
0,
0,
0,
0,
0,
0,
0,
0,
0,
0,
0,
0,
0,
0,
0,
0,
0,
0,
0,
0,
0,
0,
0,
0,
0,
0,
0,
0,
0,
0,
0,
0,
0,
0,
0,
0,
0,
0,
0,
0,
0,
0,
0,
0,
0,
0,
0,
0,
0,
0,
0,
0,
0,
0,
0,
0,
0,
0,
0,
0,
0,
0,
0,
0,
0,
0,
0,
0,
0,
0,
0,
0,
0,
0,
0,
0,
0,
0,
0,
0,
0,
0,
0,
0,
0,
0,
0,
0,
0,
0,
0,
0,
0,
0,
0,
0,
0,
0,
0,
0,
0,
0,
0,
0,
0,
0,
0,
0,
0,
0,
0,
0,
0,
0,
0,
0,
0,
0,
0,
0,
0,
0,
0,
0,
0,
0,
0,
0,
0,
0,
0,
0,
0,
0,
0,
0,
0,
0,
0,
0,
0,
0,
0,
0,
0,
0,
0,
0,
0,
0,
0,
#ENDOFDATA   :