File: N132962/Quantification/15 keV/GMIIIA/GMIIIA K309[5][4].msa
#FORMAT      : EMSA/MAS Spectral Data File
#VERSION     : 1.0
#TITLE       : GMIIIA K309[5][all]
#DATE        : 22-SEP-2025
#TIME        : 15:26
#OWNER       : Unknown
#NPOINTS     : 4096
#NCOLUMNS    : 1
#XUNITS      : eV
#YUNITS      : counts
#DATATYPE    : Y
#XPERCHAN    : 9.99778
#OFFSET      : 1.69135
#BEAMKV      : 15
#SIGNALTYPE  : EDS
#ELEVANGLE   : 35
#AZIMANGLE   : 0
#LIVETIME    : 239.968
#REALTIME    : 255.593
#PROBECUR    : 1.21681
#TAUWIND     : 0
#TDEADLYR    : 0
#TACTLYR     : 0.045
#TALWIND     : 0.025
#CHOFFSET    : 0.0
#XLABEL      : Energy (eV)
#YLABEL      : Counts
#XPOSITION   : 12.53894
#YPOSITION   : 3.88537
#ZPOSITION   : 37.36299
#EDSDET      : SD
##SPECIMEN   : GMIIIA K309[5][all]
##D2STDCMP   : K309,(O:38.72),(Al:7.94),(Si:18.7),(Ca:10.72),(Fe:10.49),(Ba:13.43)
##DET_HASH   : 12273538-fd48-a23f-0a19-f1e6fa85caef
##CALIB_HASH : 6abaa72c-aa41-8738-0be9-f592914732f3
##WORKING    : 15.0 mm
##DET_NAME   : EDAX All
##DET_MODE   : MediumLE
#SPECTRUM    :
27,
36,
16,
13,
97,
396,
1278,
3133,
7433,
10744,
8989,
6685,
5815,
6082,
9081,
28945,
103633,
194191,
142055,
41324,
10517,
7363,
9618,
15673,
15192,
9237,
6401,
5131,
4300,
4053,
4075,
4361,
4895,
5352,
5601,
5775,
5278,
4916,
4719,
4818,
5169,
5002,
5179,
5360,
5342,
5602,
6550,
11588,
31476,
59582,
60232,
33437,
13405,
7197,
6763,
12814,
42627,
105497,
143394,
101778,
42435,
15957,
8459,
5343,
4342,
4078,
3913,
3708,
3631,
3475,
3546,
3621,
3533,
3670,
3726,
3920,
3812,
3635,
3698,
3401,
3349,
3272,
3300,
3377,
3354,
3321,
3209,
3256,
3239,
3157,
3127,
3224,
3077,
3116,
3089,
2930,
3026,
2924,
2957,
2989,
2795,
2895,
2966,
2836,
2910,
2692,
2824,
2887,
2739,
2708,
2689,
2721,
2609,
2558,
2654,
2625,
2786,
2873,
3072,
4018,
7956,
17166,
30473,
38744,
32674,
18907,
8409,
3850,
2633,
2570,
2931,
3662,
5025,
6245,
6662,
5711,
3818,
2721,
2189,
2073,
2066,
1977,
2086,
2138,
2361,
2902,
4668,
8075,
12119,
13379,
11027,
7191,
3898,
2456,
1966,
1889,
1925,
2123,
2862,
4150,
6088,
6936,
6552,
5074,
3875,
2890,
2416,
2036,
1999,
2075,
2535,
3081,
3433,
3070,
2466,
2015,
1621,
1504,
1441,
1434,
1589,
1564,
1761,
1970,
2099,
2086,
1812,
1595,
1305,
1367,
1427,
1406,
1525,
1617,
1430,
1403,
1364,
1354,
1282,
1276,
1251,
1153,
1146,
1194,
1189,
1185,
1213,
1218,
1418,
1962,
3539,
6309,
9316,
11232,
10432,
7806,
4827,
2656,
1538,
1149,
1056,
987,
991,
1001,
946,
988,
984,
1030,
954,
1033,
1030,
1150,
1410,
1717,
2119,
2213,
2078,
1742,
1385,
1041,
884,
863,
831,
811,
847,
789,
863,
825,
801,
851,
845,
820,
749,
710,
754,
743,
742,
734,
728,
756,
752,
707,
704,
698,
661,
699,
698,
724,
657,
687,
682,
684,
691,
709,
629,
700,
624,
633,
639,
673,
621,
640,
557,
603,
569,
586,
585,
591,
614,
560,
591,
546,
578,
583,
553,
517,
545,
526,
547,
496,
483,
480,
516,
496,
487,
486,
454,
469,
509,
491,
482,
454,
429,
425,
446,
476,
475,
428,
438,
452,
452,
426,
447,
449,
428,
412,
430,
433,
400,
397,
410,
402,
376,
366,
370,
355,
386,
357,
353,
336,
382,
321,
369,
343,
334,
358,
347,
333,
309,
302,
352,
352,
319,
299,
298,
291,
291,
302,
306,
262,
285,
274,
317,
285,
264,
265,
272,
272,
270,
241,
255,
246,
252,
237,
263,
218,
237,
237,
224,
248,
238,
231,
210,
209,
201,
211,
217,
208,
204,
197,
207,
218,
188,
187,
178,
183,
177,
178,
170,
186,
158,
156,
142,
148,
156,
162,
145,
152,
141,
153,
155,
141,
130,
140,
124,
130,
143,
146,
106,
93,
123,
111,
109,
120,
101,
116,
103,
114,
85,
99,
128,
91,
104,
100,
85,
89,
99,
82,
79,
80,
93,
87,
78,
83,
73,
81,
70,
64,
75,
68,
73,
55,
63,
72,
63,
40,
48,
48,
67,
45,
57,
44,
43,
45,
37,
33,
37,
39,
37,
37,
44,
22,
40,
34,
24,
40,
24,
19,
25,
28,
18,
21,
18,
21,
16,
4,
22,
19,
10,
10,
6,
11,
11,
10,
7,
6,
7,
3,
6,
2,
2,
0,
4,
1,
0,
0,
0,
1,
0,
0,
0,
2,
1,
0,
0,
1,
1,
0,
2,
1,
0,
0,
1,
1,
0,
1,
3,
0,
0,
1,
0,
0,
2,
0,
0,
0,
0,
1,
0,
0,
0,
2,
0,
1,
0,
2,
0,
0,
0,
1,
0,
0,
0,
0,
0,
0,
0,
0,
0,
1,
0,
0,
2,
0,
1,
0,
1,
1,
0,
0,
0,
1,
0,
0,
1,
0,
0,
0,
0,
1,
0,
0,
0,
0,
0,
0,
0,
0,
0,
0,
1,
1,
1,
0,
0,
1,
0,
0,
1,
0,
1,
0,
0,
0,
0,
0,
0,
0,
0,
0,
0,
0,
0,
0,
0,
0,
0,
0,
0,
0,
0,
0,
0,
0,
1,
0,
1,
0,
0,
0,
0,
0,
0,
0,
0,
0,
0,
0,
0,
0,
0,
0,
0,
0,
0,
0,
0,
0,
0,
0,
0,
0,
0,
0,
0,
0,
0,
2,
0,
0,
0,
1,
0,
1,
0,
0,
0,
0,
0,
0,
0,
0,
0,
0,
0,
0,
0,
0,
0,
0,
0,
0,
0,
0,
0,
0,
0,
0,
0,
0,
1,
0,
0,
0,
0,
0,
0,
0,
0,
0,
0,
0,
0,
0,
0,
0,
0,
0,
0,
0,
0,
0,
0,
0,
0,
0,
0,
0,
0,
0,
0,
0,
1,
0,
0,
0,
0,
0,
0,
0,
0,
0,
0,
0,
0,
0,
0,
0,
0,
0,
0,
0,
0,
0,
0,
0,
0,
0,
0,
0,
0,
0,
0,
0,
0,
0,
0,
0,
0,
0,
0,
1,
0,
0,
0,
0,
0,
0,
0,
0,
0,
0,
0,
0,
0,
0,
0,
0,
0,
0,
0,
0,
0,
0,
0,
0,
0,
0,
0,
0,
0,
0,
0,
0,
0,
0,
0,
0,
0,
0,
0,
0,
0,
0,
0,
0,
0,
0,
0,
0,
0,
0,
0,
0,
0,
0,
0,
0,
0,
0,
0,
0,
0,
0,
0,
0,
0,
0,
0,
0,
0,
0,
0,
0,
0,
0,
0,
0,
0,
0,
0,
0,
0,
0,
0,
0,
0,
0,
0,
0,
0,
0,
0,
0,
0,
0,
0,
0,
0,
0,
0,
0,
0,
0,
0,
0,
0,
0,
0,
0,
0,
0,
0,
0,
0,
0,
0,
0,
0,
0,
0,
0,
0,
0,
0,
0,
0,
0,
0,
0,
0,
0,
0,
0,
0,
0,
0,
0,
0,
0,
0,
0,
0,
0,
0,
0,
0,
0,
0,
0,
0,
0,
0,
0,
0,
0,
0,
0,
0,
0,
0,
0,
0,
0,
0,
0,
0,
0,
0,
0,
0,
0,
0,
0,
0,
0,
0,
0,
0,
0,
0,
0,
0,
0,
0,
0,
0,
0,
0,
0,
0,
0,
0,
0,
0,
0,
0,
0,
0,
0,
0,
0,
0,
0,
0,
0,
0,
0,
0,
0,
0,
0,
0,
0,
0,
0,
0,
0,
0,
0,
0,
0,
0,
0,
0,
0,
0,
0,
0,
0,
0,
0,
0,
0,
0,
0,
0,
0,
0,
0,
0,
0,
0,
0,
0,
0,
0,
0,
0,
0,
0,
0,
0,
0,
0,
0,
0,
0,
0,
0,
0,
0,
0,
0,
0,
0,
0,
0,
0,
0,
0,
0,
0,
0,
0,
0,
0,
0,
0,
0,
0,
0,
0,
0,
0,
0,
0,
0,
0,
0,
0,
0,
0,
0,
0,
0,
0,
0,
0,
0,
0,
0,
0,
0,
0,
0,
0,
0,
0,
0,
0,
0,
0,
0,
0,
0,
0,
0,
0,
0,
0,
0,
0,
0,
0,
0,
0,
0,
0,
0,
0,
0,
0,
0,
0,
0,
0,
0,
0,
0,
0,
0,
0,
0,
0,
0,
0,
0,
0,
0,
0,
0,
0,
0,
0,
0,
0,
0,
0,
0,
0,
0,
0,
0,
0,
0,
0,
0,
0,
0,
0,
0,
0,
0,
0,
0,
0,
0,
0,
0,
0,
0,
0,
0,
0,
0,
0,
0,
0,
0,
0,
0,
0,
0,
0,
0,
0,
0,
0,
0,
0,
0,
0,
0,
0,
0,
0,
0,
0,
0,
0,
0,
0,
0,
0,
0,
0,
0,
0,
0,
0,
0,
0,
0,
0,
0,
0,
0,
0,
0,
0,
0,
0,
0,
0,
0,
0,
0,
0,
0,
0,
0,
0,
0,
0,
0,
0,
0,
0,
0,
0,
0,
0,
0,
0,
0,
0,
0,
0,
0,
0,
0,
0,
0,
0,
0,
0,
0,
0,
0,
0,
0,
0,
0,
0,
0,
0,
0,
0,
0,
0,
0,
0,
0,
0,
0,
0,
0,
0,
0,
0,
0,
0,
0,
0,
0,
0,
0,
0,
0,
0,
0,
0,
0,
0,
0,
0,
0,
0,
0,
0,
0,
0,
0,
0,
0,
0,
0,
0,
0,
0,
0,
0,
0,
0,
0,
0,
0,
0,
0,
0,
0,
0,
0,
0,
0,
0,
0,
0,
0,
0,
0,
0,
0,
0,
0,
0,
0,
0,
0,
0,
0,
0,
0,
0,
0,
0,
0,
0,
0,
0,
0,
0,
0,
0,
0,
0,
0,
0,
0,
0,
0,
0,
0,
0,
0,
0,
0,
0,
0,
0,
0,
0,
0,
0,
0,
0,
0,
0,
0,
0,
0,
0,
0,
0,
0,
0,
0,
0,
0,
0,
0,
0,
0,
0,
0,
#ENDOFDATA   :