File: N132962/Quantification/15 keV/GMIIIA/GMIIIA K1236[0][4].msa
#FORMAT      : EMSA/MAS Spectral Data File
#VERSION     : 1.0
#TITLE       : GMIIIA K1236[0][all]
#DATE        : 22-SEP-2025
#TIME        : 23:04
#OWNER       : Unknown
#NPOINTS     : 4096
#NCOLUMNS    : 1
#XUNITS      : eV
#YUNITS      : counts
#DATATYPE    : Y
#XPERCHAN    : 9.99778
#OFFSET      : 1.69135
#BEAMKV      : 15
#SIGNALTYPE  : EDS
#ELEVANGLE   : 35
#AZIMANGLE   : 0
#LIVETIME    : 239.92
#REALTIME    : 258.861
#PROBECUR    : 1.21388
#TAUWIND     : 0
#TDEADLYR    : 0
#TACTLYR     : 0.045
#TALWIND     : 0.025
#CHOFFSET    : 0.0
#XLABEL      : Energy (eV)
#YLABEL      : Counts
#XPOSITION   : 7.20397
#YPOSITION   : 19.00859
#ZPOSITION   : 37.36299
#EDSDET      : SD
##SPECIMEN   : GMIIIA K1236[0][all]
##D2STDCMP   : K1236,(O:21.27),(Sc:0.65),(Ge:40.95),(Pb:37.13)
##DET_HASH   : 12273538-fd48-a23f-0a19-f1e6fa85caef
##CALIB_HASH : 6abaa72c-aa41-8738-0be9-f592914732f3
##WORKING    : 15.0 mm
##DET_NAME   : EDAX All
##DET_MODE   : MediumLE
#SPECTRUM    :
18,
28,
11,
28,
183,
734,
1922,
4526,
9522,
12032,
8430,
6467,
6745,
7290,
8754,
18496,
55804,
99843,
73295,
23470,
8607,
7122,
7181,
7543,
7508,
7381,
7476,
8013,
8409,
8651,
8719,
8994,
9969,
13001,
17948,
19997,
18039,
25830,
74860,
171639,
211435,
137710,
53852,
17527,
8923,
6865,
6540,
6251,
6391,
6327,
6455,
6598,
6376,
6489,
6519,
6925,
7100,
7753,
8310,
9122,
10532,
10980,
9465,
7585,
6472,
6362,
6385,
6400,
6273,
6416,
6485,
6857,
7362,
7854,
8831,
12228,
23980,
48998,
70885,
67655,
54533,
50076,
42568,
26406,
12599,
7066,
6272,
7269,
8116,
7978,
6637,
5440,
4944,
4842,
4812,
4937,
4866,
4941,
5041,
4949,
5082,
5320,
5429,
5415,
5314,
5143,
4809,
4588,
4386,
4356,
4398,
4266,
4341,
4450,
4300,
4403,
4287,
4219,
4280,
4376,
4396,
4143,
4140,
4108,
4132,
4070,
3981,
4114,
3961,
4037,
4016,
3959,
3964,
4139,
4437,
5129,
5643,
5413,
4835,
4153,
3858,
3727,
3624,
3658,
3564,
3597,
3507,
3694,
3745,
3955,
3894,
3769,
3765,
3531,
3476,
3487,
3335,
3307,
3371,
3365,
3364,
3247,
3341,
3243,
3270,
3116,
3186,
3192,
3095,
3194,
3074,
3042,
3066,
3089,
2993,
3008,
2957,
2929,
3040,
2893,
2914,
2889,
2788,
2807,
2788,
2869,
2868,
2794,
2647,
2768,
2758,
2718,
2573,
2672,
2610,
2729,
2618,
2585,
2652,
2446,
2611,
2483,
2469,
2470,
2588,
2469,
2461,
2540,
2489,
2518,
2409,
2496,
2478,
2375,
2372,
2368,
2347,
2307,
2266,
2254,
2233,
2270,
2163,
2238,
2104,
2141,
2180,
2104,
2129,
2039,
2102,
2091,
2056,
2120,
1998,
1971,
2020,
1987,
1937,
1917,
1878,
1957,
1993,
1958,
1859,
1891,
1853,
1865,
1950,
1947,
1847,
1905,
1814,
1749,
1789,
1725,
1762,
1758,
1759,
1728,
1737,
1685,
1631,
1709,
1659,
1675,
1560,
1598,
1602,
1577,
1549,
1521,
1550,
1560,
1535,
1565,
1415,
1403,
1442,
1464,
1444,
1473,
1368,
1408,
1415,
1363,
1293,
1380,
1363,
1391,
1364,
1343,
1338,
1296,
1320,
1218,
1260,
1210,
1303,
1259,
1243,
1269,
1207,
1253,
1190,
1296,
1223,
1146,
1174,
1195,
1158,
1136,
1112,
1149,
1041,
1097,
1097,
1092,
1090,
1079,
1125,
1124,
1150,
1344,
1848,
2785,
4161,
5965,
7416,
8200,
7462,
5852,
4078,
2656,
1638,
1185,
1077,
967,
937,
942,
958,
879,
946,
910,
895,
925,
939,
1048,
1178,
1298,
1486,
1466,
1533,
1374,
1208,
989,
907,
819,
772,
771,
800,
857,
1053,
1221,
1455,
1652,
1642,
1508,
1335,
1101,
868,
722,
661,
655,
621,
619,
622,
616,
542,
603,
567,
575,
545,
548,
553,
549,
537,
486,
523,
526,
533,
517,
520,
445,
457,
492,
456,
500,
486,
453,
415,
412,
422,
440,
423,
425,
420,
415,
420,
379,
356,
382,
374,
365,
366,
384,
370,
399,
443,
444,
440,
412,
398,
375,
360,
350,
324,
311,
289,
289,
281,
282,
297,
273,
249,
253,
260,
238,
271,
212,
231,
217,
219,
215,
197,
229,
192,
195,
187,
199,
170,
194,
167,
158,
181,
162,
170,
153,
145,
157,
133,
149,
130,
139,
133,
136,
125,
127,
140,
97,
100,
104,
99,
86,
84,
87,
94,
98,
88,
91,
78,
54,
67,
69,
71,
61,
52,
43,
49,
40,
33,
38,
26,
30,
22,
14,
21,
14,
11,
4,
8,
6,
4,
4,
7,
7,
0,
2,
3,
2,
2,
3,
1,
2,
3,
1,
1,
4,
1,
2,
4,
5,
1,
2,
2,
3,
2,
2,
2,
0,
4,
5,
2,
0,
0,
6,
6,
0,
0,
1,
2,
2,
3,
1,
1,
2,
5,
1,
2,
0,
0,
0,
1,
1,
1,
0,
0,
0,
1,
0,
1,
0,
1,
1,
3,
1,
8,
2,
3,
2,
4,
1,
3,
1,
4,
0,
2,
2,
1,
1,
2,
0,
1,
0,
1,
1,
2,
0,
0,
1,
2,
2,
1,
0,
1,
1,
2,
0,
0,
1,
2,
2,
2,
1,
0,
4,
2,
2,
1,
2,
1,
1,
1,
0,
1,
0,
0,
1,
1,
0,
1,
1,
0,
1,
2,
0,
0,
1,
0,
0,
1,
1,
0,
0,
1,
1,
2,
1,
0,
2,
0,
0,
0,
3,
0,
0,
0,
1,
2,
1,
2,
0,
0,
1,
0,
0,
1,
1,
0,
1,
1,
0,
2,
1,
1,
0,
0,
1,
1,
0,
0,
3,
0,
0,
0,
0,
0,
0,
0,
0,
0,
0,
0,
0,
1,
0,
1,
0,
1,
0,
1,
0,
0,
0,
2,
1,
0,
0,
0,
0,
0,
0,
0,
0,
0,
0,
0,
0,
0,
1,
1,
0,
0,
0,
0,
0,
0,
0,
0,
0,
0,
1,
1,
0,
0,
0,
1,
0,
1,
0,
0,
0,
0,
0,
0,
1,
1,
0,
0,
0,
0,
1,
0,
0,
0,
0,
0,
0,
0,
0,
0,
0,
0,
0,
0,
0,
0,
0,
0,
0,
0,
0,
0,
0,
0,
0,
0,
0,
0,
0,
0,
0,
0,
0,
0,
0,
0,
0,
0,
1,
0,
0,
0,
1,
0,
0,
0,
0,
0,
0,
0,
0,
0,
0,
0,
0,
0,
0,
0,
0,
0,
0,
0,
0,
0,
0,
0,
0,
0,
0,
0,
0,
0,
0,
0,
0,
0,
0,
0,
0,
0,
0,
0,
0,
0,
0,
0,
1,
0,
0,
0,
0,
0,
0,
0,
0,
0,
0,
0,
0,
0,
0,
0,
0,
0,
0,
0,
0,
0,
0,
0,
0,
0,
0,
0,
0,
0,
0,
0,
0,
0,
0,
0,
0,
0,
0,
0,
0,
0,
0,
0,
0,
0,
0,
0,
0,
0,
0,
0,
0,
0,
0,
0,
0,
0,
0,
0,
0,
0,
0,
0,
0,
0,
0,
0,
0,
0,
0,
0,
0,
0,
0,
0,
0,
0,
0,
0,
0,
0,
0,
0,
0,
0,
0,
0,
0,
0,
0,
0,
0,
0,
0,
0,
0,
0,
0,
0,
0,
0,
0,
0,
0,
0,
0,
0,
0,
0,
0,
0,
0,
0,
0,
0,
0,
0,
0,
0,
0,
0,
0,
0,
0,
0,
0,
0,
0,
0,
0,
0,
0,
0,
0,
0,
0,
0,
0,
0,
0,
0,
0,
0,
0,
0,
0,
0,
0,
0,
0,
0,
0,
0,
0,
0,
0,
0,
0,
0,
0,
0,
0,
0,
0,
0,
0,
0,
0,
0,
0,
0,
0,
0,
0,
0,
0,
0,
0,
0,
0,
0,
0,
0,
0,
0,
0,
0,
0,
0,
0,
0,
0,
0,
0,
0,
0,
0,
0,
0,
0,
0,
0,
0,
0,
0,
0,
0,
0,
0,
0,
0,
0,
0,
0,
0,
0,
0,
0,
0,
0,
0,
0,
0,
0,
0,
0,
0,
0,
0,
0,
0,
0,
0,
0,
0,
0,
0,
0,
0,
0,
0,
0,
0,
0,
0,
0,
0,
0,
0,
0,
0,
0,
0,
0,
0,
0,
0,
0,
0,
0,
0,
0,
0,
0,
0,
0,
0,
0,
0,
0,
0,
0,
0,
0,
0,
0,
0,
0,
0,
0,
0,
0,
0,
0,
0,
0,
0,
0,
0,
0,
0,
0,
0,
0,
0,
0,
0,
0,
0,
0,
0,
0,
0,
0,
0,
0,
0,
0,
0,
0,
0,
0,
0,
0,
0,
0,
0,
0,
0,
0,
0,
0,
0,
0,
0,
0,
0,
0,
0,
0,
0,
0,
0,
0,
0,
0,
0,
0,
0,
0,
0,
0,
0,
0,
0,
0,
0,
0,
0,
0,
0,
0,
0,
0,
0,
0,
0,
0,
0,
0,
0,
0,
0,
0,
0,
0,
0,
0,
0,
0,
0,
0,
0,
0,
0,
0,
0,
0,
0,
0,
0,
0,
0,
0,
0,
0,
0,
0,
0,
0,
0,
0,
0,
0,
0,
0,
0,
0,
0,
0,
0,
0,
0,
0,
0,
0,
0,
0,
0,
0,
0,
0,
0,
0,
0,
0,
0,
0,
0,
0,
0,
0,
0,
0,
0,
0,
0,
0,
0,
0,
0,
0,
0,
0,
0,
0,
0,
0,
0,
0,
0,
0,
0,
0,
0,
0,
0,
0,
0,
0,
0,
0,
0,
0,
0,
0,
0,
0,
0,
0,
0,
0,
0,
0,
0,
0,
0,
0,
0,
0,
0,
0,
0,
0,
0,
0,
0,
0,
0,
0,
0,
0,
0,
0,
0,
0,
0,
0,
0,
0,
0,
0,
0,
0,
0,
0,
0,
0,
0,
0,
0,
0,
0,
0,
0,
0,
0,
0,
0,
0,
0,
0,
0,
0,
0,
0,
0,
0,
0,
0,
0,
0,
0,
0,
0,
0,
0,
0,
0,
0,
0,
0,
0,
0,
0,
0,
0,
0,
#ENDOFDATA   :