File: N132962/Quantification/15 keV/GMIIIA/GMIIIA K1234[8][4].msa
#FORMAT      : EMSA/MAS Spectral Data File
#VERSION     : 1.0
#TITLE       : GMIIIA K1234[8][all]
#DATE        : 22-SEP-2025
#TIME        : 23:03
#OWNER       : Unknown
#NPOINTS     : 4096
#NCOLUMNS    : 1
#XUNITS      : eV
#YUNITS      : counts
#DATATYPE    : Y
#XPERCHAN    : 9.99778
#OFFSET      : 1.69135
#BEAMKV      : 15
#SIGNALTYPE  : EDS
#ELEVANGLE   : 35
#AZIMANGLE   : 0
#LIVETIME    : 239.892
#REALTIME    : 255.791
#PROBECUR    : 1.21388
#TAUWIND     : 0
#TDEADLYR    : 0
#TACTLYR     : 0.045
#TALWIND     : 0.025
#CHOFFSET    : 0.0
#XLABEL      : Energy (eV)
#YLABEL      : Counts
#XPOSITION   : 2.02304
#YPOSITION   : 17.85758
#ZPOSITION   : 37.36299
#EDSDET      : SD
##SPECIMEN   : GMIIIA K1234[8][all]
##D2STDCMP   : K1234,(O:39.85),(Al:9.15),(Si:21.56),(Ca:12.36),(Ba:15.49),(W:1.59)
##DET_HASH   : 12273538-fd48-a23f-0a19-f1e6fa85caef
##CALIB_HASH : 6abaa72c-aa41-8738-0be9-f592914732f3
##WORKING    : 15.0 mm
##DET_NAME   : EDAX All
##DET_MODE   : MediumLE
#SPECTRUM    :
15,
24,
16,
34,
114,
468,
1193,
2852,
7249,
10885,
9148,
6646,
5627,
5656,
8389,
26931,
98080,
184912,
134613,
37658,
8076,
4519,
4214,
4253,
4391,
5166,
5948,
5524,
4746,
4335,
4465,
4839,
5504,
5728,
6172,
6164,
5590,
5038,
4929,
5029,
5120,
5234,
5587,
5607,
5699,
6051,
7046,
13420,
36328,
70461,
71656,
38894,
15314,
7665,
7177,
14323,
49285,
123523,
168550,
122209,
53151,
20677,
10549,
6169,
4454,
3900,
3903,
3752,
3769,
3491,
3388,
3404,
3362,
3425,
3629,
3863,
3958,
3685,
3463,
3312,
3321,
3212,
3208,
3168,
3192,
3151,
3112,
3144,
3153,
3030,
3103,
3113,
3071,
3001,
2988,
2949,
2903,
2915,
2935,
2897,
2933,
2935,
2855,
2698,
2792,
2718,
2830,
2799,
2774,
2663,
2745,
2651,
2554,
2532,
2652,
2667,
2794,
2841,
3195,
4211,
8356,
19164,
34163,
43187,
36766,
21354,
9365,
4027,
2549,
2556,
2996,
3849,
5371,
6824,
7292,
6034,
4007,
2805,
2305,
2039,
2072,
2066,
2076,
2135,
2354,
2941,
5045,
8914,
13126,
14589,
12224,
7739,
4261,
2549,
1889,
1823,
1845,
2093,
3009,
4727,
6721,
7638,
6986,
5538,
4064,
2991,
2509,
2098,
1967,
2160,
2664,
3306,
3693,
3224,
2548,
2057,
1681,
1556,
1499,
1410,
1498,
1598,
1833,
2102,
2132,
2193,
1823,
1652,
1451,
1266,
1410,
1401,
1455,
1566,
1547,
1446,
1333,
1284,
1288,
1232,
1171,
1180,
1177,
1162,
1152,
1058,
1103,
1150,
1160,
1125,
1082,
1134,
994,
1091,
1036,
1076,
1074,
1021,
1037,
1004,
988,
1004,
999,
956,
972,
989,
957,
944,
971,
1007,
950,
835,
923,
903,
878,
903,
908,
904,
846,
850,
831,
849,
845,
798,
831,
804,
854,
842,
804,
820,
798,
776,
807,
740,
806,
764,
762,
712,
676,
712,
723,
715,
764,
717,
715,
640,
672,
676,
632,
682,
684,
682,
669,
654,
628,
646,
733,
718,
765,
827,
810,
747,
762,
714,
661,
585,
602,
606,
580,
554,
570,
566,
530,
518,
553,
516,
539,
495,
501,
536,
503,
503,
483,
476,
487,
503,
450,
485,
509,
495,
446,
467,
447,
472,
499,
452,
453,
484,
451,
507,
464,
468,
483,
464,
453,
445,
463,
394,
420,
410,
411,
429,
416,
408,
374,
386,
393,
363,
348,
338,
348,
308,
369,
307,
346,
321,
339,
341,
332,
320,
271,
292,
314,
308,
271,
294,
284,
299,
311,
291,
263,
236,
263,
269,
277,
252,
273,
260,
285,
279,
254,
237,
242,
259,
285,
253,
236,
228,
237,
231,
230,
191,
214,
237,
236,
231,
258,
224,
187,
209,
199,
191,
196,
180,
186,
192,
207,
166,
207,
175,
189,
164,
161,
142,
143,
161,
150,
153,
170,
131,
134,
171,
150,
124,
133,
147,
130,
125,
132,
127,
118,
111,
130,
101,
96,
123,
89,
119,
95,
95,
96,
76,
97,
99,
97,
98,
106,
73,
78,
92,
70,
77,
80,
81,
79,
65,
66,
65,
72,
69,
57,
59,
57,
50,
58,
64,
64,
48,
47,
44,
54,
55,
46,
54,
37,
42,
40,
49,
58,
29,
36,
26,
29,
32,
30,
20,
32,
29,
29,
26,
21,
25,
25,
19,
22,
21,
17,
19,
13,
14,
17,
9,
13,
8,
7,
10,
7,
3,
3,
0,
1,
3,
2,
3,
2,
0,
0,
1,
0,
0,
2,
1,
1,
0,
0,
0,
1,
1,
0,
0,
0,
0,
1,
0,
0,
1,
2,
0,
2,
0,
1,
0,
0,
0,
2,
0,
0,
1,
0,
0,
0,
0,
1,
0,
0,
0,
1,
1,
0,
0,
0,
0,
0,
0,
0,
1,
0,
0,
0,
0,
1,
1,
1,
0,
0,
2,
0,
1,
0,
0,
0,
2,
0,
0,
0,
0,
1,
1,
0,
0,
0,
0,
0,
0,
0,
0,
0,
1,
0,
0,
0,
0,
2,
0,
0,
0,
0,
0,
0,
0,
0,
0,
0,
0,
0,
0,
0,
0,
0,
0,
0,
0,
0,
0,
0,
0,
0,
0,
0,
0,
0,
0,
0,
1,
0,
0,
0,
0,
0,
0,
0,
0,
0,
0,
0,
0,
0,
0,
0,
0,
0,
0,
0,
0,
0,
0,
0,
0,
0,
0,
0,
0,
0,
0,
0,
0,
0,
0,
0,
0,
0,
0,
0,
0,
0,
0,
0,
0,
0,
0,
0,
0,
0,
0,
0,
0,
0,
0,
0,
0,
1,
0,
0,
0,
2,
0,
0,
0,
0,
0,
0,
0,
0,
0,
0,
0,
0,
0,
0,
0,
0,
0,
0,
0,
0,
0,
0,
0,
0,
0,
0,
0,
0,
0,
0,
0,
0,
0,
0,
0,
0,
0,
0,
0,
0,
0,
0,
0,
0,
0,
0,
0,
0,
0,
0,
0,
0,
0,
0,
0,
0,
1,
0,
0,
0,
0,
0,
0,
0,
0,
0,
0,
0,
0,
0,
0,
0,
0,
0,
0,
0,
0,
0,
0,
0,
0,
0,
0,
0,
0,
0,
0,
0,
0,
0,
0,
0,
0,
0,
0,
0,
0,
0,
0,
0,
0,
0,
0,
0,
0,
0,
0,
0,
0,
0,
0,
0,
0,
0,
0,
0,
0,
0,
0,
0,
0,
0,
0,
0,
0,
0,
0,
0,
0,
0,
0,
0,
0,
0,
0,
0,
0,
0,
0,
0,
0,
0,
0,
0,
0,
0,
0,
0,
0,
0,
0,
0,
0,
0,
0,
0,
0,
0,
0,
0,
0,
0,
0,
0,
0,
0,
0,
0,
0,
0,
0,
0,
0,
0,
0,
0,
0,
0,
0,
0,
0,
0,
0,
0,
0,
0,
0,
0,
0,
0,
0,
0,
0,
0,
0,
0,
0,
0,
0,
0,
0,
0,
0,
0,
0,
0,
0,
0,
0,
0,
0,
0,
0,
0,
0,
0,
0,
0,
0,
0,
0,
0,
0,
0,
0,
0,
0,
0,
0,
0,
0,
0,
0,
0,
0,
0,
0,
0,
0,
0,
0,
0,
0,
0,
0,
0,
0,
0,
0,
0,
0,
0,
0,
0,
0,
0,
0,
0,
0,
0,
0,
0,
0,
0,
0,
0,
0,
0,
0,
0,
0,
0,
0,
0,
0,
0,
0,
0,
0,
0,
0,
0,
0,
0,
0,
0,
0,
0,
0,
0,
0,
0,
0,
0,
0,
0,
0,
0,
0,
0,
0,
0,
0,
0,
0,
0,
0,
0,
0,
0,
0,
0,
0,
0,
0,
0,
0,
0,
0,
0,
0,
0,
0,
0,
0,
0,
0,
0,
0,
0,
0,
0,
0,
0,
0,
0,
0,
0,
0,
0,
0,
0,
0,
0,
0,
0,
0,
0,
0,
0,
0,
0,
0,
0,
0,
0,
0,
0,
0,
0,
0,
0,
0,
0,
0,
0,
0,
0,
0,
0,
0,
0,
0,
0,
0,
0,
0,
0,
0,
0,
0,
0,
0,
0,
0,
0,
0,
0,
0,
0,
0,
0,
0,
0,
0,
0,
0,
0,
0,
0,
0,
0,
0,
0,
0,
0,
0,
0,
0,
0,
0,
0,
0,
0,
0,
0,
0,
0,
0,
0,
0,
0,
0,
0,
0,
0,
0,
0,
0,
0,
0,
0,
0,
0,
0,
0,
0,
0,
0,
0,
0,
0,
0,
0,
0,
0,
0,
0,
0,
0,
0,
0,
0,
0,
0,
0,
0,
0,
0,
0,
0,
0,
0,
0,
0,
0,
0,
0,
0,
0,
0,
0,
0,
0,
0,
0,
0,
0,
0,
0,
0,
0,
0,
0,
0,
0,
0,
0,
0,
0,
0,
0,
0,
0,
0,
0,
0,
0,
0,
0,
0,
0,
0,
0,
0,
0,
0,
0,
0,
0,
0,
0,
0,
0,
0,
0,
0,
0,
0,
0,
0,
0,
0,
0,
0,
0,
0,
0,
0,
0,
0,
0,
0,
0,
0,
0,
0,
0,
0,
0,
0,
0,
0,
0,
0,
0,
0,
0,
0,
0,
0,
0,
0,
0,
0,
0,
0,
0,
0,
0,
0,
0,
0,
0,
0,
0,
0,
0,
0,
0,
0,
0,
0,
0,
0,
0,
0,
0,
0,
0,
0,
0,
0,
0,
0,
0,
0,
0,
0,
0,
0,
0,
0,
0,
0,
0,
0,
0,
0,
0,
0,
0,
0,
0,
0,
0,
0,
0,
0,
0,
0,
0,
0,
0,
0,
0,
0,
0,
0,
0,
0,
0,
0,
0,
0,
0,
0,
0,
0,
0,
0,
0,
0,
0,
0,
0,
0,
0,
0,
0,
0,
0,
0,
0,
0,
0,
0,
0,
0,
0,
0,
0,
0,
0,
0,
0,
0,
0,
0,
0,
0,
0,
0,
0,
0,
0,
0,
0,
0,
0,
0,
0,
0,
0,
0,
0,
0,
0,
0,
0,
0,
#ENDOFDATA   :