File: N132962/Quantification/20 keV/MMM2/C std.msa
#FORMAT      : EMSA/MAS Spectral Data File
#VERSION     : 1.0
#TITLE       : C standard for 'N132962' detector
#NPOINTS     : 4096
#NCOLUMNS    : 1
#XUNITS      : eV
#YUNITS      : counts
#DATATYPE    : Y
#SIGNALTYPE  : EDS
#XLABEL      : Energy (eV)
#YLABEL      : Counts
#XPERCHAN -eV: 9.99778
#OFFSET   -eV: 1.69135
#CHOFFSET    : 0
#DATE        : 13-Mar-2025
#TIME        : 14:29:00
#OWNER       : Unknown
#ELEVANGLE   : 35
#BEAMKV   -kV: 20
#LIVETIME  -s: 1440
#REALTIME  -s: 1505.5
#PROBECUR -nA: 1.02609
##WORKING -mm: 15
##D2STDCMP   : C,(C:100.0000)
##SIMILAR    : 1.6
#SPECTRUM    :
139,
159,
85,
335,
1876,
10075,
67457,
551575,
2277024,
3135878,
1297562,
167160,
10208,
3175,
3319,
4557,
9978,
19362,
19791,
10909,
6163,
5681,
6369,
7163,
7431,
7821,
8393,
8809,
9288,
10035,
10317,
10811,
11247,
11798,
12268,
12904,
13172,
13646,
14102,
14419,
14604,
15076,
14906,
15443,
15528,
15666,
15669,
15554,
15887,
15531,
15870,
15752,
15369,
15555,
15083,
15421,
15426,
15317,
15671,
15419,
14991,
14190,
13057,
12762,
12268,
12218,
12213,
11806,
11731,
11607,
11616,
11317,
11269,
10926,
10989,
11196,
10848,
10630,
10440,
10151,
10113,
9876,
9740,
9797,
9508,
9487,
9251,
9238,
9046,
8827,
8761,
8710,
8525,
8472,
8288,
8043,
8307,
8056,
7952,
7755,
7666,
7612,
7545,
7459,
7496,
7204,
7015,
7090,
7031,
6746,
6752,
6709,
6777,
6717,
6706,
6308,
6309,
6387,
6254,
6060,
6123,
6041,
6059,
5772,
5920,
5814,
5579,
5641,
5661,
5388,
5512,
5256,
5409,
5264,
5312,
5250,
5169,
5072,
4977,
4885,
4915,
4734,
4807,
4706,
4698,
4660,
4633,
4518,
4604,
4572,
4521,
4393,
4416,
4266,
4254,
4313,
4236,
4155,
4200,
4013,
4035,
4005,
3969,
3864,
3824,
3777,
3872,
3838,
3822,
3680,
3705,
3598,
3614,
3511,
3638,
3577,
3558,
3452,
3418,
3386,
3466,
3370,
3326,
3190,
3356,
3271,
3209,
3051,
3133,
3126,
3102,
3190,
3067,
2896,
2854,
2867,
2836,
2801,
2797,
2852,
2775,
2833,
2775,
2696,
2616,
2674,
2616,
2674,
2544,
2534,
2664,
2769,
2831,
2934,
2969,
2792,
2507,
2397,
2490,
2417,
2522,
2310,
2367,
2303,
2215,
2257,
2202,
2228,
2234,
2194,
2137,
2261,
2055,
2075,
2160,
2125,
2064,
2141,
2044,
2003,
2004,
1973,
1932,
2013,
1965,
1950,
1890,
2005,
1931,
1932,
1895,
1820,
1821,
1883,
1846,
1668,
1717,
1723,
1721,
1710,
1683,
1737,
1600,
1720,
1619,
1570,
1655,
1564,
1631,
1629,
1616,
1485,
1561,
1486,
1487,
1556,
1490,
1497,
1503,
1383,
1433,
1392,
1404,
1452,
1354,
1398,
1362,
1387,
1345,
1353,
1405,
1237,
1286,
1289,
1230,
1274,
1240,
1282,
1273,
1259,
1298,
1190,
1218,
1209,
1131,
1191,
1132,
1134,
1107,
1123,
1195,
1152,
1099,
1070,
1133,
1095,
1141,
1085,
1031,
1035,
1024,
1055,
972,
1053,
966,
1025,
1053,
1011,
964,
993,
1001,
973,
929,
914,
894,
889,
854,
894,
859,
883,
879,
872,
824,
839,
844,
821,
814,
815,
794,
821,
796,
806,
775,
819,
788,
762,
766,
801,
774,
741,
749,
718,
687,
726,
724,
681,
706,
698,
709,
673,
637,
645,
619,
607,
650,
586,
639,
646,
643,
592,
608,
623,
606,
571,
563,
559,
603,
545,
563,
553,
543,
568,
549,
520,
529,
564,
519,
512,
495,
496,
478,
539,
472,
490,
457,
452,
447,
500,
483,
503,
444,
487,
436,
419,
415,
424,
406,
376,
435,
399,
407,
393,
357,
384,
377,
385,
371,
401,
344,
355,
370,
325,
352,
352,
351,
319,
335,
349,
347,
339,
312,
354,
327,
307,
305,
308,
294,
295,
293,
319,
279,
290,
303,
290,
254,
277,
290,
251,
258,
267,
251,
251,
240,
224,
256,
247,
230,
228,
241,
222,
227,
198,
250,
214,
212,
207,
176,
192,
209,
173,
226,
220,
179,
209,
185,
198,
183,
177,
180,
171,
152,
193,
162,
184,
185,
148,
161,
135,
171,
176,
168,
159,
150,
148,
145,
153,
128,
138,
134,
139,
126,
133,
121,
130,
133,
115,
113,
128,
119,
122,
112,
125,
102,
97,
115,
139,
92,
89,
121,
121,
110,
93,
92,
95,
108,
95,
82,
112,
78,
89,
82,
74,
98,
72,
84,
71,
79,
71,
69,
90,
80,
77,
68,
76,
64,
67,
55,
72,
66,
60,
73,
49,
65,
58,
63,
52,
59,
43,
55,
54,
54,
47,
53,
53,
41,
33,
60,
46,
59,
34,
39,
41,
46,
47,
45,
40,
27,
39,
37,
52,
34,
18,
31,
36,
32,
34,
29,
40,
28,
37,
21,
29,
22,
25,
29,
19,
32,
20,
20,
20,
21,
16,
20,
16,
25,
23,
25,
15,
20,
15,
22,
21,
16,
18,
14,
14,
14,
17,
15,
13,
12,
14,
9,
12,
6,
11,
9,
9,
10,
5,
10,
18,
7,
12,
8,
8,
5,
6,
8,
2,
7,
4,
1,
2,
1,
3,
3,
6,
4,
3,
1,
1,
1,
1,
2,
2,
0,
0,
0,
1,
0,
0,
0,
0,
0,
0,
0,
0,
0,
0,
0,
0,
0,
0,
1,
0,
0,
0,
0,
0,
0,
0,
0,
0,
0,
0,
0,
0,
0,
0,
0,
0,
0,
0,
0,
0,
1,
0,
0,
0,
0,
0,
0,
0,
0,
0,
0,
0,
0,
0,
0,
0,
0,
0,
0,
0,
0,
0,
0,
0,
0,
0,
0,
0,
0,
0,
0,
0,
0,
0,
0,
0,
0,
0,
0,
0,
0,
0,
0,
0,
0,
0,
0,
0,
0,
0,
0,
0,
0,
0,
0,
1,
0,
0,
0,
0,
0,
0,
0,
0,
0,
0,
0,
0,
0,
0,
0,
0,
0,
0,
0,
0,
0,
0,
1,
0,
0,
0,
1,
0,
0,
0,
0,
0,
0,
0,
0,
0,
0,
0,
0,
0,
0,
0,
0,
0,
0,
0,
0,
1,
0,
0,
0,
0,
0,
0,
0,
0,
0,
0,
0,
0,
0,
0,
0,
0,
0,
0,
0,
0,
0,
0,
0,
0,
0,
0,
0,
0,
0,
0,
0,
0,
0,
0,
0,
0,
0,
0,
0,
0,
0,
0,
0,
0,
0,
0,
0,
0,
0,
0,
0,
0,
0,
0,
0,
0,
0,
0,
0,
0,
0,
0,
0,
0,
0,
0,
0,
0,
0,
0,
0,
0,
0,
0,
0,
0,
0,
0,
0,
0,
0,
0,
0,
0,
0,
0,
0,
0,
0,
0,
0,
0,
0,
0,
0,
0,
0,
0,
0,
0,
0,
0,
0,
0,
0,
0,
0,
0,
0,
0,
0,
0,
0,
0,
0,
0,
0,
0,
0,
0,
0,
0,
0,
0,
0,
0,
0,
0,
0,
0,
0,
0,
0,
0,
0,
0,
0,
0,
0,
0,
0,
0,
0,
0,
0,
0,
0,
0,
0,
0,
0,
0,
0,
0,
0,
0,
0,
0,
0,
0,
0,
0,
0,
0,
0,
0,
0,
0,
0,
0,
0,
0,
0,
0,
0,
0,
0,
0,
0,
0,
0,
0,
1,
0,
0,
0,
0,
0,
0,
0,
0,
0,
0,
0,
0,
0,
0,
0,
0,
0,
0,
0,
0,
0,
0,
0,
0,
0,
0,
0,
0,
0,
0,
0,
0,
0,
0,
0,
0,
0,
0,
0,
0,
0,
0,
0,
0,
0,
0,
0,
0,
0,
0,
0,
0,
0,
0,
0,
0,
0,
0,
0,
0,
0,
0,
0,
0,
0,
0,
0,
0,
0,
0,
0,
0,
0,
0,
0,
0,
0,
0,
0,
0,
0,
0,
0,
0,
0,
0,
0,
0,
0,
0,
0,
0,
0,
0,
0,
0,
0,
0,
0,
0,
0,
0,
0,
0,
0,
0,
0,
0,
0,
0,
0,
0,
0,
0,
0,
0,
0,
0,
0,
0,
0,
0,
0,
0,
0,
0,
0,
0,
0,
0,
0,
0,
0,
0,
0,
0,
0,
0,
0,
0,
0,
0,
0,
0,
0,
0,
0,
0,
0,
0,
0,
0,
0,
0,
0,
0,
0,
0,
0,
0,
0,
0,
0,
0,
0,
0,
0,
0,
0,
0,
0,
0,
0,
0,
0,
0,
0,
0,
0,
0,
0,
0,
0,
0,
0,
0,
0,
0,
0,
0,
0,
0,
0,
0,
0,
0,
0,
0,
0,
0,
0,
0,
0,
0,
0,
0,
0,
0,
0,
0,
0,
0,
0,
0,
0,
0,
0,
0,
0,
0,
0,
0,
0,
0,
0,
0,
0,
0,
0,
0,
0,
0,
0,
0,
0,
0,
0,
0,
0,
0,
0,
0,
0,
0,
0,
0,
0,
0,
0,
0,
0,
0,
0,
0,
0,
0,
0,
0,
0,
0,
0,
0,
0,
0,
0,
0,
0,
0,
0,
0,
0,
0,
0,
0,
0,
0,
0,
0,
0,
0,
0,
0,
0,
0,
0,
0,
0,
0,
0,
0,
0,
0,
0,
0,
0,
0,
0,
0,
0,
0,
0,
0,
0,
0,
0,
0,
0,
0,
0,
0,
0,
0,
0,
0,
0,
0,
0,
0,
0,
0,
0,
0,
0,
0,
0,
0,
0,
0,
0,
0,
0,
0,
0,
0,
0,
0,
0,
0,
0,
0,
0,
0,
0,
0,
0,
0,
0,
0,
0,
0,
0,
0,
0,
0,
0,
0,
0,
0,
0,
0,
0,
0,
0,
0,
0,
0,
0,
0,
0,
0,
0,
0,
0,
#ENDOFDATA   :