File: N132962/Quantification/20 keV/MMM2/FeS std.msa
#FORMAT      : EMSA/MAS Spectral Data File
#VERSION     : 1.0
#TITLE       : FeS standard for 'N132962' detector
#NPOINTS     : 4096
#NCOLUMNS    : 1
#XUNITS      : eV
#YUNITS      : counts
#DATATYPE    : Y
#SIGNALTYPE  : EDS
#XLABEL      : Energy (eV)
#YLABEL      : Counts
#XPERCHAN -eV: 9.99778
#OFFSET   -eV: 1.69135
#CHOFFSET    : 0
#DATE        : 13-Mar-2025
#TIME        : 12:57:00
#OWNER       : Unknown
#ELEVANGLE   : 35
#BEAMKV   -kV: 20
#LIVETIME  -s: 1918.82
#REALTIME  -s: 2096.41
#PROBECUR -nA: 1.02627
##WORKING -mm: 15
##D2STDCMP   : FeS,(S:36.4712),(Fe:63.5288)
##SIMILAR    : 1.5
#SPECTRUM    :
166,
213,
90,
498,
3072,
6893,
10020,
25661,
74720,
99588,
49146,
19725,
17520,
19498,
21442,
27327,
38114,
60657,
102387,
146411,
163360,
165718,
276477,
486779,
406320,
151130,
48073,
31494,
28858,
27776,
27154,
27760,
28727,
29852,
30621,
31883,
32640,
33918,
34899,
36260,
37339,
38637,
39351,
40480,
41637,
42478,
43336,
44511,
45243,
46698,
47461,
47318,
47041,
46931,
47362,
48022,
49983,
53758,
56457,
55944,
53744,
50401,
48042,
47054,
46721,
47897,
49036,
49784,
50517,
50639,
51367,
58502,
85366,
161723,
421461,
1190700,
2468467,
3099438,
2247226,
965161,
324832,
221340,
246650,
204260,
113696,
52162,
30273,
25738,
25030,
24724,
24998,
25224,
25010,
25173,
25752,
25636,
25993,
26330,
26751,
27140,
27778,
27407,
26557,
25999,
25141,
25030,
25134,
25048,
25076,
24741,
25021,
24623,
24217,
24733,
24417,
24470,
24473,
24564,
24561,
24384,
23943,
24374,
23910,
24096,
23907,
23993,
23546,
23601,
23234,
23444,
23102,
23073,
22935,
22970,
22915,
22809,
22578,
22559,
22241,
22118,
22388,
21831,
21730,
21976,
21340,
21711,
21591,
21667,
21628,
21468,
21984,
22956,
25016,
27828,
29213,
28169,
25843,
23289,
21904,
20951,
20673,
20012,
19889,
19555,
19385,
19559,
19155,
18976,
18897,
18823,
18575,
18506,
18648,
18425,
18285,
18337,
18514,
18349,
18118,
18176,
17960,
17858,
17704,
17363,
17142,
17146,
17214,
16701,
16617,
16537,
16464,
16365,
16342,
16021,
16229,
16044,
15934,
15871,
15816,
15968,
15931,
16102,
16073,
16002,
16427,
16803,
17719,
21369,
35139,
78097,
182707,
365132,
577375,
708196,
664729,
478665,
268404,
121118,
49006,
23228,
15982,
14640,
14158,
13816,
13987,
13807,
14007,
14318,
14674,
15996,
19063,
26584,
42060,
66702,
90302,
102481,
92963,
69801,
43719,
25856,
16128,
12095,
10819,
10428,
10552,
10511,
10608,
10735,
10963,
10963,
10632,
10439,
10287,
10038,
10048,
9916,
9810,
9825,
9711,
9877,
9756,
9674,
9404,
9568,
9648,
9404,
9474,
9333,
9321,
9122,
9118,
9044,
9067,
8994,
9071,
8924,
8776,
8861,
8728,
8581,
8466,
8555,
8463,
8551,
8515,
8541,
8707,
9099,
9571,
10174,
10410,
10241,
9704,
9177,
8515,
8175,
8003,
7984,
7800,
7718,
7617,
7620,
7573,
7360,
7518,
7402,
7392,
7390,
7383,
7363,
7551,
7542,
7287,
7277,
7040,
7136,
7154,
7019,
6830,
6871,
6721,
6681,
6521,
6463,
6540,
6598,
6541,
6386,
6442,
6425,
6211,
6205,
6161,
6071,
6188,
6129,
6100,
5899,
6017,
5919,
5904,
5848,
5734,
5890,
5807,
5566,
5663,
5594,
5505,
5547,
5381,
5377,
5398,
5435,
5298,
5290,
5227,
5131,
5150,
5189,
5149,
5085,
5056,
4927,
4909,
4927,
5012,
4745,
4764,
4841,
4845,
4760,
4562,
4626,
4590,
4580,
4609,
4442,
4422,
4526,
4363,
4480,
4289,
4172,
4217,
4298,
4313,
4078,
4084,
4158,
4033,
4037,
3834,
3907,
3861,
3897,
3772,
3830,
3804,
3709,
3667,
3686,
3792,
3616,
3656,
3500,
3595,
3499,
3435,
3396,
3283,
3395,
3381,
3342,
3289,
3215,
3273,
3286,
3127,
3165,
3127,
3122,
3103,
3113,
3241,
3146,
3329,
3138,
3085,
3105,
3018,
2857,
2770,
2783,
2715,
2686,
2689,
2677,
2629,
2568,
2605,
2487,
2566,
2471,
2507,
2516,
2506,
2548,
2446,
2501,
2333,
2309,
2320,
2277,
2330,
2238,
2136,
2191,
2111,
2082,
2092,
2129,
2056,
2097,
2038,
1992,
1930,
1994,
1959,
1857,
1932,
1809,
1938,
1771,
1794,
1850,
1784,
1827,
1748,
1703,
1668,
1726,
1729,
1749,
1615,
1676,
1579,
1669,
1579,
1545,
1541,
1462,
1465,
1446,
1448,
1427,
1463,
1372,
1383,
1311,
1367,
1339,
1318,
1344,
1291,
1251,
1270,
1270,
1203,
1174,
1197,
1167,
1182,
1153,
1102,
1139,
1089,
1088,
1065,
1052,
1091,
1116,
1043,
999,
1000,
974,
977,
988,
943,
989,
925,
929,
946,
888,
881,
895,
861,
860,
849,
812,
802,
788,
803,
783,
727,
783,
753,
754,
731,
738,
714,
723,
679,
660,
708,
627,
655,
672,
612,
646,
620,
665,
606,
579,
609,
620,
562,
593,
558,
574,
559,
557,
555,
528,
481,
467,
495,
468,
458,
450,
438,
446,
473,
430,
421,
364,
398,
382,
397,
391,
358,
375,
367,
344,
348,
352,
340,
345,
317,
300,
287,
258,
286,
294,
299,
286,
249,
289,
246,
266,
226,
265,
235,
231,
259,
234,
215,
198,
219,
207,
202,
206,
179,
192,
164,
167,
156,
152,
143,
155,
138,
154,
143,
143,
130,
116,
93,
125,
94,
99,
86,
101,
91,
110,
104,
91,
67,
69,
98,
53,
77,
65,
56,
45,
53,
47,
37,
27,
41,
36,
21,
29,
32,
16,
11,
17,
14,
14,
12,
7,
8,
9,
11,
8,
9,
6,
7,
6,
4,
8,
8,
11,
10,
5,
9,
16,
4,
6,
9,
10,
9,
6,
4,
4,
6,
5,
7,
4,
6,
6,
2,
6,
10,
11,
6,
11,
6,
5,
3,
4,
8,
4,
3,
4,
4,
3,
5,
12,
1,
2,
8,
6,
7,
3,
4,
4,
4,
2,
2,
7,
2,
5,
2,
3,
4,
6,
7,
3,
3,
5,
5,
2,
2,
2,
6,
4,
5,
0,
1,
1,
3,
2,
2,
2,
1,
2,
1,
2,
1,
2,
2,
2,
1,
3,
2,
2,
4,
0,
1,
3,
2,
3,
1,
0,
3,
1,
1,
2,
2,
3,
3,
0,
0,
1,
0,
2,
3,
2,
2,
0,
1,
0,
0,
1,
0,
3,
2,
0,
3,
1,
0,
0,
0,
1,
0,
2,
2,
0,
1,
0,
1,
1,
1,
0,
1,
2,
0,
0,
1,
1,
1,
0,
0,
0,
1,
0,
2,
2,
1,
3,
1,
3,
1,
0,
2,
1,
1,
0,
0,
1,
1,
2,
0,
0,
3,
2,
0,
0,
1,
0,
0,
2,
0,
0,
2,
0,
1,
1,
0,
0,
0,
1,
0,
0,
0,
0,
0,
0,
2,
0,
1,
1,
3,
0,
1,
0,
0,
0,
0,
0,
0,
0,
0,
1,
0,
0,
0,
2,
0,
1,
0,
0,
0,
0,
0,
0,
0,
0,
0,
0,
1,
1,
0,
1,
1,
0,
0,
0,
0,
0,
0,
0,
0,
0,
0,
0,
1,
1,
0,
0,
1,
0,
0,
2,
0,
0,
0,
0,
0,
0,
0,
1,
0,
0,
0,
0,
0,
0,
0,
0,
0,
0,
0,
1,
1,
0,
0,
0,
0,
0,
0,
0,
1,
0,
0,
0,
0,
1,
0,
0,
1,
0,
2,
0,
0,
0,
0,
0,
0,
0,
1,
0,
0,
0,
0,
0,
0,
0,
0,
0,
0,
0,
1,
0,
0,
0,
0,
0,
0,
1,
0,
0,
0,
0,
0,
0,
0,
0,
0,
0,
0,
1,
1,
0,
0,
0,
0,
0,
0,
0,
0,
0,
1,
0,
0,
0,
0,
0,
0,
0,
0,
0,
0,
0,
0,
0,
0,
0,
0,
0,
0,
0,
0,
0,
0,
0,
0,
0,
0,
0,
0,
0,
0,
0,
0,
0,
0,
0,
0,
0,
0,
0,
0,
0,
0,
0,
0,
0,
0,
0,
0,
0,
0,
0,
0,
0,
0,
0,
0,
0,
0,
0,
0,
0,
0,
0,
0,
0,
0,
0,
0,
0,
0,
1,
0,
0,
0,
0,
0,
0,
0,
0,
0,
0,
0,
0,
0,
0,
0,
0,
0,
0,
0,
0,
0,
0,
0,
1,
0,
0,
0,
0,
0,
0,
0,
0,
0,
0,
0,
0,
0,
0,
0,
0,
0,
0,
0,
0,
0,
0,
0,
0,
0,
0,
0,
0,
0,
0,
0,
0,
0,
0,
0,
0,
0,
0,
0,
0,
0,
0,
0,
0,
0,
0,
0,
0,
0,
0,
0,
1,
0,
0,
0,
0,
0,
0,
0,
0,
0,
0,
0,
0,
0,
0,
0,
0,
0,
0,
0,
0,
0,
0,
0,
0,
0,
0,
0,
0,
0,
0,
0,
0,
0,
0,
0,
0,
0,
0,
0,
0,
0,
0,
0,
0,
0,
0,
0,
0,
0,
0,
0,
0,
0,
0,
0,
0,
0,
0,
0,
0,
0,
0,
0,
0,
0,
0,
0,
0,
0,
0,
0,
0,
0,
0,
0,
0,
0,
0,
0,
0,
0,
0,
0,
0,
0,
0,
0,
0,
0,
0,
0,
0,
0,
0,
0,
0,
0,
0,
0,
0,
0,
0,
0,
0,
0,
0,
0,
0,
0,
0,
0,
0,
0,
0,
0,
0,
0,
0,
0,
0,
0,
0,
0,
0,
0,
0,
0,
0,
0,
0,
0,
0,
0,
0,
0,
0,
0,
0,
0,
0,
0,
0,
0,
0,
0,
0,
0,
0,
0,
0,
0,
0,
0,
0,
0,
0,
0,
0,
0,
0,
0,
0,
0,
0,
0,
0,
0,
0,
0,
0,
0,
0,
0,
0,
0,
0,
0,
0,
0,
0,
0,
0,
0,
0,
0,
0,
0,
0,
0,
0,
0,
0,
0,
0,
0,
0,
0,
0,
0,
0,
0,
0,
0,
0,
0,
0,
#ENDOFDATA   :