File: N132962/Quantification/20 keV/MMM2/SPI MM2 SPI Obsidian[3][4].msa
#FORMAT      : EMSA/MAS Spectral Data File
#VERSION     : 1.0
#TITLE       : SPI MM2 SPI Obsidian[3][all]
#DATE        : 13-MAR-2025
#TIME        : 09:58
#OWNER       : Unknown
#NPOINTS     : 4096
#NCOLUMNS    : 1
#XUNITS      : eV
#YUNITS      : counts
#DATATYPE    : Y
#XPERCHAN    : 9.99778
#OFFSET      : 1.69135
#BEAMKV      : 20
#SIGNALTYPE  : EDS
#ELEVANGLE   : 35
#AZIMANGLE   : 0
#LIVETIME    : 239.865
#REALTIME    : 256.298
#PROBECUR    : 1.02627
#TAUWIND     : 0
#TDEADLYR    : 0
#TACTLYR     : 0.045
#TALWIND     : 0.025
#CHOFFSET    : 0.0
#XLABEL      : Energy (eV)
#YLABEL      : Counts
#XPOSITION   : 0.00236
#YPOSITION   : -3.00336
#ZPOSITION   : 31.03509
#EDSDET      : SD
##SPECIMEN   : SPI MM2 SPI Obsidian[3][all]
##D2STDCMP   : SPI Obsidian,(O:49.01),(Na:2.77),(Mg:0.06),(Al:6.9),(Si:35.66),(K:3.58),(Ca:0.63),(Ti:0.06),(Mn:0.04),(Fe:0.59),5.0
##DET_HASH   : 12273538-fd48-a23f-0a19-f1e6fa85caef
##CALIB_HASH : 6abaa72c-aa41-8738-0be9-f592914732f3
##WORKING    : 15.0 mm
##DET_NAME   : EDAX All
##DET_MODE   : MediumLE
#SPECTRUM    :
23,
24,
7,
16,
74,
291,
783,
2749,
7470,
9863,
5064,
2477,
2429,
3192,
5570,
21644,
88368,
173494,
127090,
32934,
4570,
1873,
2096,
2515,
2583,
2336,
2382,
2459,
2687,
2692,
2911,
3184,
4210,
8567,
17337,
18897,
10787,
5021,
3734,
3565,
3907,
4287,
4646,
4525,
4642,
4816,
5584,
11083,
31384,
60964,
62136,
33558,
13499,
7220,
7376,
21318,
88852,
230359,
314462,
222602,
87740,
28799,
12023,
5548,
2961,
2335,
2344,
2273,
2206,
2189,
2244,
2141,
2279,
2362,
2794,
2914,
2797,
2567,
2357,
2291,
2141,
2321,
2291,
2234,
2239,
2236,
2324,
2272,
2294,
2252,
2220,
2223,
2268,
2350,
2207,
2121,
2254,
2172,
2149,
2131,
2150,
2184,
2114,
2073,
2069,
2296,
2592,
3653,
6322,
12034,
17782,
17893,
12085,
6180,
3208,
2633,
2624,
2899,
3240,
3881,
4079,
4290,
4453,
4565,
3959,
2947,
2191,
1860,
1742,
1800,
1792,
1830,
1778,
1943,
1961,
1882,
1676,
1591,
1592,
1588,
1510,
1549,
1589,
1578,
1515,
1597,
1552,
1568,
1691,
1815,
1782,
1719,
1553,
1469,
1441,
1404,
1364,
1435,
1347,
1410,
1433,
1356,
1425,
1472,
1467,
1380,
1365,
1307,
1304,
1342,
1308,
1337,
1328,
1233,
1283,
1209,
1187,
1142,
1241,
1237,
1203,
1120,
1223,
1111,
1137,
1176,
1113,
1108,
1085,
1099,
1102,
1088,
1105,
1023,
1068,
1131,
1121,
1113,
1055,
1039,
988,
1034,
1017,
948,
915,
969,
976,
1006,
920,
1101,
1280,
1521,
1946,
2145,
2024,
1696,
1357,
1060,
977,
877,
896,
861,
861,
845,
847,
897,
812,
793,
849,
822,
784,
794,
859,
854,
921,
937,
917,
865,
827,
793,
745,
729,
729,
726,
713,
699,
683,
677,
734,
784,
738,
710,
692,
694,
688,
669,
613,
644,
645,
627,
621,
660,
631,
654,
672,
631,
616,
614,
629,
579,
596,
604,
607,
598,
582,
593,
564,
556,
563,
547,
525,
584,
511,
554,
549,
499,
559,
510,
526,
521,
564,
567,
511,
462,
465,
512,
476,
460,
485,
523,
477,
522,
457,
449,
449,
431,
451,
453,
436,
453,
415,
410,
405,
430,
408,
431,
440,
380,
432,
447,
439,
398,
390,
348,
452,
372,
405,
407,
397,
405,
341,
380,
383,
391,
336,
389,
352,
373,
379,
366,
369,
370,
339,
357,
385,
364,
336,
356,
359,
344,
326,
329,
288,
337,
358,
336,
326,
292,
288,
315,
296,
302,
310,
332,
297,
296,
321,
270,
284,
275,
286,
292,
253,
293,
265,
293,
271,
250,
283,
276,
250,
242,
253,
208,
265,
257,
241,
240,
245,
214,
232,
228,
226,
244,
200,
220,
249,
227,
226,
223,
213,
186,
197,
210,
196,
187,
193,
214,
219,
196,
202,
179,
174,
180,
197,
181,
164,
169,
175,
178,
160,
190,
174,
191,
154,
156,
170,
187,
154,
169,
165,
148,
151,
150,
153,
134,
145,
146,
140,
144,
145,
132,
135,
135,
153,
138,
129,
133,
144,
141,
139,
118,
114,
112,
122,
131,
110,
132,
129,
119,
112,
112,
134,
121,
84,
107,
101,
112,
112,
109,
100,
103,
107,
90,
90,
89,
102,
90,
87,
94,
97,
87,
86,
87,
77,
85,
85,
79,
67,
66,
98,
93,
88,
70,
86,
89,
89,
88,
71,
65,
80,
76,
73,
70,
68,
72,
60,
60,
78,
60,
62,
87,
67,
62,
52,
55,
64,
58,
63,
54,
64,
52,
62,
49,
47,
49,
45,
53,
58,
51,
45,
36,
58,
48,
45,
46,
47,
39,
43,
41,
52,
50,
37,
33,
35,
43,
31,
35,
37,
45,
30,
36,
44,
31,
26,
36,
32,
35,
32,
38,
26,
24,
23,
38,
28,
27,
38,
22,
29,
25,
32,
30,
22,
19,
24,
24,
21,
18,
18,
16,
23,
18,
20,
27,
28,
30,
24,
25,
19,
15,
20,
15,
16,
21,
19,
13,
13,
16,
17,
13,
14,
17,
12,
13,
11,
9,
15,
12,
13,
13,
9,
7,
13,
7,
8,
8,
11,
8,
5,
8,
7,
12,
5,
10,
7,
3,
4,
7,
7,
10,
4,
4,
3,
10,
3,
11,
3,
4,
2,
6,
5,
5,
5,
6,
5,
5,
4,
3,
4,
2,
3,
1,
0,
0,
1,
4,
2,
0,
0,
1,
3,
3,
1,
1,
1,
0,
0,
1,
0,
0,
0,
1,
0,
1,
0,
1,
0,
0,
0,
0,
0,
1,
0,
0,
0,
0,
0,
0,
0,
0,
0,
0,
0,
0,
0,
0,
0,
0,
0,
0,
0,
0,
0,
1,
1,
0,
0,
0,
0,
0,
0,
0,
0,
0,
0,
0,
1,
0,
0,
1,
0,
0,
0,
0,
0,
0,
0,
0,
0,
0,
0,
0,
0,
0,
0,
0,
0,
0,
0,
0,
0,
0,
0,
0,
0,
0,
0,
0,
0,
0,
0,
0,
0,
0,
0,
0,
0,
0,
0,
0,
0,
0,
0,
0,
0,
0,
0,
0,
0,
0,
0,
0,
0,
0,
0,
0,
0,
0,
1,
0,
0,
0,
0,
0,
0,
0,
0,
0,
0,
0,
0,
0,
0,
0,
0,
0,
0,
0,
0,
0,
0,
0,
0,
0,
0,
0,
0,
0,
0,
0,
0,
0,
0,
0,
0,
0,
0,
0,
0,
1,
0,
0,
0,
0,
0,
0,
0,
0,
0,
0,
0,
0,
0,
0,
0,
0,
0,
0,
0,
0,
0,
0,
0,
0,
0,
0,
0,
0,
0,
0,
0,
0,
0,
0,
0,
0,
0,
0,
0,
0,
0,
0,
0,
0,
0,
0,
0,
0,
0,
0,
0,
0,
0,
0,
0,
0,
0,
0,
0,
0,
0,
0,
0,
0,
0,
0,
0,
0,
0,
0,
1,
0,
0,
0,
0,
1,
0,
0,
0,
0,
0,
0,
0,
0,
0,
0,
0,
0,
0,
0,
0,
0,
0,
0,
0,
0,
0,
0,
0,
0,
0,
0,
0,
0,
0,
0,
0,
0,
0,
0,
0,
0,
0,
0,
0,
0,
0,
0,
0,
0,
0,
0,
0,
0,
0,
0,
0,
0,
0,
0,
0,
0,
0,
0,
0,
0,
0,
0,
0,
0,
0,
0,
0,
0,
0,
0,
0,
0,
0,
0,
0,
0,
0,
0,
0,
0,
0,
0,
0,
0,
0,
0,
0,
0,
0,
0,
0,
0,
0,
0,
0,
0,
0,
0,
0,
0,
0,
0,
0,
0,
0,
0,
0,
0,
0,
0,
0,
0,
0,
0,
0,
0,
0,
0,
0,
0,
0,
0,
0,
0,
0,
0,
0,
0,
0,
0,
0,
0,
0,
0,
0,
0,
0,
0,
0,
0,
0,
0,
0,
0,
0,
0,
0,
0,
0,
0,
0,
0,
0,
0,
0,
0,
0,
0,
0,
0,
0,
0,
0,
0,
0,
0,
0,
0,
0,
0,
0,
0,
0,
0,
0,
0,
0,
0,
0,
0,
0,
0,
0,
0,
0,
0,
0,
0,
0,
0,
0,
0,
0,
0,
0,
0,
0,
0,
0,
0,
0,
0,
0,
0,
0,
0,
0,
0,
0,
0,
0,
0,
0,
0,
0,
0,
0,
0,
0,
0,
0,
0,
0,
0,
0,
0,
0,
0,
0,
0,
0,
0,
0,
0,
0,
0,
0,
0,
0,
0,
0,
0,
0,
0,
0,
0,
0,
0,
0,
0,
0,
0,
0,
0,
0,
0,
0,
0,
0,
0,
0,
0,
0,
0,
0,
0,
0,
0,
0,
0,
0,
0,
0,
0,
0,
0,
0,
0,
0,
0,
0,
0,
0,
0,
0,
0,
0,
0,
0,
0,
0,
0,
0,
0,
0,
0,
0,
0,
0,
0,
0,
0,
0,
0,
0,
0,
0,
0,
0,
0,
0,
0,
0,
0,
0,
0,
0,
0,
0,
0,
0,
0,
0,
0,
0,
0,
0,
0,
0,
0,
0,
0,
0,
0,
0,
0,
0,
0,
0,
0,
0,
0,
0,
0,
0,
0,
0,
0,
0,
0,
0,
0,
0,
0,
0,
0,
0,
0,
0,
0,
0,
0,
0,
0,
0,
0,
0,
0,
0,
0,
0,
0,
0,
0,
0,
0,
0,
0,
0,
0,
0,
0,
0,
0,
0,
0,
0,
0,
0,
0,
0,
0,
0,
0,
0,
0,
0,
0,
0,
0,
0,
0,
0,
0,
0,
0,
0,
0,
0,
0,
0,
0,
0,
0,
0,
0,
0,
0,
0,
0,
0,
0,
0,
0,
0,
0,
0,
0,
0,
0,
0,
0,
0,
0,
0,
0,
0,
0,
0,
0,
0,
0,
0,
0,
0,
0,
0,
0,
0,
0,
0,
0,
0,
0,
0,
0,
0,
0,
0,
0,
0,
0,
0,
0,
0,
0,
0,
0,
0,
0,
#ENDOFDATA   :