File: N132962/Quantification/20 keV/MMM2/SPI MM2 SPI Plagioclase[7][4].msa
#FORMAT      : EMSA/MAS Spectral Data File
#VERSION     : 1.0
#TITLE       : SPI MM2 SPI Plagioclase[7][all]
#DATE        : 13-MAR-2025
#TIME        : 10:58
#OWNER       : Unknown
#NPOINTS     : 4096
#NCOLUMNS    : 1
#XUNITS      : eV
#YUNITS      : counts
#DATATYPE    : Y
#XPERCHAN    : 9.99778
#OFFSET      : 1.69135
#BEAMKV      : 20
#SIGNALTYPE  : EDS
#ELEVANGLE   : 35
#AZIMANGLE   : 0
#LIVETIME    : 239.841
#REALTIME    : 255.41
#PROBECUR    : 1.02609
#TAUWIND     : 0
#TDEADLYR    : 0
#TACTLYR     : 0.045
#TALWIND     : 0.025
#CHOFFSET    : 0.0
#XLABEL      : Energy (eV)
#YLABEL      : Counts
#XPOSITION   : -1.36264
#YPOSITION   : -0.29886
#ZPOSITION   : 31.0351
#EDSDET      : SD
##SPECIMEN   : SPI MM2 SPI Plagioclase[7][all]
##D2STDCMP   : SPI Plagioclase,(O:46.79),(Na:3.24),(Al:15.54),(Si:24.83),(K:0.2),(Ca:8.53),(Fe:0.27)
##DET_HASH   : 12273538-fd48-a23f-0a19-f1e6fa85caef
##CALIB_HASH : 6abaa72c-aa41-8738-0be9-f592914732f3
##WORKING    : 15.0 mm
##DET_NAME   : EDAX All
##DET_MODE   : MediumLE
#SPECTRUM    :
30,
32,
9,
19,
86,
268,
837,
2466,
7677,
10428,
5884,
3128,
2620,
2953,
4864,
18250,
72285,
143441,
105296,
27673,
3956,
1751,
1935,
2204,
2316,
2250,
2362,
2445,
2723,
2842,
3024,
3264,
4403,
9268,
19039,
20858,
12034,
5313,
3928,
3792,
4012,
4490,
4699,
4808,
4924,
5225,
6977,
19199,
64460,
129936,
131539,
68062,
22647,
8393,
6191,
14344,
55427,
143540,
193958,
136889,
55666,
19077,
8850,
4748,
3162,
2930,
2767,
2691,
2550,
2465,
2313,
2211,
2323,
2491,
2617,
2817,
2696,
2585,
2411,
2371,
2407,
2445,
2351,
2479,
2323,
2471,
2296,
2411,
2326,
2366,
2313,
2217,
2317,
2416,
2364,
2213,
2249,
2388,
2347,
2300,
2346,
2268,
2268,
2215,
2166,
2227,
2369,
2605,
2796,
3276,
3595,
3621,
2987,
2386,
2246,
2273,
2285,
2471,
2671,
3876,
7561,
18062,
32165,
40375,
34069,
19865,
8475,
3502,
2294,
1998,
2237,
2974,
4447,
5887,
6536,
5302,
3526,
2358,
1806,
1720,
1644,
1652,
1634,
1601,
1490,
1558,
1538,
1481,
1547,
1566,
1617,
1612,
1588,
1527,
1429,
1451,
1489,
1390,
1480,
1378,
1418,
1360,
1323,
1326,
1386,
1374,
1372,
1283,
1334,
1306,
1292,
1313,
1339,
1302,
1333,
1257,
1176,
1221,
1198,
1244,
1270,
1331,
1285,
1195,
1207,
1167,
1167,
1134,
1175,
1152,
1164,
1053,
1070,
1175,
1060,
1134,
1037,
1071,
1034,
1063,
1061,
1009,
1053,
999,
1048,
1018,
1005,
969,
1038,
1095,
1123,
1266,
1354,
1508,
1461,
1306,
1129,
1035,
954,
932,
891,
870,
874,
872,
883,
860,
797,
858,
854,
837,
849,
836,
874,
847,
869,
896,
916,
845,
827,
795,
763,
806,
810,
767,
743,
780,
789,
755,
789,
762,
747,
748,
699,
696,
683,
722,
726,
657,
694,
670,
625,
712,
611,
649,
634,
644,
643,
684,
625,
652,
597,
653,
597,
682,
606,
602,
624,
566,
625,
562,
582,
556,
572,
527,
522,
579,
546,
495,
573,
562,
533,
545,
523,
528,
507,
513,
502,
477,
473,
470,
497,
503,
463,
488,
469,
478,
470,
464,
441,
472,
461,
461,
451,
432,
449,
469,
492,
464,
436,
427,
435,
420,
463,
426,
458,
401,
401,
443,
395,
445,
396,
399,
386,
392,
391,
338,
388,
391,
333,
350,
411,
364,
363,
366,
354,
406,
347,
369,
349,
360,
338,
319,
330,
336,
289,
332,
330,
354,
317,
314,
308,
323,
346,
296,
298,
306,
321,
301,
327,
290,
260,
288,
337,
286,
284,
259,
324,
278,
261,
261,
290,
245,
233,
247,
264,
265,
257,
247,
262,
243,
234,
238,
218,
240,
250,
226,
242,
221,
224,
228,
220,
226,
216,
230,
187,
206,
199,
251,
208,
189,
199,
189,
212,
176,
219,
200,
197,
185,
179,
178,
163,
167,
164,
168,
165,
197,
203,
169,
181,
169,
154,
157,
177,
169,
151,
174,
138,
176,
165,
141,
148,
153,
138,
129,
124,
129,
144,
152,
139,
137,
130,
120,
126,
155,
117,
138,
141,
123,
121,
131,
134,
127,
108,
134,
102,
115,
102,
105,
107,
106,
111,
118,
100,
104,
102,
106,
112,
108,
94,
105,
96,
94,
91,
101,
98,
102,
88,
85,
94,
79,
80,
82,
75,
68,
82,
69,
75,
72,
64,
81,
78,
69,
71,
75,
65,
76,
71,
82,
76,
59,
76,
56,
72,
74,
73,
61,
62,
55,
61,
71,
56,
50,
71,
61,
51,
43,
51,
65,
54,
56,
68,
39,
54,
48,
47,
54,
53,
42,
42,
38,
28,
48,
30,
37,
47,
38,
43,
43,
57,
40,
38,
36,
47,
28,
33,
28,
39,
37,
36,
24,
40,
34,
25,
36,
26,
33,
28,
30,
29,
20,
30,
19,
28,
18,
35,
28,
23,
30,
22,
25,
22,
17,
26,
29,
15,
20,
26,
19,
15,
19,
17,
24,
19,
19,
17,
18,
23,
10,
13,
13,
13,
18,
9,
12,
13,
13,
10,
12,
18,
8,
6,
19,
10,
16,
17,
11,
11,
14,
10,
12,
6,
9,
6,
10,
7,
4,
4,
10,
14,
7,
3,
7,
10,
7,
5,
4,
7,
3,
6,
4,
4,
3,
7,
4,
2,
1,
2,
7,
3,
5,
3,
4,
5,
4,
1,
2,
3,
1,
2,
0,
0,
0,
0,
1,
0,
0,
1,
0,
1,
0,
0,
1,
0,
0,
1,
0,
1,
0,
0,
0,
0,
0,
0,
0,
0,
0,
0,
0,
0,
0,
0,
0,
0,
0,
0,
0,
1,
0,
0,
0,
0,
0,
0,
0,
0,
1,
0,
0,
0,
0,
0,
0,
0,
0,
0,
0,
0,
0,
0,
0,
1,
0,
0,
0,
0,
0,
0,
0,
0,
0,
0,
0,
0,
0,
0,
0,
0,
0,
0,
0,
0,
0,
0,
0,
0,
0,
0,
0,
0,
0,
0,
0,
1,
0,
0,
0,
0,
0,
0,
0,
0,
0,
0,
0,
0,
0,
0,
0,
0,
0,
0,
0,
0,
0,
0,
0,
0,
0,
0,
0,
0,
0,
0,
0,
0,
0,
0,
0,
0,
0,
0,
0,
0,
0,
0,
0,
0,
0,
0,
0,
0,
0,
0,
0,
0,
0,
0,
0,
0,
0,
0,
0,
0,
0,
0,
0,
0,
0,
0,
0,
0,
0,
0,
0,
0,
0,
0,
0,
0,
0,
0,
0,
0,
0,
0,
0,
0,
0,
0,
0,
0,
0,
0,
0,
0,
0,
0,
0,
0,
0,
0,
0,
0,
0,
0,
0,
0,
0,
0,
0,
0,
0,
0,
0,
0,
0,
0,
0,
0,
0,
0,
0,
0,
0,
0,
0,
0,
0,
0,
0,
0,
0,
0,
0,
0,
0,
0,
0,
0,
0,
0,
0,
0,
0,
0,
0,
0,
0,
0,
0,
0,
0,
0,
0,
0,
0,
0,
0,
0,
0,
0,
0,
0,
0,
0,
0,
0,
0,
0,
0,
0,
0,
0,
0,
0,
0,
0,
0,
0,
0,
0,
0,
0,
0,
0,
0,
0,
0,
0,
0,
0,
0,
0,
0,
0,
0,
0,
0,
0,
0,
0,
0,
0,
0,
0,
0,
0,
0,
0,
0,
0,
0,
0,
0,
0,
0,
0,
0,
0,
0,
0,
0,
0,
0,
0,
0,
0,
0,
0,
0,
0,
0,
0,
0,
0,
0,
0,
0,
0,
0,
0,
0,
0,
0,
0,
0,
0,
0,
0,
0,
0,
0,
0,
0,
0,
0,
0,
0,
0,
0,
0,
0,
0,
0,
0,
0,
0,
0,
0,
0,
0,
0,
0,
0,
0,
0,
0,
0,
0,
0,
0,
0,
0,
0,
0,
0,
0,
0,
0,
0,
0,
0,
0,
0,
0,
0,
0,
0,
0,
0,
0,
0,
0,
0,
0,
0,
0,
0,
0,
0,
0,
0,
0,
0,
0,
0,
0,
0,
0,
0,
0,
0,
0,
0,
0,
0,
0,
0,
0,
0,
0,
0,
0,
0,
0,
0,
0,
0,
0,
0,
0,
0,
0,
0,
0,
0,
0,
0,
0,
0,
0,
0,
0,
0,
0,
0,
0,
0,
0,
0,
0,
0,
0,
0,
0,
0,
0,
0,
0,
0,
0,
0,
0,
0,
0,
0,
0,
0,
0,
0,
0,
0,
0,
0,
0,
0,
0,
0,
0,
0,
0,
0,
0,
0,
0,
0,
0,
0,
0,
0,
0,
0,
0,
0,
0,
0,
0,
0,
0,
0,
0,
0,
0,
0,
0,
0,
0,
0,
0,
0,
0,
0,
0,
0,
0,
0,
0,
0,
0,
0,
0,
0,
0,
0,
0,
0,
0,
0,
0,
0,
0,
0,
0,
0,
0,
0,
0,
0,
0,
0,
0,
0,
0,
0,
0,
0,
0,
0,
0,
0,
0,
0,
0,
0,
0,
0,
0,
0,
0,
0,
0,
0,
0,
0,
0,
0,
0,
0,
0,
0,
0,
0,
0,
0,
0,
0,
0,
0,
0,
0,
0,
0,
0,
0,
0,
0,
0,
0,
0,
0,
0,
0,
0,
0,
0,
0,
0,
0,
0,
0,
0,
0,
0,
0,
0,
0,
0,
0,
0,
0,
0,
0,
0,
0,
0,
0,
0,
0,
0,
0,
0,
0,
0,
0,
0,
0,
0,
0,
0,
0,
0,
0,
0,
0,
0,
0,
0,
0,
0,
0,
0,
0,
0,
0,
0,
0,
0,
0,
0,
0,
0,
0,
0,
0,
0,
0,
0,
0,
0,
0,
0,
0,
0,
0,
0,
0,
0,
0,
0,
0,
0,
0,
0,
0,
0,
0,
0,
0,
0,
0,
0,
0,
0,
0,
0,
0,
0,
0,
0,
0,
0,
0,
0,
0,
0,
0,
0,
0,
0,
0,
0,
0,
0,
0,
0,
0,
#ENDOFDATA   :