File: N132962/Quantification/20 keV/MMM2/SPI MM2 SPI Magnetite[5][4].msa
#FORMAT      : EMSA/MAS Spectral Data File
#VERSION     : 1.0
#TITLE       : SPI MM2 SPI Magnetite[5][all]
#DATE        : 13-MAR-2025
#TIME        : 09:23
#OWNER       : Unknown
#NPOINTS     : 4096
#NCOLUMNS    : 1
#XUNITS      : eV
#YUNITS      : counts
#DATATYPE    : Y
#XPERCHAN    : 9.99778
#OFFSET      : 1.69135
#BEAMKV      : 20
#SIGNALTYPE  : EDS
#ELEVANGLE   : 35
#AZIMANGLE   : 0
#LIVETIME    : 239.801
#REALTIME    : 256.752
#PROBECUR    : 1.02582
#TAUWIND     : 0
#TDEADLYR    : 0
#TACTLYR     : 0.045
#TALWIND     : 0.025
#CHOFFSET    : 0.0
#XLABEL      : Energy (eV)
#YLABEL      : Counts
#XPOSITION   : 3.90618
#YPOSITION   : -4.16192
#ZPOSITION   : 31.03509
#EDSDET      : SD
##SPECIMEN   : SPI MM2 SPI Magnetite[5][all]
##D2STDCMP   : SPI Magnetite,(O:27.53),(Si:0.01),(Mn:0.18),(Fe:71.88)
##DET_HASH   : 12273538-fd48-a23f-0a19-f1e6fa85caef
##CALIB_HASH : 6abaa72c-aa41-8738-0be9-f592914732f3
##WORKING    : 15.0 mm
##DET_NAME   : EDAX All
##DET_MODE   : MediumLE
#SPECTRUM    :
21,
43,
9,
15,
107,
438,
1344,
3906,
10337,
13521,
7725,
4761,
5208,
6240,
9492,
27270,
95159,
181255,
133623,
43695,
24120,
22872,
30451,
49754,
42831,
16849,
4927,
2864,
2339,
2117,
2083,
2085,
2210,
2450,
2573,
2787,
2739,
2803,
2914,
3018,
3098,
3354,
3397,
3468,
3523,
3560,
3597,
3839,
4181,
4217,
4483,
4270,
4180,
4247,
4452,
4445,
4685,
4848,
5045,
5027,
4978,
4727,
4540,
4310,
4241,
4374,
4280,
4348,
4382,
4395,
4394,
4410,
4327,
4352,
4389,
4435,
4548,
4429,
4364,
4433,
4404,
4398,
4348,
4234,
4400,
4347,
4335,
4244,
4312,
4355,
4212,
4177,
4142,
4194,
4125,
4069,
4048,
4075,
4030,
3962,
3896,
3946,
3882,
3981,
3868,
3825,
3842,
3881,
3760,
3829,
3769,
3767,
3714,
3597,
3637,
3602,
3673,
3562,
3422,
3580,
3451,
3550,
3384,
3400,
3476,
3485,
3343,
3258,
3303,
3309,
3252,
3111,
3063,
3108,
3161,
3158,
3199,
3110,
3149,
3007,
3092,
2997,
3021,
2965,
2871,
2890,
2907,
2912,
3017,
2940,
2984,
2982,
3044,
3052,
3308,
3323,
3121,
2880,
2862,
2669,
2668,
2684,
2637,
2684,
2694,
2651,
2561,
2497,
2474,
2503,
2445,
2526,
2444,
2537,
2352,
2554,
2449,
2478,
2410,
2355,
2400,
2342,
2351,
2238,
2281,
2248,
2205,
2246,
2288,
2143,
2132,
2115,
2197,
2212,
2372,
2453,
2743,
2643,
2600,
2263,
2164,
2156,
2180,
2112,
2270,
2363,
2571,
3228,
6129,
14748,
36286,
73256,
115997,
141674,
133202,
95198,
52950,
23182,
8738,
3607,
2303,
1921,
1936,
1864,
1832,
1890,
1880,
2005,
2260,
2517,
3260,
4726,
7930,
12700,
17469,
19622,
17824,
12961,
7873,
4255,
2436,
1582,
1351,
1288,
1164,
1251,
1216,
1290,
1297,
1284,
1300,
1280,
1286,
1273,
1178,
1233,
1214,
1143,
1120,
1169,
1128,
1099,
1151,
1122,
1088,
1134,
1133,
1101,
1109,
1107,
1037,
1098,
1065,
1090,
1043,
1118,
1139,
1046,
1041,
984,
1044,
1012,
1068,
1000,
1023,
1037,
1015,
1003,
995,
1004,
988,
1065,
965,
939,
954,
974,
975,
974,
941,
943,
911,
879,
977,
912,
888,
982,
894,
915,
874,
929,
856,
869,
892,
890,
881,
885,
852,
862,
833,
837,
837,
835,
808,
815,
762,
860,
802,
790,
780,
794,
753,
747,
795,
744,
794,
754,
743,
738,
751,
744,
699,
734,
695,
662,
660,
651,
657,
697,
695,
698,
701,
697,
687,
656,
677,
651,
660,
662,
678,
643,
678,
556,
576,
638,
595,
602,
616,
602,
578,
584,
576,
586,
533,
538,
614,
537,
607,
541,
583,
536,
574,
530,
540,
531,
520,
515,
486,
530,
506,
527,
476,
493,
522,
528,
446,
485,
500,
461,
491,
422,
444,
445,
433,
407,
454,
429,
409,
469,
438,
444,
428,
411,
383,
423,
398,
402,
387,
386,
379,
384,
404,
402,
406,
409,
410,
422,
426,
464,
453,
402,
393,
361,
378,
364,
361,
325,
346,
311,
303,
328,
295,
307,
339,
330,
300,
311,
345,
331,
313,
332,
326,
315,
301,
288,
300,
278,
250,
289,
282,
284,
274,
278,
254,
281,
269,
241,
235,
231,
256,
217,
241,
242,
237,
243,
243,
240,
222,
221,
229,
219,
195,
221,
200,
209,
184,
191,
193,
207,
184,
205,
206,
160,
182,
159,
169,
201,
161,
168,
187,
176,
166,
179,
166,
162,
182,
168,
151,
136,
136,
157,
145,
136,
151,
146,
145,
150,
134,
131,
122,
133,
113,
127,
123,
119,
129,
105,
148,
135,
123,
126,
123,
113,
126,
102,
114,
115,
108,
119,
109,
109,
100,
81,
102,
112,
99,
92,
96,
105,
97,
90,
98,
78,
89,
100,
93,
92,
76,
80,
78,
90,
81,
76,
74,
68,
69,
82,
65,
65,
58,
72,
51,
71,
70,
58,
64,
66,
60,
66,
54,
52,
51,
37,
65,
47,
53,
54,
43,
45,
49,
63,
57,
50,
53,
46,
43,
30,
38,
47,
51,
44,
35,
32,
36,
26,
47,
25,
30,
34,
37,
34,
37,
26,
31,
25,
31,
27,
26,
28,
31,
24,
24,
20,
25,
20,
18,
28,
14,
16,
25,
21,
21,
20,
13,
11,
12,
7,
14,
21,
17,
11,
13,
7,
16,
13,
9,
8,
10,
12,
6,
6,
4,
5,
5,
6,
12,
6,
3,
6,
8,
5,
3,
2,
3,
0,
2,
1,
3,
1,
0,
1,
3,
3,
0,
1,
2,
1,
0,
0,
0,
1,
1,
2,
0,
0,
1,
0,
0,
0,
2,
0,
0,
0,
0,
1,
1,
1,
2,
2,
3,
1,
0,
2,
0,
0,
0,
0,
0,
1,
0,
0,
0,
0,
0,
1,
1,
1,
0,
1,
3,
0,
1,
1,
0,
1,
1,
0,
1,
3,
0,
0,
1,
0,
0,
0,
1,
1,
0,
0,
4,
0,
0,
1,
3,
0,
0,
1,
0,
0,
0,
0,
0,
0,
0,
0,
2,
0,
0,
0,
2,
2,
0,
0,
0,
0,
1,
2,
0,
0,
0,
0,
0,
2,
1,
0,
0,
1,
0,
0,
0,
0,
0,
0,
0,
0,
0,
2,
1,
0,
0,
1,
1,
1,
0,
0,
0,
0,
0,
0,
0,
1,
0,
0,
1,
0,
0,
0,
0,
0,
0,
0,
0,
0,
1,
0,
0,
1,
0,
0,
0,
0,
0,
1,
0,
0,
0,
0,
0,
0,
0,
0,
0,
0,
1,
0,
0,
0,
0,
1,
0,
2,
0,
0,
0,
0,
0,
0,
0,
0,
0,
0,
0,
0,
0,
0,
2,
0,
0,
0,
0,
0,
0,
0,
0,
0,
0,
0,
0,
0,
0,
0,
0,
0,
0,
0,
0,
0,
1,
0,
0,
0,
0,
0,
0,
0,
0,
0,
1,
0,
0,
0,
0,
0,
0,
0,
0,
0,
0,
0,
0,
0,
0,
0,
0,
0,
0,
0,
0,
0,
0,
0,
1,
0,
0,
0,
0,
0,
0,
0,
0,
0,
0,
0,
0,
0,
0,
0,
0,
0,
0,
0,
0,
0,
0,
0,
0,
0,
0,
0,
0,
0,
0,
0,
0,
0,
0,
0,
0,
0,
0,
0,
0,
0,
0,
0,
0,
0,
0,
0,
0,
0,
0,
0,
0,
0,
0,
0,
0,
0,
0,
0,
0,
0,
0,
0,
0,
0,
0,
0,
0,
0,
0,
0,
0,
0,
0,
0,
0,
0,
0,
0,
0,
0,
0,
0,
0,
0,
0,
0,
0,
0,
0,
0,
0,
0,
0,
0,
0,
0,
0,
0,
0,
0,
0,
0,
0,
0,
0,
0,
0,
0,
0,
0,
0,
0,
0,
0,
0,
0,
0,
0,
0,
0,
0,
0,
0,
0,
0,
0,
0,
0,
0,
0,
0,
0,
0,
0,
0,
0,
0,
0,
0,
0,
0,
0,
0,
0,
0,
0,
0,
0,
0,
0,
0,
0,
0,
0,
0,
0,
0,
0,
0,
0,
0,
0,
0,
0,
0,
0,
0,
0,
0,
0,
0,
0,
0,
0,
0,
0,
0,
0,
0,
0,
0,
0,
0,
0,
0,
0,
0,
0,
0,
0,
0,
0,
0,
0,
0,
0,
0,
0,
0,
0,
0,
0,
0,
0,
0,
0,
0,
0,
0,
0,
0,
0,
0,
0,
0,
0,
0,
0,
0,
0,
0,
0,
0,
0,
0,
0,
0,
0,
0,
0,
0,
0,
0,
0,
0,
0,
0,
0,
0,
0,
0,
0,
0,
0,
0,
0,
0,
0,
0,
0,
0,
0,
0,
0,
0,
0,
0,
0,
0,
0,
0,
0,
0,
0,
0,
0,
0,
0,
0,
0,
0,
0,
0,
0,
0,
0,
0,
0,
0,
0,
0,
0,
0,
0,
0,
0,
0,
0,
0,
0,
0,
0,
0,
0,
0,
0,
0,
0,
0,
0,
0,
0,
0,
0,
0,
0,
0,
0,
0,
0,
0,
0,
0,
0,
0,
0,
0,
0,
0,
0,
0,
0,
0,
0,
0,
0,
0,
0,
0,
0,
0,
0,
0,
0,
0,
0,
0,
0,
0,
0,
0,
0,
0,
0,
0,
0,
0,
0,
0,
0,
0,
0,
0,
0,
0,
0,
0,
0,
0,
0,
0,
0,
0,
0,
0,
0,
0,
0,
0,
0,
0,
0,
0,
0,
0,
0,
0,
0,
0,
0,
0,
0,
0,
0,
0,
0,
0,
0,
0,
0,
0,
0,
0,
0,
0,
0,
0,
0,
0,
0,
0,
0,
0,
0,
0,
0,
0,
0,
0,
0,
0,
0,
0,
0,
0,
0,
0,
0,
0,
0,
0,
0,
0,
0,
0,
0,
0,
0,
0,
0,
0,
0,
0,
0,
0,
0,
0,
0,
0,
0,
0,
0,
0,
0,
0,
0,
0,
0,
0,
0,
0,
0,
0,
0,
#ENDOFDATA   :