File: N132962/Quantification/20 keV/MMM2/SPI MM2 SPI Mangotantalite[0][4].msa
#FORMAT      : EMSA/MAS Spectral Data File
#VERSION     : 1.0
#TITLE       : SPI MM2 SPI Mangotantalite[0][all]
#DATE        : 13-MAR-2025
#TIME        : 09:36
#OWNER       : Unknown
#NPOINTS     : 4096
#NCOLUMNS    : 1
#XUNITS      : eV
#YUNITS      : counts
#DATATYPE    : Y
#XPERCHAN    : 9.99778
#OFFSET      : 1.69135
#BEAMKV      : 20
#SIGNALTYPE  : EDS
#ELEVANGLE   : 35
#AZIMANGLE   : 0
#LIVETIME    : 239.813
#REALTIME    : 261.937
#PROBECUR    : 1.02582
#TAUWIND     : 0
#TDEADLYR    : 0
#TACTLYR     : 0.045
#TALWIND     : 0.025
#CHOFFSET    : 0.0
#XLABEL      : Energy (eV)
#YLABEL      : Counts
#XPOSITION   : -1.62748
#YPOSITION   : -4.64465
#ZPOSITION   : 31.03509
#EDSDET      : SD
##SPECIMEN   : SPI MM2 SPI Mangotantalite[0][all]
##DET_HASH   : 12273538-fd48-a23f-0a19-f1e6fa85caef
##CALIB_HASH : 6abaa72c-aa41-8738-0be9-f592914732f3
##WORKING    : 15.0 mm
##DET_NAME   : EDAX All
##DET_MODE   : MediumLE
#SPECTRUM    :
23,
31,
7,
29,
239,
1147,
2972,
6193,
13559,
16641,
8926,
4639,
4241,
4852,
6145,
11718,
34034,
63649,
48429,
17058,
9147,
10897,
9858,
8234,
7123,
5652,
5248,
5427,
5852,
5887,
6045,
6027,
6272,
6605,
6896,
6959,
7047,
7389,
7432,
7556,
8009,
8602,
10277,
14988,
19686,
18107,
13575,
10485,
9903,
9655,
9806,
9856,
10366,
12549,
21514,
58643,
137927,
197849,
176927,
113004,
56051,
21135,
9166,
7708,
8961,
9894,
9488,
7879,
6901,
7622,
12315,
22093,
30473,
28441,
22217,
18352,
15293,
11213,
8568,
6686,
5768,
5237,
4901,
4705,
4843,
4677,
4843,
4899,
4999,
5153,
5109,
4901,
4643,
4615,
4677,
4750,
4738,
4782,
4799,
4789,
4877,
4805,
4728,
4908,
4796,
4874,
4885,
4743,
4848,
4832,
4934,
4781,
4964,
5036,
5238,
4990,
5155,
4922,
4869,
4851,
4828,
4820,
4669,
4794,
4801,
4819,
4683,
4790,
4697,
4816,
4838,
4661,
4786,
4889,
4773,
4712,
4771,
4702,
4699,
4631,
4797,
4787,
4509,
4558,
4639,
4576,
4557,
4633,
5027,
5312,
5572,
5343,
4967,
4814,
4330,
4378,
4274,
4338,
4284,
4216,
4172,
4254,
4401,
4361,
4353,
4219,
4243,
4150,
4034,
4061,
4081,
4149,
4100,
4009,
4079,
3934,
3973,
4060,
3985,
3911,
3831,
3975,
3844,
3893,
3809,
3832,
3796,
3822,
3853,
3853,
3970,
4059,
5186,
8238,
14115,
22133,
27757,
27196,
21204,
13478,
7548,
4830,
3881,
3639,
3621,
3512,
3532,
3402,
3580,
3790,
4564,
5812,
7501,
8746,
9248,
9068,
8117,
6940,
5542,
4265,
3634,
3251,
3030,
3141,
2982,
3025,
2993,
3023,
2986,
2914,
3068,
2950,
3170,
3206,
3430,
3666,
3669,
4084,
4064,
4094,
3813,
3549,
3311,
2924,
2762,
2804,
2770,
2822,
2976,
2991,
2835,
2867,
2677,
2646,
2606,
2636,
2600,
2627,
2582,
2613,
2629,
2571,
2573,
2607,
2821,
3184,
4347,
6644,
11170,
17009,
23195,
26898,
25622,
20467,
13839,
8089,
4874,
3314,
2708,
2611,
2624,
2567,
2499,
2416,
2331,
2230,
2237,
2255,
2218,
2189,
2159,
2148,
2160,
2042,
2098,
2093,
2152,
1992,
2062,
2073,
2052,
2074,
2167,
2323,
2555,
2978,
3584,
4571,
6143,
8248,
10043,
11236,
10624,
9117,
7151,
5412,
4421,
4097,
4284,
4873,
5622,
6140,
6020,
5361,
4261,
3237,
2541,
2193,
2012,
1885,
1841,
1724,
1703,
1707,
1642,
1636,
1563,
1537,
1534,
1492,
1492,
1554,
1558,
1531,
1447,
1462,
1519,
1424,
1440,
1427,
1480,
1458,
1413,
1503,
1427,
1390,
1437,
1376,
1564,
1739,
2083,
2379,
2714,
2680,
2665,
2393,
1992,
1780,
1479,
1485,
1425,
1457,
1564,
1666,
1682,
1639,
1545,
1536,
1409,
1348,
1298,
1203,
1127,
1191,
1181,
1159,
1184,
1205,
1202,
1148,
1157,
1131,
1059,
1069,
1024,
1052,
1003,
1038,
999,
1005,
966,
961,
1057,
922,
983,
958,
937,
973,
935,
954,
908,
919,
918,
928,
880,
886,
928,
908,
892,
842,
895,
828,
843,
858,
787,
871,
809,
824,
803,
735,
829,
756,
799,
802,
804,
789,
819,
739,
752,
739,
749,
675,
688,
720,
745,
720,
715,
686,
669,
675,
667,
651,
659,
640,
643,
653,
639,
590,
631,
569,
616,
553,
627,
631,
559,
592,
616,
602,
605,
571,
530,
589,
568,
551,
557,
529,
513,
565,
557,
525,
533,
509,
525,
478,
452,
487,
466,
492,
486,
450,
501,
461,
461,
456,
433,
431,
451,
416,
465,
434,
407,
435,
372,
403,
404,
397,
390,
385,
349,
376,
382,
408,
323,
368,
382,
324,
379,
335,
342,
362,
353,
338,
352,
329,
305,
297,
294,
292,
281,
297,
314,
309,
263,
281,
281,
280,
294,
269,
281,
285,
251,
250,
264,
247,
240,
225,
245,
252,
232,
254,
259,
222,
254,
261,
228,
225,
219,
221,
226,
192,
184,
219,
212,
195,
205,
223,
193,
191,
175,
185,
164,
150,
185,
185,
166,
156,
154,
148,
196,
171,
176,
161,
158,
147,
150,
151,
135,
146,
129,
142,
126,
142,
131,
121,
132,
129,
114,
116,
99,
94,
106,
112,
99,
104,
104,
100,
95,
98,
88,
106,
105,
94,
97,
103,
75,
84,
70,
76,
76,
86,
73,
57,
65,
74,
68,
66,
53,
80,
59,
48,
61,
42,
57,
52,
42,
50,
42,
53,
41,
48,
41,
41,
36,
26,
39,
30,
23,
37,
33,
29,
27,
24,
28,
25,
22,
12,
18,
19,
16,
14,
14,
6,
14,
10,
8,
3,
4,
9,
3,
2,
3,
6,
6,
2,
3,
4,
2,
2,
5,
5,
3,
2,
8,
6,
0,
1,
3,
3,
5,
3,
4,
1,
1,
2,
1,
0,
2,
2,
3,
1,
1,
0,
3,
1,
1,
5,
2,
0,
3,
3,
4,
3,
1,
4,
2,
3,
2,
0,
3,
3,
3,
4,
0,
1,
1,
1,
1,
3,
1,
4,
0,
2,
0,
1,
1,
1,
5,
0,
1,
0,
0,
1,
2,
4,
2,
2,
0,
0,
2,
2,
0,
3,
1,
2,
2,
0,
0,
2,
1,
2,
1,
0,
3,
1,
3,
1,
1,
0,
0,
1,
0,
0,
1,
1,
2,
0,
2,
1,
2,
3,
0,
0,
1,
3,
0,
1,
1,
1,
1,
0,
0,
0,
0,
0,
0,
1,
1,
0,
0,
0,
1,
0,
0,
0,
2,
1,
1,
0,
0,
0,
1,
1,
0,
0,
2,
1,
1,
1,
2,
0,
3,
1,
1,
2,
0,
0,
1,
1,
0,
1,
1,
0,
0,
0,
0,
1,
0,
0,
0,
0,
0,
2,
0,
0,
0,
0,
0,
0,
2,
0,
0,
2,
0,
0,
0,
0,
0,
0,
0,
0,
1,
0,
1,
0,
2,
0,
0,
0,
1,
0,
0,
0,
1,
0,
2,
0,
0,
0,
0,
1,
0,
0,
0,
1,
0,
1,
1,
1,
0,
0,
0,
0,
0,
0,
0,
0,
0,
0,
0,
1,
1,
2,
1,
1,
0,
1,
1,
0,
1,
0,
0,
1,
0,
0,
1,
0,
0,
0,
0,
0,
0,
1,
0,
0,
0,
0,
1,
0,
0,
2,
0,
0,
0,
0,
0,
1,
0,
1,
1,
0,
0,
0,
0,
0,
0,
0,
1,
0,
0,
0,
0,
0,
1,
0,
0,
0,
0,
0,
0,
1,
1,
0,
1,
1,
0,
0,
0,
0,
0,
0,
0,
0,
0,
0,
0,
0,
0,
0,
0,
0,
0,
0,
0,
0,
0,
0,
0,
0,
0,
0,
0,
0,
0,
0,
0,
0,
1,
0,
0,
0,
0,
1,
0,
0,
0,
0,
0,
1,
0,
0,
0,
0,
0,
0,
0,
0,
0,
0,
0,
0,
0,
0,
0,
0,
0,
0,
0,
0,
0,
1,
0,
0,
0,
0,
0,
0,
0,
0,
0,
0,
0,
0,
0,
0,
0,
0,
0,
0,
0,
0,
0,
0,
0,
0,
0,
0,
0,
0,
0,
0,
0,
0,
0,
0,
0,
0,
0,
0,
0,
0,
0,
0,
0,
0,
0,
0,
0,
0,
0,
0,
0,
0,
0,
0,
0,
0,
0,
0,
0,
0,
0,
0,
0,
0,
0,
0,
0,
0,
0,
0,
1,
0,
0,
0,
0,
0,
0,
0,
0,
0,
0,
0,
0,
0,
0,
0,
0,
0,
0,
0,
0,
0,
0,
0,
0,
0,
0,
0,
0,
0,
0,
0,
0,
0,
0,
0,
0,
0,
0,
0,
0,
0,
0,
0,
0,
0,
0,
0,
0,
0,
0,
0,
0,
0,
0,
0,
0,
0,
0,
0,
1,
0,
0,
0,
0,
0,
0,
0,
0,
0,
0,
0,
0,
0,
0,
0,
0,
0,
0,
0,
0,
0,
0,
0,
0,
0,
0,
0,
0,
0,
0,
0,
0,
0,
0,
0,
0,
0,
0,
0,
0,
0,
0,
0,
0,
0,
0,
0,
0,
0,
0,
0,
0,
0,
0,
0,
0,
0,
0,
0,
0,
0,
0,
0,
0,
0,
0,
0,
0,
0,
0,
0,
0,
0,
0,
0,
0,
0,
0,
0,
0,
0,
0,
0,
0,
0,
0,
0,
0,
0,
0,
0,
0,
0,
0,
0,
0,
0,
0,
0,
0,
0,
0,
0,
0,
0,
0,
0,
0,
0,
0,
0,
0,
0,
0,
0,
0,
0,
0,
0,
0,
0,
0,
0,
0,
0,
0,
0,
0,
0,
0,
0,
0,
0,
0,
0,
0,
0,
0,
0,
0,
0,
0,
0,
0,
0,
0,
0,
0,
0,
0,
0,
0,
0,
0,
0,
0,
0,
0,
0,
0,
0,
0,
0,
0,
0,
0,
0,
0,
0,
0,
0,
0,
0,
0,
0,
0,
0,
0,
0,
0,
0,
0,
0,
0,
0,
0,
0,
0,
0,
0,
0,
0,
0,
0,
0,
0,
0,
0,
0,
0,
0,
0,
0,
0,
0,
#ENDOFDATA   :