File: N132962/Quantification/20 keV/MMM2/SPI MM2 SPI Plagioclase[3][4].msa
#FORMAT      : EMSA/MAS Spectral Data File
#VERSION     : 1.0
#TITLE       : SPI MM2 SPI Plagioclase[3][all]
#DATE        : 13-MAR-2025
#TIME        : 10:54
#OWNER       : Unknown
#NPOINTS     : 4096
#NCOLUMNS    : 1
#XUNITS      : eV
#YUNITS      : counts
#DATATYPE    : Y
#XPERCHAN    : 9.99778
#OFFSET      : 1.69135
#BEAMKV      : 20
#SIGNALTYPE  : EDS
#ELEVANGLE   : 35
#AZIMANGLE   : 0
#LIVETIME    : 239.831
#REALTIME    : 255.402
#PROBECUR    : 1.02609
#TAUWIND     : 0
#TDEADLYR    : 0
#TACTLYR     : 0.045
#TALWIND     : 0.025
#CHOFFSET    : 0.0
#XLABEL      : Energy (eV)
#YLABEL      : Counts
#XPOSITION   : -1.35063
#YPOSITION   : -0.23626
#ZPOSITION   : 31.0351
#EDSDET      : SD
##SPECIMEN   : SPI MM2 SPI Plagioclase[3][all]
##D2STDCMP   : SPI Plagioclase,(O:46.79),(Na:3.24),(Al:15.54),(Si:24.83),(K:0.2),(Ca:8.53),(Fe:0.27)
##DET_HASH   : 12273538-fd48-a23f-0a19-f1e6fa85caef
##CALIB_HASH : 6abaa72c-aa41-8738-0be9-f592914732f3
##WORKING    : 15.0 mm
##DET_NAME   : EDAX All
##DET_MODE   : MediumLE
#SPECTRUM    :
31,
30,
11,
14,
71,
275,
799,
2550,
7663,
10261,
6053,
2994,
2597,
2893,
4869,
17860,
72587,
143409,
105106,
27717,
3947,
1717,
1807,
2228,
2300,
2191,
2225,
2440,
2636,
2842,
2906,
3187,
4431,
9294,
18910,
21041,
11842,
5340,
3831,
3868,
4026,
4489,
4632,
4756,
5043,
5298,
7020,
18963,
64126,
130063,
131275,
68343,
22601,
8397,
6222,
14368,
55510,
142561,
194749,
137394,
55695,
19145,
8831,
4710,
3133,
2826,
2818,
2743,
2530,
2405,
2296,
2256,
2354,
2428,
2637,
2768,
2721,
2602,
2370,
2353,
2349,
2330,
2374,
2334,
2295,
2309,
2357,
2343,
2443,
2297,
2348,
2397,
2304,
2296,
2346,
2246,
2258,
2293,
2247,
2412,
2320,
2276,
2248,
2264,
2160,
2245,
2420,
2548,
2941,
3265,
3548,
3524,
2974,
2415,
2292,
2218,
2314,
2484,
2714,
3910,
7779,
17753,
31916,
40199,
33703,
19685,
8293,
3545,
2233,
2067,
2305,
3015,
4447,
5831,
6535,
5169,
3596,
2462,
1863,
1729,
1650,
1642,
1642,
1466,
1485,
1533,
1570,
1509,
1547,
1676,
1617,
1604,
1568,
1520,
1483,
1486,
1393,
1414,
1452,
1377,
1354,
1331,
1395,
1361,
1351,
1346,
1309,
1275,
1358,
1279,
1277,
1327,
1297,
1369,
1240,
1280,
1249,
1198,
1260,
1331,
1234,
1258,
1272,
1220,
1226,
1231,
1151,
1151,
1167,
1118,
1057,
1101,
1048,
1064,
1029,
1065,
1137,
1074,
1116,
1090,
1028,
1008,
1033,
1004,
1050,
964,
974,
987,
987,
1001,
1099,
1191,
1428,
1561,
1474,
1342,
1148,
977,
930,
872,
950,
897,
855,
914,
815,
835,
812,
893,
850,
852,
865,
837,
855,
852,
919,
901,
828,
893,
789,
762,
793,
727,
816,
748,
748,
744,
764,
749,
744,
761,
759,
735,
736,
708,
703,
725,
726,
707,
680,
693,
683,
607,
673,
666,
635,
674,
653,
630,
597,
660,
625,
666,
654,
683,
625,
608,
626,
569,
610,
596,
596,
567,
628,
555,
555,
588,
551,
523,
509,
583,
524,
516,
500,
547,
481,
509,
524,
488,
487,
524,
506,
537,
503,
496,
477,
511,
476,
470,
504,
411,
480,
458,
455,
450,
481,
469,
419,
439,
448,
453,
439,
444,
429,
424,
424,
431,
406,
418,
409,
407,
403,
405,
428,
368,
387,
358,
414,
348,
399,
344,
421,
356,
370,
386,
385,
351,
381,
370,
356,
327,
352,
324,
310,
305,
344,
336,
324,
335,
326,
308,
302,
325,
336,
302,
342,
311,
294,
269,
317,
263,
305,
289,
291,
301,
305,
247,
265,
288,
282,
279,
258,
271,
260,
302,
246,
233,
229,
253,
249,
265,
236,
249,
254,
227,
249,
212,
244,
243,
210,
215,
237,
220,
206,
221,
216,
192,
199,
193,
221,
186,
199,
209,
224,
201,
189,
202,
197,
192,
177,
172,
174,
180,
171,
184,
187,
168,
166,
170,
153,
156,
172,
178,
166,
179,
163,
138,
166,
172,
160,
150,
151,
168,
146,
129,
141,
150,
139,
138,
118,
133,
128,
156,
141,
141,
140,
136,
136,
138,
129,
121,
120,
112,
123,
134,
133,
107,
103,
121,
111,
123,
107,
97,
128,
113,
108,
137,
107,
83,
90,
102,
99,
91,
95,
83,
92,
94,
81,
83,
91,
99,
92,
82,
94,
74,
89,
85,
63,
77,
80,
79,
69,
77,
53,
82,
68,
70,
60,
59,
76,
71,
64,
56,
68,
71,
67,
63,
52,
51,
59,
56,
48,
66,
47,
66,
53,
57,
57,
52,
60,
52,
55,
49,
58,
42,
46,
60,
44,
48,
36,
44,
48,
43,
45,
33,
35,
37,
36,
33,
35,
40,
35,
34,
36,
36,
28,
29,
33,
34,
37,
32,
27,
33,
30,
28,
29,
31,
35,
32,
25,
29,
23,
23,
32,
36,
29,
17,
18,
27,
24,
15,
18,
25,
26,
14,
22,
22,
20,
14,
23,
14,
19,
22,
20,
12,
13,
14,
21,
16,
20,
12,
20,
17,
13,
14,
14,
15,
17,
19,
10,
12,
9,
8,
16,
12,
12,
10,
9,
10,
11,
10,
9,
14,
14,
5,
8,
10,
10,
6,
10,
10,
8,
7,
4,
5,
6,
7,
8,
6,
4,
8,
5,
6,
3,
5,
5,
2,
7,
3,
4,
5,
3,
3,
3,
2,
2,
0,
2,
2,
1,
2,
1,
0,
0,
1,
0,
1,
0,
0,
1,
1,
0,
0,
0,
0,
0,
0,
0,
2,
0,
1,
0,
0,
0,
0,
0,
0,
0,
0,
0,
0,
0,
0,
0,
0,
1,
0,
0,
0,
1,
0,
0,
0,
0,
0,
0,
0,
1,
0,
0,
0,
0,
0,
0,
1,
0,
0,
0,
0,
0,
0,
0,
1,
0,
0,
0,
0,
0,
0,
0,
0,
0,
0,
0,
0,
0,
0,
0,
0,
0,
0,
0,
0,
0,
0,
0,
0,
0,
0,
0,
0,
0,
1,
0,
0,
0,
1,
0,
0,
0,
0,
0,
0,
1,
0,
0,
0,
0,
0,
0,
0,
0,
0,
0,
0,
0,
0,
0,
0,
0,
0,
0,
0,
0,
0,
0,
0,
0,
0,
0,
0,
0,
0,
0,
0,
0,
0,
0,
0,
0,
0,
0,
0,
0,
0,
0,
1,
0,
0,
0,
0,
0,
0,
0,
0,
0,
0,
0,
0,
0,
0,
0,
0,
0,
0,
0,
0,
0,
0,
0,
0,
0,
0,
0,
0,
0,
0,
0,
0,
0,
0,
0,
0,
0,
0,
0,
0,
0,
0,
0,
0,
0,
0,
0,
0,
0,
0,
0,
0,
0,
0,
0,
0,
0,
0,
0,
0,
0,
0,
0,
0,
0,
0,
0,
0,
0,
0,
0,
0,
0,
0,
0,
0,
0,
0,
0,
0,
0,
0,
0,
0,
0,
0,
0,
0,
0,
0,
0,
0,
0,
0,
0,
0,
0,
0,
0,
0,
0,
0,
0,
0,
0,
0,
0,
0,
0,
0,
0,
0,
0,
0,
0,
0,
0,
0,
0,
0,
0,
0,
0,
0,
0,
0,
0,
0,
0,
0,
0,
0,
0,
0,
0,
0,
0,
0,
0,
0,
0,
0,
0,
0,
0,
0,
0,
0,
0,
0,
0,
0,
0,
0,
0,
0,
0,
0,
0,
0,
0,
0,
0,
0,
0,
0,
0,
0,
0,
0,
0,
0,
0,
0,
0,
0,
0,
0,
0,
0,
0,
0,
0,
0,
0,
0,
0,
0,
0,
0,
0,
0,
0,
0,
0,
0,
0,
0,
0,
0,
0,
0,
0,
0,
0,
0,
0,
0,
0,
0,
0,
0,
0,
0,
0,
0,
0,
0,
0,
0,
0,
0,
0,
0,
0,
0,
0,
0,
0,
0,
0,
0,
0,
0,
0,
0,
0,
0,
0,
0,
0,
0,
0,
0,
0,
0,
0,
0,
0,
0,
0,
0,
0,
0,
0,
0,
0,
0,
0,
0,
0,
0,
0,
0,
0,
0,
0,
0,
0,
0,
0,
0,
0,
0,
0,
0,
0,
0,
0,
0,
0,
0,
0,
0,
0,
0,
0,
0,
0,
0,
0,
0,
0,
0,
0,
0,
0,
0,
0,
0,
0,
0,
0,
0,
0,
0,
0,
0,
0,
0,
0,
0,
0,
0,
0,
0,
0,
0,
0,
0,
0,
0,
0,
0,
0,
0,
0,
0,
0,
0,
0,
0,
0,
0,
0,
0,
0,
0,
0,
0,
0,
0,
0,
0,
0,
0,
0,
0,
0,
0,
0,
0,
0,
0,
0,
0,
0,
0,
0,
0,
0,
0,
0,
0,
0,
0,
0,
0,
0,
0,
0,
0,
0,
0,
0,
0,
0,
0,
0,
0,
0,
0,
0,
0,
0,
0,
0,
0,
0,
0,
0,
0,
0,
0,
0,
0,
0,
0,
0,
0,
0,
0,
0,
0,
0,
0,
0,
0,
0,
0,
0,
0,
0,
0,
0,
0,
0,
0,
0,
0,
0,
0,
0,
0,
0,
0,
0,
0,
0,
0,
0,
0,
0,
0,
0,
0,
0,
0,
0,
0,
0,
0,
0,
0,
0,
0,
0,
0,
0,
0,
0,
0,
0,
0,
0,
0,
0,
0,
0,
0,
0,
0,
0,
0,
0,
0,
0,
0,
0,
0,
0,
0,
0,
0,
0,
0,
0,
0,
0,
0,
0,
0,
0,
0,
0,
0,
0,
0,
0,
0,
0,
0,
0,
0,
0,
0,
0,
0,
0,
0,
0,
0,
0,
0,
0,
0,
0,
0,
0,
0,
0,
0,
0,
0,
0,
0,
0,
0,
0,
0,
0,
0,
0,
0,
0,
0,
0,
0,
0,
0,
0,
0,
0,
0,
0,
0,
0,
0,
0,
0,
0,
0,
0,
0,
0,
0,
0,
0,
0,
0,
0,
0,
0,
0,
0,
0,
0,
0,
0,
0,
#ENDOFDATA   :