File: N132962/Quantification/20 keV/MMM2/SPI MM2 SPI Orthoclaise[2][4].msa
#FORMAT      : EMSA/MAS Spectral Data File
#VERSION     : 1.0
#TITLE       : SPI MM2 SPI Orthoclaise[2][all]
#DATE        : 13-MAR-2025
#TIME        : 10:25
#OWNER       : Unknown
#NPOINTS     : 4096
#NCOLUMNS    : 1
#XUNITS      : eV
#YUNITS      : counts
#DATATYPE    : Y
#XPERCHAN    : 9.99778
#OFFSET      : 1.69135
#BEAMKV      : 20
#SIGNALTYPE  : EDS
#ELEVANGLE   : 35
#AZIMANGLE   : 0
#LIVETIME    : 239.887
#REALTIME    : 255.911
#PROBECUR    : 1.02606
#TAUWIND     : 0
#TDEADLYR    : 0
#TACTLYR     : 0.045
#TALWIND     : 0.025
#CHOFFSET    : 0.0
#XLABEL      : Energy (eV)
#YLABEL      : Counts
#XPOSITION   : 6.18937
#YPOSITION   : 0.18938
#ZPOSITION   : 31.0351
#EDSDET      : SD
##SPECIMEN   : SPI MM2 SPI Orthoclaise[2][all]
##D2STDCMP   : SPI Orthoclaise,(O:45.86),(Na:0.67),(Al:8.85),(Si:30.29),(K:12.85),(Fe:1.4),(Ba:0.04),5.0
##DET_HASH   : 12273538-fd48-a23f-0a19-f1e6fa85caef
##CALIB_HASH : 6abaa72c-aa41-8738-0be9-f592914732f3
##WORKING    : 15.0 mm
##DET_NAME   : EDAX All
##DET_MODE   : MediumLE
#SPECTRUM    :
26,
32,
5,
13,
70,
262,
868,
3101,
8816,
11004,
5521,
2291,
2093,
2457,
4387,
15895,
63860,
124936,
91831,
24180,
3812,
2085,
2503,
3431,
3522,
2734,
2403,
2495,
2648,
2738,
2786,
2922,
3028,
3684,
4514,
4590,
3988,
3924,
3763,
3980,
4046,
4164,
4437,
4503,
4659,
5000,
6015,
12968,
37742,
74489,
76014,
41143,
15999,
8273,
7262,
18205,
73361,
190084,
258188,
183323,
73517,
24594,
10813,
5205,
3027,
2510,
2488,
2577,
2429,
2517,
2467,
2386,
2470,
2540,
2824,
2859,
2748,
2774,
2499,
2468,
2563,
2431,
2455,
2570,
2551,
2510,
2434,
2424,
2516,
2423,
2404,
2352,
2437,
2425,
2347,
2432,
2383,
2469,
2437,
2462,
2357,
2343,
2271,
2380,
2509,
2862,
3912,
7348,
18539,
40407,
62642,
61983,
41082,
18094,
6677,
3454,
3243,
4139,
6448,
8758,
9192,
7152,
4335,
2769,
1981,
1839,
1825,
1788,
1879,
1868,
1795,
1668,
1672,
1629,
1667,
1655,
1686,
1611,
1685,
1706,
1612,
1523,
1585,
1620,
1611,
1576,
1489,
1630,
1626,
1602,
1557,
1576,
1453,
1501,
1607,
1379,
1471,
1406,
1461,
1595,
1557,
1455,
1494,
1451,
1454,
1403,
1393,
1528,
1509,
1511,
1474,
1402,
1330,
1318,
1293,
1288,
1268,
1323,
1309,
1271,
1217,
1215,
1272,
1214,
1257,
1170,
1111,
1209,
1218,
1175,
1161,
1145,
1133,
1132,
1098,
1135,
1156,
1130,
1111,
1049,
1097,
992,
1060,
1055,
1109,
1091,
1031,
1038,
1135,
1325,
1865,
2796,
3922,
4381,
4109,
3234,
2293,
1463,
1078,
975,
957,
939,
909,
967,
912,
938,
898,
887,
916,
870,
893,
946,
1004,
1055,
1189,
1220,
1229,
1092,
947,
898,
856,
788,
811,
803,
784,
782,
758,
765,
894,
743,
764,
784,
762,
752,
690,
725,
691,
755,
696,
725,
670,
654,
666,
614,
681,
718,
682,
620,
656,
676,
639,
640,
664,
719,
626,
647,
637,
625,
596,
620,
623,
643,
543,
617,
588,
585,
584,
583,
595,
588,
568,
559,
566,
588,
533,
516,
511,
522,
504,
522,
490,
512,
527,
529,
492,
530,
499,
512,
515,
458,
528,
505,
443,
488,
483,
436,
498,
480,
473,
441,
431,
457,
417,
426,
449,
416,
451,
428,
437,
427,
424,
423,
413,
370,
390,
417,
420,
423,
374,
401,
359,
399,
338,
398,
354,
362,
379,
382,
371,
365,
352,
355,
344,
344,
346,
354,
369,
364,
334,
347,
333,
304,
320,
305,
298,
306,
304,
347,
323,
323,
313,
291,
286,
301,
277,
316,
325,
283,
309,
269,
299,
254,
247,
257,
249,
274,
262,
271,
294,
255,
245,
272,
252,
227,
245,
251,
264,
257,
232,
253,
241,
248,
225,
223,
225,
258,
232,
217,
229,
234,
215,
194,
197,
199,
185,
208,
196,
220,
200,
179,
172,
177,
201,
198,
166,
168,
180,
176,
161,
167,
162,
160,
153,
174,
154,
161,
163,
165,
189,
149,
168,
160,
155,
166,
143,
130,
135,
153,
146,
126,
165,
139,
143,
128,
116,
126,
144,
128,
142,
123,
122,
123,
103,
126,
135,
121,
106,
116,
114,
110,
111,
111,
105,
104,
100,
124,
117,
92,
113,
95,
83,
119,
95,
96,
101,
77,
86,
81,
99,
90,
93,
90,
86,
87,
92,
80,
81,
88,
85,
86,
75,
85,
80,
72,
91,
85,
81,
72,
77,
58,
62,
73,
71,
66,
57,
74,
76,
73,
52,
57,
63,
56,
69,
53,
55,
54,
57,
58,
49,
40,
64,
57,
54,
57,
58,
38,
47,
56,
47,
47,
31,
37,
31,
43,
48,
39,
45,
31,
39,
36,
41,
40,
47,
44,
39,
27,
41,
35,
41,
38,
37,
44,
36,
30,
44,
35,
28,
27,
31,
26,
26,
20,
25,
40,
21,
33,
23,
30,
22,
20,
20,
25,
30,
17,
21,
25,
33,
27,
26,
27,
18,
15,
14,
27,
16,
17,
13,
14,
10,
15,
9,
14,
21,
14,
21,
10,
13,
11,
15,
14,
16,
10,
20,
8,
12,
12,
9,
9,
5,
8,
11,
6,
10,
8,
7,
8,
4,
11,
8,
4,
7,
3,
10,
4,
5,
7,
6,
9,
6,
6,
5,
8,
1,
2,
0,
2,
6,
3,
5,
3,
2,
2,
2,
1,
2,
1,
1,
2,
2,
2,
0,
2,
0,
0,
1,
1,
2,
0,
0,
0,
0,
0,
0,
1,
0,
0,
0,
0,
0,
0,
0,
0,
0,
0,
0,
1,
0,
0,
0,
0,
0,
0,
0,
0,
0,
0,
1,
0,
0,
0,
0,
0,
0,
0,
0,
0,
0,
0,
0,
0,
0,
0,
0,
0,
0,
0,
0,
0,
1,
0,
0,
0,
0,
0,
1,
0,
0,
0,
0,
0,
0,
0,
0,
0,
1,
0,
0,
0,
0,
0,
0,
0,
0,
0,
0,
0,
0,
0,
0,
0,
0,
0,
0,
0,
0,
0,
0,
0,
0,
0,
0,
0,
0,
0,
0,
0,
0,
0,
0,
0,
0,
0,
0,
0,
0,
0,
0,
0,
0,
0,
0,
0,
0,
0,
0,
0,
0,
0,
0,
0,
0,
0,
0,
0,
0,
1,
0,
0,
0,
0,
0,
0,
0,
0,
0,
0,
0,
0,
0,
0,
0,
0,
0,
0,
0,
0,
0,
0,
0,
0,
0,
0,
0,
0,
0,
0,
0,
0,
0,
0,
0,
0,
0,
0,
0,
0,
0,
0,
0,
0,
0,
0,
0,
0,
0,
0,
0,
0,
0,
0,
0,
0,
0,
0,
0,
0,
0,
0,
0,
0,
0,
0,
0,
0,
0,
0,
0,
0,
0,
0,
0,
0,
0,
0,
0,
0,
0,
0,
0,
0,
1,
0,
0,
0,
0,
0,
0,
0,
0,
0,
0,
0,
0,
0,
0,
0,
0,
0,
0,
0,
0,
0,
0,
0,
0,
0,
0,
0,
0,
0,
0,
0,
0,
0,
0,
0,
0,
0,
0,
0,
0,
0,
0,
0,
0,
0,
0,
0,
0,
0,
0,
0,
0,
0,
0,
0,
0,
0,
0,
0,
0,
0,
0,
0,
0,
0,
0,
0,
0,
0,
0,
0,
0,
0,
0,
1,
0,
0,
0,
0,
0,
0,
0,
0,
0,
0,
0,
0,
0,
0,
0,
0,
0,
0,
0,
0,
0,
0,
0,
0,
0,
0,
0,
0,
0,
0,
0,
0,
0,
0,
0,
0,
0,
0,
0,
0,
0,
0,
0,
0,
0,
0,
0,
0,
0,
0,
0,
0,
0,
0,
0,
0,
0,
0,
0,
0,
0,
0,
0,
0,
0,
0,
0,
0,
0,
0,
0,
0,
0,
0,
0,
0,
0,
0,
0,
0,
0,
0,
0,
0,
0,
0,
0,
0,
0,
0,
0,
0,
0,
0,
0,
0,
0,
0,
0,
0,
0,
0,
0,
0,
0,
0,
0,
0,
0,
0,
0,
0,
0,
0,
0,
0,
0,
0,
0,
0,
0,
0,
0,
0,
0,
0,
0,
0,
0,
0,
0,
0,
0,
0,
0,
0,
0,
0,
0,
0,
0,
0,
0,
0,
0,
0,
0,
0,
0,
0,
0,
0,
0,
0,
0,
0,
0,
0,
0,
0,
0,
0,
0,
0,
0,
0,
0,
0,
0,
0,
0,
0,
0,
0,
0,
0,
0,
0,
0,
0,
0,
0,
0,
0,
0,
0,
0,
0,
0,
0,
0,
0,
0,
0,
0,
0,
0,
0,
0,
0,
0,
0,
0,
0,
0,
0,
0,
0,
0,
0,
0,
0,
0,
0,
0,
0,
0,
0,
0,
0,
0,
0,
0,
0,
0,
0,
0,
0,
0,
0,
0,
0,
0,
0,
0,
0,
0,
0,
0,
0,
0,
0,
0,
0,
0,
0,
0,
0,
0,
0,
0,
0,
0,
0,
0,
0,
0,
0,
0,
0,
0,
0,
0,
0,
0,
0,
0,
0,
0,
0,
0,
0,
0,
0,
0,
0,
0,
0,
0,
0,
0,
0,
0,
0,
0,
0,
0,
0,
0,
0,
0,
0,
0,
0,
0,
0,
0,
0,
0,
0,
0,
0,
0,
0,
0,
0,
0,
0,
0,
0,
0,
0,
0,
0,
0,
0,
0,
0,
0,
0,
0,
0,
0,
0,
0,
0,
0,
0,
0,
0,
0,
0,
0,
0,
0,
0,
0,
0,
0,
0,
0,
0,
0,
0,
0,
0,
0,
0,
0,
0,
0,
0,
0,
0,
0,
0,
0,
0,
0,
0,
0,
0,
0,
0,
0,
0,
0,
0,
0,
0,
0,
0,
0,
0,
0,
0,
0,
0,
0,
0,
0,
0,
0,
0,
0,
0,
0,
0,
0,
0,
0,
0,
0,
0,
0,
0,
0,
0,
0,
0,
0,
0,
0,
0,
0,
0,
0,
0,
0,
0,
#ENDOFDATA   :