File: N132962/Quantification/20 keV/MMM2/SPI MM2 Spessartine[4][4].msa
#FORMAT      : EMSA/MAS Spectral Data File
#VERSION     : 1.0
#TITLE       : SPI MM2 Spessartine[4][all]
#DATE        : 13-MAR-2025
#TIME        : 12:07
#OWNER       : Unknown
#NPOINTS     : 4096
#NCOLUMNS    : 1
#XUNITS      : eV
#YUNITS      : counts
#DATATYPE    : Y
#XPERCHAN    : 9.99778
#OFFSET      : 1.69135
#BEAMKV      : 20
#SIGNALTYPE  : EDS
#ELEVANGLE   : 35
#AZIMANGLE   : 0
#LIVETIME    : 239.861
#REALTIME    : 256.239
#PROBECUR    : 1.02616
#TAUWIND     : 0
#TDEADLYR    : 0
#TACTLYR     : 0.045
#TALWIND     : 0.025
#CHOFFSET    : 0.0
#XLABEL      : Energy (eV)
#YLABEL      : Counts
#XPOSITION   : -5.77917
#YPOSITION   : 1.56153
#ZPOSITION   : 31.03511
#EDSDET      : SD
##SPECIMEN   : SPI MM2 Spessartine[4][all]
##DET_HASH   : 12273538-fd48-a23f-0a19-f1e6fa85caef
##CALIB_HASH : 6abaa72c-aa41-8738-0be9-f592914732f3
##WORKING    : 15.0 mm
##DET_NAME   : EDAX All
##DET_MODE   : MediumLE
#SPECTRUM    :
29,
20,
10,
15,
87,
320,
986,
2975,
8389,
10998,
6039,
3258,
3421,
4320,
7639,
27046,
104454,
203214,
151304,
43158,
14229,
16880,
13641,
6916,
3692,
2413,
2015,
2145,
2313,
2404,
2396,
2462,
2663,
2849,
3160,
3255,
3265,
3299,
3399,
3625,
3679,
3888,
3887,
4016,
4270,
4531,
5720,
12539,
38539,
77184,
78510,
41941,
14639,
6518,
5385,
10928,
37317,
92870,
126591,
89321,
36975,
13490,
7067,
4488,
3348,
3220,
3303,
3432,
3354,
3245,
3062,
3067,
3102,
3214,
3348,
3546,
3384,
3318,
3163,
3114,
3148,
3105,
3149,
3142,
3085,
3121,
2899,
2993,
3093,
3027,
2976,
3075,
2936,
3019,
2884,
2865,
2859,
2879,
2957,
2928,
2892,
2811,
2853,
2842,
2774,
2816,
2937,
2855,
2916,
2820,
2741,
2639,
2675,
2716,
2728,
2873,
2793,
2657,
2580,
2631,
2693,
3013,
3398,
3792,
3637,
3083,
2714,
2486,
2427,
2354,
2390,
2397,
2413,
2496,
2503,
2464,
2377,
2497,
2517,
2468,
2430,
2229,
2142,
2194,
2119,
2083,
2080,
2090,
2126,
2116,
2031,
2104,
2036,
2033,
1980,
2003,
1883,
1927,
1979,
1960,
1913,
1883,
1901,
1916,
1821,
1895,
1856,
1817,
1813,
1762,
1798,
1759,
1739,
1733,
1704,
1717,
1752,
1740,
1700,
1678,
1697,
1678,
1645,
1642,
1716,
1688,
1575,
1681,
1749,
1874,
2046,
2859,
5832,
14074,
30882,
52945,
70566,
69202,
51895,
29697,
13099,
5096,
2426,
1588,
1511,
1487,
1423,
1488,
1468,
1661,
2002,
2762,
4137,
5929,
8084,
10159,
11038,
9781,
7109,
4521,
2508,
1605,
1265,
1122,
1080,
1116,
1070,
1019,
1025,
1098,
1066,
1097,
1079,
1206,
1240,
1221,
1337,
1173,
1106,
1011,
1014,
951,
992,
1045,
984,
1029,
1051,
1017,
1048,
1003,
1009,
998,
985,
975,
968,
992,
997,
950,
882,
877,
876,
866,
839,
865,
863,
842,
883,
840,
874,
845,
836,
848,
774,
853,
857,
788,
819,
786,
767,
789,
762,
799,
713,
748,
770,
751,
729,
724,
742,
690,
672,
686,
690,
758,
697,
692,
669,
700,
688,
626,
658,
679,
712,
676,
655,
614,
618,
681,
620,
641,
653,
670,
606,
632,
597,
620,
543,
576,
616,
591,
569,
618,
561,
560,
563,
579,
593,
577,
588,
517,
577,
551,
544,
496,
484,
534,
535,
495,
517,
510,
504,
530,
508,
468,
494,
476,
471,
462,
496,
474,
469,
460,
463,
448,
424,
459,
453,
421,
451,
456,
432,
426,
438,
435,
418,
408,
436,
428,
413,
391,
431,
402,
400,
399,
428,
413,
358,
406,
350,
380,
370,
395,
380,
348,
351,
344,
347,
346,
356,
334,
361,
363,
348,
367,
364,
350,
332,
341,
322,
326,
347,
322,
282,
321,
310,
333,
313,
269,
279,
309,
260,
291,
280,
274,
272,
290,
297,
266,
274,
265,
256,
266,
222,
260,
261,
257,
227,
246,
248,
255,
246,
225,
238,
214,
226,
207,
220,
208,
217,
184,
222,
212,
198,
187,
199,
202,
219,
192,
195,
187,
192,
174,
189,
179,
206,
185,
184,
190,
180,
171,
160,
163,
169,
161,
167,
170,
169,
169,
159,
166,
148,
175,
141,
142,
142,
137,
141,
168,
150,
154,
139,
121,
151,
134,
132,
149,
119,
127,
138,
129,
134,
127,
123,
133,
129,
129,
104,
128,
130,
100,
123,
109,
100,
115,
105,
112,
112,
115,
97,
110,
96,
98,
105,
104,
95,
97,
105,
89,
94,
105,
62,
76,
76,
99,
70,
73,
85,
77,
71,
68,
71,
70,
78,
69,
85,
75,
84,
64,
72,
71,
63,
74,
73,
65,
64,
61,
57,
56,
40,
66,
59,
57,
59,
36,
46,
49,
52,
45,
43,
39,
43,
44,
39,
53,
51,
57,
44,
45,
42,
49,
48,
28,
52,
47,
36,
42,
27,
33,
38,
39,
36,
37,
40,
33,
25,
36,
31,
29,
29,
38,
31,
33,
25,
30,
25,
19,
25,
18,
20,
18,
28,
28,
21,
20,
17,
22,
13,
14,
18,
24,
13,
20,
14,
27,
14,
16,
15,
21,
19,
11,
15,
10,
14,
11,
7,
10,
18,
13,
6,
9,
13,
2,
13,
11,
13,
6,
13,
6,
8,
12,
6,
10,
5,
5,
4,
4,
10,
8,
7,
4,
3,
3,
6,
6,
1,
6,
3,
1,
3,
1,
2,
3,
3,
1,
1,
0,
0,
0,
0,
0,
2,
1,
0,
0,
0,
1,
0,
0,
0,
0,
2,
1,
0,
1,
0,
0,
0,
0,
0,
0,
1,
0,
0,
1,
0,
0,
1,
0,
0,
0,
1,
0,
0,
1,
0,
0,
0,
0,
0,
0,
1,
1,
0,
0,
0,
1,
0,
0,
0,
1,
0,
0,
1,
0,
0,
0,
0,
1,
0,
0,
0,
0,
0,
1,
0,
1,
0,
0,
0,
1,
0,
0,
0,
0,
0,
0,
0,
1,
1,
1,
0,
0,
0,
0,
0,
0,
0,
0,
0,
0,
0,
2,
1,
0,
0,
1,
0,
0,
0,
0,
0,
0,
0,
0,
0,
0,
0,
0,
0,
0,
0,
0,
0,
0,
0,
0,
0,
1,
1,
1,
0,
0,
0,
0,
0,
0,
0,
0,
0,
0,
0,
0,
0,
0,
1,
0,
0,
0,
0,
0,
0,
0,
0,
0,
0,
0,
0,
0,
0,
0,
0,
0,
0,
0,
0,
0,
0,
0,
0,
0,
0,
0,
0,
0,
0,
0,
0,
0,
0,
0,
0,
0,
0,
0,
0,
0,
0,
0,
0,
0,
0,
0,
0,
0,
0,
0,
0,
0,
0,
0,
0,
0,
0,
0,
0,
0,
0,
0,
0,
0,
0,
0,
0,
0,
0,
0,
0,
0,
0,
1,
0,
0,
0,
0,
0,
0,
0,
0,
0,
0,
0,
0,
0,
0,
0,
0,
0,
0,
0,
0,
0,
0,
0,
0,
0,
0,
0,
0,
0,
0,
0,
0,
0,
0,
0,
0,
0,
0,
0,
0,
0,
0,
0,
0,
0,
0,
0,
0,
0,
0,
0,
0,
0,
0,
1,
0,
0,
0,
0,
0,
0,
0,
0,
0,
0,
0,
0,
1,
1,
0,
0,
0,
0,
0,
0,
0,
0,
0,
0,
0,
0,
0,
0,
0,
0,
0,
0,
0,
0,
0,
0,
0,
0,
0,
0,
0,
0,
0,
0,
0,
0,
0,
0,
0,
0,
0,
0,
0,
0,
0,
0,
0,
0,
0,
0,
0,
0,
0,
0,
0,
0,
0,
0,
0,
0,
0,
0,
0,
0,
0,
0,
0,
0,
0,
0,
0,
0,
0,
0,
0,
0,
0,
0,
0,
0,
0,
0,
0,
0,
0,
0,
0,
0,
0,
0,
0,
0,
0,
0,
1,
0,
0,
0,
0,
0,
0,
0,
0,
0,
0,
0,
0,
0,
0,
0,
0,
0,
0,
0,
0,
0,
0,
0,
0,
0,
0,
0,
0,
0,
0,
0,
0,
0,
0,
0,
0,
0,
0,
0,
0,
0,
0,
0,
0,
0,
0,
0,
0,
0,
0,
0,
0,
0,
0,
0,
0,
0,
0,
0,
0,
0,
0,
0,
0,
0,
0,
0,
0,
0,
0,
0,
0,
0,
0,
0,
0,
0,
0,
0,
0,
0,
0,
0,
0,
0,
0,
0,
0,
0,
0,
0,
0,
0,
0,
0,
0,
0,
0,
0,
0,
0,
0,
0,
0,
0,
0,
0,
0,
0,
0,
0,
0,
0,
0,
0,
0,
0,
0,
0,
0,
0,
0,
0,
0,
0,
0,
0,
0,
0,
0,
0,
0,
0,
0,
0,
0,
0,
0,
0,
0,
0,
0,
0,
0,
0,
0,
0,
0,
0,
0,
0,
0,
0,
0,
0,
0,
0,
0,
0,
0,
0,
0,
0,
0,
0,
0,
0,
0,
0,
0,
0,
0,
0,
0,
0,
0,
0,
0,
0,
0,
0,
0,
0,
0,
0,
0,
0,
0,
0,
0,
0,
0,
0,
0,
0,
0,
0,
0,
0,
0,
0,
0,
0,
0,
0,
0,
0,
0,
0,
0,
0,
0,
0,
0,
0,
0,
0,
0,
0,
0,
0,
0,
0,
0,
0,
0,
0,
0,
0,
0,
0,
0,
0,
0,
0,
0,
0,
0,
0,
0,
0,
0,
0,
0,
0,
0,
0,
0,
0,
0,
0,
0,
0,
0,
0,
0,
0,
0,
0,
0,
0,
0,
0,
0,
0,
0,
0,
0,
0,
0,
0,
0,
0,
0,
0,
0,
0,
0,
0,
0,
0,
0,
0,
0,
0,
0,
0,
0,
0,
0,
0,
0,
0,
0,
0,
0,
0,
0,
0,
0,
0,
0,
0,
0,
0,
0,
0,
0,
0,
0,
0,
0,
0,
0,
0,
0,
0,
0,
0,
0,
0,
0,
0,
0,
0,
0,
#ENDOFDATA   :