File: N132962/Quantification/20 keV/MMM2/SPI MM2 SPI Monazite[2][4].msa
#FORMAT      : EMSA/MAS Spectral Data File
#VERSION     : 1.0
#TITLE       : SPI MM2 SPI Monazite[2][all]
#DATE        : 13-MAR-2025
#TIME        : 10:06
#OWNER       : Unknown
#NPOINTS     : 4096
#NCOLUMNS    : 1
#XUNITS      : eV
#YUNITS      : counts
#DATATYPE    : Y
#XPERCHAN    : 9.99778
#OFFSET      : 1.69135
#BEAMKV      : 20
#SIGNALTYPE  : EDS
#ELEVANGLE   : 35
#AZIMANGLE   : 0
#LIVETIME    : 239.956
#REALTIME    : 258.5444
#PROBECUR    : 1.02627
#TAUWIND     : 0
#TDEADLYR    : 0
#TACTLYR     : 0.045
#TALWIND     : 0.025
#CHOFFSET    : 0.0
#XLABEL      : Energy (eV)
#YLABEL      : Counts
#XPOSITION   : 2.47962
#YPOSITION   : -2.76458
#ZPOSITION   : 31.03509
#EDSDET      : SD
##SPECIMEN   : SPI MM2 SPI Monazite[2][all]
##D2STDCMP   : SPI Monazite,(O:26.45),(Si:0.83),(P:11.85),(Ca:0.65),(Y:1.59),(La:7.84),(Ce:19.96),(Pr:2.47),(Nd:9.68),(Sm:3.7),(Eu:0.38),(Gd:2.89),(Tb:0.35),(Dy:1.21),(Pb:0.25),(Th:9.7),(U:0.16),5.0
##DET_HASH   : 12273538-fd48-a23f-0a19-f1e6fa85caef
##CALIB_HASH : 6abaa72c-aa41-8738-0be9-f592914732f3
##WORKING    : 15.0 mm
##DET_NAME   : EDAX All
##DET_MODE   : MediumLE
#SPECTRUM    :
23,
28,
9,
40,
171,
697,
2092,
6224,
15505,
19780,
10857,
6058,
5765,
6090,
7814,
18647,
62470,
118612,
86164,
24705,
7674,
8163,
10032,
9892,
8818,
8127,
7792,
8893,
10820,
11963,
11076,
9606,
9146,
9157,
8078,
7827,
7941,
7472,
7265,
7502,
7307,
6821,
6547,
6485,
6246,
5911,
5780,
5751,
5562,
5606,
5633,
5616,
5633,
5484,
5556,
6019,
7614,
10466,
12094,
10599,
8122,
7039,
7520,
10077,
15248,
28912,
54999,
72909,
57550,
28522,
12958,
9048,
7924,
6462,
5429,
5263,
5418,
5912,
6091,
6061,
5754,
5584,
5525,
5256,
5235,
5378,
5215,
5182,
5338,
5277,
5400,
5396,
5359,
5233,
5059,
5337,
5792,
7504,
11575,
17559,
21072,
18103,
12701,
10944,
13523,
14944,
12600,
8906,
6346,
5507,
5576,
5888,
6026,
5847,
5332,
4926,
4890,
4743,
4806,
4704,
4873,
5621,
6678,
7110,
6744,
5649,
4927,
4439,
4329,
4335,
4432,
4617,
4740,
5026,
4913,
4805,
4801,
4720,
4636,
4630,
4531,
4723,
4950,
5009,
4877,
4479,
4328,
4224,
4144,
4277,
4422,
4961,
6393,
9535,
13304,
14812,
13513,
10969,
10678,
15458,
23598,
29753,
27584,
19982,
12151,
8416,
8822,
10816,
11805,
11038,
9380,
9181,
11989,
17490,
23132,
25498,
22830,
17226,
12573,
9793,
8260,
6856,
6225,
6027,
6281,
7558,
9670,
11507,
12200,
11825,
10710,
9682,
8282,
7004,
5751,
5045,
4346,
3941,
3926,
4623,
6004,
7319,
8314,
7925,
6675,
5603,
4948,
4710,
4596,
4493,
4364,
4206,
3911,
3723,
3590,
3572,
3765,
3722,
3931,
4007,
4005,
3873,
3702,
3564,
3381,
3174,
2966,
2799,
2817,
2815,
2741,
2798,
2732,
2571,
2591,
2600,
2832,
2773,
2781,
2731,
2733,
2690,
2575,
2384,
2334,
2281,
2299,
2386,
2399,
2411,
2332,
2301,
2217,
2200,
2220,
2166,
2183,
2094,
2220,
2150,
2087,
2111,
1996,
1984,
1889,
1959,
1991,
1973,
1843,
1885,
2030,
1884,
2066,
1917,
1852,
1937,
1832,
1888,
1814,
1884,
1813,
1844,
1865,
1745,
1727,
1659,
1711,
1755,
1679,
1735,
1788,
1777,
1699,
1725,
1666,
1635,
1696,
1636,
1661,
1595,
1623,
1553,
1602,
1582,
1621,
1550,
1518,
1603,
1502,
1457,
1615,
1498,
1526,
1503,
1441,
1405,
1470,
1534,
1371,
1406,
1461,
1440,
1398,
1402,
1398,
1392,
1359,
1343,
1298,
1350,
1396,
1296,
1378,
1347,
1277,
1276,
1272,
1277,
1263,
1285,
1294,
1289,
1230,
1264,
1270,
1209,
1215,
1298,
1244,
1253,
1224,
1222,
1205,
1236,
1201,
1234,
1123,
1149,
1207,
1146,
1139,
1141,
1102,
1172,
1040,
1088,
1122,
1132,
1025,
1048,
1046,
1033,
1067,
998,
1037,
970,
1035,
966,
952,
988,
931,
955,
980,
940,
918,
949,
887,
925,
943,
928,
903,
871,
921,
885,
881,
831,
816,
834,
901,
847,
812,
775,
877,
797,
777,
801,
832,
762,
757,
777,
772,
742,
785,
768,
764,
727,
694,
692,
724,
699,
689,
738,
660,
701,
703,
714,
745,
707,
758,
876,
818,
898,
902,
866,
809,
774,
693,
708,
621,
612,
627,
587,
573,
582,
580,
594,
533,
536,
592,
533,
528,
538,
544,
551,
526,
525,
506,
529,
495,
486,
501,
471,
466,
472,
461,
456,
460,
527,
465,
414,
446,
491,
419,
437,
452,
441,
412,
407,
382,
399,
388,
387,
391,
413,
407,
395,
387,
353,
372,
376,
388,
365,
328,
384,
405,
373,
354,
353,
399,
329,
352,
378,
329,
301,
348,
331,
306,
300,
280,
309,
330,
294,
307,
253,
276,
260,
278,
300,
290,
302,
269,
242,
280,
298,
279,
265,
238,
232,
227,
237,
234,
216,
237,
226,
232,
223,
200,
226,
228,
227,
187,
208,
201,
195,
177,
181,
176,
171,
157,
175,
195,
189,
170,
155,
169,
168,
187,
164,
169,
169,
123,
168,
148,
139,
138,
147,
163,
127,
139,
125,
135,
147,
140,
140,
136,
131,
134,
122,
114,
122,
118,
123,
120,
124,
101,
85,
119,
87,
107,
96,
86,
94,
92,
89,
105,
84,
81,
93,
84,
90,
98,
70,
85,
71,
64,
56,
65,
56,
59,
65,
75,
62,
54,
60,
60,
75,
49,
44,
49,
51,
46,
48,
45,
30,
37,
43,
31,
47,
46,
46,
32,
49,
40,
36,
34,
41,
27,
33,
40,
29,
20,
24,
25,
30,
19,
18,
26,
33,
25,
19,
20,
18,
11,
18,
13,
10,
7,
19,
10,
3,
7,
3,
2,
4,
2,
2,
3,
3,
1,
4,
1,
0,
1,
0,
1,
3,
2,
4,
2,
0,
5,
0,
6,
1,
1,
1,
2,
3,
1,
0,
1,
1,
2,
1,
2,
0,
1,
1,
0,
0,
1,
3,
4,
2,
1,
2,
1,
2,
3,
0,
0,
1,
2,
0,
2,
3,
1,
0,
2,
2,
1,
0,
1,
0,
2,
0,
0,
0,
1,
0,
2,
1,
1,
1,
1,
2,
1,
1,
1,
3,
1,
0,
2,
1,
0,
2,
0,
1,
0,
0,
1,
1,
0,
0,
0,
0,
0,
0,
2,
1,
2,
0,
1,
1,
0,
0,
1,
0,
0,
1,
2,
0,
1,
3,
0,
1,
0,
2,
0,
1,
2,
1,
0,
1,
0,
0,
0,
0,
0,
2,
1,
2,
1,
3,
1,
0,
0,
0,
0,
0,
0,
0,
0,
0,
2,
0,
0,
1,
0,
0,
1,
0,
0,
0,
0,
0,
1,
0,
0,
0,
0,
0,
0,
1,
0,
1,
1,
0,
1,
0,
0,
1,
1,
0,
0,
0,
2,
2,
0,
1,
1,
1,
0,
0,
0,
0,
2,
0,
0,
0,
0,
0,
0,
0,
0,
0,
0,
0,
0,
0,
0,
0,
0,
1,
0,
0,
1,
0,
0,
0,
0,
0,
2,
0,
0,
0,
1,
0,
0,
1,
0,
0,
0,
0,
0,
0,
0,
1,
0,
0,
0,
0,
1,
0,
0,
0,
0,
1,
0,
0,
1,
0,
0,
0,
0,
0,
0,
0,
0,
0,
1,
2,
0,
0,
0,
0,
0,
1,
0,
0,
0,
0,
0,
0,
0,
0,
0,
1,
0,
0,
0,
1,
0,
0,
0,
0,
0,
0,
0,
1,
0,
0,
0,
0,
0,
0,
0,
0,
0,
0,
0,
0,
0,
0,
0,
0,
0,
0,
0,
0,
0,
0,
0,
0,
0,
0,
0,
0,
0,
0,
0,
0,
0,
0,
0,
0,
0,
0,
0,
0,
0,
0,
0,
0,
0,
0,
0,
1,
0,
0,
0,
0,
0,
0,
0,
0,
0,
0,
0,
1,
0,
0,
0,
0,
0,
0,
0,
0,
0,
0,
0,
0,
0,
0,
0,
0,
0,
0,
0,
1,
0,
0,
0,
0,
0,
0,
0,
0,
0,
0,
0,
0,
0,
0,
0,
0,
0,
0,
0,
0,
0,
0,
0,
0,
0,
0,
0,
0,
0,
1,
0,
0,
0,
0,
0,
0,
0,
0,
0,
0,
0,
0,
0,
0,
0,
0,
0,
0,
0,
0,
0,
0,
0,
0,
0,
0,
0,
0,
0,
0,
0,
0,
0,
0,
0,
0,
0,
0,
0,
0,
0,
0,
0,
0,
0,
0,
0,
0,
0,
0,
0,
0,
0,
0,
0,
0,
0,
0,
0,
0,
0,
0,
0,
0,
0,
0,
0,
0,
0,
0,
0,
0,
0,
0,
0,
0,
0,
0,
0,
0,
0,
0,
0,
0,
1,
0,
0,
0,
0,
0,
1,
0,
0,
0,
0,
0,
0,
0,
0,
0,
0,
0,
0,
0,
0,
0,
0,
0,
0,
0,
0,
0,
0,
0,
0,
0,
0,
0,
0,
0,
0,
0,
0,
0,
0,
0,
0,
0,
0,
0,
0,
0,
0,
0,
0,
0,
0,
0,
0,
0,
0,
0,
0,
0,
0,
0,
0,
0,
0,
0,
0,
0,
0,
0,
0,
0,
0,
0,
0,
0,
0,
0,
0,
0,
0,
0,
0,
0,
0,
0,
0,
0,
0,
0,
0,
0,
0,
0,
0,
0,
0,
0,
0,
0,
0,
0,
0,
0,
0,
0,
0,
0,
0,
0,
0,
0,
0,
0,
0,
0,
0,
0,
0,
0,
0,
0,
0,
0,
0,
0,
0,
0,
0,
0,
0,
0,
0,
0,
0,
0,
0,
0,
0,
0,
0,
0,
0,
0,
0,
0,
0,
0,
0,
0,
0,
0,
0,
0,
0,
0,
0,
0,
0,
0,
0,
0,
0,
0,
0,
0,
0,
0,
0,
0,
0,
0,
0,
0,
0,
0,
0,
0,
0,
0,
0,
0,
0,
0,
0,
0,
0,
0,
0,
0,
0,
0,
0,
0,
0,
0,
0,
0,
0,
0,
0,
0,
0,
0,
0,
0,
0,
0,
0,
0,
0,
0,
0,
0,
0,
0,
0,
0,
0,
0,
0,
0,
0,
0,
0,
0,
0,
0,
0,
0,
0,
0,
#ENDOFDATA   :