File: N132962/Quantification/20 keV/MMM2/SPI MM2 Sphene[5][4].msa
#FORMAT      : EMSA/MAS Spectral Data File
#VERSION     : 1.0
#TITLE       : SPI MM2 Sphene[5][all]
#DATE        : 13-MAR-2025
#TIME        : 13:04
#OWNER       : Unknown
#NPOINTS     : 4096
#NCOLUMNS    : 1
#XUNITS      : eV
#YUNITS      : counts
#DATATYPE    : Y
#XPERCHAN    : 9.99778
#OFFSET      : 1.69135
#BEAMKV      : 20
#SIGNALTYPE  : EDS
#ELEVANGLE   : 35
#AZIMANGLE   : 0
#LIVETIME    : 239.855
#REALTIME    : 254.819
#PROBECUR    : 1.02627
#TAUWIND     : 0
#TDEADLYR    : 0
#TACTLYR     : 0.045
#TALWIND     : 0.025
#CHOFFSET    : 0.0
#XLABEL      : Energy (eV)
#YLABEL      : Counts
#XPOSITION   : 6.07416
#YPOSITION   : 3.81421
#ZPOSITION   : 31.03511
#EDSDET      : SD
##SPECIMEN   : SPI MM2 Sphene[5][all]
##DET_HASH   : 12273538-fd48-a23f-0a19-f1e6fa85caef
##CALIB_HASH : 6abaa72c-aa41-8738-0be9-f592914732f3
##WORKING    : 15.0 mm
##DET_NAME   : EDAX All
##DET_MODE   : MediumLE
#SPECTRUM    :
28,
29,
10,
11,
71,
316,
947,
3191,
9567,
13917,
9850,
6031,
6134,
7052,
7938,
12563,
33940,
63405,
45853,
12755,
2683,
1773,
2121,
2358,
2393,
2066,
2167,
2218,
2425,
2613,
2531,
2669,
2808,
2969,
3078,
3230,
3265,
3287,
3507,
3605,
3694,
3845,
3975,
4007,
4124,
4389,
4580,
5100,
7150,
10052,
10335,
7802,
5904,
5371,
5908,
11653,
38546,
95376,
129320,
92670,
38755,
14686,
7891,
5281,
4615,
4716,
4380,
3941,
3660,
3516,
3571,
3675,
3669,
3616,
3790,
3843,
3783,
3620,
3476,
3436,
3420,
3359,
3380,
3261,
3342,
3378,
3282,
3239,
3300,
3318,
3398,
3560,
3773,
3540,
3334,
3141,
3083,
2974,
3039,
3046,
2996,
2987,
3019,
2985,
3005,
2916,
3011,
3061,
2988,
2783,
2811,
2882,
2808,
2678,
2687,
2899,
3034,
3353,
4051,
7105,
17451,
43298,
80979,
102732,
85794,
48367,
19423,
6815,
3532,
3033,
3556,
5268,
8959,
13069,
14481,
11498,
7072,
4011,
2426,
2063,
2028,
2127,
2015,
2217,
2351,
2860,
4968,
12008,
28790,
53774,
71618,
67293,
44699,
21653,
8007,
3342,
2116,
1949,
1893,
2073,
2385,
3480,
5552,
8577,
11130,
10743,
8074,
4961,
2823,
1882,
1624,
1444,
1435,
1448,
1367,
1556,
1470,
1449,
1394,
1528,
1650,
1547,
1517,
1503,
1435,
1357,
1419,
1332,
1368,
1320,
1288,
1245,
1391,
1345,
1344,
1298,
1339,
1304,
1379,
1298,
1238,
1220,
1236,
1179,
1153,
1241,
1261,
1295,
1281,
1336,
1457,
1645,
1868,
1985,
1975,
1747,
1438,
1333,
1169,
1148,
1088,
1085,
1113,
1101,
1095,
1001,
1003,
1068,
1031,
1038,
1012,
1065,
1026,
1119,
1145,
1149,
1013,
1052,
1003,
1064,
952,
949,
885,
922,
976,
1009,
984,
926,
917,
976,
960,
931,
926,
851,
867,
890,
890,
849,
844,
868,
836,
888,
803,
829,
821,
761,
856,
799,
782,
820,
842,
850,
801,
901,
852,
808,
814,
770,
769,
725,
798,
724,
723,
703,
690,
741,
703,
696,
658,
688,
708,
696,
699,
650,
656,
675,
658,
585,
666,
618,
664,
704,
609,
630,
646,
628,
637,
624,
609,
609,
575,
607,
624,
572,
584,
602,
558,
574,
591,
561,
540,
550,
552,
554,
517,
531,
523,
576,
441,
559,
501,
487,
505,
541,
514,
528,
522,
511,
481,
503,
498,
477,
490,
488,
518,
437,
410,
447,
471,
474,
448,
437,
442,
417,
391,
438,
458,
418,
469,
435,
454,
409,
447,
350,
407,
405,
406,
370,
371,
388,
372,
396,
360,
354,
390,
378,
363,
348,
371,
360,
388,
358,
325,
322,
348,
320,
342,
308,
343,
335,
322,
320,
303,
348,
312,
276,
309,
307,
294,
303,
289,
309,
303,
295,
298,
280,
281,
264,
278,
251,
293,
229,
263,
230,
266,
248,
284,
238,
236,
245,
240,
225,
237,
256,
219,
246,
235,
231,
217,
239,
228,
209,
230,
223,
205,
205,
223,
205,
226,
194,
192,
197,
205,
200,
192,
205,
209,
201,
182,
181,
158,
191,
172,
173,
195,
156,
187,
172,
168,
164,
183,
164,
155,
155,
144,
187,
140,
150,
159,
170,
144,
136,
153,
153,
129,
152,
130,
113,
132,
138,
131,
138,
126,
128,
148,
118,
101,
115,
131,
98,
128,
104,
116,
105,
124,
129,
104,
110,
108,
99,
89,
103,
98,
100,
85,
111,
99,
86,
94,
92,
79,
105,
83,
77,
74,
88,
84,
79,
71,
82,
81,
73,
86,
74,
73,
94,
78,
68,
84,
63,
70,
65,
68,
81,
74,
64,
82,
66,
59,
78,
57,
64,
62,
54,
57,
64,
72,
55,
44,
65,
44,
57,
45,
57,
46,
47,
50,
56,
41,
55,
45,
52,
50,
39,
51,
40,
49,
39,
37,
40,
35,
53,
33,
43,
34,
26,
33,
47,
43,
38,
30,
32,
30,
26,
27,
34,
34,
27,
27,
38,
37,
23,
29,
31,
31,
33,
19,
28,
21,
25,
21,
23,
28,
11,
19,
24,
13,
26,
20,
15,
22,
20,
23,
15,
18,
25,
20,
18,
9,
7,
5,
13,
8,
16,
16,
9,
10,
12,
13,
18,
10,
7,
9,
11,
7,
7,
12,
9,
7,
4,
8,
13,
6,
5,
6,
10,
8,
5,
5,
7,
10,
7,
6,
3,
5,
4,
7,
7,
3,
0,
3,
2,
1,
1,
0,
1,
2,
0,
0,
0,
1,
0,
1,
2,
0,
1,
1,
0,
0,
0,
0,
0,
1,
0,
0,
0,
0,
1,
0,
1,
1,
0,
0,
0,
0,
1,
0,
0,
0,
1,
1,
0,
0,
0,
0,
0,
0,
1,
1,
0,
1,
0,
0,
0,
1,
0,
0,
0,
0,
0,
0,
1,
1,
1,
0,
0,
0,
0,
0,
0,
0,
0,
1,
1,
0,
0,
0,
0,
1,
0,
0,
0,
0,
0,
0,
1,
0,
0,
0,
0,
0,
0,
0,
1,
0,
0,
0,
1,
0,
0,
0,
0,
0,
0,
0,
0,
0,
0,
0,
0,
0,
0,
0,
0,
0,
0,
0,
0,
0,
0,
0,
0,
0,
0,
0,
0,
0,
0,
0,
0,
0,
0,
0,
0,
0,
0,
0,
0,
0,
0,
0,
0,
0,
0,
0,
0,
0,
0,
0,
0,
0,
0,
0,
0,
0,
0,
0,
0,
1,
0,
0,
0,
0,
0,
0,
0,
0,
0,
0,
0,
0,
0,
0,
0,
0,
0,
0,
0,
1,
0,
0,
0,
0,
0,
0,
0,
0,
0,
0,
0,
0,
0,
0,
0,
0,
0,
0,
0,
0,
0,
0,
0,
0,
0,
0,
0,
0,
0,
0,
0,
0,
0,
0,
0,
0,
0,
0,
0,
0,
0,
0,
0,
0,
0,
0,
0,
0,
0,
0,
0,
0,
0,
0,
0,
0,
0,
0,
0,
0,
0,
0,
0,
0,
0,
0,
0,
0,
0,
0,
0,
0,
0,
0,
0,
0,
0,
0,
0,
0,
0,
0,
0,
0,
0,
0,
0,
0,
0,
0,
0,
0,
0,
0,
0,
0,
0,
0,
0,
0,
0,
0,
0,
0,
0,
0,
0,
0,
0,
0,
0,
0,
0,
0,
0,
0,
0,
0,
1,
0,
0,
0,
0,
0,
0,
0,
0,
0,
0,
0,
0,
0,
0,
0,
0,
0,
0,
0,
0,
0,
0,
0,
0,
0,
0,
0,
0,
0,
0,
0,
0,
0,
0,
0,
0,
0,
0,
0,
0,
0,
0,
0,
0,
0,
0,
0,
0,
0,
0,
0,
0,
0,
0,
0,
0,
0,
0,
0,
0,
0,
0,
0,
0,
0,
0,
0,
0,
0,
0,
0,
0,
0,
0,
0,
0,
0,
0,
0,
0,
0,
0,
0,
0,
0,
0,
0,
0,
0,
0,
0,
0,
0,
0,
0,
0,
0,
0,
0,
0,
0,
0,
0,
0,
0,
0,
0,
0,
0,
0,
0,
0,
0,
0,
0,
0,
0,
0,
0,
0,
0,
0,
0,
0,
0,
0,
0,
0,
0,
0,
0,
0,
0,
0,
0,
0,
0,
0,
0,
0,
0,
0,
0,
0,
0,
0,
0,
0,
0,
0,
0,
0,
0,
0,
0,
0,
0,
0,
0,
0,
0,
0,
0,
0,
0,
0,
0,
0,
0,
0,
0,
0,
0,
0,
0,
0,
0,
0,
0,
0,
0,
0,
0,
0,
0,
0,
0,
0,
0,
0,
0,
0,
0,
0,
0,
0,
0,
0,
0,
0,
0,
0,
0,
0,
0,
0,
0,
0,
0,
0,
0,
0,
0,
0,
0,
0,
0,
0,
0,
0,
0,
0,
0,
0,
0,
0,
0,
0,
0,
0,
0,
0,
0,
0,
0,
0,
0,
0,
0,
0,
0,
0,
0,
0,
0,
0,
0,
0,
0,
0,
0,
0,
0,
0,
0,
0,
0,
0,
0,
0,
0,
0,
0,
0,
0,
0,
0,
0,
0,
0,
0,
0,
0,
0,
0,
0,
0,
0,
0,
0,
0,
0,
0,
0,
0,
0,
0,
0,
0,
0,
0,
0,
0,
0,
0,
0,
0,
0,
0,
0,
0,
0,
0,
0,
0,
0,
0,
0,
0,
0,
0,
0,
0,
0,
0,
0,
0,
0,
0,
0,
0,
0,
0,
0,
0,
0,
0,
0,
0,
0,
0,
0,
0,
0,
0,
0,
0,
0,
0,
0,
0,
0,
0,
0,
0,
0,
0,
0,
0,
0,
0,
0,
0,
0,
0,
0,
0,
0,
0,
0,
0,
0,
0,
0,
0,
0,
0,
0,
0,
0,
0,
0,
0,
0,
0,
0,
0,
0,
0,
0,
0,
0,
0,
0,
0,
0,
0,
0,
0,
0,
0,
0,
0,
0,
0,
0,
0,
0,
0,
0,
0,
0,
0,
0,
0,
0,
0,
0,
#ENDOFDATA   :