File: N132962/Quantification/20 keV/MMM2/SPI MM2 Zircon[2][4].msa
#FORMAT      : EMSA/MAS Spectral Data File
#VERSION     : 1.0
#TITLE       : SPI MM2 Zircon[2][all]
#DATE        : 13-MAR-2025
#TIME        : 13:46
#OWNER       : Unknown
#NPOINTS     : 4096
#NCOLUMNS    : 1
#XUNITS      : eV
#YUNITS      : counts
#DATATYPE    : Y
#XPERCHAN    : 9.99778
#OFFSET      : 1.69135
#BEAMKV      : 20
#SIGNALTYPE  : EDS
#ELEVANGLE   : 35
#AZIMANGLE   : 0
#LIVETIME    : 239.859
#REALTIME    : 257.446
#PROBECUR    : 1.0264
#TAUWIND     : 0
#TDEADLYR    : 0
#TACTLYR     : 0.045
#TALWIND     : 0.025
#CHOFFSET    : 0.0
#XLABEL      : Energy (eV)
#YLABEL      : Counts
#XPOSITION   : -2.66698
#YPOSITION   : 6.7537
#ZPOSITION   : 31.03511
#EDSDET      : SD
##SPECIMEN   : SPI MM2 Zircon[2][all]
##DET_HASH   : 12273538-fd48-a23f-0a19-f1e6fa85caef
##CALIB_HASH : 6abaa72c-aa41-8738-0be9-f592914732f3
##WORKING    : 15.0 mm
##DET_NAME   : EDAX All
##DET_MODE   : MediumLE
#SPECTRUM    :
23,
20,
15,
44,
314,
899,
1603,
3865,
10687,
15704,
10329,
4688,
3903,
4150,
4548,
10980,
37617,
71971,
53189,
15231,
3801,
2816,
3040,
3286,
3409,
3536,
3659,
3947,
4401,
4466,
4446,
4558,
4683,
4898,
5031,
5244,
5427,
5465,
5682,
5832,
6023,
6243,
6381,
6674,
6507,
6805,
6855,
7097,
7180,
7633,
7708,
7780,
8194,
8587,
10626,
18512,
51017,
119969,
162582,
120670,
56826,
25634,
14938,
11241,
11862,
20921,
51499,
109837,
154175,
137248,
102477,
79808,
54579,
30950,
17658,
10303,
6267,
4665,
3804,
3328,
3130,
3421,
3802,
4167,
4120,
3812,
3318,
3232,
3051,
3119,
3107,
3065,
3002,
3141,
3077,
3045,
3087,
3091,
3165,
3135,
3146,
3112,
3200,
3129,
3144,
3111,
3139,
3189,
3134,
3210,
3164,
3063,
3126,
3096,
3190,
3243,
3174,
3195,
3172,
3011,
2940,
3145,
3174,
3105,
3239,
3298,
3259,
3320,
3218,
3106,
3213,
3041,
2978,
2985,
2929,
3096,
3065,
3108,
2948,
2882,
2909,
2903,
2864,
2846,
2849,
2779,
2687,
2763,
2713,
2708,
2637,
2663,
2636,
2637,
2679,
2556,
2664,
2627,
2681,
2591,
2576,
2563,
2487,
2499,
2559,
2458,
2502,
2571,
2502,
2480,
2499,
2350,
2345,
2354,
2370,
2420,
2359,
2266,
2369,
2274,
2413,
2260,
2336,
2255,
2302,
2190,
2139,
2244,
2242,
2077,
2147,
2130,
2215,
2150,
2164,
2145,
2111,
2192,
2070,
2087,
2076,
2100,
1960,
1960,
2042,
2029,
1945,
1923,
1973,
1965,
2025,
1939,
2177,
2135,
2175,
2069,
1971,
1927,
1856,
1854,
1801,
1877,
1791,
1841,
1797,
1707,
1779,
1737,
1674,
1751,
1753,
1670,
1663,
1639,
1683,
1684,
1658,
1637,
1645,
1646,
1599,
1538,
1562,
1606,
1568,
1537,
1518,
1656,
1547,
1687,
1646,
1608,
1464,
1434,
1489,
1392,
1480,
1432,
1427,
1504,
1531,
1588,
1707,
1709,
1633,
1563,
1487,
1357,
1329,
1342,
1340,
1348,
1320,
1315,
1327,
1310,
1352,
1261,
1228,
1279,
1262,
1230,
1199,
1169,
1231,
1209,
1229,
1179,
1207,
1136,
1187,
1209,
1209,
1133,
1139,
1132,
1154,
1085,
1188,
1219,
1240,
1229,
1222,
1090,
1109,
1095,
1086,
1098,
1132,
1003,
1077,
1064,
1083,
1029,
1019,
997,
1028,
997,
965,
928,
997,
962,
973,
971,
908,
913,
942,
916,
944,
923,
917,
923,
919,
849,
854,
890,
830,
899,
889,
814,
778,
820,
847,
783,
781,
843,
795,
808,
793,
799,
776,
787,
758,
776,
767,
719,
803,
742,
741,
730,
695,
702,
679,
695,
748,
715,
684,
704,
674,
635,
654,
721,
679,
681,
663,
673,
620,
690,
650,
592,
591,
628,
598,
617,
608,
609,
591,
563,
599,
602,
580,
597,
574,
569,
587,
577,
546,
543,
502,
497,
513,
502,
533,
515,
478,
522,
500,
486,
477,
485,
451,
466,
470,
468,
478,
478,
499,
447,
435,
399,
422,
431,
397,
448,
426,
435,
430,
400,
393,
377,
403,
371,
394,
386,
399,
392,
370,
398,
347,
366,
371,
351,
361,
371,
349,
348,
307,
341,
360,
308,
360,
337,
336,
321,
308,
295,
313,
310,
314,
290,
311,
304,
299,
302,
291,
280,
258,
288,
248,
264,
284,
295,
294,
277,
236,
249,
262,
266,
229,
261,
248,
248,
234,
213,
215,
256,
231,
222,
224,
218,
239,
205,
209,
188,
232,
182,
215,
218,
185,
210,
188,
209,
160,
177,
167,
183,
197,
170,
168,
165,
160,
169,
166,
185,
169,
161,
176,
210,
199,
281,
308,
371,
426,
493,
541,
525,
508,
420,
327,
284,
214,
168,
153,
169,
147,
112,
142,
126,
137,
111,
106,
102,
90,
111,
107,
122,
115,
99,
104,
117,
109,
98,
119,
91,
102,
108,
85,
85,
110,
91,
99,
78,
83,
84,
77,
69,
68,
69,
76,
85,
70,
72,
81,
81,
70,
73,
78,
61,
75,
70,
76,
70,
61,
65,
71,
102,
122,
119,
106,
92,
92,
94,
63,
84,
68,
66,
64,
49,
58,
54,
39,
61,
40,
43,
36,
37,
39,
38,
29,
32,
31,
35,
28,
30,
32,
29,
26,
25,
31,
28,
25,
18,
18,
24,
26,
24,
23,
22,
18,
30,
16,
24,
24,
20,
19,
21,
18,
20,
18,
19,
12,
17,
16,
10,
13,
11,
14,
8,
7,
11,
11,
5,
12,
1,
9,
9,
5,
4,
5,
2,
5,
3,
4,
4,
2,
1,
3,
0,
1,
0,
2,
0,
1,
0,
1,
1,
0,
0,
1,
1,
1,
2,
1,
1,
1,
1,
2,
0,
1,
0,
1,
1,
0,
0,
0,
1,
0,
1,
0,
1,
0,
0,
1,
1,
0,
1,
1,
0,
1,
0,
0,
1,
0,
0,
0,
1,
0,
0,
2,
0,
0,
1,
1,
0,
0,
0,
0,
0,
0,
1,
1,
0,
0,
0,
0,
0,
0,
1,
1,
0,
0,
0,
0,
0,
0,
0,
0,
0,
0,
0,
0,
0,
0,
0,
1,
0,
0,
0,
0,
0,
0,
0,
0,
0,
0,
1,
0,
0,
0,
0,
1,
0,
0,
1,
0,
1,
0,
0,
0,
0,
0,
0,
0,
0,
0,
0,
0,
0,
0,
0,
0,
0,
0,
1,
0,
0,
0,
0,
0,
0,
0,
0,
0,
0,
0,
1,
0,
0,
0,
1,
0,
0,
0,
0,
0,
0,
0,
0,
0,
0,
0,
0,
0,
0,
0,
0,
0,
0,
0,
0,
0,
0,
0,
0,
0,
0,
0,
0,
0,
0,
0,
0,
0,
0,
0,
0,
0,
0,
0,
0,
0,
0,
0,
0,
0,
0,
0,
0,
0,
0,
0,
0,
0,
0,
0,
0,
0,
0,
0,
1,
0,
0,
0,
0,
0,
0,
0,
0,
0,
0,
0,
1,
0,
0,
0,
0,
0,
0,
0,
0,
0,
0,
0,
0,
0,
0,
0,
0,
0,
0,
0,
0,
0,
0,
0,
0,
0,
0,
0,
0,
0,
0,
0,
0,
0,
0,
0,
0,
0,
0,
0,
0,
0,
0,
0,
0,
0,
0,
0,
0,
0,
0,
0,
0,
0,
1,
1,
0,
0,
0,
0,
0,
0,
0,
0,
0,
0,
0,
0,
0,
0,
0,
0,
0,
0,
0,
0,
0,
0,
0,
0,
0,
0,
0,
1,
0,
0,
0,
0,
0,
0,
0,
0,
0,
0,
0,
0,
0,
0,
0,
0,
0,
0,
0,
0,
0,
0,
0,
0,
0,
0,
0,
0,
0,
0,
0,
0,
0,
0,
0,
0,
0,
0,
0,
0,
0,
0,
0,
0,
0,
0,
0,
0,
0,
0,
0,
0,
0,
0,
0,
0,
0,
0,
0,
0,
0,
0,
0,
0,
0,
0,
0,
0,
0,
0,
0,
0,
0,
0,
0,
0,
0,
0,
0,
0,
0,
0,
0,
0,
0,
0,
0,
0,
0,
0,
0,
0,
0,
0,
0,
0,
0,
0,
0,
0,
0,
0,
0,
1,
0,
0,
0,
0,
0,
0,
0,
0,
0,
0,
0,
0,
0,
0,
0,
0,
0,
0,
0,
0,
0,
0,
0,
0,
0,
0,
0,
0,
0,
0,
0,
0,
0,
0,
0,
0,
0,
0,
0,
0,
0,
0,
0,
0,
0,
0,
0,
0,
0,
0,
0,
0,
0,
0,
0,
0,
0,
0,
0,
0,
0,
0,
0,
0,
0,
0,
0,
0,
0,
0,
0,
0,
0,
0,
0,
0,
0,
0,
0,
0,
0,
0,
0,
0,
0,
0,
0,
0,
0,
0,
0,
0,
0,
0,
0,
0,
0,
0,
0,
0,
0,
0,
0,
0,
0,
0,
0,
0,
0,
0,
0,
0,
0,
0,
0,
0,
0,
0,
0,
0,
0,
0,
0,
0,
0,
0,
0,
0,
0,
0,
0,
0,
0,
0,
0,
0,
0,
0,
0,
0,
0,
0,
0,
0,
0,
0,
0,
0,
0,
0,
0,
0,
0,
0,
0,
0,
0,
0,
0,
0,
0,
0,
0,
0,
0,
0,
0,
0,
0,
0,
0,
0,
0,
0,
0,
0,
0,
0,
0,
0,
0,
0,
0,
0,
0,
0,
0,
0,
0,
0,
0,
0,
0,
0,
0,
0,
0,
0,
0,
0,
0,
0,
0,
0,
0,
0,
0,
0,
0,
0,
0,
0,
0,
0,
0,
0,
0,
0,
0,
0,
0,
0,
0,
0,
0,
0,
0,
0,
0,
0,
0,
0,
0,
0,
0,
0,
0,
0,
0,
0,
0,
0,
0,
0,
0,
0,
0,
0,
0,
0,
0,
0,
0,
0,
0,
0,
0,
0,
0,
0,
0,
0,
0,
0,
0,
0,
0,
0,
0,
0,
0,
0,
0,
0,
0,
0,
0,
0,
0,
0,
0,
0,
0,
0,
0,
0,
0,
0,
0,
0,
0,
0,
0,
0,
0,
0,
0,
#ENDOFDATA   :