File: N132962/Quantification/20 keV/MMM2/SPI MM2 MgAl2O4[3][4].msa
#FORMAT      : EMSA/MAS Spectral Data File
#VERSION     : 1.0
#TITLE       : SPI MM2 MgAl2O4[3][all]
#DATE        : 13-MAR-2025
#TIME        : 09:30
#OWNER       : Unknown
#NPOINTS     : 4096
#NCOLUMNS    : 1
#XUNITS      : eV
#YUNITS      : counts
#DATATYPE    : Y
#XPERCHAN    : 9.99778
#OFFSET      : 1.69135
#BEAMKV      : 20
#SIGNALTYPE  : EDS
#ELEVANGLE   : 35
#AZIMANGLE   : 0
#LIVETIME    : 239.8274
#REALTIME    : 256.364
#PROBECUR    : 1.02582
#TAUWIND     : 0
#TDEADLYR    : 0
#TACTLYR     : 0.045
#TALWIND     : 0.025
#CHOFFSET    : 0.0
#XLABEL      : Energy (eV)
#YLABEL      : Counts
#XPOSITION   : 0.87938
#YPOSITION   : -5.3522
#ZPOSITION   : 31.03509
#EDSDET      : SD
##SPECIMEN   : SPI MM2 MgAl2O4[3][all]
##D2STDCMP   : MgAl2O4,(O:44.9839),(Mg:17.0844),(Al:37.9316)
##DET_HASH   : 12273538-fd48-a23f-0a19-f1e6fa85caef
##CALIB_HASH : 6abaa72c-aa41-8738-0be9-f592914732f3
##WORKING    : 15.0 mm
##DET_NAME   : EDAX All
##DET_MODE   : MediumLE
#SPECTRUM    :
20,
23,
8,
10,
73,
266,
773,
2575,
7146,
9484,
5118,
2533,
2489,
3442,
6568,
26014,
105667,
206237,
150915,
39514,
5212,
1777,
1774,
2157,
2185,
2351,
2441,
2601,
2891,
2899,
3083,
3236,
3448,
3842,
4136,
4505,
4781,
5123,
6454,
14256,
51945,
126953,
152774,
86563,
26453,
8433,
8776,
32776,
123143,
254507,
258225,
130806,
38427,
9750,
3648,
2254,
2101,
2297,
2635,
2834,
2601,
2337,
2091,
2028,
2046,
2293,
2782,
2839,
2574,
2351,
2110,
2130,
2064,
2102,
2138,
2151,
2115,
2240,
2189,
2146,
2156,
2175,
2226,
2345,
2285,
2275,
2200,
2148,
2164,
2304,
2512,
2554,
2628,
2401,
2348,
2159,
2116,
2262,
2396,
2548,
2446,
2241,
2054,
2022,
1984,
1930,
1965,
2018,
1901,
1964,
1838,
1945,
1902,
1883,
1856,
1799,
1885,
1815,
1808,
1731,
1702,
1735,
1738,
1758,
1736,
1752,
1676,
1752,
1752,
1637,
1610,
1580,
1570,
1613,
1608,
1546,
1524,
1584,
1547,
1573,
1530,
1478,
1493,
1525,
1448,
1505,
1467,
1439,
1442,
1449,
1410,
1427,
1412,
1371,
1391,
1369,
1373,
1274,
1403,
1321,
1321,
1285,
1313,
1284,
1281,
1286,
1294,
1192,
1326,
1136,
1227,
1221,
1217,
1239,
1148,
1110,
1119,
1135,
1167,
1170,
1186,
1146,
1107,
1131,
1088,
1032,
1044,
1113,
1061,
1050,
1039,
1035,
992,
1031,
989,
1054,
1001,
964,
979,
958,
936,
923,
916,
946,
946,
966,
982,
871,
929,
859,
875,
909,
976,
1031,
1010,
889,
904,
881,
874,
824,
821,
815,
844,
821,
816,
845,
889,
779,
820,
746,
814,
761,
780,
708,
777,
760,
707,
753,
721,
703,
761,
734,
632,
705,
700,
722,
665,
705,
712,
709,
683,
638,
631,
653,
668,
698,
602,
639,
613,
607,
606,
610,
625,
627,
595,
622,
624,
571,
565,
568,
575,
552,
582,
530,
548,
547,
543,
571,
557,
546,
522,
501,
529,
489,
497,
544,
514,
466,
464,
495,
495,
469,
486,
494,
485,
495,
479,
448,
430,
474,
468,
481,
427,
423,
456,
459,
458,
428,
410,
452,
406,
449,
426,
456,
427,
434,
420,
369,
392,
410,
402,
354,
386,
373,
370,
362,
407,
427,
326,
365,
376,
377,
351,
348,
324,
356,
347,
363,
357,
383,
326,
345,
305,
316,
323,
322,
340,
325,
327,
294,
322,
299,
312,
312,
270,
276,
295,
319,
291,
300,
274,
285,
268,
259,
284,
276,
265,
253,
281,
301,
268,
264,
265,
262,
264,
245,
246,
249,
227,
257,
224,
256,
220,
243,
210,
196,
211,
241,
215,
198,
244,
202,
240,
200,
227,
217,
229,
195,
200,
196,
188,
182,
199,
201,
188,
199,
181,
192,
160,
195,
193,
157,
180,
188,
174,
187,
168,
167,
204,
176,
157,
167,
151,
128,
163,
168,
149,
153,
155,
149,
185,
150,
149,
164,
142,
144,
160,
135,
136,
124,
122,
127,
143,
121,
131,
128,
147,
142,
139,
119,
127,
122,
127,
106,
119,
124,
126,
113,
93,
125,
98,
99,
83,
112,
100,
109,
93,
106,
94,
86,
110,
94,
87,
105,
90,
83,
100,
83,
91,
89,
102,
80,
81,
79,
92,
94,
84,
75,
75,
53,
72,
67,
63,
76,
64,
69,
69,
76,
88,
64,
51,
69,
58,
57,
70,
55,
66,
48,
66,
49,
58,
64,
66,
48,
65,
65,
62,
41,
39,
53,
60,
53,
57,
42,
51,
51,
49,
45,
46,
48,
52,
33,
54,
41,
36,
46,
36,
52,
38,
46,
36,
39,
39,
37,
34,
38,
35,
34,
38,
40,
27,
30,
35,
27,
26,
33,
33,
32,
22,
29,
25,
35,
25,
34,
18,
34,
24,
25,
24,
31,
35,
20,
20,
20,
22,
26,
28,
19,
18,
21,
25,
24,
20,
17,
22,
29,
10,
14,
19,
17,
19,
20,
15,
16,
13,
18,
20,
17,
9,
16,
12,
9,
8,
17,
13,
13,
9,
9,
12,
7,
12,
9,
17,
11,
8,
9,
9,
8,
6,
9,
10,
6,
5,
14,
5,
6,
10,
6,
8,
6,
5,
5,
7,
11,
3,
6,
3,
5,
4,
2,
2,
6,
2,
3,
1,
4,
3,
5,
6,
4,
5,
0,
1,
0,
2,
1,
1,
2,
1,
2,
0,
0,
1,
1,
2,
0,
0,
0,
0,
1,
0,
0,
0,
1,
0,
0,
0,
0,
1,
0,
0,
0,
0,
0,
0,
0,
1,
0,
0,
0,
0,
0,
0,
0,
0,
0,
0,
0,
0,
0,
0,
0,
0,
0,
0,
0,
0,
0,
0,
0,
0,
0,
0,
0,
0,
0,
0,
0,
0,
0,
1,
0,
0,
0,
0,
0,
1,
0,
0,
0,
0,
0,
0,
0,
0,
0,
0,
0,
0,
0,
0,
0,
0,
0,
0,
0,
0,
0,
0,
0,
0,
0,
0,
0,
0,
0,
0,
0,
0,
0,
0,
0,
0,
0,
0,
0,
0,
0,
0,
0,
0,
0,
0,
0,
0,
0,
0,
0,
0,
0,
0,
0,
0,
0,
0,
0,
0,
0,
0,
0,
0,
0,
0,
0,
0,
0,
0,
0,
0,
0,
0,
0,
0,
0,
0,
0,
0,
0,
0,
1,
0,
0,
0,
0,
0,
0,
0,
0,
0,
0,
0,
0,
0,
0,
0,
0,
0,
0,
0,
0,
0,
0,
0,
0,
0,
0,
0,
0,
0,
0,
0,
0,
0,
0,
0,
0,
0,
0,
0,
0,
0,
0,
0,
1,
0,
0,
0,
0,
0,
0,
0,
0,
0,
0,
0,
0,
0,
0,
0,
0,
0,
0,
0,
0,
0,
0,
0,
0,
0,
0,
0,
0,
0,
0,
0,
0,
0,
0,
0,
0,
0,
0,
0,
0,
0,
0,
0,
0,
0,
0,
0,
0,
0,
0,
0,
0,
0,
0,
0,
0,
0,
0,
0,
0,
0,
0,
0,
0,
0,
0,
0,
0,
0,
0,
0,
0,
0,
0,
0,
0,
0,
0,
0,
0,
0,
0,
0,
0,
0,
0,
0,
0,
0,
0,
0,
0,
0,
0,
0,
0,
0,
0,
0,
0,
0,
0,
0,
0,
0,
0,
0,
0,
0,
0,
0,
0,
0,
0,
0,
0,
0,
0,
0,
0,
0,
0,
0,
0,
0,
0,
0,
0,
0,
0,
0,
0,
0,
0,
0,
0,
0,
0,
0,
0,
0,
0,
0,
0,
0,
0,
0,
0,
0,
0,
0,
0,
0,
0,
0,
0,
0,
0,
0,
0,
0,
0,
0,
0,
0,
0,
0,
0,
0,
0,
0,
0,
0,
0,
0,
0,
0,
0,
0,
0,
0,
0,
0,
0,
0,
0,
0,
0,
0,
0,
0,
0,
0,
0,
0,
0,
0,
0,
0,
0,
0,
0,
0,
0,
0,
0,
0,
0,
0,
0,
0,
0,
0,
0,
0,
0,
0,
0,
0,
0,
0,
0,
0,
0,
0,
0,
0,
0,
0,
0,
0,
0,
0,
0,
0,
0,
0,
0,
0,
0,
0,
0,
0,
0,
0,
0,
0,
0,
0,
0,
0,
0,
0,
0,
0,
0,
0,
0,
0,
0,
0,
0,
0,
0,
0,
0,
0,
0,
0,
0,
0,
0,
0,
0,
0,
0,
0,
0,
0,
0,
0,
0,
0,
0,
0,
0,
0,
0,
0,
0,
0,
0,
0,
0,
0,
0,
0,
0,
0,
0,
0,
0,
0,
0,
0,
0,
0,
0,
0,
0,
0,
0,
0,
0,
0,
0,
0,
0,
0,
0,
0,
0,
0,
0,
0,
0,
0,
0,
0,
0,
0,
0,
0,
0,
0,
0,
0,
0,
0,
0,
0,
0,
0,
0,
0,
0,
0,
0,
0,
0,
0,
0,
0,
0,
0,
0,
0,
0,
0,
0,
0,
0,
0,
0,
0,
0,
0,
0,
0,
0,
0,
0,
0,
0,
0,
0,
0,
0,
0,
0,
0,
0,
0,
0,
0,
0,
0,
0,
0,
0,
0,
0,
0,
0,
0,
0,
0,
0,
0,
0,
0,
0,
0,
0,
0,
0,
0,
0,
0,
0,
0,
0,
0,
0,
0,
0,
0,
0,
0,
0,
0,
0,
0,
0,
0,
0,
0,
0,
0,
0,
0,
0,
0,
0,
0,
0,
0,
0,
0,
0,
0,
0,
0,
0,
0,
0,
0,
0,
0,
0,
0,
0,
0,
0,
0,
0,
0,
0,
0,
0,
0,
0,
0,
0,
0,
0,
0,
0,
0,
0,
0,
0,
0,
0,
0,
0,
0,
0,
0,
0,
0,
0,
0,
0,
0,
0,
0,
0,
0,
0,
0,
0,
0,
0,
0,
0,
0,
0,
0,
0,
0,
0,
0,
0,
0,
0,
0,
0,
0,
0,
0,
0,
#ENDOFDATA   :