File: N132962/Quantification/20 keV/MMM2/SPI MM2 Pyrope[4][4].msa
#FORMAT      : EMSA/MAS Spectral Data File
#VERSION     : 1.0
#TITLE       : SPI MM2 Pyrope[4][all]
#DATE        : 13-MAR-2025
#TIME        : 12:44
#OWNER       : Unknown
#NPOINTS     : 4096
#NCOLUMNS    : 1
#XUNITS      : eV
#YUNITS      : counts
#DATATYPE    : Y
#XPERCHAN    : 9.99778
#OFFSET      : 1.69135
#BEAMKV      : 20
#SIGNALTYPE  : EDS
#ELEVANGLE   : 35
#AZIMANGLE   : 0
#LIVETIME    : 240.067
#REALTIME    : 255.4001
#PROBECUR    : 1.02627
#TAUWIND     : 0
#TDEADLYR    : 0
#TACTLYR     : 0.045
#TALWIND     : 0.025
#CHOFFSET    : 0.0
#XLABEL      : Energy (eV)
#YLABEL      : Counts
#XPOSITION   : 4.6516
#YPOSITION   : 1.51224
#ZPOSITION   : 31.03511
#EDSDET      : SD
##SPECIMEN   : SPI MM2 Pyrope[4][all]
##D2STDCMP   : Pyrope,(O:47.6258),(Mg:18.0873),(Al:13.3861),(Si:20.9007),5.0
##DET_HASH   : 12273538-fd48-a23f-0a19-f1e6fa85caef
##CALIB_HASH : 6abaa72c-aa41-8738-0be9-f592914732f3
##WORKING    : 15.0 mm
##DET_NAME   : EDAX All
##DET_MODE   : MediumLE
#SPECTRUM    :
26,
24,
9,
16,
75,
262,
787,
2716,
7812,
10526,
5655,
2913,
2832,
3376,
6014,
22691,
90403,
177750,
129949,
34120,
5376,
3149,
4204,
6849,
6890,
4032,
2651,
2457,
2518,
2856,
2713,
2942,
3111,
3473,
3738,
3962,
4211,
4319,
4969,
9694,
32080,
78932,
94651,
54330,
17125,
6084,
5416,
12492,
39927,
80056,
81416,
42627,
14947,
6059,
5001,
10888,
40916,
104466,
143016,
101097,
41143,
14504,
7108,
4065,
2838,
2730,
2651,
2731,
2563,
2420,
2448,
2428,
2428,
2511,
2674,
2832,
2816,
2518,
2532,
2370,
2430,
2425,
2478,
2565,
2508,
2454,
2444,
2429,
2394,
2393,
2404,
2519,
2473,
2432,
2346,
2379,
2305,
2343,
2390,
2533,
2388,
2383,
2344,
2245,
2187,
2273,
2293,
2322,
2316,
2263,
2206,
2183,
2128,
2226,
2128,
2170,
2288,
2160,
2206,
2682,
3977,
7628,
12896,
15960,
13427,
8209,
4311,
2578,
2038,
1938,
2103,
2298,
2804,
3326,
3515,
3048,
2476,
2011,
1794,
1719,
1702,
1727,
1689,
1633,
1688,
1674,
1727,
1849,
1962,
2351,
2566,
2556,
2174,
1891,
1576,
1518,
1619,
1520,
1459,
1471,
1468,
1515,
1496,
1512,
1583,
1652,
1554,
1492,
1325,
1419,
1325,
1369,
1316,
1359,
1292,
1340,
1434,
1666,
2115,
2796,
3220,
3153,
2600,
1935,
1472,
1303,
1252,
1193,
1160,
1189,
1135,
1232,
1158,
1216,
1378,
1593,
1686,
1797,
1708,
1474,
1344,
1203,
1149,
1090,
1098,
1069,
1041,
1176,
1437,
2202,
4010,
7089,
10835,
13196,
12450,
9083,
5493,
2973,
1653,
1122,
991,
927,
974,
942,
928,
951,
949,
911,
940,
887,
1017,
1151,
1398,
1885,
2169,
2306,
2220,
1776,
1351,
1017,
870,
836,
803,
741,
772,
798,
784,
798,
785,
796,
759,
817,
768,
738,
728,
732,
739,
675,
692,
704,
711,
700,
669,
707,
699,
689,
699,
692,
668,
646,
649,
646,
658,
671,
659,
675,
662,
592,
610,
605,
628,
607,
592,
556,
630,
553,
603,
555,
588,
565,
580,
563,
565,
565,
553,
565,
554,
528,
594,
512,
527,
512,
522,
566,
486,
492,
473,
524,
468,
503,
512,
494,
506,
478,
476,
451,
461,
472,
445,
445,
448,
460,
448,
439,
455,
432,
428,
415,
460,
406,
424,
409,
404,
375,
407,
418,
417,
424,
400,
396,
433,
392,
362,
361,
379,
333,
385,
374,
378,
358,
369,
340,
343,
375,
341,
364,
324,
327,
366,
329,
329,
336,
313,
327,
320,
358,
327,
321,
304,
316,
301,
306,
286,
304,
308,
335,
269,
291,
277,
289,
266,
292,
288,
264,
270,
270,
269,
250,
259,
233,
267,
256,
252,
248,
252,
241,
256,
256,
223,
244,
224,
244,
223,
236,
255,
244,
246,
229,
217,
211,
197,
213,
203,
208,
194,
211,
199,
183,
195,
193,
189,
200,
157,
182,
197,
201,
164,
222,
158,
170,
179,
178,
177,
164,
120,
180,
139,
166,
174,
162,
133,
153,
154,
150,
167,
137,
140,
150,
119,
144,
151,
126,
135,
116,
129,
151,
129,
129,
134,
117,
141,
135,
117,
128,
123,
140,
112,
119,
123,
116,
131,
122,
123,
102,
113,
118,
104,
98,
103,
101,
101,
113,
104,
105,
88,
99,
86,
85,
91,
85,
97,
113,
92,
96,
92,
93,
74,
78,
95,
86,
72,
73,
66,
68,
83,
68,
81,
67,
69,
65,
71,
69,
71,
66,
62,
70,
82,
60,
65,
59,
52,
59,
51,
56,
70,
61,
62,
46,
59,
51,
49,
55,
50,
43,
70,
49,
48,
52,
49,
52,
40,
46,
43,
51,
48,
49,
42,
43,
48,
54,
38,
41,
40,
39,
43,
46,
37,
29,
28,
26,
33,
35,
28,
39,
34,
37,
32,
28,
34,
31,
36,
28,
29,
28,
29,
20,
23,
33,
30,
21,
19,
17,
22,
24,
26,
24,
16,
23,
14,
25,
28,
21,
24,
16,
12,
20,
18,
21,
21,
16,
18,
18,
10,
11,
15,
20,
15,
10,
19,
13,
11,
13,
11,
15,
15,
16,
7,
4,
14,
11,
11,
9,
10,
8,
8,
11,
5,
11,
8,
7,
7,
8,
6,
11,
5,
2,
6,
7,
5,
3,
8,
9,
5,
6,
2,
4,
1,
4,
4,
3,
6,
3,
7,
4,
2,
2,
1,
3,
6,
2,
0,
1,
2,
0,
0,
1,
1,
0,
0,
0,
0,
0,
0,
0,
0,
0,
0,
0,
0,
0,
0,
0,
0,
0,
0,
0,
0,
0,
0,
0,
0,
0,
0,
1,
0,
0,
0,
1,
0,
1,
0,
0,
0,
0,
0,
0,
0,
0,
0,
1,
0,
0,
0,
1,
0,
1,
0,
0,
1,
0,
0,
0,
0,
0,
0,
0,
0,
0,
0,
0,
0,
0,
0,
0,
0,
0,
0,
0,
0,
0,
0,
0,
0,
0,
0,
0,
0,
0,
0,
0,
0,
0,
0,
0,
0,
0,
0,
0,
0,
0,
0,
0,
0,
0,
0,
0,
0,
0,
0,
0,
0,
0,
0,
0,
0,
0,
0,
1,
0,
2,
0,
1,
0,
0,
0,
0,
0,
0,
0,
0,
0,
0,
0,
0,
0,
0,
0,
0,
0,
0,
1,
0,
0,
0,
0,
0,
0,
0,
0,
0,
0,
0,
0,
0,
0,
0,
0,
0,
0,
0,
0,
0,
0,
0,
0,
0,
0,
0,
0,
0,
0,
0,
0,
0,
0,
0,
0,
0,
0,
0,
0,
0,
0,
0,
0,
0,
0,
0,
0,
0,
0,
0,
0,
0,
0,
0,
0,
0,
0,
0,
0,
0,
0,
0,
0,
0,
0,
0,
0,
1,
0,
0,
0,
0,
0,
0,
0,
0,
0,
0,
0,
0,
0,
0,
0,
0,
0,
1,
0,
0,
0,
0,
0,
0,
0,
0,
0,
0,
0,
0,
0,
0,
0,
0,
0,
0,
0,
0,
0,
0,
0,
0,
0,
0,
0,
0,
0,
0,
0,
0,
0,
0,
0,
0,
0,
0,
0,
0,
0,
0,
0,
0,
0,
0,
0,
0,
0,
0,
0,
0,
0,
0,
0,
0,
0,
0,
0,
0,
0,
0,
0,
0,
0,
0,
0,
0,
0,
0,
0,
0,
0,
0,
0,
0,
0,
0,
0,
0,
0,
0,
0,
0,
0,
0,
0,
0,
0,
0,
0,
0,
0,
0,
0,
0,
0,
0,
0,
0,
0,
0,
0,
0,
0,
0,
0,
0,
0,
0,
0,
0,
0,
0,
0,
0,
0,
0,
0,
0,
0,
0,
0,
1,
0,
0,
0,
0,
0,
0,
0,
0,
0,
0,
0,
0,
0,
0,
0,
0,
0,
0,
0,
0,
0,
0,
0,
0,
0,
0,
0,
0,
0,
0,
0,
0,
0,
0,
0,
0,
0,
0,
0,
0,
0,
0,
0,
0,
0,
0,
0,
0,
0,
0,
0,
0,
0,
0,
0,
0,
0,
0,
0,
0,
0,
0,
0,
0,
0,
0,
0,
0,
0,
0,
0,
0,
0,
0,
0,
0,
0,
0,
0,
0,
0,
0,
0,
0,
0,
0,
0,
0,
0,
0,
0,
0,
0,
0,
0,
0,
0,
0,
0,
0,
0,
0,
0,
0,
0,
0,
0,
0,
0,
0,
0,
0,
0,
0,
0,
0,
0,
0,
0,
0,
0,
0,
0,
0,
0,
0,
0,
0,
0,
0,
0,
0,
0,
0,
0,
0,
0,
0,
0,
0,
0,
0,
0,
0,
0,
0,
0,
0,
0,
0,
0,
0,
0,
0,
0,
0,
0,
0,
0,
0,
0,
0,
0,
0,
0,
0,
0,
0,
0,
0,
0,
0,
0,
0,
0,
0,
0,
0,
0,
0,
0,
0,
0,
0,
0,
0,
0,
0,
0,
0,
0,
0,
0,
0,
0,
0,
0,
0,
0,
0,
0,
0,
0,
0,
0,
0,
0,
0,
0,
0,
0,
0,
0,
0,
0,
0,
0,
0,
0,
0,
0,
0,
0,
0,
0,
0,
0,
0,
0,
0,
0,
0,
0,
0,
0,
0,
0,
0,
0,
0,
0,
0,
0,
0,
0,
0,
0,
0,
0,
0,
0,
0,
0,
0,
0,
0,
0,
0,
0,
0,
0,
0,
0,
0,
0,
0,
0,
0,
0,
0,
0,
0,
0,
0,
0,
0,
0,
0,
0,
0,
0,
0,
0,
0,
0,
0,
0,
0,
0,
0,
0,
0,
0,
0,
0,
0,
0,
0,
0,
0,
0,
0,
0,
0,
0,
0,
0,
0,
0,
0,
0,
0,
0,
0,
0,
0,
0,
0,
0,
0,
0,
0,
0,
0,
0,
0,
0,
0,
0,
0,
0,
0,
0,
0,
0,
0,
0,
0,
0,
0,
0,
0,
0,
0,
0,
0,
0,
0,
0,
0,
0,
0,
0,
0,
#ENDOFDATA   :