File: N132962/Quantification/20 keV/MMM2/SPI MM2 Pyrope[5][4].msa
#FORMAT      : EMSA/MAS Spectral Data File
#VERSION     : 1.0
#TITLE       : SPI MM2 Pyrope[5][all]
#DATE        : 13-MAR-2025
#TIME        : 12:45
#OWNER       : Unknown
#NPOINTS     : 4096
#NCOLUMNS    : 1
#XUNITS      : eV
#YUNITS      : counts
#DATATYPE    : Y
#XPERCHAN    : 9.99778
#OFFSET      : 1.69135
#BEAMKV      : 20
#SIGNALTYPE  : EDS
#ELEVANGLE   : 35
#AZIMANGLE   : 0
#LIVETIME    : 240.022
#REALTIME    : 255.341
#PROBECUR    : 1.02627
#TAUWIND     : 0
#TDEADLYR    : 0
#TACTLYR     : 0.045
#TALWIND     : 0.025
#CHOFFSET    : 0.0
#XLABEL      : Energy (eV)
#YLABEL      : Counts
#XPOSITION   : 4.64812
#YPOSITION   : 1.52895
#ZPOSITION   : 31.03511
#EDSDET      : SD
##SPECIMEN   : SPI MM2 Pyrope[5][all]
##D2STDCMP   : Pyrope,(O:47.6258),(Mg:18.0873),(Al:13.3861),(Si:20.9007),5.0
##DET_HASH   : 12273538-fd48-a23f-0a19-f1e6fa85caef
##CALIB_HASH : 6abaa72c-aa41-8738-0be9-f592914732f3
##WORKING    : 15.0 mm
##DET_NAME   : EDAX All
##DET_MODE   : MediumLE
#SPECTRUM    :
23,
16,
13,
18,
80,
286,
844,
2696,
7839,
10605,
5728,
2823,
2764,
3473,
5968,
22330,
89677,
176981,
129877,
34106,
5444,
3117,
4166,
6860,
6778,
4173,
2688,
2595,
2620,
2657,
2755,
2877,
3051,
3435,
3855,
4088,
4123,
4276,
5062,
9617,
32278,
78538,
95369,
54196,
16864,
6087,
5393,
12338,
39947,
80154,
82213,
43166,
14778,
6134,
5045,
10945,
41289,
105113,
142088,
100663,
40893,
14611,
7142,
3985,
2751,
2609,
2695,
2694,
2555,
2518,
2391,
2394,
2473,
2503,
2727,
2876,
2722,
2551,
2497,
2520,
2443,
2381,
2440,
2526,
2555,
2498,
2416,
2410,
2328,
2437,
2469,
2452,
2437,
2468,
2394,
2404,
2272,
2345,
2406,
2409,
2514,
2477,
2309,
2176,
2254,
2208,
2275,
2272,
2378,
2145,
2207,
2089,
2091,
2095,
2136,
2159,
2237,
2261,
2289,
2590,
4015,
7450,
12707,
15577,
13382,
8261,
4349,
2528,
1956,
1979,
2003,
2154,
2752,
3320,
3502,
3071,
2573,
2025,
1783,
1712,
1654,
1715,
1645,
1712,
1567,
1627,
1613,
1780,
2012,
2318,
2692,
2482,
2133,
1847,
1705,
1633,
1573,
1532,
1417,
1475,
1475,
1538,
1652,
1568,
1595,
1586,
1589,
1526,
1414,
1352,
1406,
1345,
1324,
1277,
1387,
1309,
1421,
1625,
2092,
2810,
3206,
3154,
2606,
1932,
1472,
1297,
1257,
1190,
1204,
1196,
1163,
1180,
1225,
1294,
1404,
1653,
1741,
1859,
1648,
1539,
1324,
1164,
1088,
1078,
1077,
1113,
1099,
1132,
1467,
2105,
3955,
7027,
10809,
12986,
12440,
9161,
5494,
2822,
1522,
1143,
1015,
1016,
948,
972,
954,
853,
948,
918,
927,
961,
1007,
1122,
1442,
1788,
2215,
2392,
2284,
1703,
1350,
1067,
902,
880,
790,
786,
759,
753,
784,
773,
799,
816,
800,
761,
720,
741,
719,
748,
743,
694,
664,
678,
700,
739,
649,
666,
650,
659,
649,
705,
638,
659,
648,
633,
609,
666,
606,
703,
629,
586,
578,
611,
563,
607,
576,
607,
567,
601,
531,
570,
544,
572,
541,
508,
509,
575,
529,
558,
503,
481,
576,
524,
518,
505,
522,
518,
525,
523,
488,
523,
501,
509,
489,
496,
468,
494,
442,
449,
431,
440,
435,
443,
451,
452,
473,
472,
442,
448,
441,
452,
413,
435,
399,
399,
425,
417,
439,
402,
397,
427,
369,
396,
397,
385,
361,
399,
378,
374,
393,
335,
355,
370,
329,
378,
329,
356,
351,
378,
380,
317,
330,
345,
341,
346,
301,
335,
293,
320,
273,
281,
310,
300,
309,
285,
310,
329,
304,
266,
318,
314,
273,
303,
291,
263,
261,
284,
286,
268,
298,
252,
269,
242,
274,
271,
241,
242,
257,
225,
233,
254,
226,
226,
228,
252,
234,
208,
227,
210,
237,
223,
261,
233,
206,
193,
221,
213,
194,
221,
180,
194,
221,
189,
216,
194,
159,
201,
184,
183,
204,
170,
178,
168,
177,
193,
192,
174,
181,
164,
160,
159,
159,
165,
167,
141,
130,
156,
173,
145,
166,
126,
155,
146,
138,
135,
143,
143,
132,
158,
110,
138,
127,
127,
117,
142,
130,
124,
130,
128,
107,
106,
97,
98,
105,
122,
108,
130,
92,
91,
98,
122,
108,
97,
101,
93,
97,
102,
94,
99,
93,
99,
68,
91,
89,
93,
90,
88,
78,
83,
78,
84,
92,
72,
84,
81,
84,
68,
62,
68,
78,
68,
76,
77,
87,
65,
64,
67,
60,
69,
58,
52,
68,
64,
72,
62,
68,
59,
67,
55,
69,
48,
49,
39,
38,
56,
52,
47,
47,
35,
47,
61,
51,
58,
43,
43,
37,
53,
42,
36,
40,
44,
54,
55,
26,
32,
37,
56,
41,
37,
37,
34,
34,
46,
29,
31,
33,
28,
30,
26,
31,
31,
24,
32,
24,
25,
31,
27,
31,
26,
18,
16,
13,
27,
21,
23,
19,
24,
21,
25,
15,
24,
32,
25,
19,
22,
20,
21,
18,
24,
22,
20,
15,
17,
11,
32,
9,
11,
14,
14,
7,
17,
10,
20,
7,
13,
17,
7,
12,
11,
13,
8,
8,
8,
14,
8,
12,
11,
11,
10,
14,
12,
4,
7,
2,
3,
11,
4,
4,
10,
4,
5,
11,
7,
5,
1,
2,
3,
3,
4,
9,
5,
5,
3,
1,
4,
1,
1,
6,
1,
1,
0,
0,
1,
3,
1,
3,
1,
1,
0,
0,
1,
0,
0,
0,
0,
0,
0,
0,
0,
1,
0,
0,
0,
1,
0,
0,
1,
0,
0,
0,
0,
1,
0,
0,
0,
0,
0,
0,
0,
0,
1,
0,
0,
0,
0,
1,
0,
0,
0,
0,
0,
0,
0,
1,
0,
0,
0,
0,
0,
0,
0,
0,
0,
0,
0,
0,
0,
0,
0,
0,
0,
0,
0,
0,
0,
0,
0,
0,
0,
1,
0,
0,
1,
0,
1,
0,
0,
0,
0,
1,
0,
0,
0,
0,
0,
0,
0,
0,
0,
0,
0,
0,
0,
0,
0,
0,
0,
0,
0,
0,
0,
0,
0,
0,
0,
0,
0,
1,
0,
0,
0,
0,
1,
0,
0,
0,
0,
0,
0,
0,
0,
0,
0,
0,
0,
0,
1,
0,
0,
0,
0,
0,
0,
0,
0,
0,
0,
0,
0,
0,
0,
0,
0,
0,
0,
0,
0,
0,
0,
0,
1,
0,
0,
0,
0,
1,
0,
0,
0,
0,
0,
0,
0,
0,
0,
0,
0,
0,
0,
0,
0,
0,
0,
0,
0,
0,
0,
0,
0,
0,
0,
0,
0,
0,
0,
0,
0,
0,
0,
0,
0,
0,
0,
0,
0,
0,
0,
0,
0,
0,
0,
0,
0,
0,
0,
0,
0,
0,
0,
0,
0,
0,
0,
0,
0,
0,
0,
0,
0,
0,
0,
0,
0,
0,
0,
0,
0,
0,
0,
0,
0,
0,
0,
0,
0,
0,
0,
0,
0,
1,
0,
0,
0,
0,
0,
0,
0,
0,
0,
0,
0,
1,
0,
0,
0,
0,
0,
0,
0,
0,
0,
0,
0,
0,
0,
0,
0,
0,
0,
0,
0,
0,
0,
0,
0,
0,
0,
0,
0,
0,
0,
0,
0,
0,
0,
0,
0,
0,
0,
0,
0,
0,
0,
0,
0,
0,
0,
0,
0,
0,
0,
0,
0,
0,
0,
0,
0,
0,
0,
0,
0,
0,
0,
0,
0,
0,
0,
0,
0,
0,
0,
0,
0,
0,
0,
0,
0,
0,
0,
0,
0,
0,
0,
0,
0,
0,
0,
0,
0,
0,
0,
0,
0,
0,
0,
0,
0,
0,
0,
0,
0,
0,
0,
0,
0,
0,
0,
0,
0,
0,
0,
0,
0,
0,
0,
0,
0,
0,
0,
0,
0,
0,
0,
0,
0,
0,
0,
0,
0,
0,
0,
0,
0,
0,
0,
0,
0,
0,
0,
0,
0,
0,
0,
0,
0,
0,
0,
0,
0,
0,
0,
0,
0,
0,
0,
0,
0,
0,
0,
0,
0,
0,
0,
0,
0,
0,
0,
0,
0,
0,
0,
0,
0,
0,
0,
0,
0,
0,
0,
0,
0,
0,
0,
0,
0,
0,
0,
0,
0,
0,
0,
0,
0,
0,
0,
0,
0,
0,
0,
0,
0,
0,
0,
0,
0,
0,
0,
0,
0,
0,
0,
0,
0,
0,
0,
0,
0,
0,
0,
0,
0,
0,
0,
0,
0,
0,
0,
0,
0,
0,
0,
0,
0,
0,
0,
0,
0,
0,
0,
0,
0,
0,
0,
0,
0,
0,
0,
0,
0,
0,
0,
0,
0,
0,
0,
0,
0,
0,
0,
0,
0,
0,
0,
0,
0,
0,
0,
0,
0,
0,
0,
0,
0,
0,
0,
0,
0,
0,
0,
0,
0,
0,
0,
0,
0,
0,
0,
0,
0,
0,
0,
0,
0,
0,
0,
0,
0,
0,
0,
0,
0,
0,
0,
0,
0,
0,
0,
0,
0,
0,
0,
0,
0,
0,
0,
0,
0,
0,
0,
0,
0,
0,
0,
0,
0,
0,
0,
0,
0,
0,
0,
0,
0,
0,
0,
0,
0,
0,
0,
0,
0,
0,
0,
0,
0,
0,
0,
0,
0,
0,
0,
0,
0,
0,
0,
0,
0,
0,
0,
0,
0,
0,
0,
0,
0,
0,
0,
0,
0,
0,
0,
0,
0,
0,
0,
0,
0,
0,
0,
0,
0,
0,
0,
0,
0,
0,
0,
0,
0,
0,
0,
0,
0,
0,
0,
0,
0,
0,
0,
0,
0,
0,
0,
0,
0,
0,
0,
0,
0,
0,
0,
0,
0,
0,
0,
0,
0,
0,
0,
0,
0,
0,
0,
0,
0,
0,
0,
0,
0,
0,
0,
0,
0,
0,
0,
0,
0,
0,
0,
0,
0,
0,
0,
0,
0,
0,
0,
0,
0,
#ENDOFDATA   :