File: N132962/Quantification/20 keV/MMM2/SPI MM2 Rhodonite[3][4].msa
#FORMAT      : EMSA/MAS Spectral Data File
#VERSION     : 1.0
#TITLE       : SPI MM2 Rhodonite[3][all]
#DATE        : 13-MAR-2025
#TIME        : 12:24
#OWNER       : Unknown
#NPOINTS     : 4096
#NCOLUMNS    : 1
#XUNITS      : eV
#YUNITS      : counts
#DATATYPE    : Y
#XPERCHAN    : 9.99778
#OFFSET      : 1.69135
#BEAMKV      : 20
#SIGNALTYPE  : EDS
#ELEVANGLE   : 35
#AZIMANGLE   : 0
#LIVETIME    : 239.833
#REALTIME    : 256.23
#PROBECUR    : 1.02616
#TAUWIND     : 0
#TDEADLYR    : 0
#TACTLYR     : 0.045
#TALWIND     : 0.025
#CHOFFSET    : 0.0
#XLABEL      : Energy (eV)
#YLABEL      : Counts
#XPOSITION   : -0.01943
#YPOSITION   : 1.23308
#ZPOSITION   : 31.03511
#EDSDET      : SD
##SPECIMEN   : SPI MM2 Rhodonite[3][all]
##DET_HASH   : 12273538-fd48-a23f-0a19-f1e6fa85caef
##CALIB_HASH : 6abaa72c-aa41-8738-0be9-f592914732f3
##WORKING    : 15.0 mm
##DET_NAME   : EDAX All
##DET_MODE   : MediumLE
#SPECTRUM    :
16,
23,
12,
18,
86,
340,
968,
3089,
8808,
12216,
6792,
3563,
3428,
4259,
6759,
23000,
89496,
175319,
130552,
38019,
13330,
16257,
13076,
7062,
4661,
2925,
2071,
2127,
2331,
2298,
2391,
2539,
2729,
2898,
3153,
3210,
3115,
3233,
3303,
3767,
5691,
9001,
10135,
7383,
5012,
4253,
4142,
4279,
4426,
4763,
4925,
5111,
5150,
5221,
6190,
14359,
52652,
134445,
183655,
129462,
53054,
18697,
9149,
5182,
3677,
3331,
3257,
3211,
3285,
3107,
3147,
3204,
3136,
3412,
3457,
3728,
3709,
3471,
3306,
3339,
3362,
3294,
3257,
3227,
3285,
3253,
3203,
3260,
3151,
3170,
3247,
3171,
3131,
3154,
3158,
3169,
3003,
2993,
3125,
2957,
3078,
2973,
3037,
2936,
2890,
3001,
2896,
2870,
2820,
2807,
2791,
2837,
2733,
2796,
2902,
2845,
2960,
2905,
3032,
3335,
4998,
9172,
14999,
18609,
15878,
9917,
5181,
3265,
2644,
2550,
2644,
2874,
3445,
4086,
4413,
3800,
3293,
2803,
2607,
2582,
2386,
2286,
2266,
2159,
2161,
2172,
2205,
2245,
2052,
2163,
2049,
2064,
2056,
2136,
2111,
2052,
2077,
2028,
1991,
2056,
1969,
1954,
1861,
1937,
1918,
1846,
1814,
1851,
1954,
1809,
1831,
1748,
1790,
1808,
1739,
1834,
1757,
1712,
1797,
1788,
1791,
1767,
1712,
1660,
1669,
1656,
1709,
1709,
1807,
1804,
2130,
2977,
5812,
14124,
30641,
53180,
70488,
69702,
52297,
29747,
13255,
5244,
2431,
1651,
1548,
1468,
1460,
1632,
1596,
2068,
3189,
5129,
7779,
10431,
12329,
13463,
12843,
10588,
7365,
4571,
2580,
1632,
1310,
1169,
1123,
1100,
1115,
1147,
1117,
1095,
1173,
1167,
1281,
1579,
1695,
1729,
1706,
1586,
1301,
1140,
1062,
1059,
1013,
965,
1004,
980,
954,
1005,
1041,
958,
1000,
1016,
1026,
1042,
1067,
1041,
1048,
964,
960,
935,
858,
855,
835,
871,
916,
850,
889,
938,
875,
817,
849,
842,
846,
846,
877,
841,
837,
843,
782,
818,
786,
765,
753,
764,
784,
771,
800,
778,
766,
752,
778,
772,
736,
708,
729,
730,
737,
693,
729,
724,
673,
666,
681,
685,
651,
685,
664,
618,
686,
634,
702,
681,
645,
591,
605,
671,
630,
613,
678,
589,
654,
621,
551,
651,
594,
559,
582,
563,
550,
554,
621,
567,
582,
589,
544,
515,
558,
514,
566,
508,
515,
558,
518,
511,
526,
520,
514,
543,
489,
538,
516,
469,
451,
502,
467,
483,
438,
451,
450,
479,
441,
451,
470,
460,
473,
405,
457,
457,
436,
436,
433,
417,
445,
379,
422,
384,
390,
389,
402,
343,
388,
365,
369,
429,
387,
383,
358,
391,
364,
377,
407,
362,
380,
351,
344,
356,
356,
357,
360,
319,
323,
317,
309,
347,
291,
303,
286,
308,
324,
328,
324,
328,
290,
296,
304,
267,
274,
299,
299,
276,
295,
250,
263,
260,
262,
274,
246,
255,
257,
254,
253,
243,
258,
266,
250,
247,
267,
218,
205,
216,
189,
225,
239,
208,
216,
227,
223,
213,
169,
216,
216,
216,
175,
215,
205,
180,
190,
204,
174,
196,
183,
167,
175,
194,
175,
173,
160,
168,
148,
156,
170,
162,
176,
130,
139,
166,
163,
163,
142,
134,
137,
145,
134,
164,
133,
157,
132,
129,
147,
107,
137,
135,
121,
130,
158,
133,
107,
128,
129,
132,
110,
135,
105,
119,
118,
110,
107,
96,
113,
86,
95,
111,
108,
98,
84,
102,
86,
95,
89,
94,
76,
101,
70,
75,
90,
81,
100,
77,
82,
83,
98,
95,
76,
88,
79,
82,
69,
57,
72,
72,
80,
73,
65,
86,
74,
59,
70,
63,
62,
55,
56,
55,
52,
51,
47,
65,
47,
54,
61,
43,
54,
46,
47,
53,
41,
49,
37,
40,
47,
47,
57,
44,
48,
47,
45,
40,
45,
32,
38,
40,
38,
28,
40,
33,
35,
30,
25,
30,
27,
40,
29,
47,
28,
26,
31,
35,
28,
15,
17,
24,
17,
27,
19,
24,
17,
22,
17,
16,
23,
23,
20,
13,
18,
18,
17,
10,
16,
11,
22,
19,
16,
16,
10,
12,
14,
12,
13,
15,
14,
10,
7,
7,
11,
7,
15,
7,
9,
5,
6,
10,
13,
9,
7,
3,
10,
7,
7,
5,
5,
4,
3,
4,
5,
0,
5,
3,
5,
3,
2,
2,
0,
3,
1,
3,
3,
1,
0,
1,
0,
1,
0,
1,
1,
0,
0,
0,
0,
0,
0,
0,
0,
1,
1,
0,
0,
0,
3,
1,
0,
0,
0,
0,
0,
1,
0,
1,
0,
0,
0,
0,
0,
0,
1,
0,
0,
1,
0,
0,
0,
0,
0,
1,
0,
0,
0,
0,
0,
2,
0,
1,
0,
0,
0,
0,
0,
1,
0,
0,
0,
0,
0,
0,
0,
0,
0,
0,
0,
0,
0,
0,
0,
0,
0,
0,
0,
0,
1,
0,
0,
0,
0,
0,
0,
0,
0,
0,
0,
0,
0,
0,
0,
0,
0,
0,
0,
0,
0,
0,
0,
0,
0,
0,
0,
1,
0,
0,
0,
0,
0,
1,
0,
0,
0,
0,
0,
0,
0,
0,
0,
0,
0,
1,
0,
0,
0,
0,
0,
0,
0,
0,
0,
0,
0,
0,
0,
0,
0,
0,
0,
0,
0,
0,
0,
0,
0,
0,
0,
0,
0,
0,
1,
0,
0,
0,
0,
0,
0,
0,
0,
0,
0,
0,
0,
0,
0,
0,
0,
0,
0,
0,
0,
0,
1,
0,
0,
0,
0,
0,
0,
0,
0,
0,
0,
0,
0,
0,
0,
0,
0,
0,
0,
0,
0,
0,
0,
0,
0,
0,
0,
0,
0,
0,
0,
0,
0,
0,
0,
0,
0,
0,
0,
0,
0,
0,
0,
0,
0,
0,
0,
0,
0,
0,
0,
0,
0,
0,
0,
0,
0,
0,
0,
0,
0,
0,
0,
0,
0,
0,
0,
0,
0,
0,
0,
0,
0,
0,
0,
0,
0,
0,
0,
0,
0,
0,
0,
0,
0,
0,
0,
0,
0,
0,
0,
0,
0,
0,
0,
0,
0,
0,
0,
0,
0,
0,
0,
0,
0,
0,
0,
0,
0,
0,
0,
0,
0,
0,
0,
0,
0,
0,
0,
0,
0,
0,
0,
0,
0,
0,
0,
0,
0,
0,
0,
0,
0,
0,
0,
0,
0,
0,
0,
0,
0,
0,
0,
0,
0,
0,
0,
0,
0,
0,
0,
0,
0,
0,
0,
0,
0,
0,
0,
0,
0,
0,
0,
0,
0,
0,
0,
0,
0,
0,
0,
0,
0,
0,
0,
0,
0,
0,
0,
0,
0,
0,
0,
0,
0,
0,
0,
0,
0,
0,
0,
0,
0,
0,
0,
0,
0,
0,
0,
0,
0,
0,
0,
0,
0,
0,
0,
0,
0,
0,
0,
0,
0,
0,
0,
0,
0,
0,
0,
0,
0,
0,
0,
0,
0,
0,
0,
0,
0,
0,
0,
0,
0,
0,
0,
0,
0,
0,
0,
0,
0,
0,
0,
0,
0,
0,
0,
0,
0,
0,
0,
0,
0,
0,
0,
0,
0,
0,
0,
0,
0,
0,
0,
0,
0,
0,
0,
0,
0,
0,
0,
0,
0,
0,
0,
0,
0,
0,
0,
0,
0,
0,
0,
0,
0,
0,
0,
0,
0,
0,
0,
0,
0,
0,
0,
0,
0,
0,
0,
0,
0,
0,
0,
0,
0,
0,
0,
0,
0,
0,
0,
0,
0,
0,
0,
0,
0,
0,
0,
0,
0,
0,
0,
0,
0,
0,
0,
0,
0,
0,
0,
0,
0,
0,
0,
0,
0,
0,
0,
0,
0,
0,
0,
0,
0,
0,
0,
0,
0,
0,
0,
0,
0,
0,
0,
0,
0,
0,
0,
0,
0,
0,
0,
0,
0,
0,
0,
0,
0,
0,
0,
0,
0,
0,
0,
0,
0,
0,
0,
0,
0,
0,
0,
0,
0,
0,
0,
0,
0,
0,
0,
0,
0,
0,
0,
0,
0,
0,
0,
0,
0,
0,
0,
0,
0,
0,
0,
0,
0,
0,
0,
0,
0,
0,
0,
0,
0,
0,
0,
0,
0,
0,
0,
0,
0,
0,
0,
0,
0,
0,
0,
0,
0,
0,
0,
0,
0,
0,
0,
0,
0,
0,
0,
0,
0,
0,
0,
0,
0,
0,
0,
0,
0,
0,
0,
0,
0,
0,
0,
0,
0,
0,
0,
0,
0,
0,
0,
0,
0,
0,
0,
0,
0,
0,
0,
0,
0,
0,
0,
0,
0,
0,
0,
0,
0,
0,
0,
0,
0,
0,
0,
0,
0,
0,
0,
0,
0,
0,
0,
0,
0,
0,
0,
0,
0,
0,
0,
0,
0,
0,
0,
0,
0,
0,
0,
0,
0,
0,
0,
0,
0,
0,
0,
0,
#ENDOFDATA   :