File: N132962/Quantification/20 keV/MMM2/SPI MM2 SPI Plagioclase[4][4].msa
#FORMAT      : EMSA/MAS Spectral Data File
#VERSION     : 1.0
#TITLE       : SPI MM2 SPI Plagioclase[4][all]
#DATE        : 13-MAR-2025
#TIME        : 10:55
#OWNER       : Unknown
#NPOINTS     : 4096
#NCOLUMNS    : 1
#XUNITS      : eV
#YUNITS      : counts
#DATATYPE    : Y
#XPERCHAN    : 9.99778
#OFFSET      : 1.69135
#BEAMKV      : 20
#SIGNALTYPE  : EDS
#ELEVANGLE   : 35
#AZIMANGLE   : 0
#LIVETIME    : 239.89
#REALTIME    : 255.458
#PROBECUR    : 1.02609
#TAUWIND     : 0
#TDEADLYR    : 0
#TACTLYR     : 0.045
#TALWIND     : 0.025
#CHOFFSET    : 0.0
#XLABEL      : Energy (eV)
#YLABEL      : Counts
#XPOSITION   : -1.33428
#YPOSITION   : -0.28306
#ZPOSITION   : 31.0351
#EDSDET      : SD
##SPECIMEN   : SPI MM2 SPI Plagioclase[4][all]
##D2STDCMP   : SPI Plagioclase,(O:46.79),(Na:3.24),(Al:15.54),(Si:24.83),(K:0.2),(Ca:8.53),(Fe:0.27)
##DET_HASH   : 12273538-fd48-a23f-0a19-f1e6fa85caef
##CALIB_HASH : 6abaa72c-aa41-8738-0be9-f592914732f3
##WORKING    : 15.0 mm
##DET_NAME   : EDAX All
##DET_MODE   : MediumLE
#SPECTRUM    :
20,
27,
5,
13,
55,
267,
873,
2725,
8099,
11417,
6344,
3043,
2528,
2971,
4906,
18116,
72080,
142373,
104423,
27924,
3953,
1827,
1928,
2312,
2370,
2261,
2343,
2457,
2614,
2854,
2940,
3260,
4250,
9368,
18884,
20853,
11606,
5222,
3790,
3892,
4025,
4507,
4707,
4747,
4905,
5404,
6839,
19294,
64370,
129532,
132656,
68475,
22481,
8309,
6133,
14391,
55351,
141899,
193614,
136592,
55505,
19122,
9026,
4603,
3105,
2990,
2812,
2662,
2498,
2403,
2316,
2342,
2356,
2486,
2627,
2788,
2790,
2561,
2389,
2416,
2382,
2326,
2351,
2339,
2330,
2396,
2351,
2340,
2381,
2291,
2416,
2375,
2359,
2288,
2283,
2237,
2282,
2337,
2437,
2434,
2325,
2229,
2259,
2187,
2278,
2183,
2408,
2618,
2866,
3258,
3696,
3521,
3038,
2450,
2227,
2232,
2348,
2543,
2613,
3854,
7787,
17796,
32088,
40354,
33684,
19616,
8319,
3561,
2217,
2028,
2235,
2891,
4322,
5991,
6359,
5303,
3592,
2393,
1786,
1664,
1629,
1583,
1590,
1566,
1528,
1509,
1526,
1493,
1523,
1582,
1673,
1667,
1576,
1536,
1447,
1483,
1416,
1414,
1411,
1444,
1413,
1453,
1327,
1348,
1291,
1351,
1368,
1308,
1303,
1303,
1301,
1232,
1355,
1352,
1285,
1222,
1294,
1190,
1268,
1267,
1300,
1255,
1363,
1197,
1167,
1244,
1190,
1197,
1117,
1096,
1125,
1086,
1138,
1087,
1081,
1087,
1038,
1028,
1026,
1038,
1029,
976,
998,
1046,
1051,
980,
987,
1014,
990,
1026,
1117,
1226,
1366,
1574,
1482,
1280,
1169,
1017,
936,
909,
893,
861,
842,
859,
894,
911,
890,
860,
824,
818,
826,
883,
857,
876,
823,
839,
855,
836,
807,
829,
702,
755,
708,
755,
762,
782,
832,
746,
758,
751,
774,
827,
710,
731,
741,
725,
706,
702,
684,
685,
711,
639,
712,
653,
656,
646,
655,
588,
643,
638,
626,
629,
621,
603,
599,
579,
598,
557,
531,
614,
591,
562,
606,
608,
569,
520,
568,
598,
600,
506,
578,
561,
526,
561,
537,
547,
499,
493,
487,
493,
509,
509,
512,
492,
519,
476,
506,
505,
484,
459,
487,
460,
436,
466,
464,
454,
467,
449,
471,
418,
427,
456,
393,
434,
413,
435,
451,
377,
415,
413,
451,
412,
383,
382,
379,
394,
356,
371,
377,
397,
352,
377,
371,
343,
348,
322,
320,
332,
365,
355,
339,
329,
360,
347,
323,
324,
308,
326,
365,
318,
332,
333,
310,
317,
312,
302,
272,
312,
290,
317,
297,
284,
309,
259,
278,
279,
258,
259,
256,
249,
259,
276,
262,
240,
242,
271,
258,
252,
250,
249,
233,
235,
249,
252,
233,
255,
213,
220,
199,
202,
229,
217,
225,
199,
224,
201,
217,
213,
195,
210,
208,
183,
171,
219,
202,
194,
168,
170,
203,
163,
186,
166,
179,
179,
174,
195,
172,
173,
177,
154,
152,
172,
178,
176,
160,
132,
141,
163,
134,
134,
142,
158,
153,
135,
143,
130,
132,
135,
125,
135,
123,
121,
137,
146,
106,
123,
142,
122,
116,
112,
105,
137,
119,
110,
129,
101,
129,
98,
96,
93,
108,
111,
102,
124,
115,
106,
96,
98,
97,
104,
100,
99,
101,
86,
80,
90,
82,
103,
71,
87,
77,
87,
85,
71,
74,
76,
90,
69,
78,
85,
67,
85,
73,
69,
94,
75,
77,
80,
71,
78,
62,
72,
62,
53,
63,
63,
81,
56,
71,
61,
56,
68,
56,
48,
59,
50,
53,
70,
51,
54,
63,
55,
47,
62,
51,
65,
39,
51,
47,
57,
44,
47,
49,
38,
26,
47,
53,
35,
31,
46,
38,
36,
35,
38,
43,
39,
28,
40,
34,
33,
37,
44,
35,
31,
36,
29,
34,
28,
35,
26,
41,
28,
26,
22,
21,
36,
29,
19,
21,
24,
30,
15,
19,
17,
25,
23,
19,
13,
20,
22,
16,
22,
19,
18,
17,
17,
18,
14,
20,
12,
20,
15,
13,
13,
11,
22,
18,
14,
12,
14,
16,
9,
9,
7,
8,
13,
11,
9,
11,
8,
12,
11,
6,
6,
3,
10,
4,
3,
10,
9,
5,
3,
7,
9,
10,
2,
8,
9,
5,
6,
4,
3,
2,
5,
3,
4,
1,
5,
3,
1,
1,
1,
2,
2,
1,
0,
3,
3,
2,
1,
3,
0,
1,
0,
2,
1,
0,
0,
1,
0,
0,
0,
0,
0,
0,
0,
1,
0,
0,
0,
0,
1,
0,
0,
0,
0,
0,
0,
1,
0,
0,
0,
0,
0,
2,
0,
0,
0,
0,
0,
0,
0,
0,
0,
0,
0,
0,
0,
0,
0,
0,
0,
0,
0,
0,
0,
0,
0,
0,
0,
0,
0,
0,
0,
0,
0,
0,
0,
0,
0,
0,
0,
0,
0,
0,
0,
0,
0,
0,
1,
0,
0,
1,
0,
0,
0,
0,
0,
0,
0,
0,
0,
0,
0,
0,
0,
0,
0,
0,
0,
0,
0,
0,
0,
0,
0,
0,
0,
0,
0,
0,
0,
0,
0,
1,
0,
0,
0,
1,
0,
0,
0,
0,
0,
0,
0,
1,
0,
0,
0,
0,
0,
0,
0,
0,
0,
0,
0,
0,
0,
0,
0,
0,
0,
0,
0,
0,
0,
0,
0,
0,
0,
0,
0,
0,
0,
0,
0,
0,
0,
0,
0,
0,
0,
0,
0,
0,
0,
0,
0,
0,
0,
0,
1,
0,
0,
0,
0,
0,
0,
0,
0,
0,
0,
0,
0,
0,
0,
0,
0,
0,
0,
0,
0,
0,
0,
0,
0,
0,
0,
0,
0,
0,
0,
0,
0,
0,
0,
0,
0,
1,
0,
0,
0,
0,
0,
0,
0,
0,
0,
0,
0,
0,
0,
0,
0,
0,
0,
0,
0,
0,
0,
0,
0,
0,
0,
0,
0,
0,
0,
0,
0,
0,
0,
0,
0,
0,
0,
0,
0,
0,
0,
0,
0,
0,
0,
0,
0,
0,
0,
0,
0,
0,
0,
0,
0,
0,
0,
0,
0,
0,
0,
0,
0,
0,
0,
0,
0,
0,
0,
0,
0,
0,
0,
0,
0,
0,
0,
0,
0,
0,
0,
0,
0,
0,
0,
0,
0,
0,
0,
0,
0,
0,
0,
0,
0,
0,
0,
0,
0,
0,
0,
0,
0,
0,
0,
0,
0,
0,
0,
0,
0,
0,
0,
0,
0,
0,
0,
0,
0,
0,
0,
0,
0,
0,
0,
0,
0,
0,
0,
0,
0,
0,
0,
0,
0,
0,
0,
0,
0,
0,
0,
0,
0,
0,
0,
0,
0,
0,
0,
0,
0,
0,
0,
0,
0,
0,
0,
0,
0,
0,
0,
0,
0,
0,
0,
0,
0,
0,
0,
0,
0,
0,
0,
0,
0,
0,
0,
0,
0,
0,
0,
0,
0,
0,
0,
0,
0,
0,
0,
0,
0,
0,
0,
0,
0,
0,
0,
0,
0,
0,
0,
0,
0,
0,
0,
0,
0,
0,
0,
0,
0,
0,
0,
0,
0,
0,
0,
0,
0,
0,
0,
0,
0,
0,
0,
0,
0,
0,
0,
0,
0,
0,
0,
0,
0,
0,
0,
0,
0,
0,
0,
0,
0,
0,
0,
0,
0,
0,
0,
0,
0,
0,
0,
0,
0,
0,
0,
0,
0,
0,
0,
0,
0,
0,
0,
0,
0,
0,
0,
0,
0,
0,
0,
0,
0,
0,
0,
0,
0,
0,
0,
0,
0,
0,
0,
0,
0,
0,
0,
0,
0,
0,
0,
0,
0,
0,
0,
0,
0,
0,
0,
0,
0,
0,
0,
0,
0,
0,
0,
0,
0,
0,
0,
0,
0,
0,
0,
0,
0,
0,
0,
0,
0,
0,
0,
0,
0,
0,
0,
0,
0,
0,
0,
0,
0,
0,
0,
0,
0,
0,
0,
0,
0,
0,
0,
0,
0,
0,
0,
0,
0,
0,
0,
0,
0,
0,
0,
0,
0,
0,
0,
0,
0,
0,
0,
0,
0,
0,
0,
0,
0,
0,
0,
0,
0,
0,
0,
0,
0,
0,
0,
0,
0,
0,
0,
0,
0,
0,
0,
0,
0,
0,
0,
0,
0,
0,
0,
0,
0,
0,
0,
0,
0,
0,
0,
0,
0,
0,
0,
0,
0,
0,
0,
0,
0,
0,
0,
0,
0,
0,
0,
0,
0,
0,
0,
0,
0,
0,
0,
0,
0,
0,
0,
0,
0,
0,
0,
0,
0,
0,
0,
0,
0,
0,
0,
0,
0,
0,
0,
0,
0,
0,
0,
0,
0,
0,
0,
0,
0,
0,
0,
0,
0,
0,
0,
0,
0,
0,
0,
0,
0,
0,
0,
0,
0,
0,
0,
0,
0,
0,
0,
0,
0,
0,
0,
0,
0,
0,
0,
0,
0,
0,
0,
0,
0,
#ENDOFDATA   :