File: N132962/Quantification/20 keV/MMM2/SPI MM2 Willemite[2][4].msa
#FORMAT      : EMSA/MAS Spectral Data File
#VERSION     : 1.0
#TITLE       : SPI MM2 Willemite[2][all]
#DATE        : 13-MAR-2025
#TIME        : 14:05
#OWNER       : Unknown
#NPOINTS     : 4096
#NCOLUMNS    : 1
#XUNITS      : eV
#YUNITS      : counts
#DATATYPE    : Y
#XPERCHAN    : 9.99778
#OFFSET      : 1.69135
#BEAMKV      : 20
#SIGNALTYPE  : EDS
#ELEVANGLE   : 35
#AZIMANGLE   : 0
#LIVETIME    : 239.727
#REALTIME    : 257.387
#PROBECUR    : 1.0264
#TAUWIND     : 0
#TDEADLYR    : 0
#TACTLYR     : 0.045
#TALWIND     : 0.025
#CHOFFSET    : 0.0
#XLABEL      : Energy (eV)
#YLABEL      : Counts
#XPOSITION   : 2.75675
#YPOSITION   : 6.2718
#ZPOSITION   : 31.03511
#EDSDET      : SD
##SPECIMEN   : SPI MM2 Willemite[2][all]
##DET_HASH   : 12273538-fd48-a23f-0a19-f1e6fa85caef
##CALIB_HASH : 6abaa72c-aa41-8738-0be9-f592914732f3
##WORKING    : 15.0 mm
##DET_NAME   : EDAX All
##DET_MODE   : MediumLE
#SPECTRUM    :
32,
25,
9,
12,
89,
388,
1099,
3483,
9853,
12883,
6787,
3339,
3360,
3878,
6077,
17688,
64211,
122524,
90445,
26155,
7053,
6724,
6145,
4983,
4597,
4815,
5207,
6866,
11409,
17967,
19757,
24032,
70102,
175061,
215857,
122347,
35527,
8326,
3960,
3025,
3128,
3410,
3780,
3538,
3182,
3216,
3285,
3454,
3568,
3929,
4242,
4263,
4315,
4264,
4607,
8251,
24803,
59384,
80337,
57985,
25168,
10284,
6087,
4430,
3692,
3521,
3693,
3807,
3861,
3609,
3632,
3600,
3582,
3756,
3684,
3729,
3865,
3730,
3745,
3587,
3696,
3680,
3797,
3753,
3720,
3657,
3815,
3755,
3719,
3804,
3712,
4025,
3908,
3935,
3635,
3666,
3616,
3684,
3491,
3625,
3559,
3510,
3628,
3500,
3507,
3511,
3553,
3470,
3555,
3470,
3441,
3404,
3358,
3418,
3266,
3413,
3335,
3382,
3309,
3307,
3342,
3167,
3230,
3235,
3224,
3137,
3168,
3029,
3074,
3085,
3078,
2962,
3041,
2981,
2995,
2961,
2805,
2936,
2943,
2874,
2906,
2841,
2756,
2736,
2871,
2835,
2796,
2750,
2660,
2706,
2713,
2670,
2605,
2547,
2565,
2642,
2568,
2605,
2640,
2593,
2557,
2564,
2525,
2482,
2449,
2480,
2391,
2439,
2474,
2320,
2375,
2330,
2341,
2305,
2340,
2251,
2251,
2313,
2307,
2231,
2196,
2261,
2079,
2172,
2177,
2139,
2133,
2132,
2092,
2100,
2106,
2221,
2685,
3868,
6320,
9668,
11924,
11813,
9169,
6078,
3691,
2431,
2011,
1933,
1827,
1882,
1935,
1911,
1810,
1850,
1913,
1895,
2202,
2378,
2657,
3004,
3152,
2996,
2591,
2161,
1890,
1744,
1686,
1749,
1636,
1674,
1686,
1668,
1590,
1668,
1621,
1532,
1616,
1560,
1571,
1584,
1548,
1534,
1525,
1498,
1428,
1519,
1500,
1504,
1457,
1446,
1494,
1467,
1407,
1476,
1510,
1472,
1399,
1345,
1376,
1364,
1356,
1304,
1254,
1323,
1374,
1281,
1255,
1263,
1274,
1265,
1242,
1286,
1226,
1197,
1165,
1246,
1233,
1179,
1196,
1238,
1245,
1228,
1255,
1332,
1450,
1902,
3124,
6565,
13325,
24146,
35825,
44592,
44883,
37326,
25199,
14357,
6976,
3242,
1682,
1214,
1048,
1027,
1016,
1041,
1028,
1001,
976,
1066,
1093,
1009,
1135,
1003,
1046,
970,
978,
973,
1084,
1265,
1679,
2518,
3608,
5219,
6354,
6691,
6186,
4734,
3263,
2130,
1422,
1006,
869,
782,
756,
772,
807,
715,
734,
753,
725,
717,
722,
707,
704,
668,
679,
758,
661,
719,
726,
706,
723,
717,
678,
691,
672,
666,
686,
718,
660,
652,
667,
639,
636,
602,
575,
615,
624,
569,
591,
616,
594,
571,
616,
533,
587,
579,
537,
573,
541,
572,
522,
566,
487,
543,
549,
549,
525,
501,
483,
521,
506,
524,
468,
453,
488,
466,
516,
458,
466,
505,
467,
465,
473,
455,
455,
465,
472,
447,
413,
447,
409,
402,
429,
432,
422,
408,
398,
418,
374,
399,
385,
390,
400,
354,
407,
360,
370,
386,
345,
350,
369,
350,
344,
367,
370,
355,
376,
348,
352,
365,
325,
309,
343,
301,
305,
320,
333,
290,
316,
294,
311,
288,
271,
272,
307,
278,
288,
304,
280,
261,
281,
265,
285,
241,
266,
261,
280,
259,
240,
238,
255,
221,
240,
233,
238,
243,
226,
239,
211,
220,
216,
242,
210,
207,
200,
226,
203,
215,
194,
216,
159,
198,
177,
198,
204,
182,
172,
166,
179,
194,
157,
179,
177,
168,
150,
181,
177,
160,
176,
149,
174,
169,
156,
168,
128,
147,
149,
159,
177,
126,
132,
137,
136,
128,
147,
117,
123,
140,
127,
126,
122,
114,
107,
126,
126,
108,
111,
113,
104,
120,
105,
80,
113,
114,
98,
119,
106,
99,
96,
90,
93,
83,
85,
84,
84,
85,
111,
85,
82,
85,
93,
73,
73,
74,
83,
75,
71,
68,
77,
67,
69,
73,
78,
72,
56,
76,
71,
76,
86,
87,
79,
69,
69,
57,
59,
54,
56,
64,
45,
45,
49,
49,
52,
60,
42,
37,
52,
51,
32,
43,
44,
32,
52,
35,
41,
42,
32,
37,
40,
36,
42,
50,
43,
41,
33,
26,
26,
30,
22,
28,
27,
17,
29,
32,
25,
27,
26,
21,
15,
18,
27,
19,
18,
19,
18,
16,
15,
17,
16,
20,
14,
12,
7,
14,
20,
9,
11,
10,
12,
11,
9,
15,
5,
13,
4,
8,
8,
10,
6,
3,
6,
3,
1,
6,
5,
6,
1,
1,
4,
4,
2,
1,
2,
0,
1,
1,
0,
1,
0,
1,
2,
1,
3,
0,
1,
2,
0,
0,
1,
0,
0,
2,
1,
2,
2,
2,
0,
0,
1,
0,
4,
0,
4,
0,
0,
1,
2,
0,
0,
0,
0,
1,
0,
0,
2,
2,
0,
2,
0,
1,
0,
1,
0,
0,
0,
0,
0,
1,
1,
1,
0,
0,
1,
0,
1,
2,
0,
0,
0,
0,
0,
0,
0,
1,
2,
0,
1,
1,
0,
3,
1,
1,
0,
0,
0,
1,
2,
1,
1,
0,
0,
0,
0,
0,
0,
1,
0,
0,
0,
0,
1,
0,
0,
0,
0,
0,
0,
0,
0,
0,
1,
0,
1,
0,
0,
1,
1,
1,
0,
0,
0,
0,
0,
0,
1,
0,
0,
0,
0,
0,
0,
0,
1,
2,
0,
0,
0,
0,
0,
1,
0,
0,
0,
0,
0,
0,
0,
1,
0,
0,
0,
0,
0,
0,
2,
0,
0,
0,
0,
0,
0,
1,
0,
0,
0,
0,
1,
0,
0,
0,
0,
0,
0,
0,
0,
0,
2,
0,
2,
0,
0,
0,
0,
0,
0,
0,
0,
0,
0,
0,
0,
2,
0,
0,
0,
0,
0,
0,
0,
0,
0,
0,
0,
0,
0,
0,
0,
0,
0,
0,
0,
0,
0,
0,
0,
0,
0,
0,
0,
0,
0,
0,
0,
0,
0,
0,
0,
0,
0,
0,
0,
0,
0,
0,
0,
0,
0,
0,
0,
0,
0,
0,
0,
0,
0,
0,
0,
0,
0,
0,
0,
0,
0,
0,
0,
0,
0,
0,
0,
0,
0,
0,
0,
0,
1,
0,
0,
0,
0,
0,
0,
0,
0,
0,
0,
0,
0,
0,
0,
0,
0,
0,
0,
0,
0,
0,
0,
0,
0,
0,
0,
0,
0,
0,
0,
0,
0,
0,
0,
0,
0,
0,
1,
0,
0,
0,
0,
0,
0,
0,
0,
0,
0,
0,
0,
0,
0,
0,
0,
0,
0,
0,
0,
1,
0,
0,
0,
0,
0,
0,
0,
0,
0,
0,
0,
0,
0,
0,
0,
0,
0,
0,
0,
0,
0,
0,
0,
0,
0,
0,
0,
0,
0,
0,
0,
0,
0,
0,
0,
0,
0,
0,
0,
0,
0,
0,
0,
0,
0,
0,
0,
0,
0,
0,
0,
0,
0,
0,
0,
0,
0,
0,
0,
0,
0,
0,
0,
0,
0,
0,
0,
0,
0,
0,
0,
0,
0,
0,
0,
0,
0,
0,
0,
0,
0,
0,
0,
0,
0,
0,
0,
0,
0,
0,
0,
0,
0,
0,
0,
0,
0,
0,
0,
0,
0,
0,
0,
0,
0,
0,
0,
0,
0,
0,
0,
0,
0,
0,
0,
0,
0,
0,
0,
0,
0,
0,
0,
0,
0,
0,
0,
0,
0,
0,
0,
0,
0,
0,
0,
0,
0,
0,
0,
0,
0,
0,
0,
0,
0,
0,
0,
0,
0,
0,
0,
0,
0,
0,
0,
0,
0,
0,
0,
0,
0,
0,
0,
0,
0,
0,
0,
0,
0,
0,
0,
0,
0,
0,
0,
0,
0,
0,
0,
0,
0,
0,
0,
0,
0,
0,
0,
0,
0,
0,
0,
0,
0,
0,
0,
0,
0,
0,
0,
0,
0,
0,
0,
0,
0,
0,
0,
0,
0,
0,
0,
0,
0,
0,
0,
0,
0,
0,
0,
0,
0,
0,
0,
0,
0,
0,
0,
0,
0,
0,
0,
0,
0,
0,
0,
0,
0,
0,
0,
0,
0,
0,
0,
0,
0,
0,
0,
0,
0,
0,
0,
0,
0,
0,
0,
0,
0,
0,
0,
0,
0,
0,
0,
0,
0,
0,
0,
0,
0,
0,
0,
0,
0,
0,
0,
0,
0,
0,
0,
0,
0,
0,
0,
0,
0,
0,
0,
0,
0,
0,
0,
0,
0,
0,
0,
0,
0,
0,
0,
0,
0,
0,
0,
0,
0,
0,
0,
0,
0,
0,
0,
0,
0,
0,
0,
0,
0,
0,
0,
0,
0,
0,
0,
0,
0,
0,
0,
0,
0,
0,
0,
0,
0,
0,
0,
0,
0,
0,
0,
0,
0,
0,
0,
0,
0,
0,
0,
0,
0,
0,
0,
0,
0,
0,
0,
0,
0,
0,
0,
0,
0,
0,
0,
0,
0,
0,
0,
0,
0,
0,
0,
0,
0,
0,
0,
0,
#ENDOFDATA   :