File: N132962/Quantification/20 keV/MMM2/SPI MM2 Stibnite[4][4].msa
#FORMAT      : EMSA/MAS Spectral Data File
#VERSION     : 1.0
#TITLE       : SPI MM2 Stibnite[4][all]
#DATE        : 13-MAR-2025
#TIME        : 13:21
#OWNER       : Unknown
#NPOINTS     : 4096
#NCOLUMNS    : 1
#XUNITS      : eV
#YUNITS      : counts
#DATATYPE    : Y
#XPERCHAN    : 9.99778
#OFFSET      : 1.69135
#BEAMKV      : 20
#SIGNALTYPE  : EDS
#ELEVANGLE   : 35
#AZIMANGLE   : 0
#LIVETIME    : 239.8101
#REALTIME    : 263.258
#PROBECUR    : 1.0263
#TAUWIND     : 0
#TDEADLYR    : 0
#TACTLYR     : 0.045
#TALWIND     : 0.025
#CHOFFSET    : 0.0
#XLABEL      : Energy (eV)
#YLABEL      : Counts
#XPOSITION   : 1.563
#YPOSITION   : 4.29398
#ZPOSITION   : 31.03511
#EDSDET      : SD
##SPECIMEN   : SPI MM2 Stibnite[4][all]
##DET_HASH   : 12273538-fd48-a23f-0a19-f1e6fa85caef
##CALIB_HASH : 6abaa72c-aa41-8738-0be9-f592914732f3
##WORKING    : 15.0 mm
##DET_NAME   : EDAX All
##DET_MODE   : MediumLE
#SPECTRUM    :
21,
30,
17,
167,
1054,
2329,
2414,
4835,
13146,
17296,
8815,
4470,
6280,
12418,
16957,
12308,
8642,
8986,
10010,
8657,
5721,
4227,
4210,
5032,
6158,
5988,
5412,
4956,
4689,
4627,
4495,
4420,
4516,
4676,
4863,
4811,
5126,
5219,
5480,
5384,
5693,
5859,
5941,
6208,
6244,
6442,
6438,
6795,
6944,
7256,
7428,
7431,
7269,
7261,
7354,
7480,
7710,
8271,
9084,
8835,
8884,
9176,
9132,
8332,
7821,
7471,
7567,
7788,
7801,
8216,
8542,
8673,
10325,
15265,
32225,
82808,
165594,
206501,
150924,
67680,
25897,
19327,
21204,
18132,
11972,
7565,
6129,
5766,
5533,
5428,
5631,
5657,
5545,
5739,
5670,
5615,
5492,
5657,
5589,
5429,
5564,
5563,
5605,
6095,
7038,
8726,
9969,
9631,
8210,
6656,
5764,
5810,
5939,
6650,
7706,
8740,
11489,
22706,
53788,
102350,
135051,
119614,
71931,
31742,
14171,
14917,
27732,
50283,
67012,
66128,
50447,
34291,
22865,
15206,
12714,
15833,
20952,
22424,
18463,
11889,
7249,
5490,
5531,
7134,
9014,
10318,
9164,
6911,
4886,
4138,
4069,
5112,
6135,
6601,
6489,
5364,
4338,
3729,
3471,
3384,
3175,
3308,
3237,
3175,
3091,
3167,
3147,
3118,
3161,
3095,
3063,
3151,
3147,
3166,
3140,
3111,
3006,
2964,
3179,
3181,
3183,
3148,
3024,
3219,
3131,
3125,
3005,
2974,
3049,
3011,
3009,
3043,
2964,
3073,
3069,
3087,
3162,
3286,
3218,
3131,
3039,
2982,
2893,
2892,
3024,
2975,
3014,
3042,
2882,
2940,
2951,
2979,
3220,
3227,
3228,
3068,
2902,
2897,
2620,
2776,
2776,
2638,
2594,
2587,
2603,
2543,
2654,
2608,
2605,
2519,
2663,
2521,
2574,
2499,
2565,
2580,
2434,
2464,
2441,
2467,
2571,
2543,
2485,
2443,
2430,
2494,
2529,
2565,
2530,
2583,
2552,
2478,
2380,
2306,
2304,
2250,
2240,
2368,
2269,
2221,
2228,
2217,
2114,
2218,
2193,
2109,
2152,
2178,
2106,
2082,
2068,
1972,
2059,
2117,
2013,
2045,
2082,
2000,
2043,
1944,
2030,
2017,
1915,
1982,
1918,
2016,
1914,
1943,
1963,
1787,
1842,
1865,
1850,
1860,
1894,
1801,
1884,
1805,
1734,
1784,
1792,
1728,
1709,
1699,
1716,
1744,
1688,
1698,
1674,
1673,
1604,
1733,
1663,
1633,
1680,
1573,
1603,
1585,
1581,
1581,
1612,
1565,
1603,
1603,
1530,
1487,
1553,
1554,
1527,
1487,
1508,
1445,
1560,
1491,
1419,
1437,
1429,
1410,
1405,
1414,
1423,
1295,
1419,
1325,
1365,
1360,
1272,
1353,
1295,
1357,
1358,
1312,
1231,
1271,
1317,
1288,
1284,
1285,
1252,
1200,
1197,
1330,
1178,
1240,
1215,
1260,
1187,
1158,
1159,
1144,
1192,
1184,
1089,
1058,
1167,
1141,
1095,
1093,
1101,
1050,
1083,
1058,
1038,
1065,
991,
1037,
1037,
1019,
1009,
1014,
1005,
1029,
888,
944,
955,
1017,
942,
963,
899,
925,
913,
911,
952,
940,
917,
891,
898,
862,
859,
843,
838,
815,
842,
821,
845,
831,
792,
787,
800,
804,
767,
793,
737,
778,
773,
754,
768,
746,
798,
716,
693,
707,
726,
681,
668,
671,
653,
650,
684,
702,
637,
628,
681,
666,
641,
642,
635,
609,
630,
624,
621,
610,
596,
574,
543,
580,
578,
565,
537,
535,
535,
532,
568,
537,
527,
532,
539,
507,
476,
549,
460,
496,
493,
501,
455,
477,
462,
462,
487,
442,
455,
463,
462,
447,
439,
399,
444,
435,
414,
373,
411,
427,
404,
421,
387,
385,
344,
386,
362,
400,
389,
379,
343,
374,
367,
320,
322,
314,
363,
348,
314,
307,
288,
312,
316,
309,
294,
272,
307,
304,
300,
273,
275,
278,
286,
305,
283,
262,
279,
240,
271,
247,
241,
268,
250,
265,
260,
228,
255,
247,
253,
231,
240,
212,
225,
214,
205,
209,
204,
192,
193,
188,
209,
208,
180,
186,
179,
189,
164,
187,
172,
156,
170,
164,
163,
147,
157,
187,
154,
145,
152,
149,
161,
155,
134,
112,
143,
143,
135,
138,
134,
124,
123,
126,
134,
127,
126,
121,
120,
114,
118,
114,
108,
108,
99,
115,
102,
107,
98,
110,
99,
89,
88,
91,
77,
82,
69,
73,
79,
83,
71,
61,
61,
60,
68,
65,
79,
60,
64,
67,
63,
61,
69,
51,
54,
54,
54,
49,
60,
45,
56,
42,
35,
48,
34,
38,
41,
32,
26,
33,
34,
34,
41,
31,
25,
25,
17,
29,
25,
20,
24,
25,
28,
18,
22,
14,
14,
11,
11,
10,
9,
9,
8,
7,
4,
5,
5,
1,
3,
1,
3,
3,
5,
0,
1,
4,
2,
6,
0,
5,
2,
2,
2,
2,
2,
1,
1,
2,
2,
3,
1,
0,
0,
0,
2,
2,
1,
1,
4,
2,
2,
0,
2,
3,
1,
6,
1,
4,
2,
1,
2,
2,
2,
1,
0,
1,
1,
3,
4,
0,
0,
2,
1,
0,
1,
2,
1,
0,
0,
1,
2,
1,
4,
1,
0,
0,
0,
1,
1,
3,
2,
0,
1,
2,
0,
0,
0,
1,
0,
0,
1,
1,
1,
0,
3,
2,
2,
2,
0,
1,
0,
0,
1,
1,
0,
0,
0,
0,
1,
1,
0,
0,
0,
1,
0,
2,
1,
1,
0,
0,
0,
1,
0,
1,
2,
0,
1,
0,
0,
0,
2,
2,
1,
0,
0,
1,
0,
0,
0,
1,
0,
0,
0,
0,
0,
0,
1,
1,
1,
0,
0,
0,
0,
1,
1,
1,
0,
0,
0,
1,
0,
1,
0,
1,
2,
1,
0,
0,
0,
1,
0,
0,
0,
0,
1,
1,
1,
0,
1,
0,
0,
0,
0,
0,
1,
0,
1,
0,
1,
0,
0,
0,
0,
0,
0,
2,
0,
0,
1,
0,
0,
0,
0,
0,
0,
0,
0,
0,
0,
2,
0,
0,
0,
0,
0,
0,
0,
0,
0,
0,
0,
0,
0,
1,
0,
0,
0,
0,
0,
0,
0,
0,
1,
0,
0,
0,
0,
0,
0,
0,
0,
1,
0,
0,
0,
0,
0,
0,
0,
0,
0,
0,
1,
0,
0,
0,
1,
0,
0,
0,
0,
0,
0,
0,
0,
0,
0,
0,
1,
0,
0,
1,
0,
1,
0,
0,
0,
0,
0,
0,
0,
0,
0,
0,
0,
0,
0,
0,
0,
0,
0,
0,
0,
0,
0,
0,
0,
1,
0,
0,
0,
0,
0,
0,
2,
0,
0,
0,
0,
0,
0,
0,
0,
0,
0,
0,
0,
0,
0,
0,
1,
0,
0,
0,
0,
0,
0,
0,
0,
0,
0,
0,
0,
0,
1,
0,
0,
0,
0,
0,
0,
0,
0,
0,
0,
0,
0,
0,
0,
0,
0,
0,
0,
0,
0,
0,
0,
0,
0,
0,
0,
0,
0,
0,
0,
0,
0,
0,
0,
0,
0,
0,
0,
0,
0,
0,
0,
0,
0,
0,
0,
0,
0,
0,
0,
0,
0,
0,
0,
0,
0,
0,
0,
0,
0,
0,
0,
0,
0,
0,
0,
0,
0,
0,
0,
0,
0,
0,
0,
0,
0,
0,
0,
0,
0,
0,
0,
0,
0,
0,
0,
0,
0,
0,
0,
0,
0,
0,
0,
0,
0,
0,
0,
0,
0,
0,
0,
0,
0,
0,
0,
0,
0,
0,
0,
0,
0,
0,
0,
0,
1,
0,
0,
0,
0,
0,
0,
0,
0,
0,
0,
0,
0,
0,
0,
0,
0,
0,
0,
0,
0,
0,
0,
0,
0,
0,
0,
0,
0,
0,
0,
0,
0,
0,
0,
0,
0,
0,
0,
0,
0,
0,
0,
0,
0,
0,
0,
0,
0,
0,
0,
0,
0,
0,
0,
0,
0,
0,
0,
0,
0,
0,
0,
0,
0,
0,
0,
0,
0,
0,
0,
0,
0,
0,
0,
0,
0,
0,
0,
0,
0,
0,
0,
0,
0,
0,
0,
0,
0,
0,
0,
0,
0,
0,
0,
0,
0,
0,
0,
0,
0,
0,
0,
0,
0,
0,
0,
0,
0,
0,
0,
0,
0,
0,
0,
0,
0,
0,
0,
0,
0,
0,
0,
0,
0,
0,
0,
0,
0,
0,
0,
0,
0,
0,
0,
0,
0,
0,
0,
0,
0,
0,
0,
0,
0,
0,
0,
0,
0,
0,
0,
0,
0,
0,
0,
0,
0,
0,
0,
0,
0,
0,
0,
0,
0,
0,
0,
0,
0,
0,
0,
0,
0,
0,
0,
0,
0,
0,
0,
0,
0,
0,
0,
0,
0,
0,
0,
0,
0,
0,
0,
0,
0,
0,
0,
0,
0,
0,
0,
0,
0,
0,
0,
0,
0,
0,
0,
0,
0,
0,
0,
0,
0,
0,
0,
0,
0,
0,
0,
0,
0,
0,
0,
0,
0,
0,
0,
0,
0,
0,
0,
0,
0,
0,
0,
0,
0,
0,
0,
0,
0,
0,
0,
0,
0,
0,
0,
0,
0,
0,
0,
0,
0,
0,
0,
0,
#ENDOFDATA   :