File: N132962/Quantification/20 keV/MMM2/SPI MM2 SPI Olivine[2][4].msa
#FORMAT      : EMSA/MAS Spectral Data File
#VERSION     : 1.0
#TITLE       : SPI MM2 SPI Olivine[2][all]
#DATE        : 13-MAR-2025
#TIME        : 09:47
#OWNER       : Unknown
#NPOINTS     : 4096
#NCOLUMNS    : 1
#XUNITS      : eV
#YUNITS      : counts
#DATATYPE    : Y
#XPERCHAN    : 9.99778
#OFFSET      : 1.69135
#BEAMKV      : 20
#SIGNALTYPE  : EDS
#ELEVANGLE   : 35
#AZIMANGLE   : 0
#LIVETIME    : 239.72
#REALTIME    : 255.85
#PROBECUR    : 1.02582
#TAUWIND     : 0
#TDEADLYR    : 0
#TACTLYR     : 0.045
#TALWIND     : 0.025
#CHOFFSET    : 0.0
#XLABEL      : Energy (eV)
#YLABEL      : Counts
#XPOSITION   : -3.16692
#YPOSITION   : -2.12294
#ZPOSITION   : 31.03509
#EDSDET      : SD
##SPECIMEN   : SPI MM2 SPI Olivine[2][all]
##D2STDCMP   : SPI Olivine,(O:43.96),(Mg:30.26),(Si:19.14),(Mn:0.089),(Fe:6.35),(Ni:0.278),5.0
##DET_HASH   : 12273538-fd48-a23f-0a19-f1e6fa85caef
##CALIB_HASH : 6abaa72c-aa41-8738-0be9-f592914732f3
##WORKING    : 15.0 mm
##DET_NAME   : EDAX All
##DET_MODE   : MediumLE
#SPECTRUM    :
17,
29,
5,
15,
80,
298,
844,
2503,
7357,
9629,
5124,
2656,
2749,
3557,
6556,
25306,
102876,
201484,
149305,
39478,
6023,
2945,
4173,
6691,
6751,
4099,
2963,
2809,
3278,
3357,
3163,
3058,
3253,
3741,
4090,
4329,
4692,
5437,
7240,
19599,
78143,
198156,
239480,
133489,
37163,
7528,
3245,
2700,
2738,
2932,
3068,
3243,
3375,
3367,
4287,
10542,
39630,
100636,
136821,
97294,
39886,
13965,
6831,
3877,
2610,
2224,
2251,
2223,
2242,
2152,
2214,
2286,
2374,
2458,
2507,
2671,
2678,
2478,
2369,
2416,
2376,
2460,
2519,
2698,
2725,
2619,
2333,
2268,
2303,
2232,
2339,
2237,
2193,
2185,
2310,
2231,
2216,
2338,
2392,
2546,
2584,
2466,
2269,
2181,
2181,
2127,
2071,
1998,
2025,
2071,
2059,
1970,
1954,
1992,
2026,
2056,
2082,
2034,
1961,
1960,
1916,
1943,
1966,
1953,
1845,
1806,
1757,
1860,
1828,
1802,
1784,
1773,
1776,
1782,
1736,
1724,
1704,
1702,
1730,
1574,
1680,
1640,
1671,
1624,
1583,
1527,
1556,
1541,
1567,
1536,
1515,
1511,
1495,
1540,
1593,
1512,
1515,
1464,
1434,
1445,
1439,
1370,
1393,
1363,
1320,
1364,
1403,
1355,
1324,
1317,
1297,
1351,
1266,
1274,
1235,
1280,
1237,
1264,
1245,
1300,
1244,
1257,
1245,
1202,
1166,
1223,
1147,
1161,
1213,
1117,
1146,
1154,
1169,
1147,
1190,
1265,
1317,
1265,
1176,
1092,
1124,
1091,
1023,
1095,
1046,
1071,
1049,
1122,
1324,
1940,
3710,
6485,
9738,
11800,
11088,
8271,
5020,
2621,
1488,
1007,
920,
932,
911,
920,
918,
851,
892,
888,
905,
942,
1000,
1117,
1358,
1696,
2030,
2280,
2019,
1753,
1294,
1040,
795,
784,
767,
739,
770,
807,
862,
980,
1107,
1131,
1077,
975,
880,
766,
762,
715,
710,
682,
698,
668,
634,
682,
676,
693,
619,
663,
657,
616,
620,
632,
628,
645,
636,
632,
630,
672,
614,
598,
609,
592,
620,
610,
568,
559,
541,
585,
557,
535,
622,
571,
516,
528,
515,
491,
522,
537,
508,
506,
489,
524,
490,
483,
487,
492,
502,
460,
479,
476,
475,
473,
420,
489,
451,
471,
435,
461,
455,
467,
442,
431,
453,
445,
421,
426,
414,
443,
397,
436,
374,
463,
394,
426,
410,
379,
405,
394,
402,
407,
397,
357,
383,
375,
346,
351,
369,
366,
337,
353,
360,
331,
344,
329,
292,
335,
331,
299,
318,
319,
323,
325,
340,
331,
307,
312,
305,
333,
287,
298,
274,
308,
275,
311,
283,
258,
300,
276,
262,
260,
285,
286,
239,
286,
235,
250,
270,
229,
252,
259,
231,
244,
258,
212,
243,
224,
232,
235,
230,
219,
203,
231,
229,
246,
215,
210,
216,
225,
189,
210,
204,
199,
194,
201,
201,
203,
200,
178,
167,
176,
193,
142,
201,
173,
163,
177,
136,
184,
167,
173,
129,
181,
167,
174,
182,
159,
159,
160,
171,
157,
158,
150,
147,
159,
130,
142,
157,
144,
138,
141,
142,
150,
123,
139,
112,
121,
118,
144,
155,
131,
135,
104,
143,
107,
105,
113,
123,
108,
97,
112,
96,
117,
121,
115,
113,
85,
89,
102,
105,
90,
85,
97,
96,
67,
105,
100,
89,
87,
95,
83,
84,
85,
74,
83,
77,
85,
75,
74,
63,
93,
74,
80,
80,
83,
62,
59,
78,
75,
80,
62,
59,
67,
68,
72,
60,
64,
67,
56,
66,
60,
68,
67,
53,
59,
51,
56,
48,
54,
63,
65,
55,
59,
50,
60,
47,
47,
43,
44,
48,
47,
43,
42,
49,
46,
40,
55,
40,
45,
42,
44,
46,
29,
45,
36,
26,
28,
42,
43,
33,
47,
39,
27,
30,
24,
32,
36,
29,
15,
24,
29,
24,
28,
29,
32,
21,
36,
36,
26,
29,
32,
30,
26,
33,
15,
25,
25,
21,
19,
29,
24,
15,
15,
19,
23,
13,
19,
20,
20,
13,
15,
22,
20,
13,
17,
20,
17,
17,
19,
14,
11,
11,
12,
14,
13,
16,
9,
12,
15,
10,
9,
5,
8,
8,
10,
7,
8,
13,
10,
6,
11,
7,
6,
4,
3,
3,
5,
8,
7,
2,
5,
6,
9,
3,
0,
4,
1,
0,
3,
4,
1,
5,
5,
1,
2,
3,
2,
1,
2,
1,
3,
2,
1,
2,
0,
0,
3,
2,
0,
0,
0,
0,
0,
0,
0,
0,
0,
0,
0,
0,
0,
0,
1,
0,
0,
0,
0,
0,
0,
0,
0,
1,
1,
0,
0,
0,
0,
0,
0,
0,
0,
1,
0,
0,
0,
1,
0,
0,
0,
0,
0,
0,
0,
1,
0,
0,
0,
0,
0,
0,
3,
0,
0,
0,
0,
0,
1,
0,
1,
0,
0,
0,
0,
0,
0,
0,
0,
0,
0,
0,
0,
0,
0,
0,
0,
0,
0,
0,
0,
0,
0,
0,
0,
1,
0,
0,
0,
0,
0,
0,
0,
0,
0,
0,
0,
0,
0,
0,
0,
0,
0,
0,
0,
0,
0,
0,
0,
0,
0,
0,
0,
0,
0,
0,
0,
0,
0,
0,
0,
0,
0,
0,
0,
0,
0,
1,
0,
0,
0,
0,
0,
0,
0,
0,
0,
0,
0,
0,
0,
0,
0,
0,
0,
0,
0,
0,
0,
0,
0,
0,
1,
0,
0,
0,
0,
0,
0,
0,
0,
0,
0,
0,
0,
0,
0,
0,
0,
0,
0,
0,
1,
0,
0,
0,
0,
0,
0,
0,
0,
0,
0,
0,
0,
0,
0,
0,
0,
0,
0,
0,
0,
0,
0,
0,
0,
0,
0,
0,
0,
0,
0,
0,
0,
0,
0,
0,
0,
0,
0,
0,
0,
0,
0,
0,
0,
0,
0,
0,
0,
0,
0,
0,
0,
0,
0,
0,
0,
0,
0,
0,
0,
0,
0,
0,
0,
0,
0,
0,
0,
0,
0,
0,
0,
0,
0,
0,
0,
0,
0,
0,
0,
0,
0,
0,
0,
0,
0,
0,
0,
0,
0,
0,
0,
0,
0,
0,
0,
0,
0,
0,
0,
0,
0,
0,
0,
0,
0,
0,
0,
0,
0,
0,
0,
0,
0,
0,
0,
0,
0,
0,
0,
0,
0,
0,
0,
0,
0,
0,
0,
0,
0,
0,
0,
0,
0,
0,
0,
0,
0,
0,
0,
0,
0,
0,
0,
0,
0,
0,
0,
0,
0,
0,
0,
0,
0,
0,
0,
0,
0,
0,
0,
0,
0,
0,
0,
0,
0,
0,
0,
0,
0,
0,
0,
0,
0,
0,
0,
0,
0,
0,
0,
0,
0,
0,
0,
0,
0,
0,
0,
0,
0,
0,
0,
0,
0,
0,
0,
0,
0,
0,
0,
0,
0,
0,
0,
0,
0,
0,
0,
0,
0,
0,
0,
0,
0,
0,
0,
0,
0,
0,
0,
0,
0,
0,
0,
0,
0,
0,
0,
0,
0,
0,
0,
0,
0,
0,
0,
0,
0,
0,
0,
0,
0,
0,
0,
0,
0,
0,
0,
0,
0,
0,
0,
0,
0,
0,
0,
0,
0,
0,
0,
0,
0,
0,
0,
0,
0,
0,
0,
0,
0,
0,
0,
0,
0,
0,
0,
0,
0,
0,
0,
0,
0,
0,
0,
0,
0,
0,
0,
0,
0,
0,
0,
0,
0,
0,
0,
0,
0,
0,
0,
0,
0,
0,
0,
0,
0,
0,
0,
0,
0,
0,
0,
0,
0,
0,
0,
0,
0,
0,
0,
0,
0,
0,
0,
0,
0,
0,
0,
0,
0,
0,
0,
0,
0,
0,
0,
0,
0,
0,
0,
0,
0,
0,
0,
0,
0,
0,
0,
0,
0,
0,
0,
0,
0,
0,
0,
0,
0,
0,
0,
0,
0,
0,
0,
0,
0,
0,
0,
0,
0,
0,
0,
0,
0,
0,
0,
0,
0,
0,
0,
0,
0,
0,
0,
0,
0,
0,
0,
0,
0,
0,
0,
0,
0,
0,
0,
0,
0,
0,
0,
0,
0,
0,
0,
0,
0,
0,
0,
0,
0,
0,
0,
0,
0,
0,
0,
0,
0,
0,
0,
0,
0,
0,
0,
0,
0,
0,
0,
0,
0,
0,
0,
0,
0,
0,
0,
0,
0,
0,
0,
0,
0,
0,
0,
0,
0,
0,
0,
0,
0,
0,
0,
0,
0,
0,
0,
0,
0,
0,
0,
0,
0,
0,
0,
0,
0,
0,
0,
0,
0,
0,
0,
0,
0,
0,
0,
0,
0,
0,
0,
0,
0,
0,
0,
0,
0,
0,
0,
0,
0,
0,
0,
0,
0,
0,
0,
0,
0,
0,
0,
0,
0,
0,
0,
0,
0,
0,
0,
0,
0,
0,
0,
0,
0,
0,
0,
0,
0,
0,
0,
0,
0,
0,
0,
0,
0,
0,
0,
#ENDOFDATA   :