File: N132962/Quantification/20 keV/MMM2/SPI MM2 SPI Pentlandite[3][4].msa
#FORMAT      : EMSA/MAS Spectral Data File
#VERSION     : 1.0
#TITLE       : SPI MM2 SPI Pentlandite[3][all]
#DATE        : 13-MAR-2025
#TIME        : 10:35
#OWNER       : Unknown
#NPOINTS     : 4096
#NCOLUMNS    : 1
#XUNITS      : eV
#YUNITS      : counts
#DATATYPE    : Y
#XPERCHAN    : 9.99778
#OFFSET      : 1.69135
#BEAMKV      : 20
#SIGNALTYPE  : EDS
#ELEVANGLE   : 35
#AZIMANGLE   : 0
#LIVETIME    : 239.952
#REALTIME    : 260.264
#PROBECUR    : 1.02606
#TAUWIND     : 0
#TDEADLYR    : 0
#TACTLYR     : 0.045
#TALWIND     : 0.025
#CHOFFSET    : 0.0
#XLABEL      : Energy (eV)
#YLABEL      : Counts
#XPOSITION   : 3.93894
#YPOSITION   : -0.37837
#ZPOSITION   : 31.0351
#EDSDET      : SD
##SPECIMEN   : SPI MM2 SPI Pentlandite[3][all]
##D2STDCMP   : SPI Pentlandite,(S:32.89),(Fe:30.88),(Co:0.43),(Ni:35.61)
##DET_HASH   : 12273538-fd48-a23f-0a19-f1e6fa85caef
##CALIB_HASH : 6abaa72c-aa41-8738-0be9-f592914732f3
##WORKING    : 15.0 mm
##DET_NAME   : EDAX All
##DET_MODE   : MediumLE
#SPECTRUM    :
26,
21,
14,
40,
204,
573,
1227,
3572,
10031,
13410,
6749,
2813,
2613,
2903,
3377,
4175,
5361,
7540,
10815,
15100,
18156,
18813,
28407,
47588,
44223,
23881,
17375,
35231,
62782,
52898,
21141,
6569,
3875,
3303,
3150,
3198,
3337,
3381,
3637,
3633,
3934,
4016,
4095,
4329,
4427,
4565,
4652,
4763,
4933,
5197,
5288,
5299,
5115,
5041,
5150,
5277,
5698,
5932,
6346,
6220,
5932,
5610,
5402,
5247,
5393,
5393,
5436,
5578,
5600,
5622,
5699,
6216,
8165,
13615,
31712,
85837,
175115,
219902,
160872,
69940,
25396,
18235,
20095,
17044,
10514,
5947,
4218,
3854,
3972,
3759,
3735,
3804,
3767,
3731,
3931,
3847,
3914,
3878,
3848,
3916,
3984,
4013,
3928,
3899,
3800,
3919,
4004,
3780,
3682,
3742,
3690,
3739,
3680,
3701,
3725,
3569,
3526,
3496,
3427,
3526,
3471,
3572,
3505,
3480,
3397,
3534,
3363,
3332,
3422,
3505,
3271,
3339,
3375,
3267,
3218,
3336,
3298,
3268,
3348,
3270,
3185,
3278,
3089,
3135,
3107,
3128,
3111,
3073,
2985,
3101,
3121,
3062,
3098,
3346,
3489,
3432,
3319,
3112,
2897,
2871,
2931,
2847,
2865,
2890,
2824,
2681,
2638,
2854,
2771,
2689,
2734,
2730,
2693,
2616,
2712,
2593,
2675,
2624,
2598,
2584,
2618,
2439,
2535,
2633,
2475,
2472,
2418,
2406,
2516,
2411,
2492,
2508,
2445,
2344,
2354,
2392,
2198,
2280,
2278,
2387,
2314,
2280,
2284,
2286,
2243,
2353,
2444,
2809,
3979,
7972,
17160,
33969,
53181,
64573,
60908,
44267,
24806,
11785,
5188,
2816,
2130,
2038,
1982,
1965,
1939,
2035,
2150,
2188,
2281,
2684,
3169,
3947,
5200,
7162,
9171,
10214,
9095,
7073,
4708,
3055,
2220,
1962,
1985,
2446,
4208,
8806,
17928,
30919,
42692,
48103,
42778,
30115,
17202,
8445,
4047,
2189,
1810,
1588,
1513,
1508,
1524,
1486,
1433,
1421,
1485,
1468,
1484,
1435,
1470,
1640,
1804,
2300,
3284,
4826,
6404,
7234,
6965,
5533,
4128,
2689,
1810,
1326,
1211,
1135,
1182,
1155,
1220,
1160,
1219,
1227,
1254,
1243,
1244,
1069,
1117,
1116,
1097,
1065,
1135,
1047,
1081,
1074,
1038,
1071,
1018,
1075,
1003,
1035,
1057,
1033,
1024,
981,
1003,
936,
980,
968,
951,
956,
1026,
900,
954,
988,
987,
950,
994,
1037,
1050,
1035,
1003,
948,
987,
899,
912,
870,
885,
810,
902,
872,
863,
828,
869,
795,
846,
820,
811,
778,
797,
805,
883,
792,
774,
785,
743,
787,
802,
740,
747,
789,
728,
729,
699,
736,
716,
718,
678,
732,
677,
695,
737,
670,
639,
673,
673,
652,
661,
682,
637,
664,
670,
663,
653,
609,
621,
596,
586,
571,
601,
575,
587,
616,
588,
588,
555,
556,
543,
533,
561,
501,
534,
533,
508,
565,
545,
487,
497,
515,
503,
552,
505,
459,
465,
474,
485,
453,
454,
455,
442,
447,
509,
444,
436,
456,
467,
423,
443,
431,
459,
427,
413,
422,
413,
388,
434,
377,
391,
403,
398,
390,
365,
397,
376,
373,
382,
382,
344,
354,
383,
322,
351,
326,
368,
340,
315,
348,
338,
326,
310,
325,
332,
324,
347,
365,
323,
339,
317,
314,
302,
317,
313,
258,
286,
258,
229,
294,
287,
287,
255,
244,
249,
250,
227,
232,
242,
229,
254,
229,
212,
246,
262,
207,
229,
203,
228,
197,
223,
216,
230,
214,
237,
186,
212,
205,
172,
171,
201,
182,
186,
168,
187,
198,
172,
180,
166,
157,
164,
176,
158,
170,
190,
157,
167,
177,
158,
144,
160,
156,
147,
158,
148,
134,
128,
149,
128,
121,
151,
122,
129,
118,
135,
119,
115,
104,
129,
120,
111,
100,
125,
114,
106,
104,
98,
122,
103,
101,
108,
110,
85,
99,
109,
89,
69,
95,
77,
91,
78,
80,
104,
75,
85,
88,
84,
82,
73,
69,
74,
84,
87,
74,
72,
74,
54,
68,
76,
56,
61,
58,
71,
71,
67,
41,
54,
47,
55,
68,
47,
52,
58,
49,
51,
50,
42,
49,
41,
44,
44,
38,
30,
32,
33,
34,
30,
38,
36,
33,
29,
34,
22,
35,
33,
31,
29,
26,
27,
33,
30,
32,
26,
19,
27,
16,
16,
24,
22,
18,
19,
22,
30,
13,
20,
13,
17,
21,
12,
16,
10,
17,
10,
17,
10,
12,
12,
5,
13,
9,
2,
8,
8,
8,
6,
3,
7,
2,
7,
4,
1,
6,
1,
3,
4,
0,
0,
3,
2,
3,
1,
3,
2,
0,
1,
1,
0,
1,
1,
1,
0,
2,
2,
0,
6,
2,
5,
1,
0,
1,
1,
3,
0,
0,
3,
1,
3,
1,
1,
1,
1,
1,
0,
1,
1,
2,
2,
0,
1,
1,
1,
0,
1,
0,
0,
0,
0,
0,
0,
1,
0,
4,
0,
0,
0,
1,
0,
0,
1,
0,
2,
0,
2,
0,
0,
0,
1,
1,
1,
1,
1,
1,
1,
0,
2,
0,
0,
1,
0,
1,
0,
0,
0,
0,
1,
0,
0,
2,
1,
0,
1,
0,
0,
0,
1,
1,
0,
0,
0,
0,
2,
2,
0,
0,
1,
0,
0,
0,
0,
0,
0,
0,
1,
0,
0,
1,
1,
1,
1,
0,
0,
0,
0,
0,
0,
0,
0,
0,
0,
0,
0,
1,
0,
0,
0,
0,
0,
0,
0,
0,
1,
1,
1,
1,
1,
0,
0,
0,
1,
2,
0,
2,
0,
0,
0,
0,
0,
0,
0,
0,
0,
0,
0,
0,
0,
1,
0,
0,
0,
0,
0,
0,
0,
0,
1,
0,
0,
0,
0,
0,
0,
0,
0,
0,
0,
0,
0,
0,
0,
0,
0,
0,
0,
0,
0,
0,
0,
0,
0,
0,
0,
0,
0,
0,
0,
0,
0,
0,
0,
0,
0,
0,
0,
0,
0,
0,
0,
0,
0,
0,
0,
0,
0,
0,
0,
1,
0,
0,
0,
0,
0,
0,
0,
0,
0,
0,
0,
0,
0,
0,
0,
0,
0,
0,
0,
0,
0,
1,
0,
0,
0,
0,
0,
0,
0,
0,
0,
0,
0,
0,
0,
0,
0,
0,
0,
0,
0,
0,
0,
1,
0,
0,
0,
0,
0,
0,
0,
0,
0,
0,
0,
0,
0,
0,
0,
0,
0,
0,
0,
0,
0,
0,
0,
0,
0,
0,
0,
0,
0,
0,
0,
0,
0,
0,
0,
0,
0,
0,
0,
0,
0,
0,
0,
0,
0,
0,
0,
0,
0,
0,
1,
0,
0,
0,
0,
0,
0,
0,
0,
0,
0,
0,
0,
0,
0,
0,
0,
0,
0,
0,
0,
0,
0,
0,
0,
0,
0,
0,
0,
0,
0,
0,
0,
0,
0,
0,
0,
1,
0,
0,
0,
0,
0,
0,
0,
0,
0,
0,
0,
0,
0,
0,
0,
0,
0,
0,
0,
0,
0,
0,
0,
0,
0,
0,
0,
0,
0,
0,
0,
0,
0,
0,
0,
0,
0,
0,
0,
0,
0,
0,
0,
0,
0,
0,
0,
0,
0,
0,
0,
0,
0,
0,
0,
0,
0,
0,
0,
0,
0,
0,
0,
0,
0,
0,
0,
0,
0,
0,
0,
0,
1,
0,
0,
0,
0,
0,
0,
0,
0,
0,
0,
0,
0,
0,
0,
0,
0,
0,
0,
0,
0,
0,
0,
0,
0,
0,
0,
0,
0,
0,
0,
0,
0,
0,
0,
0,
0,
0,
0,
0,
0,
0,
0,
0,
0,
0,
0,
0,
0,
0,
0,
0,
0,
0,
0,
0,
0,
0,
0,
0,
0,
0,
0,
0,
0,
0,
0,
0,
0,
0,
0,
0,
0,
0,
0,
0,
0,
0,
0,
0,
0,
0,
0,
0,
0,
0,
0,
0,
0,
0,
0,
0,
0,
0,
0,
0,
0,
0,
0,
0,
0,
0,
0,
0,
0,
0,
0,
0,
0,
0,
0,
0,
0,
0,
0,
0,
0,
0,
0,
0,
0,
0,
0,
0,
0,
0,
0,
0,
0,
0,
0,
0,
0,
0,
0,
0,
0,
0,
0,
0,
0,
0,
0,
0,
0,
0,
0,
0,
0,
0,
0,
0,
0,
0,
0,
0,
0,
0,
0,
0,
0,
0,
0,
0,
0,
0,
0,
0,
0,
0,
0,
0,
0,
0,
0,
0,
0,
0,
0,
0,
0,
0,
0,
0,
0,
0,
0,
0,
0,
0,
0,
0,
0,
0,
0,
0,
0,
0,
0,
0,
0,
0,
0,
0,
0,
0,
0,
0,
0,
0,
0,
0,
0,
0,
0,
0,
0,
0,
0,
0,
0,
0,
0,
0,
0,
0,
0,
0,
0,
0,
0,
0,
0,
0,
0,
0,
0,
0,
0,
0,
0,
0,
0,
0,
0,
0,
0,
0,
0,
0,
0,
0,
0,
0,
0,
0,
0,
0,
0,
0,
0,
0,
#ENDOFDATA   :