File: N132962/Quantification/20 keV/MMM2/SPI MM2 Spessartine[2][4].msa
#FORMAT      : EMSA/MAS Spectral Data File
#VERSION     : 1.0
#TITLE       : SPI MM2 Spessartine[2][all]
#DATE        : 13-MAR-2025
#TIME        : 12:05
#OWNER       : Unknown
#NPOINTS     : 4096
#NCOLUMNS    : 1
#XUNITS      : eV
#YUNITS      : counts
#DATATYPE    : Y
#XPERCHAN    : 9.99778
#OFFSET      : 1.69135
#BEAMKV      : 20
#SIGNALTYPE  : EDS
#ELEVANGLE   : 35
#AZIMANGLE   : 0
#LIVETIME    : 239.751
#REALTIME    : 256.042
#PROBECUR    : 1.02616
#TAUWIND     : 0
#TDEADLYR    : 0
#TACTLYR     : 0.045
#TALWIND     : 0.025
#CHOFFSET    : 0.0
#XLABEL      : Energy (eV)
#YLABEL      : Counts
#XPOSITION   : -5.88833
#YPOSITION   : 1.56441
#ZPOSITION   : 31.03511
#EDSDET      : SD
##SPECIMEN   : SPI MM2 Spessartine[2][all]
##DET_HASH   : 12273538-fd48-a23f-0a19-f1e6fa85caef
##CALIB_HASH : 6abaa72c-aa41-8738-0be9-f592914732f3
##WORKING    : 15.0 mm
##DET_NAME   : EDAX All
##DET_MODE   : MediumLE
#SPECTRUM    :
25,
23,
11,
18,
80,
317,
946,
2951,
8488,
11378,
6154,
3250,
3286,
4499,
7606,
26219,
103721,
201599,
149732,
42705,
14105,
16869,
13716,
6875,
3603,
2377,
2055,
2033,
2324,
2305,
2427,
2533,
2693,
2814,
3072,
3276,
3295,
3196,
3297,
3632,
3662,
3811,
4027,
4092,
4296,
4540,
5644,
12701,
38910,
76829,
78034,
41043,
14932,
6574,
5531,
10905,
36634,
92318,
125488,
88527,
36645,
13434,
7052,
4340,
3299,
3069,
3444,
3444,
3371,
3186,
3071,
3067,
3149,
3195,
3327,
3471,
3418,
3200,
3103,
3236,
3121,
3143,
3117,
3068,
3056,
3074,
3104,
2976,
3133,
3046,
2959,
3044,
3017,
3049,
2965,
2901,
2868,
2888,
2807,
2986,
2902,
2890,
2825,
2783,
2750,
2874,
2914,
2926,
2906,
2817,
2752,
2610,
2645,
2703,
2713,
2844,
2774,
2670,
2618,
2616,
2768,
3104,
3479,
3911,
3525,
3066,
2625,
2446,
2377,
2340,
2380,
2395,
2379,
2396,
2475,
2434,
2519,
2513,
2504,
2513,
2363,
2179,
2147,
2026,
2169,
2129,
2255,
2157,
2083,
2135,
2126,
2082,
2039,
1974,
2018,
1949,
2046,
1902,
1927,
1955,
1958,
1903,
1881,
1864,
1892,
1867,
1842,
1793,
1782,
1804,
1736,
1674,
1785,
1761,
1717,
1759,
1622,
1746,
1744,
1685,
1709,
1664,
1610,
1627,
1627,
1610,
1645,
1688,
1734,
1833,
2034,
2847,
5772,
14131,
30904,
53183,
70045,
69208,
51511,
29675,
13238,
5186,
2386,
1664,
1548,
1439,
1472,
1471,
1515,
1716,
2102,
2961,
4057,
5991,
8308,
10176,
10955,
9785,
7202,
4424,
2585,
1579,
1241,
1118,
1112,
1103,
1107,
1113,
1093,
1073,
1092,
1076,
1152,
1258,
1294,
1323,
1244,
1183,
1025,
1047,
938,
944,
1083,
949,
950,
1021,
1046,
1023,
979,
1087,
982,
975,
987,
980,
973,
980,
956,
952,
897,
891,
853,
890,
854,
871,
896,
816,
846,
802,
826,
805,
830,
844,
805,
757,
828,
772,
848,
824,
789,
763,
849,
804,
750,
711,
744,
789,
713,
706,
729,
677,
705,
642,
722,
692,
708,
702,
716,
719,
694,
677,
669,
691,
686,
664,
665,
645,
685,
604,
616,
632,
643,
620,
630,
611,
624,
630,
581,
611,
583,
588,
565,
594,
587,
584,
558,
629,
586,
582,
565,
586,
526,
554,
563,
537,
568,
490,
539,
508,
524,
484,
525,
515,
512,
523,
502,
468,
499,
490,
453,
487,
453,
464,
406,
423,
438,
437,
435,
455,
432,
449,
413,
461,
425,
402,
421,
434,
389,
436,
353,
387,
383,
404,
396,
360,
384,
361,
394,
369,
363,
351,
358,
378,
380,
322,
354,
344,
363,
354,
375,
342,
337,
354,
382,
370,
369,
352,
326,
345,
317,
331,
322,
302,
305,
337,
291,
332,
310,
287,
303,
247,
296,
287,
278,
278,
258,
297,
231,
248,
254,
289,
262,
242,
250,
243,
250,
265,
272,
270,
251,
223,
250,
228,
207,
244,
234,
212,
254,
213,
221,
208,
189,
188,
207,
217,
222,
230,
200,
193,
202,
197,
178,
226,
172,
192,
170,
190,
187,
187,
162,
178,
155,
156,
184,
181,
199,
143,
165,
161,
148,
163,
154,
177,
152,
136,
165,
156,
154,
154,
141,
131,
122,
124,
119,
132,
134,
122,
118,
137,
124,
130,
105,
115,
113,
119,
139,
127,
119,
112,
122,
112,
106,
117,
118,
114,
107,
87,
117,
90,
109,
92,
88,
92,
103,
93,
89,
107,
85,
83,
102,
85,
75,
81,
85,
97,
95,
61,
71,
68,
80,
67,
63,
74,
65,
66,
78,
78,
67,
53,
80,
61,
53,
75,
59,
55,
68,
63,
55,
64,
68,
58,
54,
55,
62,
48,
63,
49,
41,
43,
48,
41,
43,
44,
43,
46,
56,
39,
41,
38,
43,
39,
35,
38,
40,
39,
40,
35,
29,
35,
30,
33,
28,
42,
29,
32,
32,
27,
41,
39,
31,
33,
31,
26,
22,
32,
33,
28,
28,
25,
36,
35,
21,
18,
25,
26,
21,
27,
19,
20,
19,
20,
19,
12,
20,
24,
25,
14,
15,
20,
14,
15,
15,
22,
19,
15,
11,
17,
16,
9,
6,
13,
7,
13,
12,
13,
5,
10,
6,
5,
5,
9,
6,
8,
6,
8,
4,
6,
6,
10,
9,
7,
5,
4,
6,
4,
7,
1,
3,
3,
1,
4,
2,
0,
0,
0,
2,
2,
1,
0,
1,
0,
1,
0,
0,
0,
0,
0,
0,
0,
1,
0,
1,
0,
0,
2,
1,
0,
0,
1,
0,
0,
0,
1,
0,
1,
1,
0,
0,
0,
0,
0,
0,
0,
0,
1,
0,
0,
0,
0,
1,
0,
0,
0,
0,
1,
0,
0,
0,
0,
1,
0,
1,
1,
0,
0,
0,
1,
0,
0,
1,
0,
0,
1,
0,
0,
0,
0,
0,
0,
0,
0,
0,
0,
1,
0,
0,
0,
0,
0,
0,
0,
0,
0,
0,
0,
0,
0,
0,
0,
0,
0,
0,
0,
1,
0,
1,
0,
2,
0,
0,
0,
1,
0,
0,
0,
0,
0,
0,
0,
0,
1,
0,
0,
0,
0,
0,
0,
0,
1,
0,
0,
1,
0,
0,
0,
0,
1,
0,
0,
0,
0,
0,
0,
0,
0,
0,
0,
0,
0,
0,
0,
0,
0,
0,
0,
0,
0,
0,
0,
0,
0,
0,
0,
0,
0,
0,
0,
0,
1,
0,
0,
0,
0,
0,
0,
0,
0,
1,
0,
0,
0,
1,
0,
0,
0,
0,
0,
0,
0,
0,
0,
0,
0,
0,
0,
0,
0,
0,
0,
1,
0,
0,
0,
0,
0,
0,
0,
0,
0,
0,
0,
0,
0,
0,
0,
1,
0,
0,
0,
0,
0,
0,
0,
0,
0,
0,
0,
0,
0,
0,
0,
0,
0,
0,
0,
0,
0,
0,
0,
0,
0,
0,
0,
0,
0,
0,
0,
0,
0,
0,
0,
0,
0,
0,
0,
0,
0,
0,
1,
0,
0,
0,
0,
0,
0,
0,
0,
0,
1,
0,
0,
0,
0,
0,
0,
0,
0,
0,
0,
0,
0,
0,
0,
0,
0,
0,
0,
0,
0,
0,
0,
0,
0,
0,
0,
0,
0,
0,
0,
0,
0,
0,
0,
0,
0,
0,
0,
0,
0,
0,
0,
0,
0,
0,
0,
0,
0,
1,
0,
0,
0,
0,
0,
0,
0,
0,
0,
0,
0,
0,
0,
0,
0,
0,
0,
0,
0,
0,
0,
0,
0,
0,
0,
0,
0,
0,
0,
0,
0,
0,
0,
0,
0,
0,
0,
0,
0,
0,
0,
0,
0,
1,
0,
0,
0,
0,
0,
0,
0,
0,
0,
0,
0,
0,
0,
0,
0,
0,
0,
0,
0,
0,
0,
0,
0,
0,
0,
0,
0,
0,
0,
0,
0,
0,
0,
0,
0,
0,
0,
0,
0,
0,
0,
0,
0,
0,
0,
0,
0,
0,
0,
0,
0,
0,
0,
0,
0,
0,
0,
0,
0,
0,
0,
0,
0,
0,
0,
0,
0,
1,
0,
0,
0,
0,
0,
0,
0,
0,
0,
0,
0,
0,
0,
0,
0,
0,
0,
0,
0,
0,
0,
0,
0,
0,
0,
0,
0,
0,
0,
0,
0,
0,
0,
0,
0,
0,
0,
0,
0,
0,
0,
0,
0,
0,
0,
0,
0,
0,
0,
0,
0,
0,
0,
0,
0,
0,
0,
0,
0,
0,
0,
0,
0,
0,
0,
0,
0,
0,
0,
0,
0,
0,
0,
0,
0,
0,
0,
0,
0,
0,
0,
0,
0,
0,
0,
0,
0,
0,
0,
0,
0,
0,
0,
0,
0,
0,
0,
0,
0,
0,
0,
0,
0,
0,
0,
0,
0,
0,
0,
0,
0,
0,
0,
0,
0,
0,
0,
0,
0,
0,
0,
0,
0,
0,
0,
0,
0,
0,
0,
0,
0,
0,
0,
0,
0,
0,
0,
0,
0,
0,
0,
0,
0,
0,
0,
0,
0,
0,
0,
0,
0,
0,
0,
0,
0,
0,
0,
0,
0,
0,
0,
0,
0,
0,
0,
0,
0,
0,
0,
0,
0,
0,
0,
0,
0,
0,
0,
0,
0,
0,
0,
0,
0,
0,
0,
0,
0,
0,
0,
0,
0,
0,
0,
0,
0,
0,
0,
0,
0,
0,
0,
0,
0,
0,
0,
0,
0,
0,
0,
0,
0,
0,
0,
0,
0,
0,
0,
0,
0,
0,
0,
0,
0,
0,
0,
0,
0,
0,
0,
0,
0,
0,
0,
0,
0,
0,
0,
0,
0,
0,
0,
0,
0,
0,
0,
0,
0,
0,
0,
0,
0,
0,
0,
0,
0,
0,
0,
0,
0,
0,
0,
0,
0,
0,
0,
0,
0,
0,
0,
0,
0,
0,
0,
0,
0,
0,
0,
#ENDOFDATA   :