File: N132962/Quantification/20 keV/MMM2/SPI MM2 Zircon[5][4].msa
#FORMAT      : EMSA/MAS Spectral Data File
#VERSION     : 1.0
#TITLE       : SPI MM2 Zircon[5][all]
#DATE        : 13-MAR-2025
#TIME        : 13:50
#OWNER       : Unknown
#NPOINTS     : 4096
#NCOLUMNS    : 1
#XUNITS      : eV
#YUNITS      : counts
#DATATYPE    : Y
#XPERCHAN    : 9.99778
#OFFSET      : 1.69135
#BEAMKV      : 20
#SIGNALTYPE  : EDS
#ELEVANGLE   : 35
#AZIMANGLE   : 0
#LIVETIME    : 239.387
#REALTIME    : 256.9441
#PROBECUR    : 1.0264
#TAUWIND     : 0
#TDEADLYR    : 0
#TACTLYR     : 0.045
#TALWIND     : 0.025
#CHOFFSET    : 0.0
#XLABEL      : Energy (eV)
#YLABEL      : Counts
#XPOSITION   : -2.73758
#YPOSITION   : 6.68983
#ZPOSITION   : 31.03511
#EDSDET      : SD
##SPECIMEN   : SPI MM2 Zircon[5][all]
##DET_HASH   : 12273538-fd48-a23f-0a19-f1e6fa85caef
##CALIB_HASH : 6abaa72c-aa41-8738-0be9-f592914732f3
##WORKING    : 15.0 mm
##DET_NAME   : EDAX All
##DET_MODE   : MediumLE
#SPECTRUM    :
28,
27,
12,
52,
354,
942,
1699,
3743,
10589,
15395,
10295,
4686,
3874,
4105,
4489,
10941,
37882,
72482,
52744,
15191,
3681,
2725,
2996,
3275,
3552,
3458,
3593,
4149,
4319,
4361,
4383,
4409,
4661,
4879,
5148,
5346,
5356,
5573,
5732,
5766,
5920,
6330,
6318,
6595,
6749,
6703,
6994,
7092,
7474,
7706,
7717,
7791,
7942,
8696,
10565,
18493,
50985,
120769,
162075,
120213,
56286,
25124,
14713,
11137,
11912,
20864,
51628,
110271,
153418,
137336,
101744,
79289,
54057,
31194,
17870,
10284,
6305,
4584,
3815,
3413,
3329,
3221,
3642,
4123,
4195,
3793,
3369,
3145,
3111,
3108,
3102,
3109,
3039,
2987,
2997,
3086,
3125,
3103,
3114,
3092,
3082,
3248,
3140,
3131,
3161,
3156,
3160,
3168,
3167,
3177,
3161,
3113,
3147,
3162,
3187,
3297,
3290,
3247,
3207,
3169,
3197,
3110,
3059,
3098,
3120,
3265,
3211,
3300,
3257,
3138,
3033,
2970,
2964,
2964,
2954,
2952,
3090,
3075,
3073,
3014,
2971,
2957,
2859,
2821,
2907,
2701,
2708,
2794,
2782,
2710,
2782,
2750,
2697,
2691,
2626,
2621,
2596,
2625,
2618,
2515,
2611,
2544,
2568,
2619,
2522,
2555,
2431,
2382,
2528,
2566,
2359,
2481,
2427,
2429,
2431,
2321,
2363,
2333,
2414,
2289,
2281,
2285,
2216,
2227,
2290,
2297,
2249,
2162,
2231,
2233,
2196,
2060,
2129,
2161,
2080,
2107,
2088,
2078,
2128,
2081,
2046,
2086,
2005,
1991,
1957,
1955,
1991,
1981,
2025,
1895,
1879,
2029,
2038,
2191,
2075,
2098,
1955,
1912,
1860,
1801,
1810,
1875,
1805,
1722,
1756,
1776,
1755,
1728,
1793,
1744,
1699,
1698,
1663,
1763,
1646,
1715,
1643,
1640,
1595,
1609,
1597,
1573,
1657,
1506,
1602,
1546,
1629,
1626,
1606,
1591,
1606,
1545,
1597,
1485,
1503,
1446,
1447,
1485,
1422,
1487,
1475,
1591,
1676,
1672,
1665,
1544,
1458,
1452,
1397,
1401,
1386,
1340,
1272,
1270,
1299,
1225,
1275,
1230,
1257,
1289,
1193,
1221,
1263,
1247,
1155,
1188,
1173,
1188,
1205,
1178,
1147,
1232,
1149,
1177,
1139,
1143,
1121,
1208,
1174,
1217,
1187,
1271,
1135,
1109,
1087,
1133,
1054,
1068,
1056,
1140,
1103,
1047,
1087,
1067,
1022,
1030,
971,
976,
982,
973,
883,
950,
924,
936,
925,
913,
927,
903,
923,
916,
883,
890,
853,
896,
860,
962,
826,
866,
818,
840,
843,
843,
824,
808,
780,
796,
835,
810,
784,
752,
828,
834,
771,
787,
775,
687,
751,
730,
765,
752,
749,
697,
700,
679,
738,
673,
703,
720,
738,
665,
666,
637,
689,
602,
636,
571,
655,
655,
657,
670,
632,
587,
603,
625,
584,
623,
608,
584,
599,
560,
581,
565,
573,
568,
514,
526,
527,
514,
511,
526,
540,
492,
511,
473,
497,
500,
491,
515,
487,
447,
544,
422,
453,
471,
467,
454,
499,
446,
446,
409,
392,
425,
467,
446,
422,
412,
384,
423,
410,
400,
415,
436,
418,
397,
402,
374,
388,
354,
369,
361,
354,
331,
346,
379,
343,
338,
329,
307,
325,
295,
336,
349,
341,
327,
314,
337,
319,
312,
322,
301,
277,
281,
285,
268,
267,
253,
291,
256,
256,
279,
269,
260,
236,
280,
278,
254,
253,
242,
261,
248,
236,
239,
231,
227,
255,
240,
229,
210,
207,
233,
205,
209,
219,
226,
201,
188,
221,
196,
197,
216,
204,
186,
195,
186,
188,
184,
165,
191,
174,
175,
194,
171,
152,
158,
146,
160,
168,
191,
178,
248,
303,
389,
442,
522,
510,
518,
524,
396,
295,
277,
222,
186,
150,
125,
145,
140,
105,
122,
103,
117,
122,
123,
111,
118,
92,
102,
113,
99,
102,
109,
98,
110,
99,
102,
101,
104,
113,
95,
81,
97,
80,
75,
98,
101,
81,
97,
80,
67,
62,
90,
76,
72,
81,
68,
64,
58,
88,
67,
71,
55,
73,
61,
72,
65,
74,
97,
91,
106,
102,
110,
91,
94,
71,
62,
69,
55,
47,
51,
55,
38,
47,
48,
41,
47,
38,
30,
37,
34,
34,
46,
17,
42,
41,
36,
27,
22,
27,
26,
23,
20,
22,
28,
30,
22,
21,
24,
29,
24,
21,
21,
15,
20,
24,
19,
23,
18,
18,
13,
12,
16,
16,
21,
16,
16,
19,
6,
6,
12,
6,
7,
9,
12,
9,
10,
8,
4,
7,
4,
4,
4,
6,
3,
1,
2,
3,
0,
0,
1,
0,
2,
0,
0,
1,
1,
1,
0,
0,
0,
1,
0,
1,
0,
0,
1,
2,
0,
0,
0,
1,
0,
1,
0,
0,
0,
0,
0,
0,
1,
1,
1,
0,
0,
0,
0,
0,
1,
0,
1,
0,
0,
1,
0,
1,
0,
0,
0,
1,
0,
0,
1,
0,
0,
0,
1,
0,
2,
0,
0,
0,
0,
1,
0,
1,
0,
1,
0,
0,
0,
0,
0,
0,
0,
0,
0,
0,
1,
0,
0,
0,
0,
0,
1,
1,
1,
1,
1,
0,
0,
0,
0,
0,
0,
1,
0,
0,
0,
0,
1,
1,
0,
0,
0,
0,
1,
0,
0,
0,
1,
0,
0,
0,
0,
0,
0,
0,
0,
0,
0,
0,
0,
1,
0,
0,
0,
0,
1,
0,
0,
0,
0,
0,
0,
0,
0,
0,
0,
0,
0,
0,
0,
0,
0,
0,
1,
0,
1,
0,
0,
0,
0,
0,
0,
0,
0,
0,
0,
0,
0,
0,
0,
0,
0,
1,
0,
0,
0,
0,
1,
0,
0,
0,
0,
0,
0,
0,
1,
0,
0,
0,
0,
0,
0,
0,
0,
0,
0,
1,
0,
0,
0,
0,
0,
0,
0,
0,
0,
0,
0,
0,
0,
0,
0,
0,
0,
0,
0,
0,
0,
0,
0,
0,
0,
0,
0,
0,
0,
0,
0,
0,
0,
0,
0,
0,
0,
0,
0,
0,
0,
0,
0,
0,
0,
0,
0,
0,
0,
0,
0,
0,
0,
0,
0,
0,
0,
0,
0,
1,
0,
0,
0,
0,
2,
0,
0,
0,
0,
0,
0,
0,
0,
0,
0,
0,
0,
1,
0,
0,
0,
0,
0,
0,
0,
0,
0,
0,
0,
0,
0,
0,
0,
0,
0,
0,
0,
0,
0,
0,
0,
0,
0,
0,
0,
0,
0,
0,
0,
0,
0,
0,
0,
0,
0,
0,
0,
0,
0,
0,
0,
0,
0,
0,
0,
0,
0,
0,
0,
0,
0,
0,
0,
0,
0,
0,
0,
0,
0,
0,
0,
0,
1,
0,
0,
0,
0,
0,
0,
0,
0,
0,
0,
0,
0,
0,
0,
0,
0,
0,
0,
0,
0,
0,
0,
0,
0,
0,
0,
0,
0,
0,
0,
0,
0,
0,
0,
0,
0,
0,
0,
0,
0,
0,
0,
0,
0,
0,
0,
0,
0,
0,
0,
0,
0,
0,
0,
0,
0,
0,
0,
0,
0,
0,
0,
0,
0,
0,
0,
0,
0,
0,
0,
0,
0,
0,
0,
0,
0,
0,
0,
0,
0,
0,
0,
0,
0,
0,
0,
0,
0,
0,
0,
0,
0,
0,
0,
0,
0,
0,
0,
0,
0,
0,
0,
0,
0,
0,
0,
0,
0,
0,
0,
0,
0,
0,
0,
0,
0,
0,
0,
0,
0,
0,
0,
0,
0,
0,
0,
0,
0,
0,
0,
0,
0,
0,
0,
0,
0,
0,
0,
0,
0,
0,
0,
0,
0,
0,
0,
0,
0,
0,
0,
0,
0,
0,
0,
0,
0,
0,
0,
0,
0,
0,
0,
0,
0,
0,
0,
0,
0,
0,
0,
0,
0,
0,
0,
0,
0,
0,
0,
0,
0,
0,
0,
0,
0,
0,
0,
0,
0,
0,
0,
0,
0,
0,
0,
0,
0,
0,
0,
0,
0,
0,
0,
0,
0,
0,
0,
0,
0,
0,
0,
0,
0,
0,
0,
0,
0,
0,
0,
0,
0,
0,
0,
0,
0,
0,
0,
0,
0,
0,
0,
0,
0,
0,
0,
0,
0,
0,
0,
0,
0,
0,
0,
0,
0,
0,
0,
0,
0,
0,
0,
0,
0,
0,
0,
0,
0,
0,
0,
0,
0,
0,
0,
0,
0,
0,
0,
0,
0,
0,
0,
0,
0,
0,
0,
0,
0,
0,
0,
0,
0,
0,
0,
0,
0,
0,
0,
0,
0,
0,
0,
0,
0,
0,
0,
0,
0,
0,
0,
0,
0,
0,
0,
0,
0,
0,
0,
0,
0,
0,
0,
0,
0,
0,
0,
0,
0,
0,
0,
0,
0,
0,
0,
0,
0,
0,
0,
0,
0,
0,
0,
0,
0,
0,
0,
0,
0,
0,
0,
0,
0,
0,
0,
0,
0,
0,
0,
0,
0,
0,
0,
0,
0,
0,
0,
0,
0,
0,
0,
0,
0,
0,
0,
0,
0,
0,
0,
#ENDOFDATA   :