File: N132962/Quantification/20 keV/MMM2/SPI MM2 SPI Monazite[1][4].msa
#FORMAT      : EMSA/MAS Spectral Data File
#VERSION     : 1.0
#TITLE       : SPI MM2 SPI Monazite[1][all]
#DATE        : 13-MAR-2025
#TIME        : 10:05
#OWNER       : Unknown
#NPOINTS     : 4096
#NCOLUMNS    : 1
#XUNITS      : eV
#YUNITS      : counts
#DATATYPE    : Y
#XPERCHAN    : 9.99778
#OFFSET      : 1.69135
#BEAMKV      : 20
#SIGNALTYPE  : EDS
#ELEVANGLE   : 35
#AZIMANGLE   : 0
#LIVETIME    : 239.936
#REALTIME    : 258.482
#PROBECUR    : 1.02627
#TAUWIND     : 0
#TDEADLYR    : 0
#TACTLYR     : 0.045
#TALWIND     : 0.025
#CHOFFSET    : 0.0
#XLABEL      : Energy (eV)
#YLABEL      : Counts
#XPOSITION   : 2.35882
#YPOSITION   : -2.7424
#ZPOSITION   : 31.03509
#EDSDET      : SD
##SPECIMEN   : SPI MM2 SPI Monazite[1][all]
##D2STDCMP   : SPI Monazite,(O:26.45),(Si:0.83),(P:11.85),(Ca:0.65),(Y:1.59),(La:7.84),(Ce:19.96),(Pr:2.47),(Nd:9.68),(Sm:3.7),(Eu:0.38),(Gd:2.89),(Tb:0.35),(Dy:1.21),(Pb:0.25),(Th:9.7),(U:0.16),5.0
##DET_HASH   : 12273538-fd48-a23f-0a19-f1e6fa85caef
##CALIB_HASH : 6abaa72c-aa41-8738-0be9-f592914732f3
##WORKING    : 15.0 mm
##DET_NAME   : EDAX All
##DET_MODE   : MediumLE
#SPECTRUM    :
25,
35,
6,
30,
159,
712,
2095,
6244,
15520,
19466,
10938,
5914,
5769,
6075,
7833,
18468,
61919,
117045,
85942,
24993,
7575,
8068,
9853,
9646,
8823,
8209,
7626,
8832,
10752,
11837,
11122,
9482,
9209,
9023,
8188,
7585,
8036,
7568,
7182,
7312,
7096,
6750,
6576,
6374,
6257,
5848,
5752,
5759,
5633,
5553,
5738,
5694,
5456,
5617,
5698,
5928,
7418,
10217,
11989,
10422,
8020,
7152,
7681,
9978,
15671,
28870,
55137,
73117,
57511,
28406,
13152,
9160,
7923,
6395,
5456,
5323,
5477,
5917,
6201,
5863,
5723,
5661,
5452,
5459,
5240,
5330,
5353,
5158,
5134,
5282,
5398,
5262,
5127,
5244,
5333,
5396,
5914,
7389,
11481,
17635,
20868,
17728,
12541,
11153,
13451,
14847,
12516,
8865,
6274,
5428,
5505,
5765,
6031,
5856,
5241,
5031,
4763,
4818,
4696,
4659,
4774,
5596,
6698,
7173,
6707,
5799,
4820,
4594,
4427,
4330,
4430,
4519,
4771,
4841,
4969,
4874,
4753,
4814,
4756,
4444,
4455,
4728,
4854,
5056,
4817,
4525,
4256,
4158,
4140,
4211,
4464,
4962,
6416,
9290,
13081,
14689,
13333,
10887,
10847,
15538,
23451,
29354,
27714,
19898,
12197,
8482,
8955,
10879,
11803,
11130,
9256,
9196,
11985,
17294,
23553,
25421,
22905,
17329,
12416,
9782,
7993,
7024,
6241,
5951,
6276,
7566,
9528,
11396,
12307,
11795,
10926,
9699,
8218,
7173,
5980,
5148,
4536,
3921,
3888,
4717,
5912,
7516,
8196,
7821,
6788,
5569,
5104,
4598,
4491,
4393,
4298,
4217,
4106,
3800,
3702,
3567,
3604,
3776,
3869,
4081,
3990,
3811,
3747,
3593,
3433,
3185,
2940,
2835,
2895,
2913,
2781,
2706,
2595,
2606,
2614,
2693,
2734,
2878,
2726,
2749,
2608,
2556,
2526,
2420,
2396,
2351,
2410,
2391,
2358,
2402,
2396,
2254,
2139,
2160,
2182,
2077,
2187,
2113,
2115,
2143,
2053,
2124,
1943,
1991,
2036,
1996,
1867,
1907,
1952,
1986,
1957,
1974,
1858,
1875,
1889,
1810,
1899,
1941,
1869,
1882,
1808,
1829,
1754,
1800,
1790,
1758,
1710,
1755,
1735,
1737,
1713,
1721,
1632,
1585,
1705,
1623,
1675,
1608,
1614,
1595,
1641,
1608,
1594,
1550,
1542,
1528,
1579,
1517,
1513,
1533,
1487,
1494,
1506,
1501,
1505,
1445,
1452,
1472,
1448,
1428,
1385,
1476,
1488,
1443,
1392,
1335,
1362,
1359,
1414,
1331,
1335,
1359,
1376,
1324,
1334,
1370,
1313,
1329,
1285,
1226,
1301,
1308,
1266,
1239,
1279,
1225,
1240,
1136,
1110,
1200,
1174,
1182,
1234,
1194,
1097,
1257,
1159,
1143,
1144,
1097,
1160,
1082,
1062,
1110,
1030,
1070,
1108,
1066,
1094,
1056,
1044,
977,
1009,
1104,
1026,
1009,
1013,
1001,
989,
913,
981,
965,
974,
901,
896,
885,
975,
866,
942,
883,
865,
894,
863,
886,
879,
831,
870,
848,
885,
778,
866,
843,
776,
831,
862,
830,
748,
840,
791,
757,
743,
714,
765,
739,
733,
749,
723,
712,
722,
706,
727,
698,
722,
680,
694,
662,
738,
759,
750,
814,
849,
888,
871,
802,
768,
774,
632,
655,
609,
604,
639,
592,
571,
563,
595,
602,
559,
560,
550,
547,
536,
493,
542,
569,
531,
501,
497,
527,
499,
487,
477,
498,
502,
439,
459,
463,
418,
444,
471,
456,
433,
435,
440,
463,
421,
417,
428,
436,
423,
386,
426,
425,
427,
425,
383,
377,
400,
409,
359,
376,
387,
361,
367,
373,
362,
362,
403,
384,
398,
383,
371,
383,
339,
310,
328,
289,
279,
311,
309,
352,
309,
282,
281,
305,
329,
308,
307,
301,
295,
295,
306,
305,
299,
253,
283,
271,
277,
226,
210,
247,
231,
238,
207,
211,
202,
235,
228,
211,
218,
205,
222,
214,
201,
203,
201,
158,
161,
156,
165,
174,
171,
173,
160,
150,
171,
181,
177,
168,
150,
170,
153,
162,
153,
141,
160,
153,
150,
150,
153,
123,
133,
124,
122,
146,
121,
124,
125,
120,
128,
123,
132,
107,
118,
122,
116,
96,
103,
92,
109,
100,
92,
85,
105,
92,
88,
116,
101,
91,
102,
88,
70,
86,
67,
65,
86,
79,
77,
66,
60,
72,
48,
56,
76,
64,
61,
59,
62,
53,
60,
57,
62,
47,
53,
40,
52,
40,
42,
41,
50,
35,
30,
23,
39,
40,
37,
36,
27,
22,
29,
32,
30,
26,
27,
21,
32,
26,
20,
15,
19,
13,
23,
12,
13,
21,
15,
15,
8,
12,
17,
10,
10,
6,
3,
5,
2,
4,
3,
1,
1,
4,
2,
2,
3,
1,
4,
4,
0,
0,
3,
3,
0,
4,
2,
1,
1,
1,
5,
3,
1,
1,
2,
3,
2,
3,
3,
0,
2,
1,
1,
2,
1,
2,
0,
2,
1,
2,
0,
0,
1,
0,
1,
0,
0,
0,
4,
0,
1,
3,
1,
3,
0,
0,
2,
2,
2,
0,
0,
3,
0,
0,
0,
1,
1,
1,
1,
1,
1,
2,
2,
0,
1,
0,
0,
0,
1,
0,
0,
3,
1,
1,
1,
0,
1,
1,
2,
1,
1,
0,
0,
1,
0,
3,
0,
0,
0,
2,
1,
0,
1,
1,
1,
0,
0,
0,
0,
0,
1,
1,
0,
0,
1,
0,
0,
0,
0,
0,
0,
0,
0,
0,
1,
0,
2,
0,
0,
1,
0,
0,
1,
0,
0,
0,
0,
0,
0,
0,
0,
0,
1,
1,
1,
0,
0,
0,
0,
1,
0,
0,
0,
1,
0,
0,
0,
0,
0,
1,
0,
2,
0,
0,
1,
0,
0,
0,
0,
0,
0,
0,
1,
0,
0,
0,
0,
0,
0,
0,
0,
1,
1,
0,
2,
0,
0,
1,
0,
0,
1,
0,
0,
0,
0,
0,
0,
0,
0,
1,
0,
0,
1,
1,
0,
1,
1,
0,
0,
0,
1,
0,
0,
0,
0,
0,
1,
2,
0,
0,
1,
0,
1,
1,
0,
1,
0,
0,
0,
0,
0,
0,
0,
0,
0,
0,
0,
0,
0,
0,
1,
0,
0,
0,
0,
0,
0,
0,
1,
0,
0,
0,
0,
0,
0,
0,
0,
0,
1,
0,
0,
0,
1,
0,
0,
0,
0,
0,
0,
0,
0,
0,
0,
1,
0,
0,
0,
0,
1,
0,
0,
0,
2,
0,
0,
0,
0,
0,
1,
0,
0,
0,
0,
0,
0,
0,
0,
0,
0,
0,
0,
0,
0,
0,
0,
0,
0,
0,
0,
0,
0,
0,
0,
0,
1,
0,
0,
0,
0,
0,
0,
0,
0,
0,
0,
0,
0,
0,
0,
0,
0,
0,
0,
0,
0,
0,
1,
0,
0,
0,
0,
0,
0,
0,
0,
0,
0,
0,
0,
0,
0,
0,
0,
0,
0,
0,
0,
0,
1,
0,
0,
0,
0,
0,
0,
0,
0,
0,
0,
0,
0,
0,
0,
0,
0,
0,
0,
0,
0,
0,
0,
0,
0,
0,
0,
0,
0,
0,
0,
0,
0,
0,
0,
0,
0,
0,
0,
0,
0,
0,
0,
0,
0,
0,
0,
0,
0,
0,
0,
0,
0,
0,
0,
0,
0,
0,
0,
0,
0,
0,
0,
0,
0,
1,
0,
0,
0,
0,
0,
0,
0,
0,
0,
0,
0,
0,
0,
0,
0,
0,
0,
0,
0,
0,
0,
0,
0,
0,
0,
0,
0,
0,
0,
0,
0,
0,
0,
0,
0,
0,
0,
0,
0,
0,
0,
0,
0,
0,
0,
0,
0,
0,
0,
0,
0,
0,
0,
0,
0,
0,
0,
0,
0,
0,
0,
0,
0,
0,
0,
0,
0,
0,
0,
0,
0,
0,
0,
0,
0,
0,
0,
0,
0,
0,
0,
0,
0,
0,
0,
0,
0,
0,
0,
0,
0,
0,
0,
0,
0,
0,
0,
0,
0,
0,
0,
0,
0,
0,
0,
0,
0,
0,
0,
0,
0,
0,
0,
0,
0,
0,
0,
0,
0,
0,
0,
0,
0,
0,
0,
0,
0,
1,
0,
0,
0,
0,
0,
0,
0,
0,
0,
0,
0,
0,
0,
0,
0,
0,
0,
0,
0,
0,
0,
0,
0,
0,
0,
0,
0,
0,
0,
0,
0,
0,
0,
0,
0,
0,
0,
0,
0,
0,
0,
0,
0,
0,
0,
0,
0,
0,
0,
0,
0,
0,
0,
0,
0,
0,
0,
0,
0,
0,
0,
0,
0,
0,
0,
0,
0,
0,
0,
0,
0,
0,
0,
0,
0,
0,
0,
0,
0,
0,
0,
0,
0,
0,
0,
0,
0,
0,
0,
0,
0,
0,
0,
0,
0,
0,
0,
0,
0,
0,
0,
0,
0,
0,
0,
0,
0,
0,
0,
0,
0,
0,
0,
0,
0,
0,
0,
0,
0,
0,
0,
0,
0,
0,
0,
0,
0,
0,
0,
0,
0,
0,
0,
0,
0,
0,
0,
0,
0,
0,
0,
0,
0,
0,
0,
0,
0,
0,
#ENDOFDATA   :