File: N132962/Quantification/20 keV/MMM2/SPI MM2 SPI Monazite[6][4].msa
#FORMAT      : EMSA/MAS Spectral Data File
#VERSION     : 1.0
#TITLE       : SPI MM2 SPI Monazite[6][all]
#DATE        : 13-MAR-2025
#TIME        : 10:10
#OWNER       : Unknown
#NPOINTS     : 4096
#NCOLUMNS    : 1
#XUNITS      : eV
#YUNITS      : counts
#DATATYPE    : Y
#XPERCHAN    : 9.99778
#OFFSET      : 1.69135
#BEAMKV      : 20
#SIGNALTYPE  : EDS
#ELEVANGLE   : 35
#AZIMANGLE   : 0
#LIVETIME    : 239.931
#REALTIME    : 258.478
#PROBECUR    : 1.02627
#TAUWIND     : 0
#TDEADLYR    : 0
#TACTLYR     : 0.045
#TALWIND     : 0.025
#CHOFFSET    : 0.0
#XLABEL      : Energy (eV)
#YLABEL      : Counts
#XPOSITION   : 2.37071
#YPOSITION   : -2.77189
#ZPOSITION   : 31.03509
#EDSDET      : SD
##SPECIMEN   : SPI MM2 SPI Monazite[6][all]
##D2STDCMP   : SPI Monazite,(O:26.45),(Si:0.83),(P:11.85),(Ca:0.65),(Y:1.59),(La:7.84),(Ce:19.96),(Pr:2.47),(Nd:9.68),(Sm:3.7),(Eu:0.38),(Gd:2.89),(Tb:0.35),(Dy:1.21),(Pb:0.25),(Th:9.7),(U:0.16),5.0
##DET_HASH   : 12273538-fd48-a23f-0a19-f1e6fa85caef
##CALIB_HASH : 6abaa72c-aa41-8738-0be9-f592914732f3
##WORKING    : 15.0 mm
##DET_NAME   : EDAX All
##DET_MODE   : MediumLE
#SPECTRUM    :
32,
20,
8,
29,
154,
687,
2101,
6274,
15400,
19386,
10798,
6037,
5744,
6248,
7984,
18568,
62496,
117359,
85583,
24773,
7531,
8294,
9988,
9615,
8586,
8051,
7835,
8756,
10626,
12010,
11078,
9550,
9005,
8940,
8277,
7639,
7992,
7664,
7062,
7307,
7307,
6849,
6502,
6511,
6097,
5930,
5703,
5668,
5620,
5579,
5646,
5621,
5593,
5692,
5607,
6051,
7442,
10298,
11848,
10499,
7948,
6841,
7528,
9965,
15488,
28984,
55131,
72939,
57756,
28366,
12700,
9139,
7652,
6372,
5301,
5171,
5482,
5802,
6144,
6220,
5743,
5548,
5422,
5372,
5367,
5098,
5224,
5056,
5163,
5263,
5224,
5329,
5317,
5053,
5273,
5289,
5865,
7289,
11620,
17804,
20978,
17886,
12791,
11191,
13468,
14841,
12678,
8876,
6313,
5578,
5530,
5759,
6131,
5845,
5403,
4976,
4869,
4769,
4663,
4667,
4852,
5620,
6640,
7231,
6683,
5698,
4809,
4405,
4373,
4419,
4432,
4663,
4744,
4904,
4901,
4730,
4736,
4700,
4636,
4418,
4491,
4672,
4927,
5002,
4918,
4537,
4296,
4156,
4161,
4241,
4439,
4836,
6329,
9509,
13043,
14817,
13450,
10954,
10918,
15518,
23716,
29432,
27762,
19810,
12416,
8511,
8908,
11019,
11869,
11078,
9381,
9003,
12030,
17487,
23342,
25294,
22650,
16955,
12557,
9756,
8065,
6940,
6289,
5962,
6215,
7444,
9378,
11414,
11955,
11631,
10769,
9820,
8410,
7147,
5965,
5047,
4313,
3967,
3947,
4679,
5917,
7238,
8145,
7836,
6635,
5717,
5016,
4678,
4649,
4327,
4275,
4191,
4016,
3699,
3661,
3536,
3669,
3706,
3889,
4085,
4056,
3919,
3697,
3609,
3395,
3151,
2854,
2806,
2842,
2890,
2789,
2741,
2692,
2578,
2524,
2768,
2698,
2787,
2788,
2723,
2655,
2626,
2547,
2489,
2290,
2299,
2327,
2420,
2397,
2348,
2419,
2392,
2258,
2215,
2118,
2149,
2200,
2131,
2176,
2152,
2093,
2107,
2027,
2107,
1958,
1967,
1918,
1893,
1947,
1914,
1945,
1893,
1925,
1879,
1825,
1827,
1846,
1850,
1881,
1837,
1778,
1894,
1786,
1751,
1733,
1771,
1779,
1703,
1747,
1694,
1769,
1740,
1644,
1622,
1693,
1625,
1607,
1653,
1641,
1642,
1596,
1540,
1521,
1694,
1514,
1528,
1564,
1507,
1478,
1525,
1536,
1495,
1476,
1489,
1516,
1433,
1452,
1505,
1437,
1453,
1413,
1357,
1445,
1422,
1370,
1398,
1419,
1322,
1364,
1418,
1350,
1384,
1319,
1381,
1377,
1251,
1275,
1275,
1275,
1238,
1328,
1296,
1185,
1286,
1240,
1225,
1232,
1281,
1191,
1276,
1203,
1270,
1150,
1230,
1157,
1201,
1139,
1121,
1113,
1141,
1111,
1104,
1113,
1106,
1117,
1028,
1008,
1075,
1048,
1114,
1057,
1074,
1061,
1066,
1044,
955,
947,
992,
986,
944,
990,
939,
982,
979,
952,
943,
1020,
909,
925,
910,
912,
925,
926,
833,
822,
851,
866,
869,
834,
815,
856,
834,
848,
796,
837,
808,
758,
794,
745,
766,
755,
814,
796,
805,
729,
731,
732,
755,
746,
702,
726,
741,
693,
715,
718,
682,
746,
782,
819,
821,
781,
904,
903,
886,
729,
727,
711,
589,
630,
576,
597,
616,
575,
588,
614,
587,
569,
568,
551,
545,
563,
564,
513,
537,
502,
518,
509,
498,
533,
517,
510,
442,
459,
516,
487,
498,
491,
451,
487,
433,
411,
438,
445,
451,
455,
425,
423,
404,
415,
433,
365,
425,
427,
406,
375,
429,
398,
375,
379,
359,
340,
367,
371,
382,
346,
368,
393,
380,
364,
350,
341,
377,
337,
333,
308,
297,
328,
325,
290,
295,
283,
280,
274,
289,
279,
306,
296,
297,
302,
302,
303,
292,
266,
262,
265,
270,
275,
215,
269,
246,
229,
243,
223,
247,
248,
219,
206,
191,
218,
233,
213,
190,
213,
187,
202,
190,
190,
196,
174,
168,
161,
188,
152,
182,
159,
171,
181,
152,
163,
184,
153,
152,
147,
120,
139,
134,
137,
152,
167,
136,
123,
131,
127,
116,
125,
128,
121,
130,
98,
95,
103,
115,
92,
111,
107,
109,
98,
89,
102,
97,
113,
99,
91,
86,
80,
74,
106,
87,
89,
88,
77,
85,
80,
71,
81,
68,
65,
78,
67,
76,
68,
71,
53,
59,
65,
72,
51,
51,
47,
46,
59,
52,
45,
38,
47,
38,
51,
49,
49,
40,
41,
43,
35,
30,
41,
48,
41,
21,
33,
42,
32,
27,
30,
23,
28,
23,
26,
20,
15,
26,
19,
19,
18,
14,
14,
9,
15,
11,
11,
14,
15,
2,
5,
3,
2,
1,
3,
3,
0,
2,
4,
1,
4,
1,
5,
0,
1,
2,
0,
3,
1,
1,
1,
1,
3,
2,
1,
0,
0,
0,
1,
4,
1,
3,
0,
0,
1,
1,
2,
1,
1,
1,
0,
0,
1,
1,
2,
2,
1,
2,
1,
0,
0,
1,
1,
1,
0,
1,
0,
1,
1,
1,
3,
0,
0,
1,
0,
2,
1,
0,
2,
1,
1,
0,
0,
1,
1,
1,
1,
2,
4,
2,
1,
1,
0,
0,
0,
3,
1,
2,
1,
1,
1,
2,
0,
2,
0,
0,
1,
0,
2,
1,
1,
0,
0,
0,
0,
0,
1,
0,
0,
0,
0,
1,
2,
0,
2,
1,
0,
1,
0,
0,
0,
1,
0,
0,
0,
0,
0,
0,
2,
0,
1,
0,
0,
0,
0,
0,
0,
1,
0,
0,
0,
0,
0,
1,
0,
0,
0,
0,
1,
0,
0,
0,
0,
0,
1,
0,
1,
1,
0,
0,
0,
0,
0,
0,
0,
1,
0,
0,
0,
0,
0,
0,
0,
2,
1,
0,
0,
0,
0,
1,
0,
0,
0,
1,
2,
1,
0,
1,
0,
0,
0,
0,
1,
0,
0,
0,
0,
0,
1,
0,
0,
1,
0,
0,
0,
0,
0,
0,
0,
0,
0,
0,
0,
0,
0,
0,
0,
0,
0,
0,
0,
1,
1,
0,
0,
1,
0,
0,
1,
0,
0,
0,
0,
0,
0,
0,
0,
0,
0,
0,
0,
0,
1,
0,
0,
0,
0,
0,
0,
0,
0,
0,
0,
0,
0,
0,
0,
0,
0,
0,
0,
0,
0,
0,
0,
0,
0,
0,
0,
0,
0,
0,
0,
0,
0,
0,
0,
0,
0,
0,
1,
0,
1,
0,
0,
0,
0,
0,
0,
0,
0,
0,
0,
0,
0,
0,
0,
0,
0,
0,
0,
0,
0,
0,
0,
0,
0,
0,
0,
0,
0,
0,
0,
0,
0,
0,
0,
0,
0,
0,
0,
0,
0,
0,
0,
0,
0,
0,
0,
0,
0,
0,
0,
0,
0,
0,
0,
0,
1,
1,
0,
0,
0,
0,
0,
0,
0,
0,
0,
0,
0,
0,
0,
0,
0,
0,
0,
0,
0,
0,
0,
0,
0,
0,
0,
0,
0,
0,
0,
0,
0,
0,
0,
0,
0,
0,
0,
0,
0,
0,
0,
0,
0,
0,
0,
0,
0,
0,
0,
0,
0,
0,
0,
0,
0,
0,
0,
0,
0,
0,
0,
0,
0,
0,
0,
0,
0,
0,
0,
0,
0,
0,
0,
0,
0,
0,
0,
0,
0,
0,
0,
0,
0,
0,
0,
1,
0,
0,
0,
2,
0,
0,
0,
0,
0,
0,
0,
0,
0,
0,
0,
0,
0,
0,
0,
0,
0,
0,
0,
0,
0,
0,
0,
0,
0,
0,
0,
0,
0,
0,
0,
0,
0,
0,
0,
0,
0,
0,
0,
0,
0,
0,
0,
0,
0,
0,
0,
0,
0,
0,
0,
0,
0,
0,
0,
0,
0,
0,
0,
0,
0,
0,
0,
0,
0,
0,
0,
0,
0,
0,
0,
0,
0,
0,
0,
0,
0,
0,
0,
0,
0,
0,
0,
0,
0,
0,
0,
0,
0,
0,
0,
0,
0,
0,
0,
0,
0,
0,
0,
0,
0,
0,
0,
0,
0,
0,
0,
0,
0,
0,
0,
0,
0,
0,
0,
0,
0,
0,
0,
0,
0,
0,
0,
0,
0,
0,
0,
0,
0,
0,
0,
0,
0,
0,
0,
0,
0,
0,
0,
0,
0,
0,
0,
0,
0,
0,
0,
0,
0,
0,
0,
0,
0,
0,
0,
0,
0,
0,
0,
0,
0,
0,
0,
0,
0,
0,
0,
0,
0,
0,
0,
0,
0,
0,
0,
0,
0,
0,
0,
0,
0,
0,
0,
0,
0,
0,
0,
0,
0,
0,
0,
0,
0,
0,
0,
0,
0,
0,
0,
0,
0,
0,
0,
0,
0,
0,
0,
0,
0,
0,
0,
0,
0,
0,
0,
0,
0,
0,
0,
0,
0,
0,
0,
0,
0,
0,
0,
0,
0,
0,
0,
0,
0,
0,
0,
0,
0,
0,
0,
0,
0,
0,
0,
0,
0,
0,
0,
0,
0,
0,
0,
0,
0,
0,
0,
0,
0,
0,
0,
0,
0,
0,
0,
0,
0,
0,
0,
0,
0,
0,
0,
0,
0,
0,
#ENDOFDATA   :