File: N132962/Quantification/20 keV/MMM2/SPI MM2 SPI Plagioclase[1][4].msa
#FORMAT      : EMSA/MAS Spectral Data File
#VERSION     : 1.0
#TITLE       : SPI MM2 SPI Plagioclase[1][all]
#DATE        : 13-MAR-2025
#TIME        : 10:51
#OWNER       : Unknown
#NPOINTS     : 4096
#NCOLUMNS    : 1
#XUNITS      : eV
#YUNITS      : counts
#DATATYPE    : Y
#XPERCHAN    : 9.99778
#OFFSET      : 1.69135
#BEAMKV      : 20
#SIGNALTYPE  : EDS
#ELEVANGLE   : 35
#AZIMANGLE   : 0
#LIVETIME    : 239.851
#REALTIME    : 255.422
#PROBECUR    : 1.02609
#TAUWIND     : 0
#TDEADLYR    : 0
#TACTLYR     : 0.045
#TALWIND     : 0.025
#CHOFFSET    : 0.0
#XLABEL      : Energy (eV)
#YLABEL      : Counts
#XPOSITION   : -1.25375
#YPOSITION   : -0.21896
#ZPOSITION   : 31.0351
#EDSDET      : SD
##SPECIMEN   : SPI MM2 SPI Plagioclase[1][all]
##D2STDCMP   : SPI Plagioclase,(O:46.79),(Na:3.24),(Al:15.54),(Si:24.83),(K:0.2),(Ca:8.53),(Fe:0.27)
##DET_HASH   : 12273538-fd48-a23f-0a19-f1e6fa85caef
##CALIB_HASH : 6abaa72c-aa41-8738-0be9-f592914732f3
##WORKING    : 15.0 mm
##DET_NAME   : EDAX All
##DET_MODE   : MediumLE
#SPECTRUM    :
26,
20,
11,
6,
67,
271,
759,
2594,
7503,
10363,
6024,
3023,
2580,
2867,
4847,
18273,
72241,
142920,
105060,
27366,
3950,
1701,
1862,
2166,
2316,
2325,
2376,
2377,
2705,
2852,
2965,
3162,
4296,
9203,
18994,
20830,
11757,
5311,
3838,
3872,
4012,
4461,
4691,
4721,
4877,
5154,
6947,
19049,
64044,
130169,
131881,
68149,
22581,
8427,
6126,
14227,
55419,
142612,
194515,
137264,
55669,
19135,
8887,
4695,
3116,
2862,
2828,
2659,
2530,
2382,
2284,
2298,
2447,
2528,
2651,
2806,
2724,
2550,
2489,
2380,
2259,
2380,
2385,
2323,
2364,
2467,
2344,
2350,
2393,
2350,
2435,
2397,
2327,
2375,
2279,
2265,
2224,
2270,
2280,
2487,
2405,
2284,
2223,
2130,
2215,
2303,
2303,
2532,
2875,
3263,
3588,
3677,
3011,
2456,
2195,
2254,
2360,
2429,
2746,
3864,
8015,
17804,
32117,
40274,
33792,
19406,
8264,
3598,
2206,
2010,
2246,
3022,
4227,
5985,
6485,
5342,
3485,
2328,
1820,
1717,
1636,
1633,
1616,
1548,
1504,
1466,
1588,
1563,
1514,
1639,
1674,
1628,
1583,
1455,
1396,
1431,
1408,
1406,
1390,
1391,
1377,
1385,
1397,
1324,
1355,
1330,
1359,
1364,
1339,
1272,
1273,
1356,
1300,
1364,
1276,
1309,
1197,
1229,
1179,
1268,
1287,
1292,
1240,
1303,
1179,
1169,
1144,
1139,
1108,
1137,
1079,
1100,
1135,
1107,
1126,
1106,
1084,
1089,
1098,
1088,
1063,
1025,
985,
1063,
1015,
1010,
982,
978,
998,
1040,
1079,
1298,
1388,
1484,
1475,
1293,
1079,
1003,
983,
963,
930,
902,
958,
913,
882,
890,
884,
852,
858,
835,
820,
845,
846,
857,
902,
887,
902,
799,
792,
840,
812,
802,
798,
771,
738,
762,
788,
807,
808,
760,
783,
675,
650,
745,
696,
725,
735,
725,
703,
653,
763,
671,
706,
670,
670,
618,
654,
629,
639,
582,
657,
584,
644,
599,
606,
586,
555,
612,
628,
604,
564,
553,
565,
544,
608,
557,
596,
569,
526,
526,
554,
549,
574,
552,
515,
515,
540,
480,
517,
494,
492,
509,
529,
464,
442,
469,
496,
493,
463,
464,
479,
455,
469,
432,
470,
507,
446,
478,
443,
440,
423,
422,
461,
417,
399,
410,
433,
400,
417,
424,
409,
386,
416,
444,
412,
393,
431,
373,
383,
390,
349,
366,
346,
354,
335,
327,
350,
331,
355,
319,
350,
339,
365,
337,
347,
294,
331,
318,
344,
329,
311,
279,
305,
303,
302,
285,
288,
320,
332,
317,
281,
296,
292,
279,
256,
291,
285,
273,
294,
250,
288,
283,
251,
307,
242,
256,
275,
256,
249,
236,
281,
246,
246,
239,
227,
206,
246,
248,
250,
238,
204,
229,
216,
212,
238,
188,
216,
205,
212,
218,
200,
225,
216,
202,
185,
161,
198,
197,
185,
185,
194,
173,
197,
181,
177,
180,
181,
186,
199,
165,
156,
152,
146,
155,
179,
171,
167,
158,
140,
137,
147,
173,
142,
150,
143,
121,
153,
116,
137,
151,
154,
138,
148,
136,
132,
125,
142,
143,
127,
102,
135,
127,
129,
124,
105,
101,
110,
114,
114,
125,
99,
105,
132,
118,
100,
133,
77,
92,
80,
114,
98,
116,
87,
93,
93,
88,
82,
80,
91,
82,
78,
75,
87,
93,
75,
95,
88,
67,
78,
74,
77,
69,
74,
64,
69,
70,
75,
68,
68,
69,
68,
70,
66,
71,
70,
55,
52,
53,
62,
54,
55,
44,
62,
53,
53,
62,
56,
41,
55,
48,
44,
56,
40,
51,
45,
41,
52,
41,
48,
41,
37,
46,
43,
55,
43,
35,
29,
45,
44,
41,
42,
48,
39,
38,
33,
29,
42,
31,
35,
41,
44,
27,
22,
27,
28,
41,
29,
30,
28,
36,
29,
23,
25,
30,
19,
23,
33,
36,
16,
26,
25,
25,
27,
23,
26,
22,
21,
24,
13,
20,
17,
25,
25,
20,
24,
26,
16,
9,
15,
11,
14,
18,
13,
14,
13,
14,
19,
10,
19,
15,
11,
6,
6,
6,
7,
11,
9,
8,
6,
8,
7,
12,
10,
12,
13,
7,
4,
4,
6,
9,
4,
15,
4,
11,
6,
6,
3,
5,
7,
7,
8,
6,
2,
2,
4,
5,
1,
1,
3,
4,
4,
0,
5,
1,
4,
1,
1,
1,
2,
1,
1,
3,
0,
1,
2,
0,
0,
0,
1,
0,
0,
0,
0,
1,
0,
0,
0,
0,
0,
1,
0,
0,
0,
0,
0,
0,
0,
0,
0,
0,
0,
0,
0,
0,
0,
0,
0,
0,
0,
0,
0,
0,
0,
0,
0,
0,
0,
0,
1,
1,
0,
0,
0,
0,
0,
0,
0,
0,
0,
0,
0,
0,
0,
1,
0,
0,
0,
0,
0,
1,
0,
0,
0,
0,
0,
0,
0,
0,
0,
0,
1,
0,
0,
0,
0,
0,
0,
0,
0,
0,
0,
0,
0,
0,
0,
0,
0,
0,
0,
0,
0,
0,
0,
0,
0,
0,
0,
0,
0,
0,
0,
0,
0,
0,
0,
0,
0,
0,
0,
0,
0,
0,
0,
0,
0,
0,
0,
0,
0,
0,
0,
0,
0,
0,
0,
0,
0,
0,
0,
0,
0,
0,
0,
0,
0,
0,
0,
0,
0,
0,
0,
0,
0,
0,
0,
0,
0,
0,
0,
0,
0,
0,
0,
0,
0,
0,
0,
0,
0,
0,
0,
0,
0,
0,
0,
0,
0,
0,
0,
0,
0,
0,
0,
0,
0,
0,
0,
0,
0,
0,
0,
0,
0,
0,
0,
0,
0,
0,
0,
0,
0,
0,
0,
0,
0,
0,
0,
0,
0,
0,
0,
0,
0,
0,
0,
0,
0,
0,
0,
0,
0,
0,
0,
0,
0,
0,
0,
0,
0,
0,
0,
0,
0,
0,
0,
0,
0,
0,
0,
0,
0,
0,
0,
0,
0,
0,
0,
0,
0,
0,
0,
0,
0,
0,
0,
0,
0,
0,
0,
0,
0,
0,
0,
0,
0,
0,
0,
0,
0,
0,
0,
0,
0,
0,
0,
0,
0,
0,
0,
0,
0,
0,
0,
0,
0,
0,
0,
0,
0,
0,
0,
0,
0,
0,
0,
0,
0,
0,
0,
0,
0,
0,
0,
0,
0,
0,
0,
0,
0,
0,
0,
0,
0,
0,
0,
0,
0,
0,
0,
0,
0,
0,
0,
0,
0,
0,
0,
0,
0,
0,
0,
0,
0,
0,
0,
0,
0,
0,
0,
0,
0,
0,
0,
0,
0,
0,
0,
0,
0,
0,
0,
0,
0,
0,
0,
0,
0,
0,
0,
0,
0,
0,
0,
0,
0,
0,
0,
0,
0,
0,
0,
0,
0,
0,
0,
0,
0,
0,
0,
0,
0,
0,
0,
0,
0,
0,
0,
0,
0,
0,
0,
0,
0,
0,
0,
0,
0,
0,
0,
0,
0,
0,
0,
0,
0,
0,
0,
0,
0,
0,
0,
0,
0,
0,
0,
0,
0,
0,
0,
0,
0,
0,
0,
0,
0,
0,
0,
0,
0,
0,
0,
0,
0,
0,
0,
0,
0,
0,
0,
0,
0,
0,
0,
0,
0,
0,
0,
0,
0,
0,
0,
0,
0,
0,
0,
0,
0,
0,
0,
0,
0,
0,
0,
0,
0,
0,
0,
0,
0,
0,
0,
0,
0,
0,
0,
0,
0,
0,
0,
0,
0,
0,
0,
0,
0,
0,
0,
0,
0,
0,
0,
0,
0,
0,
0,
0,
0,
0,
0,
0,
0,
0,
0,
0,
0,
0,
0,
0,
0,
0,
0,
0,
0,
0,
0,
0,
0,
0,
0,
0,
0,
0,
0,
0,
0,
0,
0,
0,
0,
0,
0,
0,
0,
0,
0,
0,
0,
0,
0,
0,
0,
0,
0,
0,
0,
0,
0,
0,
0,
0,
0,
0,
0,
0,
0,
0,
0,
0,
0,
0,
0,
0,
0,
0,
0,
0,
0,
0,
0,
0,
0,
0,
0,
0,
0,
0,
0,
0,
0,
0,
0,
0,
0,
0,
0,
0,
0,
0,
0,
0,
0,
0,
0,
0,
0,
0,
0,
0,
0,
0,
0,
0,
0,
0,
0,
0,
0,
0,
0,
0,
0,
0,
0,
0,
0,
0,
0,
0,
0,
0,
0,
0,
0,
0,
0,
0,
0,
0,
0,
0,
0,
0,
0,
0,
0,
0,
0,
0,
0,
0,
0,
0,
0,
0,
0,
0,
0,
0,
0,
0,
0,
0,
0,
0,
0,
0,
0,
0,
0,
0,
0,
0,
0,
0,
0,
0,
0,
0,
0,
0,
0,
0,
0,
0,
0,
0,
0,
0,
0,
0,
0,
0,
0,
0,
0,
0,
0,
0,
0,
0,
0,
0,
0,
0,
0,
0,
0,
0,
0,
0,
0,
0,
0,
0,
0,
0,
#ENDOFDATA   :