File: N132962/Quantification/20 keV/MMM2/SPI MM2 Sphene[1][4].msa
#FORMAT      : EMSA/MAS Spectral Data File
#VERSION     : 1.0
#TITLE       : SPI MM2 Sphene[1][all]
#DATE        : 13-MAR-2025
#TIME        : 12:59
#OWNER       : Unknown
#NPOINTS     : 4096
#NCOLUMNS    : 1
#XUNITS      : eV
#YUNITS      : counts
#DATATYPE    : Y
#XPERCHAN    : 9.99778
#OFFSET      : 1.69135
#BEAMKV      : 20
#SIGNALTYPE  : EDS
#ELEVANGLE   : 35
#AZIMANGLE   : 0
#LIVETIME    : 239.807
#REALTIME    : 254.768
#PROBECUR    : 1.02627
#TAUWIND     : 0
#TDEADLYR    : 0
#TACTLYR     : 0.045
#TALWIND     : 0.025
#CHOFFSET    : 0.0
#XLABEL      : Energy (eV)
#YLABEL      : Counts
#XPOSITION   : 6.01776
#YPOSITION   : 3.75314
#ZPOSITION   : 31.03511
#EDSDET      : SD
##SPECIMEN   : SPI MM2 Sphene[1][all]
##DET_HASH   : 12273538-fd48-a23f-0a19-f1e6fa85caef
##CALIB_HASH : 6abaa72c-aa41-8738-0be9-f592914732f3
##WORKING    : 15.0 mm
##DET_NAME   : EDAX All
##DET_MODE   : MediumLE
#SPECTRUM    :
32,
27,
8,
8,
74,
286,
964,
3252,
9587,
14153,
9784,
6072,
6173,
7032,
7591,
12520,
33555,
62889,
46408,
12777,
2615,
1733,
2013,
2424,
2291,
2128,
2097,
2203,
2359,
2534,
2579,
2658,
2807,
2858,
3077,
3126,
3254,
3393,
3488,
3620,
3786,
3850,
4026,
4115,
4260,
4347,
4656,
5177,
7244,
9959,
10121,
7884,
5892,
5456,
5779,
11547,
38694,
95441,
128772,
92095,
38877,
14646,
8019,
5403,
4735,
4708,
4391,
4001,
3682,
3513,
3586,
3662,
3790,
3879,
3812,
3763,
3771,
3670,
3496,
3482,
3362,
3348,
3423,
3314,
3249,
3306,
3386,
3196,
3163,
3244,
3301,
3664,
3613,
3608,
3246,
3190,
3067,
3040,
3063,
3002,
3072,
3055,
2971,
3000,
2905,
2926,
2986,
3033,
2857,
2781,
2826,
2698,
2710,
2726,
2752,
2806,
3086,
3314,
3992,
6936,
17172,
43033,
80719,
102362,
85643,
48918,
19378,
6878,
3474,
2931,
3655,
5378,
9056,
13073,
14545,
11508,
7123,
3920,
2508,
2144,
2052,
2128,
2049,
2151,
2402,
2844,
4933,
12188,
29295,
53967,
71173,
67165,
45028,
21624,
8316,
3295,
2141,
2008,
1924,
2046,
2362,
3485,
5621,
8550,
10955,
10890,
8166,
4988,
2788,
1906,
1532,
1538,
1402,
1428,
1413,
1429,
1392,
1394,
1495,
1558,
1544,
1610,
1560,
1415,
1461,
1409,
1385,
1366,
1294,
1376,
1337,
1217,
1324,
1331,
1323,
1337,
1361,
1341,
1343,
1343,
1246,
1193,
1242,
1248,
1180,
1244,
1292,
1286,
1219,
1377,
1422,
1670,
1936,
2119,
2034,
1749,
1495,
1281,
1169,
1106,
1105,
1076,
1062,
1067,
1159,
1099,
1059,
1108,
1049,
987,
989,
1049,
1116,
1066,
1113,
1165,
1054,
1007,
940,
1001,
914,
915,
985,
927,
968,
993,
991,
1029,
1006,
889,
980,
943,
905,
849,
885,
873,
838,
921,
905,
877,
867,
840,
891,
761,
797,
836,
773,
778,
793,
785,
784,
796,
829,
799,
859,
798,
787,
737,
740,
698,
761,
714,
790,
754,
761,
677,
726,
729,
693,
712,
739,
656,
704,
679,
670,
669,
644,
652,
651,
691,
640,
663,
657,
674,
679,
618,
620,
596,
610,
603,
543,
575,
601,
578,
599,
565,
570,
582,
604,
567,
599,
527,
544,
561,
598,
507,
561,
538,
514,
514,
516,
509,
557,
515,
534,
478,
488,
549,
486,
483,
484,
493,
497,
460,
468,
457,
461,
410,
502,
443,
454,
454,
443,
467,
435,
403,
399,
386,
410,
400,
399,
431,
399,
427,
390,
423,
413,
387,
387,
390,
395,
375,
387,
373,
348,
360,
356,
377,
346,
330,
341,
345,
337,
361,
347,
325,
353,
345,
328,
345,
305,
295,
311,
308,
315,
275,
305,
294,
305,
301,
295,
257,
305,
275,
262,
271,
296,
293,
265,
269,
287,
285,
243,
268,
259,
252,
241,
262,
246,
231,
253,
241,
237,
250,
245,
233,
206,
233,
215,
219,
222,
208,
214,
199,
212,
205,
194,
218,
198,
195,
214,
210,
190,
197,
187,
180,
161,
191,
208,
172,
170,
183,
180,
162,
152,
185,
163,
170,
157,
184,
164,
155,
174,
157,
154,
163,
132,
140,
155,
160,
147,
144,
139,
169,
151,
148,
139,
145,
119,
128,
141,
127,
135,
127,
137,
124,
115,
122,
126,
113,
111,
112,
110,
100,
97,
99,
97,
115,
113,
114,
104,
106,
109,
106,
104,
84,
98,
82,
104,
72,
99,
89,
105,
90,
74,
78,
92,
62,
70,
83,
87,
81,
69,
84,
81,
67,
74,
72,
88,
71,
67,
50,
53,
56,
68,
71,
74,
74,
67,
64,
53,
52,
52,
46,
56,
65,
57,
59,
56,
41,
47,
54,
53,
43,
48,
59,
47,
53,
46,
45,
43,
52,
42,
49,
45,
49,
34,
46,
39,
42,
33,
39,
47,
33,
29,
47,
33,
25,
28,
33,
37,
44,
21,
33,
34,
34,
28,
30,
27,
33,
35,
25,
32,
21,
30,
16,
16,
22,
22,
16,
24,
27,
22,
18,
19,
17,
14,
17,
18,
13,
20,
14,
16,
18,
11,
12,
18,
17,
18,
20,
18,
13,
16,
10,
8,
9,
12,
12,
9,
10,
9,
5,
8,
7,
6,
5,
2,
1,
6,
4,
8,
4,
7,
5,
2,
7,
1,
4,
6,
3,
4,
3,
6,
2,
4,
4,
5,
1,
1,
2,
2,
1,
0,
1,
1,
0,
2,
0,
0,
1,
0,
0,
2,
0,
1,
2,
0,
1,
3,
0,
0,
1,
0,
0,
0,
0,
0,
0,
0,
1,
1,
1,
1,
1,
0,
0,
0,
0,
0,
0,
0,
0,
1,
2,
1,
0,
0,
0,
1,
0,
0,
0,
1,
0,
0,
0,
0,
0,
0,
0,
1,
0,
0,
0,
0,
0,
0,
0,
0,
0,
0,
0,
0,
0,
0,
0,
0,
0,
0,
0,
0,
0,
0,
0,
0,
0,
0,
0,
0,
0,
0,
0,
0,
0,
0,
0,
0,
0,
0,
0,
0,
0,
0,
0,
0,
0,
0,
1,
0,
0,
0,
0,
0,
0,
0,
0,
0,
0,
0,
0,
0,
0,
0,
0,
0,
0,
0,
0,
0,
0,
0,
0,
0,
0,
0,
0,
0,
0,
0,
0,
0,
1,
0,
0,
0,
0,
0,
0,
0,
0,
0,
0,
0,
0,
0,
0,
0,
0,
0,
0,
0,
0,
0,
0,
0,
0,
0,
0,
0,
0,
0,
0,
0,
0,
0,
0,
0,
0,
0,
0,
0,
0,
0,
0,
1,
0,
0,
0,
0,
0,
0,
0,
0,
0,
0,
0,
0,
0,
0,
0,
0,
0,
0,
0,
0,
0,
0,
0,
0,
0,
0,
0,
0,
0,
0,
0,
0,
0,
0,
0,
0,
0,
0,
0,
0,
0,
0,
0,
0,
0,
0,
0,
0,
0,
0,
0,
0,
0,
0,
0,
0,
0,
0,
0,
0,
0,
0,
0,
0,
0,
0,
0,
0,
0,
0,
0,
0,
0,
0,
0,
0,
0,
0,
0,
0,
0,
0,
0,
0,
0,
0,
0,
0,
0,
0,
0,
0,
0,
0,
0,
0,
0,
0,
0,
0,
0,
0,
0,
0,
0,
0,
0,
0,
0,
0,
0,
0,
0,
0,
0,
0,
0,
0,
0,
0,
0,
0,
0,
0,
0,
0,
0,
0,
0,
0,
0,
0,
0,
0,
0,
0,
0,
0,
0,
0,
0,
0,
0,
0,
0,
0,
0,
0,
0,
0,
0,
0,
0,
0,
0,
0,
0,
0,
0,
0,
0,
0,
0,
0,
0,
0,
0,
0,
0,
0,
0,
0,
0,
0,
0,
0,
0,
0,
0,
0,
0,
0,
0,
0,
0,
0,
0,
0,
0,
0,
0,
0,
0,
0,
0,
0,
0,
0,
0,
0,
0,
0,
0,
0,
0,
0,
0,
0,
0,
0,
0,
0,
0,
0,
0,
0,
0,
0,
0,
0,
0,
0,
0,
0,
0,
0,
0,
0,
0,
0,
0,
0,
0,
0,
0,
0,
0,
0,
0,
0,
0,
0,
0,
0,
0,
0,
0,
0,
0,
0,
0,
0,
0,
0,
0,
0,
0,
0,
0,
0,
0,
0,
0,
0,
0,
0,
0,
0,
0,
0,
0,
0,
0,
0,
0,
0,
0,
0,
0,
0,
0,
0,
0,
0,
0,
0,
0,
0,
0,
0,
0,
0,
0,
0,
0,
0,
0,
0,
0,
0,
0,
0,
0,
0,
0,
0,
0,
0,
0,
0,
0,
0,
0,
0,
0,
0,
0,
0,
0,
0,
0,
0,
0,
0,
0,
0,
0,
0,
0,
0,
0,
0,
0,
0,
0,
0,
0,
0,
0,
0,
0,
0,
0,
0,
0,
0,
0,
0,
0,
0,
0,
0,
0,
0,
0,
0,
0,
0,
0,
0,
0,
0,
0,
0,
0,
0,
0,
0,
0,
0,
0,
0,
0,
0,
0,
0,
0,
0,
0,
0,
0,
0,
0,
0,
0,
0,
0,
0,
0,
0,
0,
0,
0,
0,
0,
0,
0,
0,
0,
0,
0,
0,
0,
0,
0,
0,
0,
0,
0,
0,
0,
0,
0,
0,
0,
0,
0,
0,
0,
0,
0,
0,
0,
0,
0,
0,
0,
0,
0,
0,
0,
0,
0,
0,
0,
0,
0,
0,
0,
0,
0,
0,
0,
0,
0,
0,
0,
0,
0,
0,
0,
0,
0,
0,
0,
0,
0,
0,
0,
0,
0,
0,
0,
0,
0,
0,
0,
0,
0,
0,
0,
0,
0,
0,
0,
0,
0,
0,
0,
0,
0,
0,
0,
0,
0,
0,
0,
0,
0,
0,
0,
0,
0,
0,
0,
0,
0,
0,
0,
0,
0,
0,
0,
0,
0,
0,
0,
0,
0,
0,
0,
0,
0,
0,
0,
0,
0,
0,
0,
0,
0,
#ENDOFDATA   :