File: N132962/Quantification/20 keV/MMM2/SPI MM2 Stibnite[6][4].msa
#FORMAT      : EMSA/MAS Spectral Data File
#VERSION     : 1.0
#TITLE       : SPI MM2 Stibnite[6][all]
#DATE        : 13-MAR-2025
#TIME        : 13:23
#OWNER       : Unknown
#NPOINTS     : 4096
#NCOLUMNS    : 1
#XUNITS      : eV
#YUNITS      : counts
#DATATYPE    : Y
#XPERCHAN    : 9.99778
#OFFSET      : 1.69135
#BEAMKV      : 20
#SIGNALTYPE  : EDS
#ELEVANGLE   : 35
#AZIMANGLE   : 0
#LIVETIME    : 239.872
#REALTIME    : 263.343
#PROBECUR    : 1.0263
#TAUWIND     : 0
#TDEADLYR    : 0
#TACTLYR     : 0.045
#TALWIND     : 0.025
#CHOFFSET    : 0.0
#XLABEL      : Energy (eV)
#YLABEL      : Counts
#XPOSITION   : 1.5172
#YPOSITION   : 4.29875
#ZPOSITION   : 31.03511
#EDSDET      : SD
##SPECIMEN   : SPI MM2 Stibnite[6][all]
##DET_HASH   : 12273538-fd48-a23f-0a19-f1e6fa85caef
##CALIB_HASH : 6abaa72c-aa41-8738-0be9-f592914732f3
##WORKING    : 15.0 mm
##DET_NAME   : EDAX All
##DET_MODE   : MediumLE
#SPECTRUM    :
17,
19,
13,
161,
1084,
2257,
2375,
4941,
13039,
16760,
8896,
4536,
6163,
12487,
16630,
12261,
8438,
8943,
9936,
8768,
5752,
4282,
4255,
5085,
6035,
5981,
5329,
4860,
4826,
4772,
4421,
4519,
4450,
4517,
4924,
4887,
5193,
5305,
5451,
5559,
5575,
5750,
6071,
6142,
6225,
6547,
6677,
6834,
7029,
7271,
7360,
7293,
7170,
7174,
7453,
7428,
7832,
8567,
8801,
8882,
9142,
9071,
9114,
8387,
7664,
7421,
7542,
7665,
7843,
8038,
8443,
8843,
10112,
15245,
32216,
82256,
165967,
206736,
151471,
67622,
25786,
19532,
20932,
18266,
11950,
7631,
6245,
5875,
5683,
5723,
5642,
5746,
5483,
5482,
5720,
5626,
5574,
5560,
5416,
5612,
5458,
5632,
5633,
5929,
6874,
8776,
10087,
9860,
8314,
6890,
5789,
5794,
5858,
6653,
7608,
8805,
11724,
23016,
53665,
102018,
135207,
119921,
71848,
31733,
14464,
14748,
28220,
50204,
67408,
65759,
50656,
34581,
22471,
15552,
12885,
16086,
21154,
22375,
18584,
11929,
7280,
5416,
5550,
7031,
9436,
10265,
9120,
6877,
4798,
4145,
4092,
4991,
6077,
6612,
6425,
5423,
4365,
3702,
3492,
3430,
3156,
3263,
3180,
3228,
3180,
3250,
3150,
3164,
3104,
3185,
3114,
3167,
3129,
3246,
3286,
3149,
3160,
3147,
3157,
3151,
3253,
3166,
3107,
3163,
3095,
3065,
3017,
2996,
3098,
3033,
3006,
3049,
2999,
3063,
3040,
3144,
3149,
3198,
3223,
3030,
2966,
2886,
2882,
2956,
2965,
3070,
2899,
3015,
2907,
2878,
2930,
3054,
3212,
3101,
3196,
3035,
2991,
2718,
2692,
2721,
2754,
2595,
2725,
2551,
2611,
2631,
2549,
2656,
2576,
2568,
2560,
2516,
2543,
2560,
2548,
2538,
2611,
2486,
2531,
2551,
2622,
2514,
2440,
2435,
2435,
2440,
2514,
2517,
2558,
2615,
2512,
2514,
2435,
2399,
2274,
2306,
2300,
2370,
2216,
2335,
2212,
2180,
2166,
2163,
2124,
2088,
2187,
2160,
2156,
2054,
2168,
2023,
2123,
2166,
2100,
2130,
2003,
2101,
2066,
2071,
2020,
2039,
1966,
1954,
1901,
1938,
1944,
1755,
1907,
1971,
1912,
1807,
1813,
1951,
1857,
1809,
1752,
1799,
1783,
1812,
1781,
1710,
1711,
1775,
1690,
1710,
1768,
1748,
1747,
1666,
1607,
1664,
1670,
1635,
1592,
1642,
1636,
1603,
1608,
1640,
1598,
1570,
1546,
1545,
1587,
1571,
1526,
1516,
1490,
1511,
1432,
1533,
1543,
1470,
1480,
1447,
1434,
1383,
1442,
1417,
1402,
1342,
1395,
1417,
1362,
1413,
1308,
1368,
1389,
1333,
1383,
1293,
1268,
1366,
1272,
1219,
1270,
1233,
1283,
1191,
1260,
1264,
1174,
1182,
1176,
1186,
1237,
1211,
1202,
1147,
1161,
1128,
1159,
1160,
1120,
1085,
1148,
1078,
1133,
1064,
1078,
1075,
1016,
1070,
1019,
1091,
982,
969,
984,
985,
997,
966,
1040,
983,
933,
957,
918,
941,
960,
957,
936,
901,
913,
915,
891,
922,
874,
822,
822,
858,
847,
814,
855,
836,
839,
802,
793,
780,
772,
898,
779,
807,
812,
764,
735,
786,
777,
746,
718,
688,
746,
661,
696,
753,
671,
735,
655,
694,
692,
673,
650,
630,
628,
672,
658,
686,
630,
611,
638,
589,
656,
571,
616,
568,
609,
585,
600,
569,
530,
557,
549,
539,
526,
537,
500,
567,
447,
498,
517,
467,
496,
518,
460,
461,
502,
468,
460,
452,
511,
467,
489,
464,
409,
425,
447,
405,
434,
434,
429,
431,
369,
429,
344,
369,
391,
382,
385,
375,
353,
400,
370,
378,
339,
349,
299,
370,
309,
367,
327,
317,
344,
308,
328,
308,
352,
322,
291,
306,
309,
310,
292,
265,
328,
278,
291,
305,
267,
270,
282,
263,
241,
248,
253,
257,
227,
258,
232,
243,
236,
256,
229,
257,
215,
222,
230,
220,
200,
228,
183,
197,
197,
180,
191,
176,
194,
187,
160,
180,
174,
160,
191,
171,
165,
172,
148,
158,
179,
151,
168,
146,
161,
136,
150,
147,
123,
138,
137,
134,
128,
127,
148,
139,
139,
134,
131,
132,
127,
144,
111,
121,
117,
108,
131,
98,
94,
132,
92,
103,
104,
115,
106,
82,
86,
81,
91,
85,
85,
78,
90,
77,
78,
78,
72,
71,
75,
68,
51,
56,
59,
62,
54,
53,
51,
45,
59,
46,
55,
47,
51,
47,
50,
43,
63,
42,
37,
43,
34,
42,
35,
30,
35,
36,
37,
33,
24,
27,
24,
28,
23,
19,
24,
23,
24,
11,
25,
15,
11,
18,
10,
9,
7,
10,
10,
9,
6,
4,
7,
5,
4,
4,
2,
2,
2,
1,
2,
1,
2,
1,
4,
1,
4,
5,
0,
2,
2,
3,
5,
1,
2,
1,
1,
1,
3,
0,
2,
3,
2,
3,
3,
0,
2,
1,
0,
2,
3,
0,
1,
1,
1,
2,
1,
0,
0,
3,
2,
1,
1,
0,
2,
0,
3,
0,
0,
0,
0,
2,
1,
0,
3,
2,
0,
0,
2,
2,
0,
2,
0,
0,
3,
0,
0,
6,
1,
0,
1,
2,
2,
2,
1,
0,
0,
0,
1,
1,
1,
0,
2,
0,
2,
1,
1,
1,
1,
0,
0,
1,
1,
2,
0,
1,
0,
2,
0,
0,
1,
0,
0,
1,
1,
1,
0,
1,
1,
1,
0,
1,
3,
1,
0,
1,
1,
0,
1,
0,
0,
0,
0,
2,
0,
0,
0,
1,
1,
0,
2,
0,
0,
1,
1,
0,
0,
1,
0,
0,
0,
0,
1,
0,
0,
0,
0,
0,
0,
0,
1,
0,
2,
1,
1,
0,
0,
0,
0,
0,
0,
0,
2,
0,
1,
0,
2,
0,
0,
0,
0,
1,
2,
0,
0,
0,
0,
0,
0,
1,
0,
0,
0,
0,
2,
2,
0,
0,
0,
0,
0,
0,
1,
1,
0,
1,
1,
0,
0,
1,
0,
0,
0,
0,
1,
0,
1,
1,
0,
1,
0,
0,
1,
0,
0,
0,
1,
0,
1,
0,
0,
0,
0,
0,
0,
1,
1,
0,
0,
1,
0,
0,
0,
0,
1,
0,
0,
0,
0,
0,
0,
0,
0,
0,
0,
0,
1,
0,
0,
0,
1,
0,
0,
1,
0,
0,
0,
0,
0,
0,
0,
0,
0,
0,
1,
0,
0,
1,
0,
0,
0,
0,
0,
0,
1,
0,
0,
0,
0,
0,
0,
0,
0,
0,
0,
0,
0,
0,
0,
0,
0,
0,
0,
1,
1,
0,
0,
0,
0,
0,
0,
0,
0,
0,
0,
0,
0,
0,
0,
0,
0,
0,
0,
0,
0,
0,
0,
0,
0,
0,
0,
0,
0,
0,
0,
0,
0,
0,
0,
0,
0,
0,
0,
0,
0,
0,
0,
0,
0,
0,
0,
0,
1,
0,
0,
0,
1,
0,
0,
0,
0,
0,
0,
0,
0,
0,
1,
0,
0,
0,
0,
0,
0,
0,
0,
0,
0,
0,
0,
0,
0,
0,
0,
0,
0,
0,
0,
0,
0,
0,
0,
0,
0,
0,
0,
0,
0,
0,
0,
0,
0,
0,
0,
0,
0,
0,
0,
0,
0,
0,
0,
0,
0,
0,
0,
0,
0,
0,
0,
0,
0,
0,
0,
0,
0,
0,
0,
0,
0,
0,
0,
0,
0,
0,
0,
0,
0,
0,
0,
0,
0,
0,
0,
0,
0,
0,
0,
0,
0,
0,
0,
0,
0,
0,
0,
0,
0,
0,
0,
0,
0,
0,
0,
0,
0,
0,
0,
0,
0,
0,
0,
0,
0,
0,
0,
0,
0,
0,
0,
0,
0,
0,
0,
0,
0,
0,
0,
0,
0,
0,
0,
0,
0,
1,
0,
0,
0,
0,
0,
0,
0,
0,
0,
0,
0,
0,
0,
0,
0,
0,
0,
0,
0,
0,
0,
0,
0,
0,
0,
0,
0,
0,
0,
0,
0,
0,
0,
0,
0,
0,
0,
0,
0,
0,
0,
0,
0,
0,
0,
0,
0,
0,
0,
0,
0,
0,
0,
0,
0,
0,
0,
0,
0,
0,
0,
1,
0,
0,
0,
0,
0,
0,
0,
0,
0,
0,
0,
0,
0,
0,
0,
0,
0,
0,
0,
0,
0,
0,
0,
0,
0,
0,
0,
0,
0,
0,
0,
0,
0,
0,
0,
0,
0,
0,
0,
0,
0,
0,
0,
0,
0,
0,
0,
0,
0,
0,
0,
0,
0,
0,
0,
0,
0,
0,
0,
0,
0,
0,
0,
0,
0,
0,
0,
0,
0,
0,
0,
0,
0,
0,
0,
0,
0,
0,
0,
0,
0,
0,
0,
0,
0,
0,
0,
0,
0,
0,
0,
0,
0,
0,
0,
0,
0,
0,
0,
0,
0,
0,
0,
0,
0,
0,
0,
0,
0,
0,
0,
0,
0,
0,
0,
0,
0,
0,
0,
0,
0,
0,
0,
0,
0,
0,
0,
0,
0,
0,
0,
0,
0,
0,
0,
0,
0,
0,
0,
0,
0,
0,
0,
0,
0,
0,
#ENDOFDATA   :