File: N132962/Quantification/20 keV/MMM2/SPI MM2 SPI Mangotantalite[5][4].msa
#FORMAT      : EMSA/MAS Spectral Data File
#VERSION     : 1.0
#TITLE       : SPI MM2 SPI Mangotantalite[5][all]
#DATE        : 13-MAR-2025
#TIME        : 09:42
#OWNER       : Unknown
#NPOINTS     : 4096
#NCOLUMNS    : 1
#XUNITS      : eV
#YUNITS      : counts
#DATATYPE    : Y
#XPERCHAN    : 9.99778
#OFFSET      : 1.69135
#BEAMKV      : 20
#SIGNALTYPE  : EDS
#ELEVANGLE   : 35
#AZIMANGLE   : 0
#LIVETIME    : 239.9173
#REALTIME    : 262.121
#PROBECUR    : 1.02582
#TAUWIND     : 0
#TDEADLYR    : 0
#TACTLYR     : 0.045
#TALWIND     : 0.025
#CHOFFSET    : 0.0
#XLABEL      : Energy (eV)
#YLABEL      : Counts
#XPOSITION   : -1.65646
#YPOSITION   : -4.68792
#ZPOSITION   : 31.03509
#EDSDET      : SD
##SPECIMEN   : SPI MM2 SPI Mangotantalite[5][all]
##DET_HASH   : 12273538-fd48-a23f-0a19-f1e6fa85caef
##CALIB_HASH : 6abaa72c-aa41-8738-0be9-f592914732f3
##WORKING    : 15.0 mm
##DET_NAME   : EDAX All
##DET_MODE   : MediumLE
#SPECTRUM    :
27,
17,
9,
30,
205,
1159,
2916,
6076,
13341,
17001,
9096,
4680,
4216,
4801,
6111,
11602,
34323,
63257,
48303,
16867,
8861,
10839,
9848,
8021,
7149,
5772,
5206,
5499,
5743,
6079,
5939,
6012,
6203,
6603,
6889,
7025,
7044,
7229,
7492,
7579,
8075,
8502,
10348,
14954,
19812,
18356,
13374,
10610,
9757,
9794,
9943,
9999,
10655,
12553,
21778,
59685,
139810,
201324,
178831,
113772,
56154,
21235,
9296,
7661,
8742,
10125,
9392,
7956,
6505,
7701,
12026,
21133,
28893,
27335,
21194,
17934,
14759,
10893,
8001,
6682,
5742,
5228,
4996,
4859,
4763,
4689,
4691,
4840,
4947,
5079,
5043,
4816,
4649,
4729,
4703,
4733,
4823,
4679,
4716,
4821,
4720,
4818,
4830,
4763,
4897,
4794,
4803,
4824,
4937,
4845,
4906,
4899,
4949,
4973,
4948,
5056,
5099,
5125,
4920,
4812,
4815,
4723,
4836,
4877,
4921,
4793,
4806,
4728,
4720,
4852,
4864,
4714,
4742,
4656,
4679,
4674,
4636,
4745,
4748,
4743,
4799,
4550,
4537,
4528,
4489,
4512,
4502,
4709,
4930,
5379,
5721,
5589,
5081,
4498,
4455,
4320,
4310,
4398,
4389,
4251,
4209,
4413,
4335,
4295,
4424,
4201,
4273,
4118,
4111,
4108,
4072,
4082,
4154,
3978,
3934,
4026,
3875,
3993,
3924,
3978,
3934,
3963,
3804,
3778,
3833,
3838,
3886,
3810,
3834,
3753,
3856,
4178,
5261,
8080,
13842,
21884,
27843,
27373,
21370,
13389,
7488,
4892,
3844,
3557,
3505,
3406,
3479,
3354,
3554,
3958,
4410,
5897,
7377,
8935,
9377,
9023,
8238,
6778,
5675,
4346,
3614,
3299,
3109,
3043,
3038,
3028,
2962,
3024,
2931,
2987,
3145,
3016,
3154,
3313,
3527,
3678,
3886,
3934,
4175,
4173,
3944,
3583,
3204,
2983,
2805,
2786,
2771,
2867,
2976,
2991,
2904,
2756,
2813,
2620,
2693,
2686,
2679,
2679,
2562,
2557,
2664,
2595,
2536,
2582,
2745,
3137,
4257,
6658,
11132,
17471,
23633,
27246,
26002,
20617,
13892,
8232,
4887,
3335,
2899,
2684,
2621,
2479,
2520,
2490,
2312,
2258,
2271,
2273,
2223,
2186,
2156,
2141,
2077,
2193,
2208,
2116,
2142,
1996,
2102,
2076,
2114,
2121,
2123,
2306,
2565,
2998,
3529,
4719,
6194,
8339,
10156,
11293,
10602,
9123,
7111,
5526,
4639,
4168,
4277,
4814,
5712,
6148,
6199,
5328,
4346,
3290,
2445,
2164,
1998,
1855,
1826,
1802,
1679,
1652,
1634,
1569,
1600,
1555,
1555,
1511,
1529,
1602,
1565,
1532,
1517,
1503,
1515,
1592,
1455,
1457,
1483,
1476,
1516,
1553,
1418,
1463,
1450,
1479,
1639,
1684,
2038,
2404,
2706,
2718,
2627,
2368,
2021,
1645,
1545,
1430,
1422,
1539,
1545,
1640,
1700,
1681,
1597,
1473,
1439,
1394,
1237,
1191,
1181,
1198,
1105,
1187,
1205,
1206,
1144,
1096,
1110,
1094,
1114,
1058,
1037,
1038,
1011,
1028,
1047,
962,
1050,
976,
935,
1008,
993,
979,
982,
978,
953,
993,
893,
905,
899,
876,
907,
872,
916,
897,
904,
926,
845,
830,
801,
862,
788,
798,
847,
883,
820,
786,
804,
854,
763,
761,
830,
698,
769,
748,
756,
798,
695,
708,
752,
734,
706,
713,
680,
660,
681,
672,
694,
674,
702,
654,
685,
630,
690,
704,
600,
619,
600,
573,
632,
621,
581,
598,
576,
601,
567,
577,
541,
551,
511,
529,
560,
531,
533,
520,
514,
484,
522,
499,
477,
496,
464,
477,
523,
467,
471,
470,
476,
481,
445,
420,
430,
462,
448,
417,
420,
435,
381,
398,
424,
390,
399,
378,
412,
378,
408,
396,
410,
398,
387,
325,
383,
361,
360,
339,
334,
349,
347,
333,
333,
367,
343,
301,
342,
327,
278,
313,
300,
305,
293,
298,
277,
274,
274,
275,
293,
266,
274,
275,
267,
279,
236,
267,
280,
281,
234,
257,
254,
262,
252,
259,
212,
220,
241,
219,
217,
207,
194,
212,
187,
223,
194,
185,
193,
190,
167,
181,
191,
172,
176,
191,
195,
151,
193,
152,
167,
170,
162,
171,
146,
126,
150,
143,
154,
123,
127,
139,
121,
97,
116,
126,
114,
99,
117,
106,
109,
119,
105,
120,
126,
98,
97,
103,
96,
104,
99,
103,
86,
103,
93,
91,
73,
80,
76,
77,
79,
77,
79,
63,
63,
52,
67,
71,
63,
50,
56,
63,
61,
54,
59,
49,
48,
50,
50,
45,
34,
35,
44,
37,
43,
32,
39,
34,
39,
19,
30,
30,
28,
23,
18,
25,
28,
10,
23,
12,
6,
11,
12,
9,
9,
9,
11,
9,
4,
1,
1,
1,
3,
3,
8,
1,
2,
3,
4,
4,
1,
3,
4,
6,
5,
2,
2,
2,
5,
0,
2,
2,
2,
2,
3,
3,
2,
1,
2,
2,
0,
2,
4,
3,
3,
3,
2,
4,
0,
1,
4,
3,
2,
1,
0,
2,
3,
1,
0,
1,
1,
2,
2,
1,
1,
2,
2,
1,
0,
5,
2,
3,
1,
3,
2,
2,
0,
0,
1,
2,
1,
2,
0,
0,
0,
1,
0,
2,
1,
1,
2,
1,
0,
1,
1,
0,
0,
2,
2,
0,
1,
0,
2,
0,
1,
4,
2,
1,
0,
0,
0,
0,
2,
1,
1,
2,
1,
5,
1,
0,
2,
1,
0,
0,
0,
2,
2,
2,
0,
1,
0,
0,
1,
0,
0,
0,
1,
0,
0,
1,
2,
3,
1,
0,
1,
1,
0,
0,
1,
0,
0,
1,
0,
0,
0,
0,
0,
1,
0,
1,
2,
0,
0,
1,
1,
1,
0,
0,
0,
2,
1,
0,
0,
1,
0,
1,
3,
0,
0,
2,
1,
1,
0,
1,
0,
0,
0,
2,
0,
0,
1,
0,
1,
0,
0,
0,
1,
0,
2,
0,
0,
1,
0,
0,
1,
0,
3,
0,
1,
0,
0,
0,
1,
1,
0,
0,
0,
0,
0,
0,
1,
1,
1,
1,
0,
0,
0,
0,
0,
0,
0,
0,
0,
0,
0,
0,
0,
0,
0,
0,
0,
0,
0,
0,
1,
0,
0,
0,
0,
0,
0,
0,
0,
1,
0,
1,
0,
0,
0,
0,
1,
0,
1,
1,
0,
0,
0,
1,
0,
0,
0,
0,
0,
0,
0,
0,
0,
0,
1,
0,
0,
0,
0,
1,
0,
0,
1,
0,
1,
0,
0,
0,
0,
0,
0,
0,
0,
0,
0,
0,
0,
0,
0,
0,
0,
0,
0,
0,
0,
0,
0,
1,
0,
0,
0,
0,
0,
0,
0,
0,
2,
0,
0,
0,
0,
0,
0,
0,
0,
0,
0,
0,
0,
0,
0,
0,
0,
0,
0,
0,
0,
0,
1,
0,
0,
0,
1,
0,
0,
0,
0,
1,
0,
0,
0,
0,
0,
0,
0,
0,
0,
0,
0,
0,
0,
0,
0,
0,
0,
0,
0,
0,
0,
0,
0,
0,
0,
0,
0,
0,
0,
0,
0,
0,
0,
0,
0,
0,
0,
0,
0,
0,
0,
0,
0,
0,
0,
0,
0,
0,
0,
0,
0,
0,
0,
0,
0,
0,
0,
0,
0,
0,
0,
0,
0,
0,
0,
0,
0,
0,
0,
0,
0,
0,
0,
0,
0,
0,
1,
0,
0,
0,
0,
0,
0,
0,
0,
0,
0,
0,
0,
0,
0,
0,
0,
0,
0,
0,
0,
0,
0,
0,
0,
0,
0,
0,
0,
0,
0,
0,
0,
0,
0,
0,
1,
0,
0,
0,
0,
0,
0,
0,
0,
0,
0,
0,
0,
0,
0,
0,
0,
0,
0,
0,
0,
0,
0,
0,
0,
0,
0,
0,
0,
0,
0,
1,
0,
0,
0,
0,
0,
0,
0,
0,
0,
0,
0,
0,
0,
0,
0,
0,
0,
0,
0,
0,
0,
0,
0,
0,
1,
0,
0,
0,
0,
0,
0,
0,
0,
0,
0,
0,
0,
0,
0,
0,
0,
0,
0,
0,
0,
0,
0,
0,
0,
0,
0,
0,
0,
0,
0,
0,
0,
0,
0,
0,
0,
0,
0,
0,
0,
0,
0,
0,
0,
0,
0,
0,
0,
0,
0,
0,
0,
0,
0,
0,
0,
0,
0,
0,
0,
0,
0,
0,
0,
0,
0,
0,
0,
0,
0,
0,
0,
0,
0,
0,
0,
0,
0,
0,
0,
0,
0,
0,
0,
0,
0,
0,
0,
0,
0,
0,
0,
0,
0,
0,
0,
0,
0,
0,
0,
0,
0,
0,
0,
0,
0,
0,
0,
0,
0,
0,
0,
0,
0,
0,
0,
0,
0,
0,
0,
0,
0,
0,
0,
0,
0,
0,
0,
0,
0,
0,
0,
0,
0,
0,
0,
0,
0,
0,
0,
0,
0,
0,
0,
0,
0,
0,
0,
0,
0,
0,
0,
0,
0,
0,
0,
0,
0,
0,
0,
0,
0,
0,
0,
0,
0,
0,
0,
0,
0,
0,
0,
0,
0,
0,
0,
0,
0,
0,
0,
0,
0,
0,
0,
0,
0,
0,
#ENDOFDATA   :