File: N132962/Quantification/20 keV/MMM2/SPI MM2 SPI Mangotantalite[1][4].msa
#FORMAT      : EMSA/MAS Spectral Data File
#VERSION     : 1.0
#TITLE       : SPI MM2 SPI Mangotantalite[1][all]
#DATE        : 13-MAR-2025
#TIME        : 09:37
#OWNER       : Unknown
#NPOINTS     : 4096
#NCOLUMNS    : 1
#XUNITS      : eV
#YUNITS      : counts
#DATATYPE    : Y
#XPERCHAN    : 9.99778
#OFFSET      : 1.69135
#BEAMKV      : 20
#SIGNALTYPE  : EDS
#ELEVANGLE   : 35
#AZIMANGLE   : 0
#LIVETIME    : 239.8594
#REALTIME    : 262.063
#PROBECUR    : 1.02582
#TAUWIND     : 0
#TDEADLYR    : 0
#TACTLYR     : 0.045
#TALWIND     : 0.025
#CHOFFSET    : 0.0
#XLABEL      : Energy (eV)
#YLABEL      : Counts
#XPOSITION   : -1.70386
#YPOSITION   : -4.64235
#ZPOSITION   : 31.03509
#EDSDET      : SD
##SPECIMEN   : SPI MM2 SPI Mangotantalite[1][all]
##DET_HASH   : 12273538-fd48-a23f-0a19-f1e6fa85caef
##CALIB_HASH : 6abaa72c-aa41-8738-0be9-f592914732f3
##WORKING    : 15.0 mm
##DET_NAME   : EDAX All
##DET_MODE   : MediumLE
#SPECTRUM    :
23,
20,
12,
29,
229,
1164,
2999,
6047,
13428,
16563,
8856,
4551,
4312,
4893,
6186,
11574,
34439,
63277,
48171,
16946,
9054,
10775,
9827,
8020,
7168,
5823,
5242,
5480,
5708,
5850,
6132,
6099,
6203,
6529,
6796,
7100,
7250,
7363,
7665,
7683,
8040,
8671,
10376,
14948,
19742,
18170,
13280,
10631,
9716,
9771,
9757,
9876,
10665,
12760,
22096,
59570,
140132,
201240,
178797,
114883,
56287,
21208,
9117,
7557,
8685,
10101,
9517,
7754,
6989,
7704,
12045,
21223,
28842,
26822,
21000,
17823,
14564,
10890,
8181,
6682,
5771,
5224,
4977,
4899,
4657,
4767,
4861,
4700,
5073,
5056,
4957,
4787,
4752,
4608,
4715,
4694,
4711,
4839,
4621,
4729,
4820,
4858,
4815,
4907,
4828,
4736,
4998,
4898,
4901,
4958,
4815,
4851,
4929,
5067,
5030,
5120,
5051,
5009,
4813,
4827,
4765,
4774,
5026,
4890,
4754,
4839,
4755,
4703,
4688,
4672,
4732,
4762,
4786,
4714,
4756,
4659,
4777,
4740,
4769,
4638,
4596,
4635,
4528,
4518,
4643,
4574,
4680,
4506,
4937,
5318,
5622,
5507,
5135,
4734,
4445,
4335,
4297,
4368,
4341,
4436,
4327,
4250,
4307,
4279,
4447,
4299,
4338,
4197,
4183,
4257,
4085,
4067,
4117,
4067,
4028,
4053,
3924,
3917,
3963,
4068,
3875,
4034,
3908,
3906,
3842,
3854,
3782,
3901,
3795,
3769,
3928,
4259,
5199,
8135,
14096,
22001,
27725,
27254,
20968,
13274,
7629,
4851,
3830,
3617,
3484,
3374,
3552,
3494,
3635,
3919,
4532,
5905,
7425,
8794,
9201,
9033,
8268,
6860,
5417,
4369,
3587,
3243,
3226,
3090,
3016,
2975,
3104,
3050,
3078,
2997,
3015,
3103,
3120,
3273,
3479,
3608,
3822,
3847,
4025,
4037,
3843,
3589,
3217,
2984,
2856,
2886,
2876,
2942,
2907,
2837,
2850,
2844,
2746,
2731,
2683,
2675,
2672,
2567,
2617,
2605,
2624,
2563,
2597,
2604,
2850,
3184,
4189,
6593,
11117,
17478,
23508,
26909,
26310,
20744,
13816,
8292,
4770,
3283,
2827,
2632,
2566,
2697,
2495,
2345,
2272,
2218,
2223,
2196,
2192,
2139,
2182,
2083,
2065,
2097,
2122,
2068,
2034,
2115,
1972,
2099,
2048,
2088,
2220,
2318,
2531,
3039,
3641,
4547,
6083,
8102,
10260,
11253,
10772,
9069,
7144,
5600,
4456,
4174,
4458,
4886,
5676,
6293,
5967,
5494,
4217,
3197,
2538,
2150,
1964,
1941,
1892,
1800,
1729,
1614,
1611,
1558,
1540,
1633,
1461,
1571,
1550,
1551,
1523,
1508,
1483,
1471,
1521,
1523,
1444,
1419,
1506,
1498,
1427,
1521,
1465,
1468,
1426,
1464,
1537,
1811,
2158,
2430,
2725,
2797,
2694,
2366,
2029,
1698,
1473,
1377,
1425,
1452,
1580,
1718,
1676,
1728,
1659,
1557,
1326,
1311,
1258,
1190,
1221,
1175,
1197,
1136,
1168,
1183,
1192,
1142,
1244,
1148,
1075,
1050,
1126,
1091,
1023,
1033,
1024,
1049,
1080,
1004,
1008,
1011,
1001,
915,
959,
948,
934,
974,
928,
954,
940,
922,
906,
892,
888,
908,
879,
861,
854,
897,
870,
805,
860,
826,
814,
798,
805,
805,
830,
787,
792,
799,
763,
781,
758,
699,
745,
769,
758,
722,
724,
736,
686,
717,
654,
719,
647,
671,
664,
656,
669,
665,
661,
663,
668,
637,
620,
616,
605,
621,
623,
623,
654,
580,
601,
586,
582,
572,
572,
557,
534,
525,
536,
528,
555,
529,
482,
499,
508,
501,
478,
473,
473,
487,
468,
458,
457,
459,
460,
461,
444,
429,
439,
429,
426,
421,
441,
432,
408,
428,
398,
424,
378,
400,
410,
416,
381,
390,
363,
389,
352,
379,
344,
319,
342,
352,
375,
351,
332,
376,
328,
323,
303,
283,
317,
329,
306,
288,
279,
302,
258,
331,
286,
269,
301,
267,
256,
283,
256,
248,
247,
243,
265,
226,
234,
256,
244,
256,
259,
283,
225,
251,
232,
253,
216,
232,
229,
185,
203,
223,
208,
218,
196,
176,
184,
177,
180,
173,
170,
171,
172,
177,
162,
183,
155,
169,
177,
153,
194,
150,
180,
144,
150,
135,
136,
140,
141,
128,
138,
125,
125,
131,
125,
129,
112,
125,
115,
106,
119,
99,
88,
102,
109,
109,
106,
93,
104,
83,
95,
108,
80,
78,
85,
81,
85,
70,
72,
81,
65,
66,
63,
70,
65,
65,
55,
58,
61,
57,
49,
63,
49,
58,
55,
31,
52,
43,
51,
37,
35,
45,
34,
23,
40,
36,
26,
26,
29,
20,
36,
25,
35,
14,
18,
14,
18,
9,
19,
11,
9,
13,
13,
11,
5,
5,
8,
7,
9,
4,
3,
2,
3,
2,
6,
4,
3,
3,
1,
2,
1,
1,
1,
2,
1,
5,
3,
0,
1,
0,
3,
3,
1,
2,
1,
0,
0,
1,
2,
2,
2,
3,
3,
3,
2,
3,
4,
1,
3,
3,
0,
3,
4,
2,
3,
1,
5,
3,
3,
1,
3,
0,
3,
2,
2,
2,
1,
1,
2,
2,
2,
2,
0,
2,
2,
1,
2,
1,
5,
0,
1,
1,
2,
1,
1,
1,
1,
1,
1,
1,
4,
1,
0,
2,
2,
3,
2,
3,
0,
2,
3,
2,
1,
0,
1,
3,
2,
2,
0,
2,
1,
3,
2,
0,
0,
1,
1,
1,
0,
1,
2,
1,
0,
1,
1,
0,
0,
2,
0,
0,
0,
1,
0,
1,
1,
0,
0,
0,
1,
2,
0,
0,
0,
1,
0,
1,
1,
0,
0,
0,
1,
0,
1,
0,
0,
0,
0,
0,
2,
0,
2,
2,
1,
3,
3,
1,
0,
0,
1,
2,
0,
1,
0,
0,
1,
0,
0,
1,
0,
1,
0,
1,
0,
2,
2,
1,
0,
2,
2,
1,
1,
0,
0,
0,
0,
0,
0,
1,
0,
1,
1,
0,
0,
0,
0,
2,
0,
1,
1,
0,
0,
0,
0,
0,
1,
0,
2,
0,
1,
1,
1,
0,
0,
0,
1,
0,
0,
0,
0,
0,
0,
0,
0,
0,
0,
1,
0,
0,
0,
0,
0,
1,
0,
0,
0,
1,
0,
0,
0,
0,
0,
1,
0,
0,
0,
0,
0,
0,
1,
0,
2,
1,
1,
1,
0,
0,
1,
0,
0,
0,
0,
0,
0,
0,
0,
0,
1,
0,
0,
0,
1,
0,
0,
1,
0,
0,
0,
0,
0,
0,
0,
0,
1,
1,
0,
0,
0,
0,
0,
0,
0,
0,
0,
0,
0,
0,
0,
0,
2,
0,
0,
0,
0,
0,
0,
1,
0,
0,
0,
0,
0,
0,
0,
0,
0,
0,
0,
0,
0,
0,
0,
0,
0,
0,
0,
0,
0,
0,
0,
0,
0,
0,
0,
0,
0,
0,
0,
0,
0,
0,
0,
0,
0,
1,
0,
0,
0,
0,
0,
0,
1,
0,
0,
0,
0,
0,
0,
0,
0,
0,
0,
0,
0,
0,
0,
0,
0,
0,
2,
0,
0,
0,
0,
0,
0,
0,
0,
0,
0,
0,
0,
0,
0,
0,
0,
0,
0,
0,
0,
0,
0,
0,
0,
0,
0,
0,
0,
0,
0,
0,
0,
0,
1,
0,
0,
0,
0,
0,
0,
0,
0,
0,
0,
1,
0,
0,
0,
0,
0,
0,
0,
0,
0,
0,
0,
0,
0,
1,
0,
0,
0,
0,
0,
0,
0,
0,
0,
0,
0,
0,
0,
0,
0,
0,
0,
0,
0,
0,
0,
0,
0,
0,
0,
0,
0,
0,
0,
0,
0,
0,
0,
0,
0,
0,
0,
0,
0,
0,
0,
0,
0,
0,
0,
0,
0,
0,
0,
0,
0,
0,
0,
0,
0,
0,
0,
0,
0,
0,
0,
0,
0,
0,
0,
0,
0,
0,
0,
0,
0,
0,
0,
0,
0,
0,
0,
0,
0,
0,
0,
0,
0,
0,
1,
0,
0,
0,
0,
0,
0,
0,
0,
0,
0,
0,
0,
0,
0,
0,
0,
0,
0,
0,
0,
0,
0,
0,
0,
0,
0,
0,
0,
0,
0,
0,
0,
0,
0,
0,
0,
0,
0,
0,
0,
0,
0,
0,
0,
0,
0,
0,
0,
0,
0,
0,
0,
0,
0,
0,
0,
0,
0,
0,
0,
0,
0,
0,
0,
0,
0,
0,
0,
0,
0,
0,
0,
0,
0,
0,
0,
0,
0,
0,
0,
0,
0,
0,
0,
0,
0,
0,
0,
0,
0,
0,
0,
0,
0,
0,
0,
0,
0,
0,
0,
0,
0,
0,
0,
0,
0,
0,
0,
0,
0,
0,
0,
0,
0,
0,
0,
0,
0,
0,
0,
0,
0,
0,
0,
0,
0,
0,
0,
0,
0,
0,
0,
0,
0,
0,
0,
0,
0,
0,
0,
0,
0,
0,
0,
0,
0,
0,
0,
0,
0,
0,
0,
0,
0,
0,
0,
0,
0,
0,
0,
0,
0,
0,
0,
0,
0,
0,
0,
0,
0,
0,
0,
0,
0,
0,
0,
0,
0,
0,
0,
0,
0,
0,
#ENDOFDATA   :