File: N132962/Quantification/20 keV/MMM2/SPI MM2 SPI Phlogpite[5][4].msa
#FORMAT      : EMSA/MAS Spectral Data File
#VERSION     : 1.0
#TITLE       : SPI MM2 SPI Phlogpite[5][all]
#DATE        : 13-MAR-2025
#TIME        : 10:47
#OWNER       : Unknown
#NPOINTS     : 4096
#NCOLUMNS    : 1
#XUNITS      : eV
#YUNITS      : counts
#DATATYPE    : Y
#XPERCHAN    : 9.99778
#OFFSET      : 1.69135
#BEAMKV      : 20
#SIGNALTYPE  : EDS
#ELEVANGLE   : 35
#AZIMANGLE   : 0
#LIVETIME    : 239.828
#REALTIME    : 254.694
#PROBECUR    : 1.02606
#TAUWIND     : 0
#TDEADLYR    : 0
#TACTLYR     : 0.045
#TALWIND     : 0.025
#CHOFFSET    : 0.0
#XLABEL      : Energy (eV)
#YLABEL      : Counts
#XPOSITION   : 1.45351
#YPOSITION   : -0.53983
#ZPOSITION   : 31.0351
#EDSDET      : SD
##SPECIMEN   : SPI MM2 SPI Phlogpite[5][all]
##D2STDCMP   : SPI Phlogpite,(H:0.48),(O:46.01),(Mg:17.47),(Al:6.47),(Si:20.19),(K:9.37)
##DET_HASH   : 12273538-fd48-a23f-0a19-f1e6fa85caef
##CALIB_HASH : 6abaa72c-aa41-8738-0be9-f592914732f3
##WORKING    : 15.0 mm
##DET_NAME   : EDAX All
##DET_MODE   : MediumLE
#SPECTRUM    :
23,
30,
7,
24,
77,
297,
1001,
3370,
9289,
11820,
5968,
2600,
2480,
3136,
5439,
19417,
77487,
151583,
111794,
29521,
4879,
3326,
4999,
7172,
6282,
3878,
2705,
2671,
2737,
2795,
2862,
2974,
3383,
4523,
6601,
6932,
5502,
4649,
5187,
10446,
36275,
90380,
108595,
61487,
18888,
5925,
4583,
8485,
24508,
47011,
47991,
26551,
10645,
5737,
5043,
11070,
40714,
102476,
140289,
99556,
40351,
14509,
7036,
4014,
2749,
2482,
2461,
2495,
2503,
2514,
2451,
2436,
2484,
2538,
2698,
2723,
2815,
2694,
2539,
2586,
2408,
2499,
2521,
2536,
2541,
2510,
2446,
2505,
2449,
2476,
2542,
2520,
2477,
2424,
2418,
2405,
2377,
2418,
2378,
2430,
2486,
2463,
2345,
2329,
2439,
2551,
3160,
5091,
11586,
24173,
36978,
37046,
24518,
11370,
4684,
2729,
2487,
3189,
4447,
5812,
6158,
5009,
3539,
2570,
2072,
1897,
1878,
1910,
1894,
1879,
1843,
1737,
1765,
1711,
1716,
1689,
1681,
1647,
1677,
1648,
1666,
1617,
1629,
1637,
1623,
1687,
1744,
1984,
2328,
2636,
2587,
2294,
1978,
1668,
1633,
1514,
1591,
1536,
1539,
1629,
1676,
1795,
1766,
1661,
1537,
1432,
1527,
1480,
1426,
1356,
1458,
1496,
1398,
1392,
1343,
1319,
1255,
1297,
1239,
1224,
1229,
1233,
1190,
1305,
1287,
1276,
1134,
1163,
1188,
1154,
1179,
1137,
1198,
1231,
1234,
1285,
1362,
1318,
1342,
1169,
1115,
1105,
1052,
1071,
970,
1037,
1023,
1101,
1198,
1840,
3166,
5552,
8352,
9961,
9185,
6845,
4324,
2271,
1415,
1108,
954,
1003,
895,
904,
917,
898,
898,
863,
857,
947,
896,
1036,
1237,
1521,
1903,
1900,
1960,
1535,
1293,
969,
844,
764,
795,
758,
749,
752,
717,
866,
852,
836,
804,
810,
785,
754,
740,
720,
736,
662,
702,
700,
621,
659,
643,
671,
683,
688,
652,
647,
623,
692,
649,
630,
675,
638,
653,
607,
622,
620,
585,
570,
560,
631,
592,
608,
568,
522,
585,
618,
512,
569,
508,
552,
511,
515,
524,
515,
572,
548,
523,
494,
538,
528,
504,
454,
517,
476,
476,
494,
491,
487,
492,
506,
490,
461,
484,
475,
472,
476,
449,
434,
437,
458,
467,
416,
412,
426,
448,
396,
400,
430,
403,
416,
394,
419,
408,
380,
389,
405,
371,
391,
372,
365,
388,
392,
377,
349,
350,
387,
387,
323,
346,
340,
339,
334,
330,
358,
337,
326,
331,
342,
353,
322,
295,
298,
304,
299,
337,
325,
314,
279,
274,
285,
264,
280,
311,
286,
287,
282,
278,
286,
268,
257,
246,
292,
260,
259,
269,
256,
272,
234,
253,
241,
220,
250,
232,
265,
271,
256,
229,
224,
252,
196,
247,
217,
243,
222,
212,
211,
213,
200,
228,
225,
204,
213,
196,
222,
185,
203,
188,
170,
152,
188,
198,
180,
193,
184,
172,
163,
197,
172,
178,
157,
178,
170,
151,
172,
156,
158,
148,
171,
149,
156,
145,
145,
131,
140,
135,
133,
133,
133,
157,
143,
168,
125,
152,
130,
128,
133,
134,
107,
136,
107,
110,
127,
98,
104,
89,
126,
92,
119,
121,
116,
116,
115,
121,
112,
106,
110,
111,
94,
110,
87,
102,
112,
86,
90,
91,
108,
90,
85,
85,
90,
79,
81,
86,
80,
109,
79,
76,
88,
85,
67,
73,
85,
80,
79,
76,
82,
72,
58,
74,
69,
85,
55,
74,
62,
60,
70,
48,
53,
62,
56,
58,
53,
56,
52,
59,
46,
49,
48,
50,
69,
48,
42,
55,
57,
60,
47,
44,
56,
46,
50,
48,
32,
45,
45,
37,
42,
37,
43,
30,
38,
38,
42,
31,
36,
45,
36,
32,
42,
32,
28,
33,
23,
26,
29,
23,
28,
33,
31,
26,
20,
29,
31,
38,
25,
17,
29,
24,
35,
17,
20,
18,
23,
17,
19,
22,
17,
19,
21,
20,
16,
16,
16,
16,
19,
18,
11,
21,
15,
9,
25,
19,
16,
19,
11,
17,
11,
10,
11,
14,
14,
15,
10,
9,
12,
13,
8,
8,
11,
11,
10,
9,
12,
6,
13,
6,
5,
5,
8,
9,
6,
10,
7,
8,
9,
5,
4,
4,
6,
5,
5,
1,
7,
5,
7,
3,
4,
3,
5,
3,
3,
4,
3,
2,
3,
1,
2,
1,
0,
0,
2,
0,
1,
1,
1,
0,
1,
0,
0,
0,
0,
0,
1,
1,
0,
0,
0,
1,
0,
0,
0,
0,
0,
0,
0,
0,
0,
0,
0,
1,
0,
0,
0,
0,
0,
0,
0,
0,
0,
0,
0,
0,
0,
1,
0,
0,
0,
0,
1,
0,
0,
0,
0,
0,
0,
0,
0,
0,
0,
0,
0,
0,
0,
0,
0,
0,
0,
0,
0,
0,
0,
0,
0,
0,
0,
0,
0,
0,
0,
0,
0,
0,
0,
0,
0,
0,
0,
0,
0,
0,
0,
0,
0,
0,
0,
0,
0,
0,
0,
0,
0,
0,
0,
0,
0,
0,
0,
0,
0,
0,
0,
0,
1,
0,
0,
0,
0,
0,
0,
0,
0,
0,
0,
0,
0,
0,
0,
0,
0,
0,
0,
0,
0,
1,
0,
0,
0,
0,
0,
0,
1,
0,
0,
0,
0,
0,
0,
0,
0,
0,
0,
0,
0,
0,
0,
0,
0,
0,
0,
0,
0,
0,
0,
0,
0,
0,
0,
0,
0,
0,
0,
0,
0,
0,
0,
0,
0,
0,
0,
0,
0,
0,
0,
0,
0,
0,
0,
0,
0,
0,
0,
0,
0,
0,
0,
0,
0,
0,
0,
0,
0,
0,
0,
0,
0,
0,
0,
0,
0,
0,
0,
0,
0,
0,
0,
0,
0,
0,
0,
0,
0,
0,
0,
0,
0,
0,
0,
0,
0,
0,
0,
0,
0,
0,
0,
0,
0,
0,
0,
0,
0,
0,
0,
0,
0,
0,
0,
0,
0,
0,
0,
0,
1,
0,
0,
0,
0,
0,
0,
0,
0,
0,
0,
0,
0,
0,
0,
0,
0,
0,
0,
0,
0,
0,
0,
0,
0,
0,
0,
0,
0,
0,
0,
0,
0,
0,
0,
0,
0,
0,
0,
0,
0,
0,
0,
0,
0,
0,
0,
0,
0,
0,
0,
0,
0,
0,
0,
0,
0,
0,
0,
0,
0,
0,
0,
0,
0,
0,
0,
0,
0,
0,
0,
0,
0,
0,
0,
0,
0,
0,
0,
0,
0,
0,
0,
0,
0,
0,
0,
0,
0,
0,
0,
0,
0,
0,
0,
0,
0,
0,
0,
0,
0,
0,
0,
0,
0,
0,
0,
0,
0,
0,
0,
0,
0,
0,
0,
0,
0,
0,
0,
0,
0,
0,
0,
0,
0,
0,
0,
0,
0,
0,
0,
0,
0,
0,
0,
0,
0,
0,
0,
0,
0,
0,
0,
0,
0,
0,
0,
0,
0,
0,
0,
0,
0,
0,
0,
0,
0,
0,
0,
0,
0,
0,
0,
0,
0,
0,
0,
0,
0,
0,
0,
0,
0,
0,
0,
0,
0,
0,
0,
0,
0,
0,
0,
0,
0,
0,
0,
0,
0,
0,
0,
0,
0,
0,
0,
0,
0,
0,
0,
0,
0,
0,
0,
0,
0,
0,
0,
0,
0,
0,
0,
0,
0,
0,
0,
0,
0,
0,
0,
0,
0,
0,
0,
0,
0,
0,
0,
0,
0,
0,
0,
0,
0,
0,
0,
0,
0,
0,
0,
0,
0,
0,
0,
0,
0,
0,
0,
0,
0,
0,
0,
0,
0,
0,
0,
0,
0,
0,
0,
0,
0,
0,
0,
0,
0,
0,
0,
0,
0,
0,
0,
0,
0,
0,
0,
0,
0,
0,
0,
0,
0,
0,
0,
0,
0,
0,
0,
0,
0,
0,
0,
0,
0,
0,
0,
0,
0,
0,
0,
0,
0,
0,
0,
0,
0,
0,
0,
0,
0,
0,
0,
0,
0,
0,
0,
0,
0,
0,
0,
0,
0,
0,
0,
0,
0,
0,
0,
0,
0,
0,
0,
0,
0,
0,
0,
0,
0,
0,
0,
0,
0,
0,
0,
0,
0,
0,
0,
0,
0,
0,
0,
0,
0,
0,
0,
0,
0,
0,
0,
0,
0,
0,
0,
0,
0,
0,
0,
0,
0,
0,
0,
0,
0,
0,
0,
0,
0,
0,
0,
0,
0,
0,
0,
0,
0,
0,
0,
0,
0,
0,
0,
0,
0,
0,
0,
0,
0,
0,
0,
0,
0,
0,
0,
0,
0,
0,
0,
0,
0,
0,
0,
0,
0,
0,
0,
0,
0,
0,
0,
0,
0,
0,
0,
0,
0,
0,
0,
0,
0,
0,
0,
0,
0,
0,
0,
0,
0,
0,
0,
0,
0,
0,
0,
0,
0,
0,
0,
0,
0,
0,
0,
0,
0,
#ENDOFDATA   :