File: N132962/Quantification/20 keV/MMM2/SPI MM2 MgAl2O4[5][4].msa
#FORMAT      : EMSA/MAS Spectral Data File
#VERSION     : 1.0
#TITLE       : SPI MM2 MgAl2O4[5][all]
#DATE        : 13-MAR-2025
#TIME        : 09:32
#OWNER       : Unknown
#NPOINTS     : 4096
#NCOLUMNS    : 1
#XUNITS      : eV
#YUNITS      : counts
#DATATYPE    : Y
#XPERCHAN    : 9.99778
#OFFSET      : 1.69135
#BEAMKV      : 20
#SIGNALTYPE  : EDS
#ELEVANGLE   : 35
#AZIMANGLE   : 0
#LIVETIME    : 239.826
#REALTIME    : 256.369
#PROBECUR    : 1.02582
#TAUWIND     : 0
#TDEADLYR    : 0
#TACTLYR     : 0.045
#TALWIND     : 0.025
#CHOFFSET    : 0.0
#XLABEL      : Energy (eV)
#YLABEL      : Counts
#XPOSITION   : 0.82443
#YPOSITION   : -5.3788
#ZPOSITION   : 31.03509
#EDSDET      : SD
##SPECIMEN   : SPI MM2 MgAl2O4[5][all]
##D2STDCMP   : MgAl2O4,(O:44.9839),(Mg:17.0844),(Al:37.9316)
##DET_HASH   : 12273538-fd48-a23f-0a19-f1e6fa85caef
##CALIB_HASH : 6abaa72c-aa41-8738-0be9-f592914732f3
##WORKING    : 15.0 mm
##DET_NAME   : EDAX All
##DET_MODE   : MediumLE
#SPECTRUM    :
26,
25,
9,
14,
66,
293,
847,
2486,
7137,
9287,
5005,
2455,
2532,
3424,
6498,
26057,
106236,
206485,
152396,
39859,
5036,
1764,
1887,
2023,
2184,
2213,
2340,
2666,
2800,
2979,
3077,
3233,
3498,
3693,
4064,
4470,
4830,
5119,
6457,
14318,
51792,
127889,
152633,
86500,
26370,
8573,
8786,
32781,
122930,
254059,
258435,
131147,
38414,
9543,
3574,
2312,
2098,
2313,
2705,
2884,
2584,
2404,
2068,
2021,
2115,
2295,
2701,
2910,
2542,
2234,
2089,
2099,
2105,
2134,
2103,
2114,
2178,
2112,
2125,
2104,
2270,
2212,
2237,
2314,
2343,
2246,
2173,
2161,
2213,
2280,
2498,
2718,
2704,
2345,
2126,
2080,
2108,
2194,
2414,
2492,
2482,
2172,
2017,
2091,
2039,
1895,
1994,
1872,
1951,
1842,
1856,
1856,
1857,
1857,
1875,
1836,
1807,
1787,
1866,
1752,
1788,
1693,
1871,
1713,
1717,
1744,
1660,
1759,
1681,
1644,
1670,
1635,
1599,
1595,
1634,
1612,
1641,
1540,
1525,
1522,
1573,
1484,
1477,
1504,
1485,
1518,
1510,
1482,
1406,
1449,
1453,
1356,
1360,
1330,
1364,
1393,
1315,
1411,
1285,
1293,
1348,
1299,
1289,
1258,
1241,
1256,
1234,
1253,
1243,
1197,
1225,
1196,
1188,
1140,
1222,
1155,
1174,
1202,
1138,
1115,
1137,
1204,
1094,
1091,
1095,
1093,
1104,
1126,
1075,
977,
994,
1019,
979,
1051,
1019,
991,
1002,
966,
918,
977,
935,
941,
891,
950,
960,
917,
897,
867,
927,
951,
914,
948,
984,
1023,
967,
933,
889,
880,
833,
873,
781,
810,
856,
826,
836,
768,
784,
786,
762,
728,
726,
749,
814,
747,
734,
741,
777,
711,
717,
686,
711,
738,
715,
680,
705,
679,
672,
748,
692,
699,
697,
647,
658,
642,
652,
675,
652,
641,
592,
631,
624,
613,
638,
605,
600,
565,
562,
590,
588,
532,
559,
501,
554,
556,
606,
569,
555,
554,
550,
544,
543,
513,
566,
503,
500,
525,
528,
492,
464,
513,
502,
479,
494,
469,
505,
534,
468,
469,
479,
466,
468,
416,
448,
460,
470,
490,
412,
438,
421,
421,
406,
428,
414,
422,
421,
398,
388,
434,
403,
420,
395,
371,
377,
411,
321,
363,
347,
389,
362,
402,
341,
359,
367,
356,
367,
359,
335,
367,
352,
340,
373,
334,
350,
312,
310,
314,
307,
289,
328,
312,
308,
295,
289,
334,
308,
293,
295,
273,
268,
265,
298,
266,
285,
286,
317,
275,
267,
262,
282,
256,
278,
272,
261,
267,
235,
248,
231,
262,
219,
236,
221,
253,
244,
213,
206,
235,
209,
202,
253,
225,
244,
218,
225,
200,
216,
211,
218,
205,
192,
207,
178,
204,
229,
192,
188,
190,
204,
192,
194,
184,
208,
186,
173,
174,
180,
168,
178,
178,
185,
165,
178,
157,
149,
152,
151,
116,
149,
149,
137,
151,
127,
134,
146,
131,
149,
152,
146,
124,
144,
145,
124,
121,
131,
136,
115,
126,
118,
111,
140,
121,
121,
82,
102,
120,
106,
127,
104,
117,
112,
86,
123,
108,
106,
96,
95,
100,
96,
120,
89,
98,
100,
108,
107,
91,
80,
88,
74,
75,
72,
76,
84,
89,
84,
67,
84,
74,
84,
78,
74,
80,
82,
77,
62,
69,
78,
68,
68,
55,
56,
68,
70,
62,
65,
67,
73,
62,
59,
48,
55,
70,
71,
43,
53,
37,
52,
62,
51,
54,
55,
51,
49,
54,
41,
45,
69,
38,
52,
59,
56,
45,
43,
53,
46,
38,
49,
50,
44,
36,
43,
34,
37,
37,
31,
37,
45,
27,
45,
38,
26,
47,
35,
43,
27,
33,
32,
30,
30,
29,
24,
25,
19,
26,
29,
21,
22,
26,
13,
22,
21,
19,
21,
21,
25,
25,
29,
14,
27,
21,
23,
23,
22,
22,
25,
18,
17,
14,
18,
22,
20,
10,
12,
14,
23,
12,
20,
20,
18,
14,
13,
13,
11,
14,
16,
13,
18,
6,
11,
13,
5,
15,
8,
8,
6,
7,
7,
6,
4,
7,
12,
14,
8,
6,
2,
8,
6,
8,
9,
10,
7,
8,
2,
3,
6,
4,
4,
4,
2,
4,
6,
7,
7,
5,
3,
2,
3,
2,
6,
4,
2,
2,
1,
0,
3,
4,
2,
0,
3,
1,
1,
1,
2,
3,
0,
1,
0,
0,
2,
0,
0,
0,
0,
0,
0,
0,
0,
1,
0,
1,
1,
0,
1,
0,
0,
0,
0,
0,
0,
0,
0,
0,
0,
0,
0,
0,
0,
1,
1,
0,
0,
0,
0,
0,
0,
0,
0,
0,
0,
0,
0,
0,
0,
0,
0,
0,
0,
0,
0,
0,
0,
0,
0,
0,
0,
0,
0,
0,
0,
0,
0,
0,
0,
0,
0,
0,
0,
0,
0,
0,
0,
0,
0,
0,
0,
0,
0,
0,
0,
0,
0,
0,
0,
0,
0,
0,
0,
0,
0,
0,
0,
0,
0,
0,
0,
0,
0,
0,
0,
0,
0,
0,
0,
0,
0,
0,
0,
0,
0,
1,
0,
0,
0,
0,
0,
0,
0,
0,
0,
0,
0,
0,
0,
0,
0,
0,
0,
0,
0,
0,
0,
0,
0,
0,
0,
0,
0,
0,
0,
0,
0,
0,
0,
0,
0,
0,
0,
0,
0,
0,
0,
0,
0,
0,
0,
0,
0,
0,
0,
0,
0,
0,
0,
0,
0,
0,
0,
0,
0,
0,
0,
0,
0,
0,
0,
0,
0,
0,
0,
0,
0,
0,
0,
0,
0,
0,
0,
0,
0,
0,
0,
0,
0,
0,
0,
0,
0,
0,
0,
0,
0,
0,
0,
0,
0,
0,
0,
0,
0,
0,
0,
0,
0,
0,
0,
0,
0,
0,
0,
0,
0,
0,
0,
0,
0,
0,
0,
0,
0,
0,
0,
0,
0,
0,
0,
0,
0,
0,
0,
0,
0,
0,
0,
0,
0,
0,
0,
0,
0,
0,
0,
0,
0,
0,
0,
0,
0,
0,
0,
0,
0,
0,
0,
0,
0,
0,
0,
0,
0,
0,
0,
0,
0,
0,
0,
0,
0,
0,
0,
0,
0,
0,
0,
0,
0,
0,
0,
0,
0,
0,
0,
0,
0,
0,
0,
0,
0,
0,
0,
0,
0,
0,
0,
0,
0,
0,
0,
0,
0,
0,
0,
0,
0,
0,
0,
0,
0,
0,
0,
0,
0,
0,
0,
0,
0,
0,
0,
0,
0,
0,
0,
0,
0,
0,
0,
0,
0,
0,
0,
0,
0,
0,
0,
0,
0,
0,
0,
0,
0,
0,
0,
0,
0,
0,
0,
0,
0,
0,
0,
0,
0,
0,
0,
0,
0,
0,
0,
0,
0,
0,
0,
0,
0,
0,
0,
0,
0,
0,
0,
0,
0,
0,
0,
0,
0,
0,
0,
0,
0,
0,
0,
0,
0,
0,
0,
0,
0,
0,
0,
0,
0,
0,
0,
0,
0,
0,
0,
0,
0,
0,
0,
0,
0,
0,
0,
0,
0,
0,
0,
0,
0,
0,
0,
0,
0,
0,
0,
0,
0,
0,
0,
0,
0,
0,
0,
0,
0,
0,
0,
0,
0,
0,
0,
0,
0,
0,
0,
0,
0,
0,
0,
0,
0,
0,
0,
0,
0,
0,
0,
0,
0,
0,
0,
0,
0,
0,
0,
0,
0,
0,
0,
0,
0,
0,
0,
0,
0,
0,
0,
0,
0,
0,
0,
0,
0,
0,
0,
0,
0,
0,
0,
0,
0,
0,
0,
0,
0,
0,
0,
0,
0,
0,
0,
0,
0,
0,
0,
0,
0,
0,
0,
0,
0,
0,
0,
0,
0,
0,
0,
0,
0,
0,
0,
0,
0,
0,
0,
0,
0,
0,
0,
0,
0,
0,
0,
0,
0,
0,
0,
0,
0,
0,
0,
0,
0,
0,
0,
0,
0,
0,
0,
0,
0,
0,
0,
0,
0,
0,
0,
0,
0,
0,
0,
0,
0,
0,
0,
0,
0,
0,
0,
0,
0,
0,
0,
0,
0,
0,
0,
0,
0,
0,
0,
0,
0,
0,
0,
0,
0,
0,
0,
0,
0,
0,
0,
0,
0,
0,
0,
0,
0,
0,
0,
0,
0,
0,
0,
0,
0,
0,
0,
0,
0,
0,
0,
0,
0,
0,
0,
0,
0,
0,
0,
0,
0,
0,
0,
0,
0,
0,
0,
0,
0,
0,
0,
0,
0,
0,
0,
0,
0,
0,
0,
0,
0,
0,
0,
0,
0,
0,
0,
0,
0,
0,
0,
0,
0,
0,
0,
0,
0,
0,
0,
0,
0,
0,
0,
0,
0,
0,
0,
0,
0,
0,
0,
0,
0,
0,
0,
0,
0,
0,
0,
0,
0,
0,
0,
0,
0,
0,
0,
0,
0,
0,
0,
0,
0,
0,
#ENDOFDATA   :