File: N132962/Quantification/20 keV/MMM2/SPI MM2 Scheelite[2][4].msa
#FORMAT      : EMSA/MAS Spectral Data File
#VERSION     : 1.0
#TITLE       : SPI MM2 Scheelite[2][all]
#DATE        : 13-MAR-2025
#TIME        : 12:14
#OWNER       : Unknown
#NPOINTS     : 4096
#NCOLUMNS    : 1
#XUNITS      : eV
#YUNITS      : counts
#DATATYPE    : Y
#XPERCHAN    : 9.99778
#OFFSET      : 1.69135
#BEAMKV      : 20
#SIGNALTYPE  : EDS
#ELEVANGLE   : 35
#AZIMANGLE   : 0
#LIVETIME    : 239.974
#REALTIME    : 263.083
#PROBECUR    : 1.02616
#TAUWIND     : 0
#TDEADLYR    : 0
#TACTLYR     : 0.045
#TALWIND     : 0.025
#CHOFFSET    : 0.0
#XLABEL      : Energy (eV)
#YLABEL      : Counts
#XPOSITION   : -2.80604
#YPOSITION   : 2.03725
#ZPOSITION   : 31.03511
#EDSDET      : SD
##SPECIMEN   : SPI MM2 Scheelite[2][all]
##DET_HASH   : 12273538-fd48-a23f-0a19-f1e6fa85caef
##CALIB_HASH : 6abaa72c-aa41-8738-0be9-f592914732f3
##WORKING    : 15.0 mm
##DET_NAME   : EDAX All
##DET_MODE   : MediumLE
#SPECTRUM    :
25,
22,
18,
26,
200,
833,
2681,
6529,
14955,
19617,
11709,
6018,
4183,
3949,
4783,
9431,
28679,
52882,
40070,
12918,
4736,
4025,
4474,
4979,
5078,
5015,
5194,
5708,
6260,
6553,
6290,
6529,
6742,
6784,
6942,
7179,
7534,
7694,
7810,
7986,
8113,
8466,
8762,
9540,
12522,
18476,
22803,
19325,
13735,
10959,
10276,
9844,
9938,
10289,
10923,
13135,
21262,
56882,
143669,
226698,
222073,
157683,
86535,
34784,
12347,
7472,
7957,
9434,
9642,
7930,
6047,
5248,
5297,
5226,
5283,
5501,
6204,
6512,
6361,
5781,
5275,
4931,
4769,
4819,
4705,
4795,
4798,
4759,
4735,
4758,
4885,
4914,
4939,
4842,
4866,
4732,
4711,
4812,
4741,
4812,
4761,
4735,
4770,
4969,
4936,
4825,
4917,
5050,
4975,
4821,
4905,
4833,
4926,
4836,
4933,
4931,
5166,
5465,
5889,
7984,
14217,
29757,
52073,
65361,
55347,
32626,
15233,
7431,
5375,
5054,
5553,
6528,
9034,
11579,
12470,
10605,
7561,
5539,
4823,
4360,
4436,
4330,
4242,
4321,
4194,
4207,
4206,
4167,
4139,
4188,
4197,
4122,
4147,
4107,
4170,
4049,
3975,
3971,
4144,
3941,
4128,
4051,
4074,
4091,
3951,
4048,
3907,
3988,
4024,
4030,
3996,
3873,
3907,
4002,
3907,
3851,
3748,
3769,
3800,
3860,
3872,
3911,
3885,
3876,
3837,
3886,
3636,
3619,
3668,
3584,
3584,
3638,
3609,
3604,
3617,
3567,
3447,
3406,
3544,
3511,
3470,
3425,
3434,
3305,
3401,
3320,
3326,
3268,
3281,
3411,
3349,
3553,
3452,
3677,
3662,
3480,
3221,
3268,
3127,
3177,
3165,
3178,
3078,
3011,
3074,
3107,
3055,
2954,
2959,
2992,
3006,
2905,
2956,
2976,
2960,
2840,
2913,
2949,
2899,
2856,
2858,
2969,
3027,
3136,
3598,
3838,
3983,
4028,
3799,
3480,
3112,
2947,
2708,
2755,
2710,
2629,
2651,
2566,
2575,
2492,
2540,
2524,
2601,
2509,
2574,
2450,
2490,
2485,
2406,
2544,
2623,
2560,
2674,
2995,
3872,
5806,
9700,
15252,
21992,
26733,
27769,
23101,
16562,
10338,
6033,
3756,
2732,
2461,
2481,
2503,
2332,
2319,
2354,
2342,
2191,
2159,
2138,
2026,
2035,
2115,
1983,
1937,
2085,
1987,
1996,
1898,
1989,
1992,
1949,
2020,
1892,
1974,
2028,
2147,
2358,
2638,
2954,
3681,
4572,
6287,
8253,
9928,
10930,
10295,
8766,
6897,
5241,
4534,
4529,
5033,
5568,
6364,
6165,
5718,
4610,
3591,
2673,
2212,
1979,
1954,
1789,
1751,
1660,
1661,
1578,
1439,
1512,
1421,
1416,
1430,
1435,
1359,
1429,
1394,
1340,
1372,
1385,
1408,
1385,
1352,
1390,
1375,
1379,
1317,
1382,
1409,
1393,
1321,
1316,
1280,
1383,
1506,
1674,
2012,
2304,
2471,
2589,
2472,
2119,
1832,
1626,
1478,
1327,
1359,
1349,
1520,
1518,
1549,
1568,
1566,
1431,
1267,
1242,
1137,
1027,
1070,
1094,
1040,
1024,
1040,
1045,
1107,
1015,
1091,
1066,
1020,
994,
927,
922,
978,
892,
950,
906,
878,
889,
866,
890,
845,
848,
866,
920,
854,
823,
836,
842,
874,
817,
807,
811,
800,
773,
756,
734,
759,
765,
769,
785,
667,
740,
774,
774,
782,
689,
728,
693,
701,
733,
664,
729,
683,
689,
687,
618,
645,
607,
619,
595,
646,
606,
563,
623,
588,
580,
569,
592,
603,
587,
588,
556,
554,
587,
569,
565,
552,
513,
549,
527,
569,
540,
522,
502,
505,
495,
463,
486,
501,
463,
434,
449,
448,
459,
480,
462,
459,
464,
449,
442,
435,
433,
415,
391,
434,
444,
393,
382,
401,
429,
396,
344,
372,
399,
408,
356,
340,
367,
380,
363,
346,
312,
351,
345,
312,
306,
319,
320,
323,
299,
314,
313,
288,
324,
285,
287,
281,
288,
270,
258,
267,
279,
270,
261,
262,
256,
238,
254,
274,
238,
235,
252,
259,
236,
225,
218,
197,
222,
204,
224,
229,
215,
190,
204,
202,
191,
183,
194,
204,
211,
176,
199,
209,
179,
153,
166,
171,
176,
165,
151,
180,
168,
157,
141,
139,
133,
172,
122,
146,
162,
153,
128,
127,
156,
112,
141,
124,
118,
112,
120,
123,
120,
111,
103,
98,
105,
126,
114,
103,
121,
95,
97,
103,
74,
79,
88,
79,
82,
86,
86,
76,
71,
60,
67,
64,
67,
56,
75,
66,
74,
62,
46,
64,
58,
56,
55,
49,
54,
43,
56,
48,
35,
49,
38,
44,
36,
37,
35,
31,
23,
33,
33,
24,
23,
31,
20,
20,
28,
14,
19,
14,
14,
15,
10,
7,
7,
6,
9,
4,
3,
3,
2,
5,
4,
5,
9,
3,
4,
1,
2,
3,
4,
1,
1,
3,
6,
2,
5,
4,
5,
1,
2,
2,
2,
6,
1,
2,
3,
3,
6,
2,
3,
1,
3,
1,
1,
2,
2,
2,
2,
1,
2,
3,
3,
2,
1,
1,
0,
0,
2,
2,
1,
0,
6,
1,
0,
5,
4,
1,
1,
1,
1,
3,
1,
2,
0,
0,
1,
2,
3,
1,
2,
1,
1,
1,
1,
4,
4,
1,
2,
1,
3,
3,
2,
0,
3,
0,
1,
3,
2,
3,
0,
0,
0,
1,
1,
1,
0,
1,
2,
1,
0,
1,
0,
0,
0,
2,
2,
3,
1,
1,
2,
1,
0,
2,
2,
1,
2,
0,
1,
0,
0,
0,
0,
0,
0,
0,
0,
1,
1,
1,
0,
1,
0,
0,
1,
0,
0,
0,
4,
1,
0,
1,
3,
0,
1,
0,
1,
0,
0,
0,
2,
0,
0,
0,
2,
0,
1,
0,
1,
2,
3,
1,
1,
0,
1,
0,
1,
1,
0,
1,
1,
0,
1,
1,
1,
2,
0,
1,
0,
2,
0,
0,
0,
0,
0,
0,
0,
2,
4,
2,
2,
0,
0,
3,
0,
0,
0,
1,
0,
0,
0,
1,
0,
2,
1,
0,
0,
1,
0,
0,
0,
0,
0,
0,
0,
0,
1,
1,
0,
0,
0,
0,
0,
0,
2,
0,
2,
1,
0,
0,
1,
0,
0,
0,
0,
1,
0,
1,
0,
0,
0,
0,
0,
0,
0,
0,
1,
0,
0,
0,
0,
0,
0,
0,
1,
1,
1,
0,
0,
1,
2,
1,
0,
0,
0,
0,
0,
0,
0,
0,
0,
0,
0,
0,
1,
0,
0,
0,
0,
0,
0,
0,
0,
1,
0,
0,
0,
0,
0,
0,
0,
0,
1,
0,
0,
0,
1,
0,
0,
0,
0,
0,
0,
0,
0,
1,
1,
0,
1,
0,
0,
0,
0,
0,
0,
0,
0,
0,
0,
1,
0,
0,
0,
0,
0,
0,
0,
1,
0,
0,
0,
0,
0,
0,
0,
0,
0,
0,
0,
0,
1,
1,
0,
1,
0,
0,
0,
0,
0,
0,
0,
0,
0,
0,
0,
0,
0,
0,
0,
0,
0,
0,
0,
0,
0,
0,
1,
0,
0,
0,
0,
0,
0,
0,
0,
0,
0,
0,
0,
0,
0,
0,
0,
0,
0,
0,
0,
0,
0,
0,
0,
0,
0,
0,
0,
0,
0,
0,
0,
0,
0,
0,
0,
0,
1,
0,
0,
0,
0,
0,
0,
0,
0,
0,
0,
0,
0,
1,
0,
0,
0,
0,
0,
0,
0,
0,
0,
0,
0,
0,
0,
1,
0,
0,
0,
0,
0,
0,
0,
0,
0,
0,
0,
0,
0,
0,
1,
0,
0,
0,
0,
0,
0,
0,
0,
0,
0,
0,
0,
0,
0,
1,
0,
0,
0,
0,
0,
0,
0,
0,
0,
0,
0,
0,
0,
0,
0,
0,
0,
0,
0,
0,
0,
0,
0,
0,
0,
0,
0,
0,
0,
0,
0,
0,
0,
0,
0,
0,
0,
0,
0,
0,
0,
0,
0,
0,
0,
0,
0,
0,
0,
0,
0,
0,
0,
0,
0,
0,
0,
0,
0,
0,
0,
0,
0,
0,
0,
0,
0,
0,
0,
0,
0,
0,
0,
0,
0,
0,
0,
0,
0,
0,
0,
0,
0,
0,
0,
0,
0,
0,
0,
0,
0,
0,
0,
0,
0,
0,
0,
0,
0,
0,
0,
0,
0,
0,
0,
0,
0,
0,
0,
0,
0,
0,
0,
0,
0,
0,
0,
0,
0,
0,
0,
0,
0,
0,
0,
0,
0,
0,
0,
0,
0,
0,
0,
0,
0,
0,
0,
0,
0,
0,
0,
0,
0,
0,
0,
0,
0,
0,
0,
0,
0,
0,
0,
0,
0,
0,
0,
0,
0,
0,
0,
0,
0,
0,
0,
0,
0,
0,
0,
0,
0,
0,
0,
0,
0,
0,
0,
0,
0,
0,
0,
0,
0,
0,
0,
0,
0,
0,
0,
0,
0,
0,
0,
0,
0,
0,
0,
0,
0,
0,
0,
0,
0,
0,
0,
0,
0,
0,
0,
0,
0,
0,
0,
0,
0,
0,
0,
0,
0,
0,
0,
0,
0,
0,
0,
0,
0,
0,
0,
0,
0,
0,
0,
0,
0,
0,
#ENDOFDATA   :