File: N132962/Quantification/20 keV/MMM2/SPI MM2 Sphodumene[0][4].msa
#FORMAT      : EMSA/MAS Spectral Data File
#VERSION     : 1.0
#TITLE       : SPI MM2 Sphodumene[0][all]
#DATE        : 13-MAR-2025
#TIME        : 13:07
#OWNER       : Unknown
#NPOINTS     : 4096
#NCOLUMNS    : 1
#XUNITS      : eV
#YUNITS      : counts
#DATATYPE    : Y
#XPERCHAN    : 9.99778
#OFFSET      : 1.69135
#BEAMKV      : 20
#SIGNALTYPE  : EDS
#ELEVANGLE   : 35
#AZIMANGLE   : 0
#LIVETIME    : 239.846
#REALTIME    : 255.79
#PROBECUR    : 1.0263
#TAUWIND     : 0
#TDEADLYR    : 0
#TACTLYR     : 0.045
#TALWIND     : 0.025
#CHOFFSET    : 0.0
#XLABEL      : Energy (eV)
#YLABEL      : Counts
#XPOSITION   : 3.45115
#YPOSITION   : 3.44289
#ZPOSITION   : 31.03511
#EDSDET      : SD
##SPECIMEN   : SPI MM2 Sphodumene[0][all]
##DET_HASH   : 12273538-fd48-a23f-0a19-f1e6fa85caef
##CALIB_HASH : 6abaa72c-aa41-8738-0be9-f592914732f3
##WORKING    : 15.0 mm
##DET_NAME   : EDAX All
##DET_MODE   : MediumLE
#SPECTRUM    :
36,
29,
9,
17,
68,
291,
809,
2429,
7017,
9270,
4903,
2398,
2520,
3239,
6483,
26197,
107548,
211892,
154535,
39964,
4965,
1638,
1768,
1856,
1950,
1974,
2048,
2235,
2386,
2536,
2663,
2753,
2932,
3373,
4003,
4158,
3891,
3659,
3519,
3744,
3952,
4052,
4232,
4479,
4754,
5085,
7057,
18546,
62899,
129140,
131474,
68278,
22375,
8240,
6444,
16951,
69351,
180250,
245738,
173851,
69149,
22826,
9924,
4657,
2497,
2220,
2293,
2372,
2309,
2004,
2021,
2087,
2002,
2235,
2531,
2734,
2773,
2406,
2168,
2100,
2052,
2160,
1973,
1992,
2001,
2009,
2000,
2015,
2061,
1983,
2009,
2019,
2050,
1965,
2022,
1988,
1981,
1948,
2092,
2033,
2111,
1985,
1946,
1970,
1907,
1991,
2141,
2277,
2265,
2134,
1941,
1860,
1799,
1942,
1946,
2222,
2186,
2046,
1862,
1800,
1798,
1842,
1732,
1672,
1642,
1693,
1636,
1630,
1621,
1666,
1607,
1578,
1532,
1509,
1511,
1465,
1565,
1495,
1479,
1443,
1478,
1539,
1414,
1443,
1429,
1406,
1385,
1426,
1387,
1354,
1344,
1387,
1301,
1369,
1305,
1369,
1335,
1299,
1250,
1307,
1237,
1239,
1257,
1200,
1211,
1180,
1243,
1230,
1195,
1182,
1131,
1150,
1149,
1237,
1193,
1131,
1093,
1098,
1009,
1120,
1102,
1126,
1138,
1049,
1084,
1089,
1021,
1066,
1015,
1055,
956,
1017,
989,
946,
998,
958,
985,
948,
994,
920,
991,
922,
926,
967,
857,
932,
887,
866,
847,
900,
871,
885,
922,
981,
920,
881,
849,
837,
874,
811,
799,
777,
827,
756,
785,
784,
765,
725,
798,
779,
702,
736,
712,
727,
709,
739,
711,
781,
697,
713,
695,
670,
656,
649,
678,
678,
657,
719,
681,
724,
669,
669,
643,
643,
636,
623,
596,
594,
619,
617,
602,
543,
603,
598,
579,
584,
580,
586,
550,
579,
576,
545,
529,
534,
576,
480,
552,
545,
532,
535,
495,
512,
513,
497,
491,
489,
500,
483,
438,
513,
447,
521,
447,
501,
472,
461,
440,
405,
463,
435,
473,
479,
423,
389,
450,
469,
410,
444,
426,
433,
421,
459,
396,
425,
362,
401,
379,
371,
397,
375,
390,
378,
363,
378,
355,
394,
358,
344,
382,
340,
344,
382,
358,
342,
325,
364,
328,
361,
343,
339,
319,
354,
306,
298,
308,
309,
329,
296,
283,
329,
310,
299,
291,
290,
294,
291,
283,
293,
303,
282,
283,
291,
267,
285,
245,
267,
237,
255,
268,
262,
246,
256,
230,
235,
224,
241,
245,
239,
221,
230,
231,
252,
226,
222,
235,
222,
222,
191,
216,
205,
218,
232,
212,
186,
201,
207,
202,
198,
188,
196,
188,
180,
198,
190,
177,
183,
207,
188,
176,
181,
186,
178,
142,
174,
143,
173,
173,
174,
164,
156,
136,
167,
156,
173,
153,
148,
154,
164,
146,
139,
150,
134,
155,
157,
131,
169,
140,
140,
119,
119,
134,
126,
136,
110,
141,
129,
109,
140,
132,
116,
129,
105,
121,
126,
106,
96,
111,
113,
118,
107,
94,
103,
100,
92,
89,
110,
86,
86,
97,
92,
89,
96,
98,
99,
88,
78,
96,
82,
92,
82,
103,
88,
76,
79,
82,
81,
85,
79,
71,
71,
67,
75,
76,
71,
69,
69,
70,
69,
72,
56,
73,
85,
61,
64,
65,
73,
74,
61,
63,
53,
53,
42,
67,
48,
51,
56,
46,
48,
78,
54,
39,
48,
53,
51,
41,
48,
41,
56,
45,
58,
50,
39,
39,
42,
40,
48,
32,
46,
25,
35,
40,
39,
31,
42,
47,
41,
41,
27,
38,
30,
44,
34,
36,
30,
29,
25,
35,
21,
24,
31,
22,
30,
31,
33,
25,
24,
30,
26,
17,
27,
27,
19,
22,
23,
26,
25,
19,
17,
17,
17,
12,
25,
20,
20,
17,
12,
6,
25,
13,
14,
12,
14,
18,
12,
18,
20,
10,
14,
13,
10,
9,
17,
21,
13,
12,
7,
7,
9,
9,
10,
2,
12,
6,
6,
9,
8,
9,
10,
6,
7,
7,
1,
9,
10,
8,
12,
5,
6,
11,
3,
6,
6,
6,
6,
1,
7,
5,
3,
4,
6,
10,
8,
1,
3,
3,
4,
4,
2,
4,
3,
4,
2,
1,
2,
1,
1,
2,
0,
0,
0,
0,
0,
0,
1,
1,
1,
1,
0,
1,
0,
0,
0,
0,
0,
0,
0,
0,
0,
0,
1,
0,
1,
0,
0,
0,
0,
0,
0,
0,
0,
0,
0,
0,
0,
0,
0,
0,
0,
0,
0,
0,
0,
0,
0,
0,
0,
0,
0,
0,
0,
0,
0,
0,
0,
0,
0,
0,
0,
0,
0,
0,
0,
0,
0,
0,
0,
0,
0,
0,
0,
0,
0,
0,
0,
0,
0,
0,
0,
0,
0,
0,
0,
0,
0,
0,
0,
0,
0,
0,
0,
0,
0,
0,
0,
0,
0,
0,
0,
0,
0,
0,
0,
0,
0,
0,
0,
0,
0,
0,
0,
0,
0,
0,
0,
0,
0,
0,
0,
0,
0,
0,
0,
0,
0,
0,
0,
0,
0,
0,
0,
0,
0,
0,
0,
0,
0,
0,
0,
0,
0,
0,
0,
0,
0,
0,
0,
0,
0,
0,
0,
0,
0,
0,
0,
0,
0,
0,
0,
0,
0,
0,
0,
0,
0,
0,
0,
0,
0,
0,
0,
0,
0,
0,
0,
0,
0,
0,
0,
0,
0,
0,
0,
0,
0,
0,
0,
0,
0,
0,
0,
0,
0,
0,
0,
0,
0,
0,
0,
0,
0,
0,
0,
0,
0,
0,
0,
0,
0,
0,
0,
0,
0,
0,
0,
0,
0,
0,
0,
0,
0,
0,
0,
0,
0,
0,
0,
0,
0,
0,
0,
0,
0,
0,
0,
0,
0,
0,
0,
0,
0,
0,
0,
0,
0,
0,
0,
0,
0,
0,
0,
0,
0,
0,
0,
0,
0,
0,
0,
0,
0,
0,
0,
0,
0,
0,
0,
0,
0,
0,
0,
0,
0,
0,
0,
0,
0,
0,
0,
0,
0,
0,
0,
0,
0,
0,
0,
0,
0,
0,
0,
0,
0,
0,
0,
0,
0,
0,
0,
0,
0,
0,
0,
0,
0,
0,
0,
0,
0,
0,
0,
0,
0,
0,
0,
0,
0,
0,
0,
0,
0,
0,
0,
0,
0,
0,
0,
0,
0,
0,
0,
0,
0,
0,
0,
0,
0,
0,
0,
0,
0,
0,
0,
0,
0,
0,
0,
0,
0,
0,
0,
0,
0,
0,
0,
0,
0,
0,
0,
0,
0,
0,
0,
0,
0,
0,
0,
0,
0,
0,
0,
0,
0,
0,
0,
0,
0,
0,
0,
0,
0,
0,
0,
0,
0,
0,
0,
0,
0,
0,
0,
0,
0,
0,
0,
0,
0,
0,
0,
0,
0,
0,
0,
0,
0,
0,
0,
0,
0,
0,
0,
0,
0,
0,
0,
0,
0,
0,
0,
0,
0,
0,
0,
0,
0,
0,
0,
0,
0,
0,
0,
0,
0,
0,
0,
0,
0,
0,
0,
0,
0,
0,
0,
0,
0,
0,
0,
0,
0,
0,
0,
0,
0,
0,
0,
0,
0,
0,
0,
0,
0,
0,
0,
0,
0,
0,
0,
0,
0,
0,
0,
0,
0,
0,
0,
0,
0,
0,
0,
0,
0,
0,
0,
0,
0,
0,
0,
0,
0,
0,
0,
0,
0,
0,
0,
0,
0,
0,
0,
0,
0,
0,
0,
0,
0,
0,
0,
0,
0,
0,
0,
0,
0,
0,
0,
0,
0,
0,
0,
0,
0,
0,
0,
0,
0,
0,
0,
0,
0,
0,
0,
0,
0,
0,
0,
0,
0,
0,
0,
0,
0,
0,
0,
0,
0,
0,
0,
0,
0,
0,
0,
0,
0,
0,
0,
0,
0,
0,
0,
0,
0,
0,
0,
0,
0,
0,
0,
0,
0,
0,
0,
0,
0,
0,
0,
0,
0,
0,
0,
0,
0,
0,
0,
0,
0,
0,
0,
0,
0,
0,
0,
0,
0,
0,
0,
0,
0,
0,
0,
0,
0,
0,
0,
0,
0,
0,
0,
0,
0,
0,
0,
0,
0,
0,
0,
0,
0,
0,
0,
0,
0,
0,
0,
0,
0,
0,
0,
0,
0,
0,
0,
0,
0,
0,
0,
0,
0,
0,
0,
0,
0,
0,
0,
0,
0,
0,
0,
0,
0,
0,
0,
0,
0,
0,
0,
0,
0,
0,
0,
0,
0,
0,
0,
0,
0,
0,
0,
0,
0,
0,
0,
0,
0,
0,
0,
0,
0,
0,
0,
0,
0,
0,
0,
0,
0,
0,
0,
0,
0,
0,
0,
0,
0,
0,
0,
0,
0,
0,
0,
0,
0,
0,
0,
0,
0,
0,
0,
#ENDOFDATA   :