File: N132962/Quantification/20 keV/MMM2/SPI MM2 SPI Pentlandite[7][4].msa
#FORMAT      : EMSA/MAS Spectral Data File
#VERSION     : 1.0
#TITLE       : SPI MM2 SPI Pentlandite[7][all]
#DATE        : 13-MAR-2025
#TIME        : 10:40
#OWNER       : Unknown
#NPOINTS     : 4096
#NCOLUMNS    : 1
#XUNITS      : eV
#YUNITS      : counts
#DATATYPE    : Y
#XPERCHAN    : 9.99778
#OFFSET      : 1.69135
#BEAMKV      : 20
#SIGNALTYPE  : EDS
#ELEVANGLE   : 35
#AZIMANGLE   : 0
#LIVETIME    : 239.895
#REALTIME    : 260.21
#PROBECUR    : 1.02606
#TAUWIND     : 0
#TDEADLYR    : 0
#TACTLYR     : 0.045
#TALWIND     : 0.025
#CHOFFSET    : 0.0
#XLABEL      : Energy (eV)
#YLABEL      : Counts
#XPOSITION   : 3.97253
#YPOSITION   : -0.33325
#ZPOSITION   : 31.0351
#EDSDET      : SD
##SPECIMEN   : SPI MM2 SPI Pentlandite[7][all]
##D2STDCMP   : SPI Pentlandite,(S:32.89),(Fe:30.88),(Co:0.43),(Ni:35.61)
##DET_HASH   : 12273538-fd48-a23f-0a19-f1e6fa85caef
##CALIB_HASH : 6abaa72c-aa41-8738-0be9-f592914732f3
##WORKING    : 15.0 mm
##DET_NAME   : EDAX All
##DET_MODE   : MediumLE
#SPECTRUM    :
27,
22,
5,
40,
211,
599,
1236,
3496,
10368,
13343,
6923,
2910,
2618,
2790,
3322,
3916,
5176,
7579,
10877,
14999,
18242,
18859,
28671,
47600,
44634,
23842,
17225,
35607,
62880,
53107,
21024,
6577,
3870,
3281,
3301,
3182,
3436,
3418,
3607,
3719,
3753,
3768,
4185,
4216,
4322,
4469,
4677,
4811,
5002,
5112,
5300,
5082,
5174,
5143,
5299,
5387,
5643,
5869,
6498,
6211,
5987,
5663,
5369,
5407,
5272,
5463,
5436,
5613,
5567,
5614,
5757,
6347,
7966,
13516,
31926,
86205,
175679,
219597,
159845,
70211,
25272,
18185,
20103,
17189,
10371,
5731,
4391,
3928,
3899,
3839,
3730,
3748,
3767,
3991,
3745,
3734,
3900,
3827,
3844,
3910,
3834,
3891,
3885,
3791,
3883,
3976,
3881,
3790,
3772,
3676,
3641,
3696,
3584,
3610,
3598,
3531,
3684,
3614,
3626,
3593,
3488,
3443,
3483,
3445,
3641,
3455,
3354,
3441,
3420,
3361,
3232,
3469,
3384,
3366,
3301,
3287,
3350,
3305,
3340,
3193,
3260,
3180,
3176,
3142,
3184,
3145,
3017,
3095,
3103,
3088,
3051,
3094,
3118,
3307,
3407,
3421,
3164,
3106,
3054,
2913,
2965,
2866,
2916,
2826,
2837,
2779,
2749,
2763,
2681,
2680,
2672,
2660,
2688,
2629,
2694,
2662,
2614,
2596,
2651,
2600,
2523,
2510,
2521,
2420,
2522,
2448,
2504,
2522,
2497,
2411,
2385,
2454,
2587,
2457,
2333,
2335,
2331,
2318,
2307,
2256,
2309,
2308,
2254,
2216,
2238,
2351,
2461,
2691,
3885,
7801,
17255,
33679,
52967,
64944,
60921,
44159,
25334,
11573,
5217,
2868,
2246,
2093,
1943,
1965,
2018,
1988,
2032,
2131,
2425,
2665,
3131,
4086,
5185,
7141,
9115,
10084,
9106,
7022,
4738,
3033,
2228,
1913,
1964,
2497,
4267,
8749,
17766,
31023,
42747,
47544,
42657,
29981,
17476,
8573,
4098,
2325,
1753,
1570,
1521,
1533,
1440,
1500,
1463,
1397,
1477,
1477,
1481,
1409,
1458,
1571,
1790,
2322,
3352,
4796,
6396,
7253,
7064,
5820,
4039,
2708,
1852,
1444,
1271,
1176,
1107,
1176,
1137,
1218,
1292,
1184,
1238,
1165,
1265,
1115,
1136,
1130,
1127,
1077,
1091,
1125,
1061,
1060,
1059,
1058,
1043,
1033,
1082,
1042,
998,
996,
1013,
1026,
950,
1013,
959,
985,
977,
996,
999,
924,
964,
1029,
1004,
972,
1047,
1032,
1071,
958,
981,
942,
916,
936,
927,
906,
866,
874,
845,
881,
876,
844,
793,
820,
885,
843,
831,
835,
792,
776,
799,
847,
800,
790,
821,
791,
816,
779,
746,
729,
760,
725,
715,
713,
699,
744,
685,
699,
681,
710,
666,
673,
653,
718,
672,
670,
660,
634,
615,
644,
598,
608,
624,
645,
642,
625,
579,
581,
576,
572,
590,
589,
567,
593,
581,
563,
591,
557,
558,
545,
566,
484,
543,
469,
528,
511,
510,
509,
535,
511,
484,
493,
471,
489,
474,
474,
487,
477,
465,
451,
460,
432,
457,
448,
436,
446,
464,
414,
439,
418,
454,
428,
394,
423,
415,
381,
394,
390,
387,
397,
382,
385,
391,
351,
395,
340,
337,
327,
380,
367,
334,
358,
325,
316,
325,
354,
330,
353,
310,
302,
331,
339,
322,
367,
345,
335,
313,
334,
295,
294,
282,
320,
294,
293,
266,
275,
285,
278,
248,
268,
268,
255,
249,
253,
246,
268,
237,
248,
249,
209,
217,
248,
238,
232,
211,
194,
214,
239,
218,
204,
210,
202,
204,
209,
205,
205,
202,
203,
193,
179,
192,
184,
186,
170,
179,
165,
160,
153,
160,
189,
160,
142,
153,
162,
159,
149,
158,
145,
150,
174,
153,
147,
141,
130,
117,
133,
126,
161,
126,
143,
118,
133,
141,
116,
113,
102,
118,
114,
118,
124,
117,
109,
117,
127,
109,
91,
116,
99,
99,
93,
98,
98,
96,
77,
96,
92,
98,
108,
78,
67,
87,
75,
77,
99,
80,
86,
77,
68,
69,
76,
71,
54,
89,
60,
62,
58,
64,
63,
58,
54,
56,
56,
60,
48,
55,
56,
72,
62,
60,
49,
42,
53,
47,
53,
52,
46,
45,
42,
44,
38,
38,
32,
28,
44,
42,
35,
33,
33,
23,
22,
26,
18,
37,
26,
30,
27,
28,
30,
24,
24,
15,
15,
27,
24,
21,
16,
20,
21,
14,
14,
13,
18,
19,
16,
11,
11,
15,
8,
14,
20,
14,
10,
10,
8,
6,
9,
6,
5,
3,
5,
12,
5,
7,
4,
7,
4,
3,
5,
5,
1,
3,
2,
1,
1,
1,
3,
0,
2,
0,
1,
0,
2,
0,
1,
2,
3,
2,
3,
0,
0,
0,
3,
3,
0,
1,
1,
0,
0,
1,
0,
2,
0,
0,
0,
2,
4,
1,
1,
1,
0,
2,
1,
2,
3,
0,
1,
1,
0,
1,
1,
1,
2,
2,
0,
0,
1,
0,
2,
0,
1,
2,
0,
1,
0,
1,
2,
0,
3,
0,
1,
1,
0,
0,
1,
1,
2,
1,
0,
1,
3,
0,
1,
2,
0,
1,
0,
1,
2,
0,
0,
0,
0,
0,
0,
0,
0,
1,
0,
2,
1,
0,
1,
1,
1,
1,
0,
0,
0,
1,
0,
0,
0,
0,
0,
1,
1,
0,
0,
0,
0,
0,
1,
0,
0,
0,
0,
1,
0,
0,
0,
0,
0,
0,
0,
0,
0,
0,
0,
1,
0,
1,
0,
1,
0,
1,
0,
0,
0,
1,
1,
0,
0,
0,
0,
1,
1,
0,
0,
0,
0,
0,
1,
0,
0,
0,
0,
0,
2,
0,
0,
0,
0,
0,
0,
1,
0,
0,
0,
0,
0,
0,
0,
0,
0,
0,
0,
0,
0,
0,
0,
0,
0,
0,
0,
0,
1,
0,
0,
0,
0,
0,
0,
0,
0,
0,
0,
0,
3,
0,
0,
0,
0,
0,
0,
0,
0,
0,
0,
0,
0,
0,
0,
0,
0,
1,
0,
0,
1,
0,
0,
0,
0,
0,
0,
0,
0,
0,
0,
0,
0,
0,
0,
0,
0,
0,
0,
0,
1,
0,
0,
0,
0,
0,
0,
0,
0,
0,
0,
1,
0,
0,
0,
0,
0,
0,
0,
0,
0,
0,
0,
0,
0,
0,
0,
0,
0,
0,
0,
1,
0,
0,
0,
0,
0,
0,
0,
0,
0,
0,
0,
0,
0,
0,
0,
0,
0,
0,
0,
0,
0,
0,
0,
0,
0,
0,
0,
0,
0,
0,
0,
0,
0,
0,
0,
0,
0,
0,
0,
0,
0,
0,
0,
0,
0,
0,
0,
0,
0,
0,
0,
0,
0,
0,
1,
0,
0,
0,
0,
0,
0,
0,
0,
1,
0,
0,
0,
0,
0,
0,
0,
0,
0,
1,
0,
0,
0,
0,
0,
0,
0,
0,
0,
0,
0,
0,
0,
0,
0,
0,
0,
0,
0,
0,
0,
0,
0,
0,
0,
0,
0,
0,
0,
0,
0,
0,
0,
0,
0,
0,
0,
0,
0,
0,
0,
0,
0,
0,
0,
0,
0,
0,
0,
0,
0,
0,
0,
0,
0,
0,
0,
0,
0,
0,
0,
0,
0,
0,
0,
0,
0,
0,
0,
0,
0,
0,
0,
0,
0,
0,
0,
0,
0,
0,
0,
0,
0,
0,
0,
0,
0,
0,
0,
0,
0,
0,
0,
0,
0,
0,
0,
0,
0,
0,
0,
0,
0,
0,
0,
0,
0,
0,
0,
0,
0,
0,
0,
0,
0,
0,
0,
0,
0,
0,
0,
0,
0,
0,
0,
0,
0,
0,
0,
0,
0,
0,
0,
0,
0,
0,
0,
0,
0,
0,
0,
0,
0,
0,
0,
0,
0,
0,
0,
0,
0,
0,
0,
0,
0,
0,
0,
0,
0,
0,
0,
0,
0,
0,
0,
0,
0,
0,
0,
0,
0,
0,
0,
0,
0,
0,
0,
0,
0,
0,
0,
0,
0,
0,
0,
0,
0,
0,
0,
0,
0,
0,
0,
0,
0,
0,
0,
0,
0,
0,
0,
0,
0,
0,
0,
0,
0,
0,
0,
0,
0,
0,
0,
0,
0,
0,
0,
0,
0,
0,
0,
0,
0,
0,
0,
0,
0,
0,
0,
0,
0,
0,
0,
0,
0,
0,
0,
0,
0,
0,
0,
0,
0,
0,
0,
0,
0,
0,
0,
0,
0,
0,
0,
0,
0,
0,
0,
0,
0,
0,
0,
0,
0,
0,
0,
0,
0,
0,
0,
0,
0,
0,
0,
0,
0,
0,
0,
0,
0,
0,
0,
0,
0,
0,
0,
0,
0,
0,
0,
0,
0,
0,
0,
0,
0,
0,
0,
0,
0,
0,
0,
0,
0,
0,
0,
0,
0,
0,
0,
0,
0,
0,
0,
0,
0,
0,
0,
0,
0,
0,
0,
0,
0,
0,
0,
0,
0,
0,
0,
0,
0,
0,
0,
0,
0,
0,
0,
0,
0,
0,
0,
0,
0,
0,
0,
#ENDOFDATA   :