File: N132962/Quantification/20 keV/MMM2/SPI MM2 Uvarovite[5][4].msa
#FORMAT      : EMSA/MAS Spectral Data File
#VERSION     : 1.0
#TITLE       : SPI MM2 Uvarovite[5][all]
#DATE        : 13-MAR-2025
#TIME        : 14:17
#OWNER       : Unknown
#NPOINTS     : 4096
#NCOLUMNS    : 1
#XUNITS      : eV
#YUNITS      : counts
#DATATYPE    : Y
#XPERCHAN    : 9.99778
#OFFSET      : 1.69135
#BEAMKV      : 20
#SIGNALTYPE  : EDS
#ELEVANGLE   : 35
#AZIMANGLE   : 0
#LIVETIME    : 239.891
#REALTIME    : 255.409
#PROBECUR    : 1.02609
#TAUWIND     : 0
#TDEADLYR    : 0
#TACTLYR     : 0.045
#TALWIND     : 0.025
#CHOFFSET    : 0.0
#XLABEL      : Energy (eV)
#YLABEL      : Counts
#XPOSITION   : 5.8138
#YPOSITION   : 6.39463
#ZPOSITION   : 31.03511
#EDSDET      : SD
##SPECIMEN   : SPI MM2 Uvarovite[5][all]
##DET_HASH   : 12273538-fd48-a23f-0a19-f1e6fa85caef
##CALIB_HASH : 6abaa72c-aa41-8738-0be9-f592914732f3
##WORKING    : 15.0 mm
##DET_NAME   : EDAX All
##DET_MODE   : MediumLE
#SPECTRUM    :
21,
29,
7,
8,
70,
313,
1018,
3145,
9452,
14302,
9672,
4951,
3255,
2807,
4158,
12508,
46631,
88406,
65871,
19958,
4784,
2156,
2124,
2675,
2612,
2207,
2097,
2358,
2424,
2577,
2670,
2807,
2861,
3124,
3220,
3371,
3368,
3439,
3691,
3718,
3998,
4163,
4304,
4306,
4276,
4637,
4971,
7229,
15885,
28376,
29315,
17202,
8173,
5885,
6176,
12605,
44279,
109765,
148656,
105505,
43445,
15922,
8375,
5313,
4750,
4553,
4338,
3745,
3342,
3253,
3313,
3441,
3300,
3399,
3424,
3600,
3680,
3411,
3189,
3261,
3256,
3302,
3187,
3092,
3210,
3099,
3251,
3218,
3205,
3131,
3138,
3075,
3021,
3189,
3082,
3051,
3028,
2962,
3063,
2994,
3013,
2929,
2935,
2846,
2911,
2849,
2853,
2957,
2854,
2862,
2815,
2703,
2673,
2748,
2785,
2874,
3129,
3484,
4367,
7803,
19999,
50056,
93096,
118144,
99095,
56428,
22347,
7351,
3604,
2972,
3827,
5825,
10061,
14670,
16276,
13281,
7827,
4132,
2583,
2025,
2006,
2038,
1964,
1885,
1789,
1839,
1901,
2152,
2824,
3729,
4212,
4166,
3264,
2373,
2002,
1742,
1784,
1744,
1740,
1672,
1693,
1833,
1880,
2158,
2482,
2499,
2280,
1990,
1779,
1638,
1585,
1598,
1634,
1694,
1711,
2121,
3216,
6886,
14285,
24459,
31886,
31317,
22409,
12379,
5620,
2532,
1794,
1428,
1418,
1414,
1454,
1451,
1464,
1520,
1816,
2453,
3444,
4774,
5249,
4868,
3774,
2584,
1747,
1330,
1272,
1138,
1235,
1186,
1206,
1320,
1574,
2094,
2583,
2843,
2784,
2249,
1801,
1409,
1190,
1070,
1121,
1108,
1084,
1067,
1033,
1061,
1044,
989,
1042,
999,
1072,
1028,
1136,
1156,
1135,
1196,
1186,
1175,
1086,
1072,
1029,
1003,
943,
928,
930,
965,
1036,
989,
996,
923,
955,
964,
940,
896,
869,
882,
907,
916,
865,
806,
893,
828,
784,
833,
835,
831,
780,
814,
814,
768,
751,
794,
814,
736,
748,
762,
749,
746,
764,
702,
702,
720,
694,
724,
665,
673,
703,
703,
674,
707,
712,
695,
659,
666,
663,
640,
667,
653,
615,
672,
676,
654,
644,
657,
636,
636,
594,
590,
604,
608,
640,
592,
557,
605,
568,
594,
562,
564,
564,
594,
590,
582,
529,
568,
545,
486,
496,
521,
533,
516,
519,
546,
470,
522,
523,
471,
518,
481,
453,
480,
468,
454,
450,
504,
476,
448,
449,
452,
484,
413,
449,
453,
454,
417,
445,
476,
424,
425,
393,
417,
434,
424,
438,
416,
389,
430,
356,
375,
346,
355,
332,
370,
378,
378,
344,
391,
393,
359,
379,
369,
376,
358,
372,
343,
309,
311,
322,
310,
277,
320,
344,
328,
338,
267,
295,
293,
290,
305,
327,
310,
318,
322,
272,
274,
289,
288,
262,
274,
311,
230,
288,
250,
255,
276,
258,
246,
261,
262,
275,
261,
239,
235,
233,
243,
234,
244,
226,
227,
212,
243,
204,
213,
251,
212,
207,
198,
202,
200,
204,
217,
195,
218,
188,
189,
182,
195,
198,
196,
190,
178,
211,
165,
193,
171,
166,
173,
164,
151,
199,
161,
172,
156,
169,
153,
170,
178,
133,
141,
134,
152,
165,
131,
161,
147,
128,
153,
140,
135,
127,
126,
118,
129,
121,
140,
112,
110,
112,
143,
121,
119,
110,
112,
104,
103,
99,
103,
107,
89,
123,
110,
100,
126,
99,
86,
102,
115,
87,
93,
108,
85,
80,
90,
88,
87,
105,
94,
78,
76,
90,
77,
78,
75,
77,
78,
59,
83,
72,
84,
67,
66,
63,
52,
73,
72,
76,
79,
64,
68,
72,
71,
67,
60,
57,
53,
48,
60,
60,
37,
48,
45,
49,
52,
53,
46,
58,
46,
48,
58,
44,
55,
42,
42,
40,
42,
43,
49,
38,
37,
37,
37,
41,
34,
26,
41,
34,
33,
34,
30,
35,
28,
29,
33,
24,
22,
29,
31,
26,
17,
20,
27,
29,
26,
22,
30,
23,
21,
29,
26,
27,
15,
15,
21,
16,
18,
22,
18,
12,
14,
19,
12,
20,
14,
14,
17,
15,
13,
12,
19,
13,
15,
10,
13,
11,
7,
10,
7,
4,
11,
3,
12,
11,
11,
6,
9,
8,
5,
8,
7,
13,
3,
6,
4,
9,
6,
2,
5,
5,
6,
5,
4,
1,
5,
3,
6,
3,
4,
4,
1,
3,
2,
1,
3,
1,
0,
2,
2,
0,
1,
1,
0,
0,
0,
1,
1,
0,
1,
0,
1,
1,
0,
0,
0,
0,
1,
0,
0,
0,
0,
1,
1,
0,
0,
0,
0,
2,
0,
0,
0,
0,
1,
0,
0,
0,
1,
0,
0,
0,
0,
0,
0,
0,
1,
1,
0,
0,
0,
0,
1,
0,
0,
0,
1,
0,
0,
0,
0,
0,
0,
0,
0,
0,
0,
0,
0,
0,
0,
0,
0,
0,
1,
1,
0,
0,
0,
0,
0,
0,
0,
0,
0,
0,
1,
0,
0,
0,
0,
0,
0,
0,
0,
0,
0,
0,
2,
0,
0,
0,
0,
0,
0,
0,
0,
0,
0,
0,
1,
0,
0,
0,
0,
1,
0,
0,
0,
0,
0,
0,
0,
0,
0,
0,
0,
0,
0,
0,
0,
0,
0,
0,
0,
0,
0,
0,
0,
0,
0,
0,
0,
0,
0,
0,
0,
0,
0,
0,
1,
0,
0,
0,
0,
0,
0,
0,
0,
0,
0,
0,
0,
0,
0,
0,
0,
0,
1,
0,
0,
0,
0,
0,
0,
0,
0,
0,
0,
0,
0,
0,
0,
0,
0,
0,
0,
0,
0,
0,
0,
0,
0,
0,
0,
0,
0,
0,
0,
0,
0,
0,
0,
0,
0,
0,
0,
0,
0,
0,
0,
1,
0,
0,
0,
0,
0,
0,
0,
0,
0,
0,
0,
0,
0,
0,
0,
0,
0,
0,
0,
0,
0,
0,
0,
0,
0,
0,
0,
0,
0,
0,
0,
0,
0,
0,
0,
0,
0,
0,
1,
0,
0,
0,
0,
0,
0,
0,
0,
0,
0,
0,
0,
0,
0,
0,
0,
0,
0,
0,
0,
0,
0,
0,
0,
0,
0,
0,
0,
0,
0,
0,
0,
0,
0,
0,
0,
0,
0,
0,
0,
0,
0,
0,
0,
0,
0,
0,
0,
0,
0,
0,
0,
0,
0,
0,
0,
0,
0,
0,
0,
0,
0,
0,
0,
0,
0,
0,
0,
0,
0,
0,
0,
0,
0,
0,
0,
0,
0,
0,
0,
0,
0,
0,
0,
0,
0,
0,
0,
0,
0,
0,
0,
0,
0,
0,
0,
0,
0,
0,
0,
0,
0,
0,
0,
0,
0,
0,
0,
0,
0,
0,
0,
0,
0,
0,
0,
0,
0,
0,
0,
0,
0,
0,
0,
0,
0,
0,
0,
0,
0,
0,
0,
0,
0,
0,
0,
0,
0,
0,
0,
0,
0,
0,
0,
0,
0,
0,
0,
0,
0,
0,
0,
0,
0,
0,
0,
0,
0,
0,
0,
0,
0,
0,
0,
0,
0,
0,
0,
0,
0,
0,
1,
0,
0,
0,
0,
0,
0,
0,
0,
0,
0,
0,
0,
0,
0,
0,
0,
0,
0,
0,
0,
0,
0,
0,
0,
0,
0,
0,
0,
0,
0,
0,
0,
0,
0,
0,
0,
0,
0,
0,
0,
0,
0,
0,
0,
0,
0,
0,
0,
0,
0,
0,
0,
0,
0,
0,
0,
0,
0,
0,
0,
0,
0,
0,
0,
0,
0,
0,
0,
0,
0,
0,
0,
0,
0,
0,
0,
0,
0,
0,
0,
0,
0,
0,
0,
0,
0,
0,
0,
0,
0,
0,
0,
0,
0,
0,
0,
0,
0,
0,
0,
0,
0,
0,
0,
0,
0,
0,
0,
0,
0,
0,
0,
0,
0,
0,
0,
0,
0,
0,
0,
0,
0,
0,
0,
0,
0,
0,
0,
0,
0,
0,
0,
0,
0,
0,
0,
0,
0,
0,
0,
0,
0,
0,
0,
0,
0,
0,
0,
0,
0,
0,
0,
0,
0,
0,
0,
0,
0,
0,
0,
0,
0,
0,
0,
0,
0,
0,
0,
0,
0,
0,
0,
0,
0,
0,
0,
0,
0,
0,
0,
0,
0,
0,
0,
0,
0,
0,
0,
0,
0,
0,
0,
0,
0,
0,
0,
0,
0,
0,
0,
0,
0,
0,
0,
0,
0,
0,
0,
0,
0,
0,
0,
0,
0,
0,
0,
0,
0,
0,
0,
0,
0,
0,
0,
0,
0,
0,
0,
0,
0,
0,
0,
0,
0,
0,
0,
0,
0,
0,
0,
0,
0,
0,
0,
0,
0,
0,
0,
0,
0,
0,
0,
0,
0,
0,
0,
0,
0,
0,
0,
0,
0,
0,
0,
0,
0,
0,
0,
0,
0,
0,
0,
0,
0,
0,
0,
0,
0,
#ENDOFDATA   :