File: N132962/Quantification/20 keV/MMM2/SPI MM2 SPI Olivine[7][4].msa
#FORMAT      : EMSA/MAS Spectral Data File
#VERSION     : 1.0
#TITLE       : SPI MM2 SPI Olivine[7][all]
#DATE        : 13-MAR-2025
#TIME        : 09:53
#OWNER       : Unknown
#NPOINTS     : 4096
#NCOLUMNS    : 1
#XUNITS      : eV
#YUNITS      : counts
#DATATYPE    : Y
#XPERCHAN    : 9.99778
#OFFSET      : 1.69135
#BEAMKV      : 20
#SIGNALTYPE  : EDS
#ELEVANGLE   : 35
#AZIMANGLE   : 0
#LIVETIME    : 239.603
#REALTIME    : 255.725
#PROBECUR    : 1.02627
#TAUWIND     : 0
#TDEADLYR    : 0
#TACTLYR     : 0.045
#TALWIND     : 0.025
#CHOFFSET    : 0.0
#XLABEL      : Energy (eV)
#YLABEL      : Counts
#XPOSITION   : -3.1707
#YPOSITION   : -2.0927
#ZPOSITION   : 31.03509
#EDSDET      : SD
##SPECIMEN   : SPI MM2 SPI Olivine[7][all]
##D2STDCMP   : SPI Olivine,(O:43.96),(Mg:30.26),(Si:19.14),(Mn:0.089),(Fe:6.35),(Ni:0.278),5.0
##DET_HASH   : 12273538-fd48-a23f-0a19-f1e6fa85caef
##CALIB_HASH : 6abaa72c-aa41-8738-0be9-f592914732f3
##WORKING    : 15.0 mm
##DET_NAME   : EDAX All
##DET_MODE   : MediumLE
#SPECTRUM    :
20,
30,
13,
8,
75,
277,
854,
2642,
7204,
9873,
5231,
2656,
2799,
3659,
6801,
25106,
102305,
202866,
148301,
39782,
5898,
3027,
4252,
6719,
6933,
4022,
2780,
2844,
3221,
3378,
3024,
3088,
3375,
3756,
4064,
4459,
4698,
5321,
7317,
19064,
77754,
197847,
239676,
133363,
37051,
7511,
3213,
2728,
2874,
3010,
3114,
3175,
3258,
3383,
4279,
10487,
39350,
100401,
137448,
96800,
39588,
13817,
6896,
3757,
2633,
2199,
2206,
2239,
2255,
2239,
2255,
2289,
2337,
2334,
2491,
2642,
2641,
2501,
2395,
2419,
2307,
2351,
2459,
2692,
2699,
2572,
2271,
2347,
2315,
2300,
2263,
2250,
2226,
2261,
2233,
2281,
2312,
2223,
2432,
2568,
2566,
2506,
2363,
2167,
2070,
2143,
2129,
2000,
2059,
2061,
2086,
2087,
1971,
2016,
2023,
2107,
2054,
2053,
2048,
2022,
1994,
1894,
1895,
1871,
1898,
1904,
1832,
1841,
1789,
1804,
1728,
1741,
1730,
1697,
1657,
1696,
1680,
1637,
1618,
1644,
1678,
1672,
1644,
1601,
1571,
1644,
1540,
1553,
1562,
1511,
1548,
1535,
1612,
1475,
1456,
1505,
1509,
1483,
1492,
1440,
1406,
1423,
1425,
1347,
1334,
1405,
1334,
1354,
1361,
1284,
1367,
1303,
1286,
1201,
1197,
1329,
1280,
1202,
1274,
1188,
1189,
1166,
1219,
1163,
1201,
1208,
1198,
1171,
1194,
1092,
1177,
1119,
1121,
1169,
1208,
1252,
1270,
1296,
1161,
1141,
1099,
1129,
1025,
995,
1081,
1048,
1075,
1116,
1305,
2031,
3627,
6554,
9683,
11848,
11385,
8173,
4895,
2610,
1554,
1061,
915,
871,
918,
918,
873,
870,
870,
819,
880,
929,
935,
1115,
1328,
1690,
2016,
2188,
2098,
1695,
1309,
1037,
863,
753,
771,
794,
790,
797,
858,
980,
1074,
1133,
1009,
893,
864,
793,
728,
733,
713,
723,
694,
625,
674,
722,
676,
644,
621,
633,
621,
634,
624,
650,
626,
656,
639,
602,
633,
665,
602,
637,
596,
597,
572,
573,
546,
588,
531,
576,
534,
563,
547,
527,
539,
567,
526,
501,
558,
535,
480,
536,
542,
525,
482,
482,
497,
481,
509,
483,
492,
463,
453,
467,
443,
436,
457,
459,
439,
434,
426,
443,
478,
403,
403,
442,
403,
442,
421,
399,
393,
377,
412,
393,
412,
396,
369,
394,
410,
392,
333,
352,
364,
367,
373,
361,
376,
352,
355,
389,
346,
356,
370,
333,
308,
310,
322,
356,
317,
324,
334,
314,
332,
318,
291,
292,
319,
301,
306,
299,
310,
291,
283,
310,
298,
289,
290,
290,
270,
271,
271,
247,
234,
283,
282,
276,
273,
253,
253,
282,
221,
245,
265,
236,
245,
265,
246,
220,
255,
239,
245,
221,
250,
224,
207,
211,
225,
226,
209,
226,
194,
200,
215,
204,
211,
210,
182,
187,
206,
197,
190,
181,
182,
200,
176,
193,
185,
194,
166,
179,
164,
186,
158,
174,
135,
169,
170,
148,
181,
161,
163,
175,
148,
145,
128,
175,
163,
158,
151,
133,
150,
143,
140,
128,
160,
116,
134,
128,
123,
135,
118,
135,
132,
114,
129,
113,
117,
111,
105,
120,
120,
120,
112,
114,
113,
106,
100,
98,
93,
98,
99,
106,
102,
86,
92,
93,
100,
84,
88,
87,
89,
100,
100,
89,
92,
72,
87,
81,
70,
92,
83,
83,
74,
80,
82,
92,
80,
69,
67,
58,
65,
81,
59,
65,
65,
81,
63,
74,
79,
79,
82,
54,
57,
60,
68,
61,
58,
60,
58,
62,
70,
61,
49,
62,
52,
57,
48,
50,
47,
46,
52,
49,
32,
45,
57,
31,
40,
42,
44,
37,
45,
37,
45,
36,
35,
29,
34,
31,
46,
38,
29,
27,
36,
28,
27,
33,
27,
25,
20,
36,
32,
35,
33,
26,
28,
20,
32,
29,
24,
32,
26,
19,
25,
20,
28,
28,
24,
18,
15,
18,
21,
17,
23,
16,
25,
20,
17,
21,
24,
16,
21,
20,
16,
14,
20,
12,
20,
12,
12,
10,
15,
9,
15,
13,
10,
17,
19,
10,
18,
15,
5,
9,
15,
6,
6,
12,
7,
6,
5,
5,
7,
12,
10,
10,
11,
5,
5,
6,
7,
4,
4,
6,
8,
11,
3,
3,
4,
7,
3,
7,
3,
1,
2,
4,
7,
3,
2,
3,
2,
1,
2,
2,
0,
3,
2,
1,
0,
0,
0,
1,
0,
1,
0,
0,
1,
0,
0,
0,
0,
1,
0,
0,
0,
0,
0,
0,
0,
0,
0,
0,
0,
1,
0,
0,
0,
0,
0,
0,
0,
0,
0,
1,
0,
0,
0,
0,
0,
0,
0,
0,
0,
0,
0,
0,
0,
0,
0,
0,
0,
0,
0,
0,
0,
0,
0,
0,
0,
0,
0,
0,
0,
1,
0,
0,
0,
0,
0,
0,
0,
0,
0,
0,
0,
0,
0,
0,
0,
0,
0,
0,
0,
0,
0,
0,
0,
1,
0,
0,
0,
1,
0,
0,
0,
0,
0,
0,
0,
0,
0,
0,
0,
0,
0,
0,
0,
0,
0,
0,
0,
0,
0,
0,
0,
0,
0,
0,
0,
0,
0,
0,
0,
0,
0,
0,
0,
0,
0,
0,
0,
0,
0,
0,
0,
0,
0,
0,
0,
0,
0,
0,
0,
0,
0,
0,
0,
0,
0,
0,
0,
0,
0,
0,
0,
0,
0,
0,
0,
0,
0,
0,
0,
0,
0,
0,
0,
0,
0,
0,
0,
0,
0,
0,
0,
0,
0,
0,
0,
0,
0,
0,
0,
0,
0,
0,
0,
0,
0,
0,
0,
0,
0,
0,
0,
0,
0,
1,
0,
0,
0,
0,
0,
0,
0,
0,
1,
0,
0,
0,
0,
0,
0,
0,
0,
0,
0,
0,
0,
0,
0,
0,
0,
0,
0,
0,
0,
0,
0,
0,
0,
0,
0,
0,
0,
0,
0,
0,
0,
0,
0,
0,
0,
0,
0,
0,
0,
0,
0,
0,
0,
0,
0,
0,
0,
0,
0,
0,
0,
0,
0,
0,
0,
0,
0,
0,
0,
0,
0,
0,
0,
0,
0,
0,
0,
1,
0,
0,
0,
0,
0,
0,
0,
0,
0,
0,
0,
0,
0,
0,
0,
0,
0,
0,
0,
0,
0,
0,
0,
0,
0,
0,
0,
0,
0,
0,
0,
0,
0,
0,
0,
0,
0,
0,
0,
0,
0,
1,
0,
0,
0,
0,
0,
0,
0,
0,
0,
0,
0,
0,
0,
0,
0,
0,
0,
0,
0,
0,
0,
0,
0,
0,
0,
0,
0,
0,
0,
0,
0,
0,
0,
0,
0,
0,
0,
0,
0,
0,
0,
0,
0,
0,
0,
0,
0,
0,
0,
0,
0,
0,
0,
0,
0,
0,
0,
0,
0,
0,
0,
0,
0,
0,
0,
0,
0,
0,
0,
0,
0,
0,
0,
0,
0,
0,
0,
0,
0,
0,
0,
0,
0,
0,
0,
0,
0,
0,
0,
0,
0,
0,
0,
0,
0,
0,
0,
0,
0,
0,
0,
0,
0,
0,
0,
0,
0,
0,
0,
0,
0,
0,
0,
0,
0,
0,
0,
0,
0,
0,
0,
0,
0,
0,
0,
0,
0,
0,
0,
0,
0,
0,
0,
0,
0,
0,
0,
0,
0,
0,
0,
0,
0,
0,
0,
0,
0,
0,
0,
0,
0,
0,
0,
0,
0,
0,
0,
0,
0,
0,
0,
0,
0,
0,
0,
0,
0,
0,
0,
0,
0,
0,
0,
0,
0,
0,
0,
0,
0,
0,
0,
0,
0,
0,
0,
0,
0,
0,
0,
0,
0,
0,
0,
0,
0,
0,
0,
0,
0,
0,
0,
0,
0,
0,
0,
0,
0,
0,
0,
0,
0,
0,
0,
0,
0,
0,
0,
0,
0,
0,
0,
0,
0,
0,
0,
0,
0,
0,
0,
0,
0,
0,
0,
0,
0,
0,
0,
0,
0,
0,
0,
0,
0,
0,
0,
0,
0,
0,
0,
0,
0,
0,
0,
0,
0,
0,
0,
0,
0,
0,
0,
0,
0,
0,
0,
0,
0,
0,
0,
0,
0,
0,
0,
0,
0,
0,
0,
0,
0,
0,
0,
0,
0,
0,
0,
0,
0,
0,
0,
0,
0,
0,
0,
0,
0,
0,
0,
0,
0,
0,
0,
0,
0,
0,
0,
0,
0,
0,
0,
0,
0,
0,
0,
0,
0,
0,
0,
0,
0,
0,
0,
0,
0,
0,
0,
0,
0,
0,
0,
0,
0,
0,
0,
0,
0,
0,
0,
0,
0,
0,
0,
0,
0,
0,
0,
0,
0,
0,
0,
0,
0,
0,
0,
0,
0,
0,
0,
0,
0,
0,
0,
0,
0,
0,
0,
0,
0,
0,
0,
0,
0,
0,
0,
0,
0,
0,
0,
0,
0,
0,
0,
0,
0,
0,
#ENDOFDATA   :