File: N132962/Quantification/20 keV/MMM2/SPI MM2 SPI Pentlandite[0][4].msa
#FORMAT      : EMSA/MAS Spectral Data File
#VERSION     : 1.0
#TITLE       : SPI MM2 SPI Pentlandite[0][all]
#DATE        : 13-MAR-2025
#TIME        : 10:32
#OWNER       : Unknown
#NPOINTS     : 4096
#NCOLUMNS    : 1
#XUNITS      : eV
#YUNITS      : counts
#DATATYPE    : Y
#XPERCHAN    : 9.99778
#OFFSET      : 1.69135
#BEAMKV      : 20
#SIGNALTYPE  : EDS
#ELEVANGLE   : 35
#AZIMANGLE   : 0
#LIVETIME    : 240
#REALTIME    : 260.324
#PROBECUR    : 1.02606
#TAUWIND     : 0
#TDEADLYR    : 0
#TACTLYR     : 0.045
#TALWIND     : 0.025
#CHOFFSET    : 0.0
#XLABEL      : Energy (eV)
#YLABEL      : Counts
#XPOSITION   : 3.92101
#YPOSITION   : -0.32118
#ZPOSITION   : 31.0351
#EDSDET      : SD
##SPECIMEN   : SPI MM2 SPI Pentlandite[0][all]
##D2STDCMP   : SPI Pentlandite,(S:32.89),(Fe:30.88),(Co:0.43),(Ni:35.61)
##DET_HASH   : 12273538-fd48-a23f-0a19-f1e6fa85caef
##CALIB_HASH : 6abaa72c-aa41-8738-0be9-f592914732f3
##WORKING    : 15.0 mm
##DET_NAME   : EDAX All
##DET_MODE   : MediumLE
#SPECTRUM    :
27,
19,
11,
25,
205,
575,
1210,
3493,
10263,
13335,
6818,
2839,
2648,
3006,
3288,
3986,
5294,
7261,
10965,
14813,
18639,
18729,
28435,
47674,
43982,
23687,
17551,
35330,
63545,
53269,
21029,
6552,
3835,
3372,
3173,
3196,
3304,
3444,
3557,
3767,
3813,
3852,
4245,
4214,
4337,
4546,
4524,
4721,
5012,
5021,
5164,
5275,
5130,
5135,
5156,
5299,
5572,
6017,
6289,
6278,
5916,
5606,
5356,
5258,
5345,
5405,
5499,
5661,
5679,
5777,
5767,
6341,
8079,
13772,
31784,
86300,
175746,
219275,
160433,
70155,
25537,
18199,
20456,
17016,
10554,
5745,
4224,
3891,
3855,
3873,
3717,
3819,
3904,
3790,
3875,
3800,
3758,
3872,
3720,
3963,
3890,
3866,
3798,
3909,
3874,
3913,
3921,
3813,
3660,
3704,
3687,
3633,
3634,
3681,
3750,
3573,
3540,
3589,
3470,
3505,
3491,
3541,
3521,
3387,
3467,
3549,
3450,
3368,
3345,
3373,
3382,
3391,
3290,
3327,
3285,
3279,
3218,
3255,
3257,
3094,
3127,
3277,
3045,
3110,
3076,
3081,
3086,
3123,
3040,
2988,
3137,
3171,
3235,
3271,
3405,
3301,
3360,
2972,
3059,
2915,
2862,
2913,
2938,
2939,
2907,
2723,
2720,
2664,
2677,
2717,
2637,
2638,
2662,
2756,
2692,
2611,
2563,
2607,
2524,
2627,
2573,
2483,
2556,
2570,
2508,
2510,
2454,
2450,
2428,
2445,
2403,
2518,
2389,
2355,
2387,
2341,
2212,
2333,
2244,
2175,
2196,
2301,
2280,
2330,
2270,
2405,
2305,
2761,
3891,
7844,
17140,
33731,
52816,
64681,
60859,
44103,
25005,
11753,
5188,
2790,
2172,
2075,
2129,
2003,
1946,
1948,
2057,
2105,
2407,
2614,
3114,
3958,
5237,
7135,
9287,
9912,
9067,
6989,
4660,
3085,
2242,
1955,
1944,
2538,
4294,
9029,
17818,
30578,
43181,
48361,
42647,
30132,
17555,
8583,
4041,
2311,
1816,
1602,
1533,
1460,
1531,
1486,
1463,
1458,
1508,
1409,
1427,
1421,
1491,
1658,
1742,
2252,
3319,
4777,
6459,
7352,
7008,
5567,
4114,
2745,
1892,
1403,
1180,
1108,
1172,
1198,
1120,
1202,
1159,
1227,
1209,
1253,
1239,
1141,
1149,
1118,
1057,
1057,
1112,
1086,
1043,
1067,
1078,
1055,
987,
995,
1004,
1032,
1100,
1001,
992,
1107,
992,
1022,
991,
978,
943,
953,
937,
922,
974,
1015,
928,
1016,
986,
1047,
1049,
985,
1022,
962,
912,
898,
933,
888,
878,
903,
880,
862,
874,
774,
798,
878,
857,
827,
824,
808,
800,
749,
822,
793,
814,
777,
806,
768,
773,
779,
756,
738,
787,
772,
756,
773,
707,
703,
670,
707,
697,
686,
668,
658,
701,
643,
660,
618,
637,
669,
682,
647,
630,
635,
650,
635,
581,
641,
569,
549,
632,
591,
561,
609,
542,
596,
563,
557,
566,
617,
578,
565,
582,
553,
554,
539,
536,
545,
493,
500,
518,
505,
507,
505,
496,
459,
477,
487,
444,
502,
466,
477,
488,
457,
484,
422,
452,
466,
447,
425,
495,
399,
421,
452,
437,
418,
405,
390,
402,
387,
401,
374,
378,
413,
389,
392,
358,
376,
373,
377,
333,
388,
371,
371,
350,
371,
319,
325,
301,
298,
287,
352,
288,
320,
331,
360,
357,
329,
330,
313,
315,
277,
279,
279,
263,
290,
280,
280,
265,
269,
279,
240,
250,
266,
258,
248,
249,
244,
237,
230,
268,
249,
248,
252,
238,
232,
217,
216,
218,
214,
219,
230,
208,
193,
200,
224,
189,
207,
206,
207,
188,
193,
185,
180,
169,
198,
188,
175,
167,
166,
178,
151,
161,
168,
165,
149,
135,
155,
166,
166,
163,
143,
172,
121,
143,
141,
141,
132,
133,
136,
110,
129,
146,
107,
118,
115,
103,
129,
116,
96,
106,
106,
110,
109,
97,
99,
112,
96,
103,
106,
112,
93,
101,
85,
76,
83,
72,
89,
106,
86,
86,
74,
70,
80,
77,
79,
71,
81,
85,
62,
67,
76,
79,
70,
80,
80,
75,
71,
64,
73,
60,
60,
51,
63,
56,
62,
58,
63,
57,
45,
59,
57,
56,
62,
51,
40,
37,
49,
47,
37,
38,
40,
39,
33,
42,
39,
33,
20,
27,
44,
31,
31,
35,
24,
34,
27,
31,
30,
27,
21,
31,
21,
26,
22,
29,
23,
23,
18,
20,
18,
15,
20,
19,
20,
18,
18,
16,
12,
13,
10,
9,
12,
16,
8,
9,
7,
14,
7,
13,
7,
10,
6,
4,
4,
5,
5,
3,
5,
4,
0,
2,
2,
1,
6,
2,
0,
2,
1,
4,
2,
0,
1,
0,
1,
1,
0,
4,
2,
2,
0,
1,
1,
0,
2,
4,
2,
1,
2,
2,
3,
0,
2,
0,
1,
3,
1,
0,
3,
0,
0,
4,
0,
1,
1,
5,
0,
1,
0,
2,
0,
1,
0,
1,
3,
0,
0,
0,
0,
0,
1,
1,
1,
0,
0,
0,
0,
1,
1,
3,
1,
0,
1,
1,
0,
0,
0,
2,
1,
2,
1,
0,
0,
0,
1,
0,
0,
1,
2,
1,
2,
0,
1,
0,
2,
0,
1,
0,
0,
1,
1,
0,
0,
1,
0,
1,
0,
0,
0,
0,
1,
0,
0,
1,
1,
0,
2,
0,
0,
0,
0,
0,
2,
0,
0,
1,
0,
0,
0,
0,
1,
0,
0,
0,
0,
0,
0,
0,
0,
0,
1,
0,
0,
0,
0,
0,
0,
0,
0,
0,
0,
1,
0,
0,
0,
0,
1,
0,
1,
0,
0,
0,
0,
1,
0,
1,
0,
0,
0,
0,
0,
1,
0,
0,
0,
0,
1,
0,
1,
1,
0,
0,
0,
1,
0,
0,
0,
0,
0,
1,
0,
1,
0,
0,
0,
0,
0,
0,
0,
0,
0,
0,
0,
0,
0,
0,
1,
0,
0,
0,
0,
0,
1,
0,
0,
0,
0,
0,
0,
0,
0,
0,
0,
0,
0,
0,
1,
0,
0,
0,
0,
0,
0,
0,
1,
0,
0,
0,
0,
0,
0,
0,
0,
0,
0,
0,
0,
0,
0,
0,
0,
0,
0,
0,
0,
0,
0,
0,
0,
0,
0,
2,
0,
0,
1,
0,
0,
0,
0,
0,
0,
0,
0,
0,
0,
0,
0,
0,
0,
0,
0,
0,
0,
0,
0,
0,
0,
0,
0,
0,
0,
0,
0,
0,
0,
0,
0,
0,
0,
0,
0,
0,
0,
0,
0,
0,
0,
0,
0,
0,
0,
0,
0,
0,
0,
0,
0,
0,
0,
0,
0,
0,
0,
0,
0,
0,
0,
0,
0,
0,
0,
0,
0,
0,
1,
0,
0,
0,
0,
0,
0,
0,
0,
0,
0,
0,
0,
0,
0,
0,
0,
0,
0,
0,
0,
0,
0,
0,
0,
0,
0,
0,
0,
0,
0,
0,
0,
0,
0,
0,
0,
0,
0,
0,
0,
0,
0,
0,
0,
0,
0,
0,
0,
0,
0,
0,
0,
0,
0,
0,
0,
0,
0,
0,
0,
0,
0,
0,
0,
0,
0,
0,
0,
0,
0,
0,
0,
0,
0,
0,
0,
0,
0,
0,
0,
0,
0,
0,
0,
0,
0,
0,
0,
0,
0,
0,
0,
0,
0,
0,
0,
0,
0,
0,
0,
0,
0,
0,
0,
0,
0,
0,
0,
0,
0,
0,
0,
0,
0,
0,
0,
0,
0,
0,
0,
0,
0,
0,
0,
0,
0,
0,
0,
0,
0,
0,
0,
0,
0,
0,
0,
0,
0,
0,
0,
0,
0,
0,
0,
0,
0,
0,
0,
0,
0,
0,
0,
0,
0,
0,
0,
0,
0,
0,
0,
0,
0,
0,
0,
0,
0,
0,
0,
0,
0,
0,
0,
0,
0,
0,
0,
0,
0,
0,
0,
0,
0,
0,
0,
0,
0,
0,
0,
0,
0,
0,
0,
0,
0,
0,
0,
0,
0,
0,
0,
0,
0,
0,
0,
0,
0,
0,
0,
0,
0,
0,
0,
0,
0,
0,
0,
0,
0,
0,
0,
0,
0,
0,
0,
0,
0,
0,
0,
0,
0,
0,
0,
0,
0,
0,
0,
0,
0,
0,
0,
0,
0,
0,
0,
0,
0,
0,
0,
0,
0,
0,
0,
0,
0,
0,
0,
0,
0,
0,
0,
0,
0,
0,
0,
0,
0,
0,
0,
0,
0,
0,
0,
0,
0,
0,
0,
0,
0,
0,
0,
0,
0,
0,
0,
0,
0,
0,
0,
0,
0,
0,
0,
0,
0,
0,
0,
0,
0,
0,
0,
0,
0,
0,
0,
0,
0,
0,
0,
0,
0,
0,
0,
0,
0,
0,
0,
0,
0,
0,
0,
0,
0,
0,
0,
0,
0,
0,
0,
0,
0,
0,
0,
0,
0,
0,
0,
0,
0,
0,
0,
0,
0,
0,
0,
0,
0,
0,
0,
0,
0,
0,
0,
0,
0,
0,
0,
0,
0,
0,
0,
0,
0,
0,
0,
0,
0,
#ENDOFDATA   :