File: N132962/Quantification/20 keV/MMM2/SPI MM2 Zircon[0][4].msa
#FORMAT      : EMSA/MAS Spectral Data File
#VERSION     : 1.0
#TITLE       : SPI MM2 Zircon[0][all]
#DATE        : 13-MAR-2025
#TIME        : 13:44
#OWNER       : Unknown
#NPOINTS     : 4096
#NCOLUMNS    : 1
#XUNITS      : eV
#YUNITS      : counts
#DATATYPE    : Y
#XPERCHAN    : 9.99778
#OFFSET      : 1.69135
#BEAMKV      : 20
#SIGNALTYPE  : EDS
#ELEVANGLE   : 35
#AZIMANGLE   : 0
#LIVETIME    : 239.703
#REALTIME    : 257.331
#PROBECUR    : 1.0264
#TAUWIND     : 0
#TDEADLYR    : 0
#TACTLYR     : 0.045
#TALWIND     : 0.025
#CHOFFSET    : 0.0
#XLABEL      : Energy (eV)
#YLABEL      : Counts
#XPOSITION   : -2.66678
#YPOSITION   : 6.6799
#ZPOSITION   : 31.03511
#EDSDET      : SD
##SPECIMEN   : SPI MM2 Zircon[0][all]
##DET_HASH   : 12273538-fd48-a23f-0a19-f1e6fa85caef
##CALIB_HASH : 6abaa72c-aa41-8738-0be9-f592914732f3
##WORKING    : 15.0 mm
##DET_NAME   : EDAX All
##DET_MODE   : MediumLE
#SPECTRUM    :
32,
28,
11,
50,
313,
898,
1556,
3878,
11011,
15604,
10597,
4773,
3783,
4166,
4437,
11081,
37878,
72442,
53827,
15429,
3717,
2754,
2941,
3371,
3603,
3570,
3581,
3941,
4363,
4495,
4481,
4440,
4646,
4930,
5146,
5265,
5319,
5561,
5847,
5888,
6075,
6258,
6716,
6555,
6803,
6673,
6903,
7162,
7443,
7504,
8016,
7736,
8061,
8334,
10465,
18524,
51164,
121177,
163249,
120872,
56987,
25241,
14758,
11109,
11804,
21055,
51403,
110172,
153727,
137613,
102551,
79413,
54129,
30940,
17593,
10299,
6330,
4645,
3781,
3426,
3400,
3342,
3703,
4061,
4136,
3793,
3418,
3258,
3127,
3142,
3030,
3147,
3090,
3115,
3102,
3018,
3095,
3251,
3277,
3121,
3209,
3154,
3192,
3163,
3175,
3257,
3101,
3213,
3080,
3159,
3096,
3144,
3005,
3102,
3216,
3296,
3225,
3217,
3275,
3052,
3020,
3120,
3145,
3257,
3158,
3293,
3220,
3377,
3282,
3225,
3096,
3097,
3022,
2907,
3058,
3108,
3139,
3073,
3023,
3027,
2942,
2954,
2942,
2771,
2888,
2740,
2823,
2775,
2741,
2758,
2646,
2712,
2619,
2660,
2681,
2586,
2540,
2612,
2571,
2529,
2426,
2537,
2552,
2533,
2513,
2347,
2446,
2514,
2394,
2450,
2456,
2343,
2383,
2359,
2359,
2328,
2370,
2412,
2360,
2321,
2313,
2356,
2290,
2246,
2279,
2229,
2288,
2149,
2211,
2153,
2216,
2157,
2164,
2141,
2150,
2131,
2042,
2090,
2162,
2117,
2035,
2009,
2067,
2029,
1978,
2005,
1959,
1945,
1999,
1924,
2012,
2072,
2145,
2255,
2198,
2087,
1941,
1979,
1905,
1874,
1814,
1751,
1758,
1754,
1770,
1753,
1814,
1774,
1714,
1762,
1740,
1681,
1706,
1723,
1656,
1694,
1716,
1781,
1584,
1609,
1591,
1578,
1626,
1530,
1594,
1544,
1579,
1651,
1681,
1575,
1619,
1567,
1545,
1458,
1469,
1514,
1434,
1428,
1469,
1430,
1515,
1697,
1685,
1701,
1694,
1530,
1553,
1391,
1380,
1320,
1306,
1218,
1337,
1315,
1332,
1310,
1245,
1316,
1262,
1250,
1240,
1215,
1241,
1289,
1227,
1260,
1180,
1183,
1159,
1152,
1176,
1147,
1150,
1105,
1109,
1189,
1185,
1130,
1203,
1130,
1325,
1166,
1143,
1087,
1100,
1099,
1071,
1089,
1109,
1030,
1146,
1093,
1035,
1042,
1034,
1033,
976,
1011,
959,
984,
980,
1010,
947,
930,
963,
945,
914,
996,
847,
881,
924,
887,
911,
875,
886,
875,
900,
873,
827,
844,
864,
848,
886,
812,
848,
806,
796,
754,
797,
843,
842,
825,
783,
739,
775,
745,
732,
742,
718,
718,
720,
754,
727,
689,
712,
685,
695,
697,
702,
739,
638,
679,
688,
654,
677,
663,
683,
620,
649,
633,
621,
580,
580,
585,
588,
591,
671,
567,
589,
574,
601,
554,
541,
545,
537,
581,
584,
578,
515,
531,
487,
492,
505,
523,
483,
492,
512,
507,
464,
479,
490,
510,
466,
431,
453,
491,
461,
454,
472,
436,
413,
422,
457,
421,
409,
448,
399,
392,
423,
413,
380,
388,
394,
384,
422,
413,
364,
335,
366,
408,
366,
353,
321,
373,
342,
354,
343,
352,
328,
335,
313,
378,
322,
325,
325,
288,
308,
326,
275,
283,
288,
301,
297,
323,
282,
309,
290,
302,
265,
244,
304,
264,
263,
297,
266,
269,
243,
284,
245,
223,
241,
264,
245,
257,
238,
215,
242,
228,
213,
200,
225,
222,
205,
209,
203,
240,
188,
209,
192,
188,
183,
216,
191,
206,
160,
162,
170,
176,
183,
193,
169,
144,
167,
184,
143,
164,
167,
209,
229,
265,
258,
390,
446,
523,
563,
529,
477,
433,
341,
229,
206,
162,
178,
128,
152,
126,
130,
117,
122,
134,
118,
108,
112,
114,
123,
115,
117,
108,
104,
106,
101,
112,
81,
107,
108,
108,
84,
92,
94,
82,
95,
84,
71,
87,
90,
80,
89,
69,
82,
84,
71,
66,
69,
69,
82,
67,
64,
56,
66,
71,
57,
79,
67,
81,
89,
84,
85,
111,
98,
127,
123,
106,
83,
55,
59,
46,
53,
50,
47,
53,
59,
55,
46,
48,
27,
41,
43,
33,
36,
45,
32,
28,
24,
36,
22,
15,
33,
29,
28,
25,
20,
22,
24,
28,
32,
25,
27,
22,
18,
14,
30,
19,
15,
17,
23,
14,
25,
15,
18,
20,
8,
15,
11,
9,
13,
8,
13,
13,
6,
9,
6,
15,
12,
11,
6,
6,
3,
12,
8,
4,
7,
5,
3,
5,
0,
2,
1,
1,
0,
0,
0,
1,
1,
0,
0,
0,
0,
2,
0,
0,
1,
1,
0,
0,
0,
0,
0,
0,
2,
2,
3,
1,
0,
1,
0,
1,
2,
0,
1,
0,
1,
0,
1,
1,
0,
0,
0,
2,
0,
1,
1,
0,
1,
1,
1,
0,
0,
0,
0,
0,
0,
0,
0,
1,
1,
0,
1,
1,
0,
0,
1,
0,
0,
0,
0,
0,
1,
0,
0,
0,
0,
0,
0,
0,
0,
0,
0,
0,
1,
0,
0,
0,
0,
1,
0,
1,
0,
0,
0,
1,
0,
0,
0,
0,
0,
0,
0,
1,
0,
0,
0,
1,
0,
1,
0,
0,
0,
0,
0,
1,
0,
1,
0,
0,
1,
0,
0,
0,
0,
0,
0,
0,
0,
0,
0,
0,
0,
0,
0,
0,
1,
0,
0,
0,
0,
0,
0,
0,
0,
0,
0,
0,
0,
1,
0,
0,
0,
0,
1,
1,
2,
0,
0,
0,
0,
0,
0,
0,
0,
0,
0,
0,
2,
0,
0,
0,
0,
1,
0,
1,
0,
0,
0,
1,
0,
0,
0,
0,
0,
0,
0,
0,
0,
0,
0,
1,
0,
1,
0,
0,
0,
0,
1,
0,
0,
0,
0,
0,
0,
0,
0,
0,
0,
0,
1,
0,
1,
0,
0,
1,
0,
0,
1,
0,
0,
0,
0,
0,
0,
0,
0,
0,
0,
0,
0,
0,
0,
0,
0,
1,
0,
0,
0,
0,
0,
0,
0,
0,
0,
0,
0,
0,
0,
0,
0,
0,
0,
0,
0,
1,
0,
0,
0,
0,
0,
0,
0,
0,
0,
0,
0,
0,
0,
0,
0,
0,
0,
0,
0,
0,
0,
0,
0,
0,
0,
0,
0,
0,
0,
0,
0,
0,
0,
0,
0,
0,
1,
0,
0,
0,
0,
0,
0,
0,
0,
0,
0,
0,
0,
0,
0,
0,
0,
0,
0,
0,
0,
0,
0,
0,
0,
0,
0,
0,
0,
0,
0,
0,
0,
1,
0,
1,
0,
0,
0,
0,
0,
0,
0,
0,
0,
0,
0,
0,
0,
0,
0,
0,
0,
0,
0,
0,
0,
0,
0,
0,
0,
0,
0,
0,
0,
1,
0,
0,
0,
1,
0,
0,
0,
0,
0,
0,
0,
0,
0,
0,
0,
0,
0,
0,
0,
0,
0,
0,
0,
0,
0,
0,
0,
0,
0,
0,
0,
0,
0,
0,
0,
0,
0,
0,
0,
0,
0,
0,
0,
0,
0,
0,
0,
0,
0,
0,
0,
0,
0,
0,
0,
0,
0,
0,
0,
0,
0,
0,
0,
0,
0,
0,
0,
0,
0,
0,
0,
0,
0,
0,
0,
0,
0,
0,
0,
0,
0,
0,
0,
0,
0,
0,
0,
0,
0,
0,
0,
0,
0,
0,
0,
0,
0,
0,
0,
0,
0,
0,
0,
0,
0,
0,
0,
0,
0,
0,
0,
0,
0,
0,
0,
0,
0,
0,
0,
0,
0,
0,
0,
0,
0,
0,
0,
0,
0,
0,
0,
0,
0,
0,
0,
0,
0,
0,
0,
0,
0,
0,
0,
0,
0,
0,
0,
0,
0,
0,
0,
0,
0,
0,
0,
0,
0,
0,
0,
0,
0,
0,
0,
0,
0,
0,
0,
0,
0,
0,
0,
0,
0,
0,
0,
0,
0,
0,
0,
0,
0,
0,
0,
0,
0,
0,
0,
0,
0,
0,
0,
0,
0,
0,
0,
0,
0,
0,
0,
0,
0,
0,
0,
0,
0,
0,
0,
0,
0,
0,
0,
0,
0,
0,
0,
0,
0,
0,
0,
0,
0,
0,
0,
0,
0,
0,
0,
0,
0,
0,
0,
0,
0,
0,
0,
0,
0,
0,
0,
0,
0,
0,
0,
0,
0,
0,
0,
0,
0,
0,
0,
0,
0,
0,
0,
0,
0,
0,
0,
0,
0,
0,
0,
0,
0,
0,
0,
0,
0,
0,
0,
0,
0,
0,
0,
0,
0,
0,
0,
0,
0,
0,
0,
0,
0,
0,
0,
0,
0,
0,
0,
0,
0,
0,
0,
0,
0,
0,
0,
0,
0,
0,
0,
0,
0,
0,
0,
0,
0,
0,
0,
0,
0,
0,
0,
0,
0,
0,
0,
0,
0,
0,
0,
0,
0,
0,
0,
0,
0,
0,
0,
0,
0,
0,
0,
0,
0,
0,
0,
0,
0,
0,
0,
0,
#ENDOFDATA   :