File: N132962/Quantification/20 keV/MMM2/SPI MM2 Pyrope[6][4].msa
#FORMAT      : EMSA/MAS Spectral Data File
#VERSION     : 1.0
#TITLE       : SPI MM2 Pyrope[6][all]
#DATE        : 13-MAR-2025
#TIME        : 12:46
#OWNER       : Unknown
#NPOINTS     : 4096
#NCOLUMNS    : 1
#XUNITS      : eV
#YUNITS      : counts
#DATATYPE    : Y
#XPERCHAN    : 9.99778
#OFFSET      : 1.69135
#BEAMKV      : 20
#SIGNALTYPE  : EDS
#ELEVANGLE   : 35
#AZIMANGLE   : 0
#LIVETIME    : 239.94
#REALTIME    : 255.2137
#PROBECUR    : 1.02627
#TAUWIND     : 0
#TDEADLYR    : 0
#TACTLYR     : 0.045
#TALWIND     : 0.025
#CHOFFSET    : 0.0
#XLABEL      : Energy (eV)
#YLABEL      : Counts
#XPOSITION   : 4.62814
#YPOSITION   : 1.51574
#ZPOSITION   : 31.03511
#EDSDET      : SD
##SPECIMEN   : SPI MM2 Pyrope[6][all]
##D2STDCMP   : Pyrope,(O:47.6258),(Mg:18.0873),(Al:13.3861),(Si:20.9007),5.0
##DET_HASH   : 12273538-fd48-a23f-0a19-f1e6fa85caef
##CALIB_HASH : 6abaa72c-aa41-8738-0be9-f592914732f3
##WORKING    : 15.0 mm
##DET_NAME   : EDAX All
##DET_MODE   : MediumLE
#SPECTRUM    :
26,
33,
6,
13,
68,
302,
842,
2766,
8081,
10771,
5614,
2940,
2703,
3486,
6049,
22283,
89746,
175901,
129152,
34048,
5426,
3079,
4040,
6838,
6899,
4090,
2668,
2449,
2639,
2695,
2599,
2820,
3027,
3383,
3799,
4028,
4110,
4275,
4992,
9323,
32369,
78338,
95063,
53801,
16815,
6094,
5413,
12472,
39285,
79666,
80957,
42620,
14908,
6151,
5010,
11043,
41434,
104370,
142045,
100300,
41058,
14653,
7196,
3990,
2843,
2646,
2729,
2625,
2480,
2458,
2400,
2388,
2419,
2514,
2706,
2721,
2774,
2638,
2491,
2396,
2489,
2461,
2534,
2400,
2434,
2488,
2405,
2434,
2403,
2413,
2414,
2429,
2465,
2438,
2350,
2384,
2290,
2400,
2368,
2459,
2495,
2386,
2369,
2280,
2340,
2314,
2321,
2313,
2354,
2222,
2250,
2090,
2158,
2117,
2154,
2178,
2282,
2205,
2155,
2644,
4073,
7841,
12702,
15829,
13484,
8256,
4361,
2478,
1984,
1915,
1983,
2209,
2706,
3382,
3496,
3145,
2467,
2088,
1826,
1737,
1777,
1702,
1652,
1695,
1623,
1656,
1659,
1765,
2016,
2368,
2600,
2442,
2229,
1809,
1693,
1636,
1573,
1477,
1427,
1490,
1489,
1491,
1530,
1545,
1598,
1706,
1559,
1513,
1469,
1377,
1316,
1399,
1353,
1340,
1363,
1365,
1360,
1697,
2107,
2712,
3154,
3214,
2656,
1914,
1554,
1316,
1230,
1192,
1162,
1204,
1167,
1109,
1172,
1282,
1321,
1594,
1835,
1883,
1706,
1583,
1392,
1158,
1158,
1065,
1076,
1072,
1145,
1163,
1413,
2082,
3990,
7140,
10976,
13107,
12350,
8995,
5363,
2848,
1575,
1160,
1001,
998,
958,
914,
905,
878,
901,
888,
926,
940,
981,
1138,
1334,
1871,
2259,
2362,
2180,
1748,
1280,
1044,
868,
842,
807,
789,
777,
782,
790,
784,
818,
813,
797,
817,
782,
742,
722,
759,
705,
740,
664,
705,
682,
678,
642,
716,
689,
641,
695,
713,
697,
659,
629,
676,
641,
687,
663,
627,
649,
626,
638,
580,
578,
597,
565,
584,
533,
633,
589,
580,
580,
567,
579,
575,
565,
542,
535,
515,
504,
577,
530,
506,
511,
501,
506,
540,
524,
489,
488,
486,
502,
468,
501,
477,
468,
456,
468,
474,
490,
528,
472,
461,
423,
459,
417,
470,
442,
434,
448,
453,
426,
390,
388,
423,
395,
408,
394,
400,
383,
440,
390,
384,
398,
378,
393,
356,
387,
352,
375,
328,
360,
380,
359,
354,
340,
377,
324,
354,
368,
329,
332,
350,
315,
378,
338,
316,
310,
303,
307,
293,
297,
287,
279,
316,
307,
304,
316,
264,
288,
297,
272,
298,
270,
285,
263,
264,
279,
273,
271,
268,
255,
271,
271,
264,
258,
265,
261,
219,
226,
238,
214,
231,
230,
233,
217,
210,
221,
216,
215,
240,
220,
218,
223,
215,
223,
205,
236,
188,
183,
198,
205,
185,
208,
184,
185,
207,
201,
189,
199,
215,
185,
204,
175,
176,
175,
183,
163,
181,
171,
148,
161,
168,
151,
135,
157,
164,
142,
126,
133,
144,
159,
157,
132,
149,
139,
129,
144,
109,
134,
153,
108,
135,
134,
146,
121,
109,
106,
128,
132,
111,
127,
119,
121,
132,
104,
119,
122,
124,
114,
119,
89,
115,
105,
103,
91,
127,
92,
86,
95,
101,
98,
101,
82,
86,
89,
65,
91,
69,
82,
98,
97,
65,
82,
73,
74,
68,
71,
79,
88,
77,
79,
78,
57,
69,
69,
70,
69,
83,
64,
66,
68,
71,
56,
47,
41,
58,
45,
65,
57,
63,
48,
55,
43,
49,
54,
50,
54,
45,
51,
39,
51,
42,
38,
42,
60,
53,
52,
33,
49,
36,
51,
47,
37,
31,
32,
44,
46,
38,
40,
30,
36,
41,
33,
26,
39,
40,
27,
32,
21,
31,
37,
34,
18,
29,
34,
26,
25,
26,
29,
20,
22,
30,
25,
26,
28,
28,
10,
24,
23,
22,
19,
22,
28,
12,
15,
24,
11,
24,
17,
13,
7,
19,
15,
20,
17,
15,
16,
10,
12,
14,
7,
20,
10,
11,
13,
14,
5,
13,
10,
9,
11,
8,
9,
9,
9,
12,
10,
13,
6,
6,
12,
7,
10,
5,
6,
9,
7,
7,
3,
5,
2,
4,
13,
8,
9,
5,
3,
8,
2,
1,
2,
1,
0,
1,
4,
3,
2,
0,
2,
2,
2,
2,
1,
3,
0,
0,
0,
0,
0,
1,
0,
0,
1,
0,
0,
0,
0,
0,
0,
1,
1,
0,
0,
0,
1,
0,
2,
0,
0,
0,
0,
0,
1,
0,
0,
0,
0,
0,
1,
0,
0,
0,
0,
1,
0,
0,
0,
0,
0,
0,
0,
0,
1,
0,
0,
1,
0,
0,
0,
0,
0,
0,
0,
0,
0,
2,
0,
0,
0,
0,
0,
0,
0,
0,
0,
0,
0,
0,
0,
0,
0,
0,
0,
0,
0,
0,
0,
0,
0,
0,
1,
0,
0,
0,
0,
0,
0,
0,
0,
0,
0,
0,
0,
0,
0,
0,
0,
0,
0,
0,
0,
0,
0,
0,
0,
0,
0,
0,
1,
0,
0,
1,
0,
0,
0,
1,
0,
0,
0,
0,
0,
0,
0,
1,
0,
0,
0,
0,
0,
0,
0,
0,
0,
0,
0,
0,
0,
0,
0,
0,
0,
0,
0,
0,
0,
0,
0,
0,
0,
0,
0,
0,
0,
0,
0,
0,
0,
0,
0,
0,
0,
0,
0,
0,
0,
0,
0,
0,
0,
0,
0,
1,
0,
0,
0,
0,
0,
0,
0,
0,
0,
0,
0,
0,
0,
0,
0,
0,
0,
0,
0,
0,
0,
0,
0,
0,
0,
0,
0,
0,
0,
0,
0,
0,
0,
0,
0,
0,
0,
0,
0,
0,
0,
0,
0,
0,
0,
0,
0,
0,
0,
0,
0,
0,
0,
0,
0,
0,
0,
0,
0,
0,
0,
0,
0,
0,
0,
0,
0,
0,
0,
0,
0,
0,
0,
0,
0,
0,
0,
0,
0,
0,
0,
0,
0,
0,
0,
0,
0,
0,
0,
0,
0,
0,
0,
0,
0,
0,
0,
0,
0,
0,
0,
0,
0,
0,
0,
0,
0,
0,
0,
0,
0,
0,
0,
0,
0,
0,
0,
0,
0,
0,
0,
0,
0,
0,
0,
0,
0,
0,
0,
0,
0,
0,
0,
0,
0,
0,
0,
0,
0,
0,
0,
0,
0,
0,
0,
0,
0,
0,
0,
0,
0,
0,
0,
0,
0,
0,
0,
0,
0,
0,
0,
0,
0,
0,
0,
0,
0,
0,
0,
0,
0,
0,
0,
0,
0,
0,
0,
0,
0,
0,
0,
0,
0,
0,
0,
0,
0,
0,
0,
0,
0,
0,
0,
0,
0,
0,
0,
0,
0,
0,
0,
0,
0,
0,
0,
0,
0,
0,
0,
0,
0,
0,
0,
0,
0,
0,
0,
0,
0,
0,
0,
0,
0,
0,
0,
0,
0,
0,
0,
0,
0,
0,
0,
0,
0,
0,
0,
0,
0,
0,
0,
0,
0,
0,
0,
0,
0,
0,
0,
0,
0,
0,
0,
0,
0,
0,
0,
0,
0,
0,
0,
0,
0,
0,
0,
0,
0,
0,
0,
0,
0,
0,
0,
0,
0,
0,
0,
0,
0,
0,
0,
0,
0,
0,
0,
0,
0,
0,
0,
0,
0,
0,
0,
0,
0,
0,
0,
0,
0,
0,
0,
0,
0,
0,
0,
0,
0,
0,
0,
0,
0,
0,
0,
0,
0,
0,
0,
0,
0,
0,
0,
0,
0,
0,
0,
0,
0,
0,
0,
0,
0,
0,
0,
0,
0,
0,
0,
0,
0,
0,
0,
0,
0,
0,
0,
0,
0,
0,
0,
0,
0,
0,
0,
0,
0,
0,
0,
0,
0,
0,
0,
0,
0,
0,
0,
0,
0,
0,
0,
0,
0,
0,
0,
0,
0,
0,
0,
0,
0,
0,
0,
0,
0,
0,
0,
0,
0,
0,
0,
0,
0,
0,
0,
0,
0,
0,
0,
0,
0,
0,
0,
0,
0,
0,
0,
0,
0,
0,
0,
0,
0,
0,
0,
0,
0,
0,
0,
0,
0,
0,
0,
0,
0,
0,
0,
0,
0,
0,
0,
0,
0,
0,
0,
0,
0,
0,
0,
0,
0,
0,
0,
0,
0,
0,
0,
0,
0,
0,
0,
0,
0,
0,
0,
0,
0,
0,
0,
0,
0,
0,
0,
0,
0,
0,
0,
0,
0,
0,
0,
0,
0,
0,
0,
0,
0,
0,
0,
0,
0,
0,
0,
0,
0,
0,
0,
0,
0,
0,
0,
0,
0,
0,
0,
0,
0,
0,
0,
0,
0,
0,
0,
0,
0,
0,
0,
0,
0,
0,
0,
0,
0,
0,
0,
0,
0,
0,
0,
0,
0,
0,
0,
0,
0,
0,
0,
0,
#ENDOFDATA   :