File: N132962/Quantification/20 keV/MMM2/SPI MM2 Rhodonite[2][4].msa
#FORMAT      : EMSA/MAS Spectral Data File
#VERSION     : 1.0
#TITLE       : SPI MM2 Rhodonite[2][all]
#DATE        : 13-MAR-2025
#TIME        : 12:23
#OWNER       : Unknown
#NPOINTS     : 4096
#NCOLUMNS    : 1
#XUNITS      : eV
#YUNITS      : counts
#DATATYPE    : Y
#XPERCHAN    : 9.99778
#OFFSET      : 1.69135
#BEAMKV      : 20
#SIGNALTYPE  : EDS
#ELEVANGLE   : 35
#AZIMANGLE   : 0
#LIVETIME    : 239.829
#REALTIME    : 256.233
#PROBECUR    : 1.02616
#TAUWIND     : 0
#TDEADLYR    : 0
#TACTLYR     : 0.045
#TALWIND     : 0.025
#CHOFFSET    : 0.0
#XLABEL      : Energy (eV)
#YLABEL      : Counts
#XPOSITION   : 0.01874
#YPOSITION   : 1.2333
#ZPOSITION   : 31.03511
#EDSDET      : SD
##SPECIMEN   : SPI MM2 Rhodonite[2][all]
##DET_HASH   : 12273538-fd48-a23f-0a19-f1e6fa85caef
##CALIB_HASH : 6abaa72c-aa41-8738-0be9-f592914732f3
##WORKING    : 15.0 mm
##DET_NAME   : EDAX All
##DET_MODE   : MediumLE
#SPECTRUM    :
21,
27,
9,
10,
72,
308,
993,
3051,
8870,
12061,
6579,
3592,
3371,
4259,
6764,
23206,
89805,
176844,
131486,
38093,
13544,
16147,
12769,
7037,
4536,
2811,
2152,
2124,
2351,
2335,
2424,
2529,
2679,
2865,
3215,
3115,
3167,
3233,
3433,
3886,
5438,
8926,
10156,
7465,
4821,
4206,
4192,
4248,
4472,
4665,
4876,
4969,
5027,
5252,
6226,
14333,
53062,
134364,
183235,
128977,
52742,
18490,
9233,
5313,
3768,
3349,
3286,
3209,
3085,
3126,
3230,
3291,
3314,
3436,
3556,
3696,
3717,
3388,
3437,
3379,
3317,
3195,
3221,
3327,
3212,
3235,
3192,
3187,
3206,
3165,
3104,
3087,
3012,
3085,
3021,
2967,
3034,
3142,
3022,
3051,
2964,
2992,
2914,
2929,
2932,
2934,
2913,
2911,
2862,
2906,
2849,
2773,
2861,
2725,
2796,
2844,
2934,
2876,
2996,
3438,
4931,
9163,
14692,
18559,
15695,
9755,
5157,
3106,
2614,
2527,
2657,
2873,
3612,
4117,
4362,
4000,
3295,
2822,
2791,
2623,
2421,
2251,
2208,
2168,
2272,
2086,
2126,
2115,
2085,
2106,
2121,
2042,
2107,
1973,
2066,
2045,
2125,
2089,
2034,
2022,
1931,
1916,
1892,
1900,
1958,
1878,
1982,
1863,
1838,
1808,
1837,
1797,
1831,
1794,
1876,
1758,
1820,
1748,
1693,
1659,
1751,
1814,
1691,
1703,
1695,
1692,
1706,
1695,
1707,
1839,
2001,
2887,
5981,
14072,
30813,
53725,
70544,
69989,
52032,
29603,
13302,
5212,
2335,
1680,
1555,
1522,
1482,
1511,
1713,
2025,
3186,
5181,
7789,
10401,
12367,
13115,
12647,
10581,
7530,
4568,
2670,
1605,
1291,
1185,
1099,
1101,
1109,
1157,
1099,
1117,
1182,
1222,
1322,
1534,
1764,
1753,
1669,
1542,
1314,
1150,
1043,
1019,
1050,
994,
978,
1032,
972,
1049,
996,
1013,
1048,
1043,
996,
1074,
1065,
1014,
1016,
998,
986,
928,
900,
822,
887,
860,
898,
900,
860,
853,
873,
842,
863,
877,
812,
856,
872,
845,
819,
814,
842,
783,
827,
800,
803,
833,
766,
773,
749,
766,
809,
730,
709,
757,
751,
755,
746,
750,
669,
698,
688,
674,
718,
700,
717,
703,
688,
673,
616,
708,
672,
640,
630,
663,
658,
654,
605,
647,
598,
626,
566,
637,
663,
626,
627,
623,
614,
575,
568,
606,
652,
575,
587,
604,
553,
573,
547,
543,
552,
564,
547,
545,
538,
473,
520,
486,
460,
489,
499,
494,
487,
504,
467,
489,
481,
501,
476,
456,
462,
472,
459,
452,
448,
483,
451,
427,
445,
450,
446,
465,
403,
418,
413,
408,
408,
370,
377,
426,
392,
386,
378,
405,
396,
356,
372,
398,
353,
382,
364,
379,
380,
346,
356,
344,
359,
401,
365,
351,
367,
355,
309,
338,
314,
313,
303,
310,
331,
318,
341,
323,
333,
333,
311,
291,
271,
314,
282,
301,
281,
264,
282,
282,
238,
267,
300,
266,
258,
243,
243,
244,
238,
247,
263,
230,
234,
269,
258,
239,
230,
240,
217,
223,
214,
207,
224,
226,
194,
205,
233,
198,
198,
179,
203,
191,
185,
188,
204,
186,
190,
176,
172,
187,
173,
164,
181,
155,
165,
170,
175,
163,
154,
169,
166,
165,
157,
196,
165,
158,
141,
159,
131,
145,
166,
133,
135,
128,
137,
142,
122,
120,
155,
149,
121,
135,
124,
102,
124,
128,
139,
121,
112,
92,
115,
107,
121,
112,
111,
101,
98,
112,
96,
101,
125,
91,
96,
105,
103,
109,
99,
106,
94,
92,
102,
95,
81,
85,
67,
89,
79,
74,
76,
85,
76,
75,
64,
77,
67,
91,
73,
70,
71,
73,
64,
77,
61,
68,
60,
66,
77,
53,
60,
67,
50,
68,
55,
58,
68,
49,
53,
43,
54,
41,
53,
41,
48,
49,
51,
57,
48,
42,
38,
56,
30,
43,
44,
43,
47,
35,
33,
52,
36,
35,
29,
31,
36,
27,
23,
34,
28,
31,
39,
25,
26,
21,
19,
28,
26,
23,
30,
16,
20,
31,
25,
21,
24,
29,
17,
28,
21,
18,
27,
18,
19,
16,
13,
15,
16,
18,
15,
22,
13,
16,
21,
16,
19,
18,
7,
18,
17,
14,
10,
10,
12,
8,
9,
14,
9,
5,
7,
10,
8,
13,
6,
9,
4,
7,
7,
5,
2,
12,
3,
5,
5,
4,
4,
3,
2,
6,
2,
1,
3,
2,
1,
3,
2,
4,
0,
0,
1,
2,
0,
0,
1,
1,
0,
0,
1,
0,
1,
0,
2,
1,
0,
1,
0,
1,
1,
0,
0,
1,
0,
0,
0,
0,
0,
1,
0,
0,
0,
0,
1,
0,
0,
0,
0,
0,
0,
0,
0,
0,
0,
0,
0,
0,
0,
0,
0,
0,
1,
1,
0,
0,
0,
0,
0,
1,
0,
0,
0,
0,
0,
0,
0,
0,
1,
0,
0,
0,
0,
0,
1,
0,
1,
0,
0,
0,
1,
0,
0,
0,
0,
0,
1,
0,
2,
0,
0,
1,
1,
0,
0,
0,
0,
0,
0,
0,
0,
0,
0,
0,
0,
0,
0,
0,
0,
0,
0,
0,
0,
0,
0,
0,
0,
0,
0,
0,
0,
0,
0,
0,
0,
0,
0,
0,
0,
0,
0,
0,
0,
0,
1,
0,
0,
0,
0,
0,
0,
0,
1,
1,
0,
0,
0,
0,
0,
0,
0,
0,
1,
0,
0,
0,
0,
0,
0,
0,
0,
0,
0,
0,
0,
0,
0,
0,
0,
0,
0,
0,
0,
0,
0,
0,
0,
1,
0,
0,
0,
0,
0,
0,
0,
0,
0,
0,
0,
0,
0,
0,
0,
0,
0,
0,
0,
0,
0,
0,
0,
0,
0,
0,
0,
0,
0,
0,
0,
0,
0,
0,
0,
0,
0,
0,
0,
0,
1,
0,
0,
0,
0,
0,
0,
0,
0,
0,
0,
0,
0,
0,
0,
0,
0,
0,
0,
0,
0,
0,
0,
0,
0,
0,
0,
0,
0,
1,
0,
0,
0,
0,
0,
0,
0,
0,
0,
0,
0,
0,
0,
0,
0,
0,
0,
0,
0,
0,
0,
0,
0,
0,
0,
0,
0,
0,
0,
0,
0,
0,
0,
0,
0,
0,
0,
0,
0,
0,
0,
0,
0,
0,
0,
0,
0,
0,
0,
0,
0,
0,
0,
0,
0,
0,
0,
0,
0,
0,
0,
0,
0,
0,
0,
0,
0,
0,
0,
0,
0,
0,
0,
0,
0,
0,
0,
0,
0,
0,
0,
0,
0,
0,
0,
0,
0,
0,
0,
0,
0,
0,
0,
0,
0,
0,
0,
0,
0,
0,
0,
0,
0,
0,
0,
0,
0,
0,
0,
0,
0,
0,
0,
0,
0,
0,
0,
0,
0,
0,
0,
0,
0,
0,
0,
0,
0,
0,
0,
0,
0,
0,
0,
0,
0,
0,
0,
0,
0,
0,
0,
0,
0,
0,
0,
0,
0,
0,
0,
0,
0,
0,
0,
0,
0,
0,
0,
0,
0,
0,
0,
0,
0,
0,
0,
0,
0,
0,
0,
0,
0,
0,
0,
0,
0,
0,
0,
0,
0,
0,
0,
0,
0,
0,
0,
0,
0,
0,
0,
0,
0,
0,
0,
0,
0,
0,
0,
0,
0,
0,
0,
0,
0,
0,
0,
0,
0,
0,
0,
0,
0,
0,
0,
0,
0,
0,
0,
0,
0,
0,
0,
0,
0,
0,
0,
0,
0,
0,
0,
0,
0,
0,
0,
0,
0,
0,
0,
0,
0,
0,
0,
0,
0,
0,
0,
0,
0,
0,
0,
0,
0,
0,
0,
0,
0,
0,
0,
0,
0,
0,
0,
0,
0,
0,
0,
0,
0,
0,
0,
0,
0,
0,
0,
0,
0,
0,
0,
0,
0,
0,
0,
0,
0,
0,
0,
0,
0,
0,
0,
0,
0,
0,
0,
0,
0,
0,
0,
0,
0,
0,
0,
0,
0,
0,
0,
0,
0,
0,
0,
0,
0,
0,
0,
0,
0,
0,
0,
0,
0,
0,
0,
0,
0,
0,
0,
0,
0,
0,
0,
0,
0,
0,
0,
0,
0,
0,
0,
0,
0,
0,
0,
0,
0,
0,
0,
0,
0,
0,
0,
0,
0,
0,
0,
0,
0,
0,
0,
0,
0,
0,
0,
0,
0,
0,
0,
0,
0,
0,
0,
0,
0,
0,
0,
0,
0,
0,
0,
0,
0,
0,
0,
0,
0,
0,
0,
0,
0,
0,
0,
0,
0,
0,
0,
0,
0,
0,
0,
0,
0,
0,
0,
0,
0,
0,
0,
0,
0,
0,
0,
0,
0,
0,
0,
0,
0,
0,
0,
0,
0,
0,
0,
0,
0,
0,
0,
0,
0,
0,
0,
0,
0,
0,
0,
0,
0,
0,
0,
0,
0,
0,
0,
0,
0,
0,
0,
0,
0,
0,
0,
0,
0,
0,
0,
0,
#ENDOFDATA   :