File: N132962/Quantification/20 keV/MMM2/SPI MM2 Tugtupite[1][4].msa
#FORMAT      : EMSA/MAS Spectral Data File
#VERSION     : 1.0
#TITLE       : SPI MM2 Tugtupite[1][all]
#DATE        : 13-MAR-2025
#TIME        : 13:36
#OWNER       : Unknown
#NPOINTS     : 4096
#NCOLUMNS    : 1
#XUNITS      : eV
#YUNITS      : counts
#DATATYPE    : Y
#XPERCHAN    : 9.99778
#OFFSET      : 1.69135
#BEAMKV      : 20
#SIGNALTYPE  : EDS
#ELEVANGLE   : 35
#AZIMANGLE   : 0
#LIVETIME    : 239.8374
#REALTIME    : 255.339
#PROBECUR    : 1.0264
#TAUWIND     : 0
#TDEADLYR    : 0
#TACTLYR     : 0.045
#TALWIND     : 0.025
#CHOFFSET    : 0.0
#XLABEL      : Energy (eV)
#YLABEL      : Counts
#XPOSITION   : -4.51562
#YPOSITION   : 3.53722
#ZPOSITION   : 31.03512
#EDSDET      : SD
##SPECIMEN   : SPI MM2 Tugtupite[1][all]
##DET_HASH   : 12273538-fd48-a23f-0a19-f1e6fa85caef
##CALIB_HASH : 6abaa72c-aa41-8738-0be9-f592914732f3
##WORKING    : 15.0 mm
##DET_NAME   : EDAX All
##DET_MODE   : MediumLE
#SPECTRUM    :
31,
17,
9,
15,
69,
347,
965,
2416,
7054,
9589,
4985,
2297,
2319,
2958,
5274,
19244,
77276,
152389,
111858,
28926,
4152,
1865,
1940,
2259,
2331,
2399,
2661,
2917,
3511,
4221,
4399,
5464,
12461,
45653,
111827,
125051,
60415,
14533,
3940,
2925,
2934,
3071,
3205,
3405,
3509,
3679,
4422,
8320,
23049,
44402,
45086,
24628,
10300,
5628,
5613,
14072,
55706,
143747,
196632,
138037,
55759,
18980,
8550,
4350,
2747,
2293,
2386,
2466,
2363,
2393,
2413,
2385,
2322,
2484,
2581,
2741,
2735,
2646,
2513,
2382,
2358,
2447,
2706,
3274,
5140,
11773,
26202,
40958,
39719,
24182,
10019,
4522,
4439,
5632,
6061,
5130,
3454,
2479,
2033,
1980,
2028,
1981,
1957,
1998,
2029,
2016,
2105,
2038,
2036,
1989,
1955,
1915,
1842,
1940,
1967,
2002,
2127,
1947,
1873,
1859,
1814,
1804,
1788,
1828,
1782,
1730,
1700,
1614,
1652,
1664,
1627,
1661,
1613,
1607,
1571,
1633,
1615,
1593,
1532,
1578,
1623,
1468,
1524,
1526,
1510,
1644,
1621,
1557,
1507,
1471,
1396,
1406,
1339,
1412,
1342,
1378,
1392,
1366,
1334,
1327,
1357,
1315,
1327,
1357,
1280,
1305,
1248,
1249,
1298,
1267,
1232,
1267,
1220,
1203,
1176,
1178,
1219,
1245,
1189,
1188,
1147,
1142,
1224,
1092,
1160,
1075,
1091,
1095,
1065,
1066,
1079,
1026,
1071,
1026,
1022,
1048,
1028,
1043,
1007,
1005,
983,
965,
1053,
974,
989,
976,
975,
997,
934,
948,
944,
1008,
1005,
1047,
998,
939,
900,
913,
856,
836,
801,
862,
820,
841,
834,
804,
791,
784,
812,
780,
741,
790,
748,
823,
832,
784,
725,
795,
759,
723,
742,
732,
696,
717,
722,
794,
682,
749,
727,
700,
752,
672,
674,
704,
632,
694,
691,
592,
619,
690,
586,
606,
661,
645,
581,
634,
596,
638,
600,
597,
558,
573,
577,
585,
592,
568,
571,
580,
582,
568,
533,
573,
562,
540,
523,
514,
520,
531,
545,
479,
500,
521,
542,
475,
478,
499,
487,
519,
511,
489,
510,
477,
469,
478,
459,
470,
487,
451,
442,
471,
437,
440,
405,
428,
406,
425,
384,
408,
413,
414,
412,
397,
409,
414,
403,
387,
393,
407,
381,
390,
377,
385,
387,
367,
356,
385,
378,
338,
349,
341,
353,
342,
368,
314,
299,
371,
342,
341,
357,
318,
331,
331,
336,
317,
300,
339,
295,
298,
284,
303,
283,
341,
284,
285,
287,
258,
301,
288,
311,
267,
300,
278,
265,
258,
288,
248,
309,
292,
271,
221,
234,
251,
237,
242,
272,
261,
237,
224,
233,
231,
226,
235,
245,
206,
211,
209,
212,
232,
222,
228,
212,
199,
195,
206,
202,
205,
204,
214,
210,
186,
187,
172,
180,
197,
173,
180,
167,
185,
182,
152,
152,
167,
153,
160,
170,
181,
165,
189,
143,
166,
145,
141,
146,
155,
151,
127,
153,
139,
150,
137,
159,
139,
137,
126,
165,
134,
133,
124,
121,
133,
122,
134,
120,
123,
129,
114,
101,
107,
117,
104,
112,
95,
119,
123,
131,
117,
101,
99,
116,
117,
107,
88,
102,
94,
102,
110,
99,
95,
85,
89,
83,
92,
105,
78,
98,
75,
73,
82,
92,
88,
66,
77,
87,
67,
84,
65,
73,
64,
67,
53,
66,
66,
63,
53,
74,
74,
63,
72,
61,
60,
56,
66,
54,
62,
53,
48,
62,
59,
62,
56,
50,
47,
44,
43,
60,
39,
43,
47,
49,
57,
50,
43,
35,
40,
38,
40,
41,
43,
33,
37,
30,
39,
46,
36,
31,
33,
38,
41,
38,
27,
36,
30,
32,
35,
30,
30,
35,
25,
27,
28,
31,
31,
34,
35,
27,
29,
29,
25,
20,
17,
26,
27,
23,
24,
22,
22,
26,
25,
23,
25,
19,
29,
20,
19,
19,
17,
20,
14,
11,
22,
24,
14,
20,
17,
21,
17,
14,
17,
13,
17,
11,
15,
14,
10,
16,
9,
16,
17,
9,
13,
12,
12,
10,
8,
6,
8,
20,
9,
16,
11,
6,
9,
8,
10,
10,
3,
6,
7,
6,
8,
7,
1,
3,
8,
12,
5,
4,
5,
7,
6,
2,
2,
7,
6,
4,
2,
1,
3,
6,
2,
4,
1,
4,
1,
3,
0,
1,
1,
2,
3,
3,
1,
0,
0,
1,
0,
0,
1,
0,
1,
0,
0,
0,
0,
0,
0,
0,
0,
0,
0,
0,
1,
0,
0,
0,
0,
0,
0,
0,
0,
0,
0,
0,
0,
0,
0,
0,
0,
0,
0,
0,
0,
0,
0,
0,
0,
0,
0,
0,
0,
0,
0,
0,
0,
0,
0,
0,
0,
0,
0,
0,
0,
0,
0,
0,
0,
0,
0,
0,
0,
0,
0,
0,
0,
0,
0,
0,
0,
0,
0,
0,
0,
0,
1,
0,
0,
0,
0,
0,
0,
0,
0,
0,
0,
0,
0,
0,
1,
0,
0,
0,
0,
0,
0,
0,
0,
0,
0,
0,
0,
0,
0,
0,
0,
0,
0,
0,
0,
0,
0,
0,
0,
0,
0,
0,
0,
0,
0,
0,
0,
0,
0,
0,
0,
0,
0,
0,
0,
0,
0,
0,
0,
0,
0,
0,
0,
0,
0,
0,
0,
0,
0,
0,
0,
0,
0,
0,
0,
0,
0,
0,
0,
0,
0,
0,
0,
0,
0,
0,
0,
0,
0,
0,
0,
0,
0,
0,
0,
0,
0,
0,
0,
1,
0,
0,
0,
0,
0,
0,
0,
0,
0,
0,
0,
0,
0,
0,
0,
0,
0,
0,
0,
0,
0,
0,
0,
0,
0,
0,
0,
0,
0,
0,
0,
0,
0,
0,
0,
0,
0,
0,
0,
0,
0,
0,
0,
0,
0,
0,
0,
0,
0,
0,
0,
0,
0,
0,
0,
0,
0,
0,
0,
0,
0,
0,
0,
0,
0,
0,
0,
0,
0,
0,
0,
0,
0,
0,
0,
0,
0,
0,
0,
0,
0,
0,
0,
0,
0,
0,
0,
0,
0,
0,
0,
0,
0,
0,
0,
0,
0,
0,
0,
0,
0,
0,
0,
0,
0,
0,
0,
0,
0,
0,
0,
0,
0,
0,
0,
0,
0,
0,
0,
0,
0,
0,
0,
0,
0,
0,
0,
0,
0,
0,
0,
0,
0,
0,
0,
0,
0,
0,
0,
0,
0,
0,
0,
0,
0,
0,
0,
0,
0,
0,
0,
0,
0,
0,
0,
0,
0,
0,
0,
0,
0,
0,
0,
0,
0,
0,
0,
0,
0,
0,
0,
0,
0,
0,
0,
0,
0,
0,
0,
0,
0,
0,
0,
0,
0,
0,
0,
0,
0,
0,
0,
0,
0,
0,
0,
0,
0,
0,
0,
0,
0,
0,
0,
0,
0,
0,
0,
0,
0,
0,
0,
0,
0,
0,
0,
0,
0,
0,
0,
0,
0,
0,
0,
0,
0,
0,
0,
0,
0,
0,
0,
0,
0,
0,
0,
0,
0,
0,
0,
0,
0,
0,
0,
0,
0,
0,
0,
0,
0,
0,
0,
0,
0,
0,
0,
0,
0,
0,
0,
0,
0,
0,
0,
0,
0,
0,
0,
0,
0,
0,
0,
0,
0,
0,
0,
0,
0,
0,
0,
0,
0,
0,
0,
0,
0,
0,
0,
0,
0,
0,
0,
0,
0,
0,
0,
0,
0,
0,
0,
0,
0,
0,
0,
0,
0,
0,
0,
0,
0,
0,
0,
0,
0,
0,
0,
0,
0,
0,
0,
0,
0,
0,
0,
0,
0,
0,
0,
0,
0,
0,
0,
0,
0,
0,
0,
0,
0,
0,
0,
0,
0,
0,
0,
0,
0,
0,
0,
0,
0,
0,
0,
0,
0,
0,
0,
0,
0,
0,
0,
0,
0,
0,
0,
0,
0,
0,
0,
0,
0,
0,
0,
0,
0,
0,
0,
0,
0,
0,
0,
0,
0,
0,
0,
0,
0,
0,
0,
0,
0,
0,
0,
0,
0,
0,
0,
0,
0,
0,
0,
0,
0,
0,
0,
0,
0,
0,
0,
0,
0,
0,
0,
0,
0,
0,
0,
0,
0,
0,
0,
0,
0,
0,
0,
0,
0,
0,
0,
0,
0,
0,
0,
0,
0,
0,
0,
0,
0,
0,
0,
0,
0,
0,
0,
0,
0,
0,
0,
0,
0,
0,
0,
0,
0,
0,
0,
0,
0,
0,
0,
0,
0,
0,
0,
0,
0,
0,
0,
0,
0,
0,
0,
0,
0,
0,
0,
0,
0,
0,
0,
0,
0,
0,
0,
0,
0,
0,
0,
0,
0,
0,
0,
0,
0,
0,
0,
0,
0,
0,
0,
0,
0,
0,
0,
0,
0,
0,
0,
0,
0,
0,
0,
0,
0,
0,
0,
0,
0,
0,
0,
0,
0,
0,
0,
#ENDOFDATA   :