File: N132962/Quantification/20 keV/MMM2/SPI MM2 Willemite[6][4].msa
#FORMAT      : EMSA/MAS Spectral Data File
#VERSION     : 1.0
#TITLE       : SPI MM2 Willemite[6][all]
#DATE        : 13-MAR-2025
#TIME        : 14:09
#OWNER       : Unknown
#NPOINTS     : 4096
#NCOLUMNS    : 1
#XUNITS      : eV
#YUNITS      : counts
#DATATYPE    : Y
#XPERCHAN    : 9.99778
#OFFSET      : 1.69135
#BEAMKV      : 20
#SIGNALTYPE  : EDS
#ELEVANGLE   : 35
#AZIMANGLE   : 0
#LIVETIME    : 239.777
#REALTIME    : 257.521
#PROBECUR    : 1.02609
#TAUWIND     : 0
#TDEADLYR    : 0
#TACTLYR     : 0.045
#TALWIND     : 0.025
#CHOFFSET    : 0.0
#XLABEL      : Energy (eV)
#YLABEL      : Counts
#XPOSITION   : 2.68645
#YPOSITION   : 6.20539
#ZPOSITION   : 31.03511
#EDSDET      : SD
##SPECIMEN   : SPI MM2 Willemite[6][all]
##DET_HASH   : 12273538-fd48-a23f-0a19-f1e6fa85caef
##CALIB_HASH : 6abaa72c-aa41-8738-0be9-f592914732f3
##WORKING    : 15.0 mm
##DET_NAME   : EDAX All
##DET_MODE   : MediumLE
#SPECTRUM    :
32,
35,
12,
15,
91,
405,
1147,
3485,
9923,
13035,
7020,
3343,
3296,
3935,
6261,
17723,
63114,
121132,
89409,
25559,
6733,
6050,
5608,
4904,
4774,
4931,
5263,
6944,
11678,
18664,
20096,
24438,
71978,
181976,
223009,
126812,
36501,
8621,
3950,
3039,
2987,
3338,
3701,
3308,
3181,
3271,
3249,
3452,
3531,
3839,
4172,
4268,
4383,
4281,
4583,
8064,
24543,
58995,
78785,
56887,
24786,
10448,
6046,
4444,
3664,
3584,
3625,
3769,
3855,
3783,
3732,
3666,
3672,
3649,
3659,
3800,
3913,
3788,
3713,
3731,
3721,
3773,
3698,
3758,
3669,
3771,
3684,
3848,
3630,
3802,
3832,
3818,
3960,
3927,
3827,
3638,
3660,
3674,
3604,
3582,
3575,
3564,
3505,
3599,
3462,
3560,
3578,
3381,
3449,
3456,
3541,
3370,
3413,
3348,
3420,
3414,
3269,
3343,
3235,
3394,
3129,
3263,
3114,
3115,
3241,
3140,
3144,
3213,
3149,
3039,
3039,
3115,
3011,
3035,
2894,
2891,
2849,
2943,
2954,
2964,
2841,
2904,
2776,
2849,
2769,
2781,
2763,
2855,
2790,
2682,
2715,
2676,
2709,
2642,
2571,
2586,
2617,
2603,
2550,
2529,
2521,
2450,
2402,
2408,
2498,
2490,
2395,
2353,
2370,
2399,
2426,
2367,
2325,
2252,
2279,
2234,
2285,
2219,
2277,
2238,
2206,
2177,
2199,
2135,
2135,
2067,
2075,
2132,
2199,
2096,
2173,
2271,
2615,
3493,
5282,
7835,
9854,
9929,
7703,
5079,
3381,
2298,
2016,
1877,
1962,
1848,
1882,
1834,
1810,
1854,
1914,
1963,
2218,
2352,
2524,
2758,
2877,
2796,
2415,
2062,
1779,
1700,
1700,
1622,
1656,
1578,
1591,
1689,
1654,
1673,
1733,
1633,
1601,
1674,
1601,
1580,
1556,
1539,
1576,
1519,
1490,
1466,
1490,
1446,
1494,
1449,
1434,
1535,
1505,
1533,
1509,
1406,
1444,
1377,
1335,
1414,
1355,
1261,
1368,
1313,
1234,
1301,
1278,
1324,
1262,
1248,
1244,
1223,
1235,
1290,
1257,
1267,
1240,
1231,
1275,
1259,
1277,
1303,
1300,
1347,
1381,
1848,
3142,
6568,
13590,
24583,
36734,
45101,
45482,
37970,
26078,
14541,
7063,
3298,
1817,
1287,
1152,
1065,
1043,
1070,
976,
1076,
1048,
1086,
1078,
1007,
1040,
1008,
1058,
1052,
1041,
1057,
1169,
1284,
1643,
2494,
3731,
5356,
6550,
6892,
6297,
4929,
3404,
2119,
1370,
1035,
851,
789,
751,
748,
697,
777,
712,
766,
703,
709,
721,
743,
695,
725,
722,
678,
734,
723,
747,
737,
707,
653,
707,
677,
661,
687,
696,
695,
657,
633,
639,
665,
628,
611,
624,
657,
613,
626,
581,
610,
574,
651,
594,
557,
541,
577,
607,
573,
522,
557,
564,
542,
581,
536,
514,
530,
498,
573,
553,
509,
499,
516,
493,
458,
500,
508,
496,
475,
491,
503,
460,
451,
468,
450,
483,
456,
441,
442,
443,
421,
437,
427,
409,
410,
433,
387,
410,
420,
442,
399,
396,
390,
397,
368,
353,
378,
388,
368,
365,
383,
361,
371,
347,
351,
347,
357,
333,
310,
341,
306,
357,
316,
342,
314,
310,
304,
323,
318,
337,
275,
297,
297,
301,
280,
308,
258,
309,
256,
262,
295,
253,
269,
255,
278,
276,
269,
270,
263,
241,
257,
257,
243,
244,
224,
221,
205,
217,
219,
239,
210,
217,
217,
213,
230,
202,
219,
207,
206,
192,
197,
192,
199,
191,
181,
183,
165,
166,
189,
174,
179,
171,
196,
152,
170,
164,
150,
176,
180,
170,
152,
155,
151,
171,
144,
139,
164,
165,
134,
141,
137,
154,
152,
131,
130,
131,
120,
127,
151,
119,
130,
108,
122,
126,
120,
111,
137,
116,
115,
105,
108,
111,
109,
103,
88,
112,
107,
104,
91,
94,
97,
92,
80,
67,
96,
85,
89,
84,
101,
83,
94,
84,
89,
83,
73,
81,
73,
87,
78,
86,
70,
81,
75,
76,
66,
69,
74,
86,
68,
63,
77,
87,
66,
72,
75,
51,
55,
55,
50,
54,
48,
43,
52,
58,
48,
46,
40,
52,
43,
41,
45,
50,
41,
36,
49,
46,
41,
46,
31,
27,
36,
41,
29,
32,
43,
35,
21,
29,
30,
24,
27,
33,
26,
14,
33,
20,
32,
17,
29,
21,
19,
25,
13,
27,
16,
28,
18,
13,
20,
14,
18,
17,
13,
11,
21,
18,
18,
10,
12,
21,
13,
7,
11,
8,
4,
7,
9,
7,
7,
6,
1,
9,
3,
2,
5,
0,
1,
2,
3,
1,
1,
1,
2,
0,
1,
0,
0,
0,
2,
1,
0,
0,
2,
1,
1,
1,
0,
1,
1,
0,
2,
1,
1,
1,
1,
1,
1,
2,
1,
0,
0,
1,
0,
0,
0,
1,
0,
1,
0,
0,
1,
0,
0,
1,
0,
2,
1,
2,
2,
0,
0,
0,
1,
0,
0,
1,
1,
0,
0,
0,
0,
0,
0,
1,
2,
0,
0,
0,
1,
0,
0,
0,
0,
0,
1,
1,
0,
0,
0,
0,
0,
0,
0,
1,
1,
0,
0,
1,
0,
0,
1,
1,
1,
0,
0,
0,
0,
0,
0,
0,
1,
1,
0,
1,
0,
0,
0,
0,
0,
0,
0,
0,
0,
0,
0,
0,
1,
0,
0,
0,
0,
0,
0,
0,
0,
1,
0,
0,
0,
1,
0,
1,
0,
0,
1,
0,
0,
0,
0,
0,
0,
0,
2,
1,
0,
0,
0,
0,
0,
0,
2,
1,
0,
0,
0,
1,
0,
1,
0,
0,
0,
0,
0,
0,
0,
0,
0,
0,
0,
0,
0,
0,
0,
0,
0,
0,
0,
1,
1,
0,
1,
0,
0,
0,
0,
0,
0,
0,
0,
0,
0,
0,
0,
0,
0,
1,
0,
0,
0,
0,
0,
0,
0,
0,
1,
0,
0,
0,
0,
0,
0,
0,
1,
0,
0,
1,
1,
0,
0,
0,
0,
0,
0,
0,
0,
0,
0,
0,
1,
0,
0,
0,
1,
0,
0,
0,
0,
0,
0,
0,
0,
0,
0,
1,
0,
0,
0,
0,
0,
0,
0,
0,
0,
0,
0,
0,
0,
0,
0,
0,
0,
0,
0,
0,
0,
0,
0,
0,
0,
0,
0,
0,
0,
0,
0,
0,
0,
0,
0,
0,
0,
0,
0,
0,
0,
0,
0,
0,
0,
0,
0,
0,
0,
0,
0,
0,
0,
0,
0,
0,
0,
0,
0,
0,
0,
0,
0,
0,
0,
0,
0,
0,
0,
0,
0,
0,
0,
1,
0,
0,
0,
0,
0,
0,
0,
0,
0,
0,
0,
0,
0,
0,
0,
0,
0,
0,
0,
0,
0,
0,
0,
0,
0,
0,
0,
0,
0,
0,
0,
0,
0,
0,
0,
0,
0,
0,
0,
0,
0,
0,
0,
0,
1,
0,
0,
0,
0,
0,
0,
0,
0,
0,
0,
0,
0,
0,
0,
0,
0,
0,
0,
0,
0,
0,
0,
1,
0,
0,
0,
0,
0,
0,
0,
0,
0,
0,
0,
0,
0,
0,
0,
0,
0,
0,
0,
0,
0,
0,
0,
0,
0,
0,
0,
0,
0,
0,
0,
0,
0,
0,
0,
0,
0,
0,
0,
0,
0,
0,
0,
0,
0,
0,
0,
0,
0,
0,
0,
0,
1,
0,
0,
0,
0,
0,
0,
0,
0,
0,
0,
0,
0,
0,
0,
0,
0,
0,
0,
0,
0,
0,
0,
0,
0,
0,
0,
0,
0,
0,
0,
0,
0,
0,
0,
0,
0,
0,
0,
0,
0,
0,
0,
0,
0,
0,
0,
0,
0,
0,
0,
0,
0,
0,
0,
0,
0,
0,
0,
0,
0,
0,
0,
0,
0,
0,
0,
0,
0,
0,
0,
0,
0,
0,
0,
0,
0,
0,
0,
0,
0,
0,
0,
0,
0,
0,
0,
0,
0,
0,
0,
0,
0,
0,
0,
0,
0,
0,
0,
0,
0,
0,
0,
0,
0,
0,
0,
0,
0,
0,
0,
0,
0,
0,
0,
0,
0,
0,
0,
0,
0,
0,
0,
0,
0,
0,
0,
0,
0,
0,
0,
0,
0,
0,
0,
0,
0,
0,
0,
0,
0,
0,
0,
0,
0,
0,
0,
0,
0,
0,
0,
0,
0,
0,
0,
0,
0,
0,
0,
0,
0,
0,
0,
0,
0,
0,
0,
0,
0,
0,
0,
0,
0,
0,
0,
0,
0,
0,
0,
0,
0,
0,
0,
0,
0,
0,
0,
0,
0,
0,
0,
0,
0,
0,
0,
0,
0,
0,
0,
0,
0,
0,
0,
0,
0,
0,
0,
0,
0,
0,
0,
0,
0,
0,
0,
0,
0,
0,
0,
0,
0,
0,
0,
0,
0,
0,
0,
0,
0,
0,
0,
0,
0,
0,
0,
0,
0,
0,
0,
0,
0,
0,
0,
0,
0,
0,
0,
0,
0,
0,
0,
0,
0,
0,
0,
0,
0,
0,
0,
0,
0,
0,
0,
#ENDOFDATA   :