File: N132962/Quantification/20 keV/MMM2/SPI MM2 Scheelite[5][4].msa
#FORMAT      : EMSA/MAS Spectral Data File
#VERSION     : 1.0
#TITLE       : SPI MM2 Scheelite[5][all]
#DATE        : 13-MAR-2025
#TIME        : 12:17
#OWNER       : Unknown
#NPOINTS     : 4096
#NCOLUMNS    : 1
#XUNITS      : eV
#YUNITS      : counts
#DATATYPE    : Y
#XPERCHAN    : 9.99778
#OFFSET      : 1.69135
#BEAMKV      : 20
#SIGNALTYPE  : EDS
#ELEVANGLE   : 35
#AZIMANGLE   : 0
#LIVETIME    : 240.025
#REALTIME    : 263.146
#PROBECUR    : 1.02616
#TAUWIND     : 0
#TDEADLYR    : 0
#TACTLYR     : 0.045
#TALWIND     : 0.025
#CHOFFSET    : 0.0
#XLABEL      : Energy (eV)
#YLABEL      : Counts
#XPOSITION   : -2.76649
#YPOSITION   : 1.98439
#ZPOSITION   : 31.03511
#EDSDET      : SD
##SPECIMEN   : SPI MM2 Scheelite[5][all]
##DET_HASH   : 12273538-fd48-a23f-0a19-f1e6fa85caef
##CALIB_HASH : 6abaa72c-aa41-8738-0be9-f592914732f3
##WORKING    : 15.0 mm
##DET_NAME   : EDAX All
##DET_MODE   : MediumLE
#SPECTRUM    :
28,
36,
18,
35,
189,
846,
2600,
6702,
14943,
19149,
12050,
5792,
4342,
4058,
4742,
9306,
28511,
52783,
39494,
12785,
4708,
4107,
4308,
5066,
5200,
5017,
5246,
5630,
6275,
6308,
6503,
6469,
6717,
6792,
7107,
7371,
7461,
7648,
7908,
7881,
8235,
8450,
8559,
9508,
12315,
18588,
22687,
19211,
13733,
11265,
10143,
9853,
9903,
10127,
10931,
13397,
21364,
56944,
143363,
226715,
221223,
157148,
86964,
34808,
12298,
7479,
7978,
9488,
9877,
7923,
6095,
5189,
5018,
5224,
5340,
5660,
6119,
6602,
6185,
5743,
5261,
5054,
4944,
4807,
4699,
4926,
4768,
4738,
4726,
4880,
4826,
4898,
4771,
4903,
4767,
4781,
4726,
4723,
4933,
4827,
4921,
4810,
4716,
5039,
4947,
4726,
5037,
4970,
4905,
5070,
4973,
4819,
4903,
4789,
4936,
5000,
5028,
5535,
5948,
7797,
14430,
30074,
52424,
64971,
55403,
32712,
15177,
7471,
5433,
5087,
5412,
6703,
8946,
11290,
12088,
10357,
7483,
5579,
4702,
4343,
4293,
4225,
4092,
4370,
4300,
4299,
4311,
4151,
4155,
4279,
4166,
4178,
4157,
4308,
4145,
4151,
4102,
4195,
4213,
4121,
4081,
4173,
4001,
4061,
4107,
4041,
3972,
3914,
3947,
3956,
3962,
3833,
3806,
3928,
3837,
3840,
3863,
3932,
3869,
3923,
3865,
3854,
3936,
3842,
3810,
3714,
3850,
3618,
3616,
3611,
3660,
3563,
3585,
3564,
3509,
3616,
3529,
3424,
3438,
3548,
3499,
3397,
3360,
3371,
3328,
3350,
3351,
3163,
3361,
3328,
3420,
3465,
3498,
3687,
3648,
3446,
3414,
3232,
3194,
3071,
3265,
3137,
3084,
3192,
3131,
2976,
3011,
2938,
2992,
2938,
2989,
2968,
2949,
2869,
3004,
2892,
2886,
2934,
2819,
2782,
2863,
2831,
3051,
3204,
3579,
3839,
4137,
4011,
3829,
3491,
3118,
2859,
2726,
2709,
2655,
2668,
2631,
2636,
2521,
2532,
2485,
2556,
2527,
2444,
2407,
2521,
2467,
2552,
2578,
2410,
2493,
2525,
2653,
2995,
3862,
5697,
9564,
15287,
21872,
26756,
27418,
23240,
16832,
10436,
6023,
3724,
2867,
2370,
2449,
2381,
2486,
2318,
2376,
2247,
2193,
2121,
2149,
2066,
2150,
2068,
1966,
2026,
2002,
1986,
1982,
1986,
1992,
1994,
1951,
1975,
1929,
1979,
1969,
2126,
2306,
2601,
2981,
3673,
4561,
6207,
8035,
10070,
10633,
10353,
8807,
6851,
5357,
4450,
4518,
5076,
5685,
6274,
6290,
5686,
4529,
3653,
2619,
2178,
1968,
1845,
1812,
1862,
1714,
1686,
1606,
1581,
1423,
1512,
1415,
1395,
1401,
1484,
1400,
1341,
1397,
1379,
1360,
1368,
1360,
1365,
1333,
1353,
1369,
1296,
1323,
1352,
1397,
1287,
1318,
1355,
1392,
1524,
1589,
1981,
2341,
2624,
2586,
2426,
2180,
1889,
1638,
1407,
1380,
1336,
1423,
1396,
1532,
1516,
1557,
1506,
1391,
1334,
1227,
1115,
1108,
1079,
1009,
1064,
1095,
1016,
1103,
1058,
1069,
1027,
1057,
1039,
977,
940,
948,
902,
872,
937,
905,
886,
914,
872,
878,
867,
839,
826,
848,
813,
807,
855,
843,
861,
795,
843,
736,
782,
755,
756,
797,
727,
687,
746,
751,
733,
743,
726,
669,
720,
746,
754,
689,
715,
668,
710,
689,
666,
654,
664,
637,
637,
642,
639,
620,
626,
628,
601,
646,
656,
619,
585,
577,
591,
599,
576,
569,
568,
540,
537,
567,
552,
539,
565,
561,
524,
543,
523,
511,
484,
502,
462,
491,
494,
484,
470,
470,
468,
483,
459,
436,
474,
430,
426,
439,
446,
398,
424,
428,
417,
416,
377,
402,
404,
410,
430,
418,
397,
362,
370,
345,
340,
363,
377,
347,
359,
345,
319,
309,
345,
343,
307,
316,
304,
318,
301,
282,
300,
296,
311,
267,
300,
302,
288,
308,
264,
298,
269,
242,
282,
274,
245,
246,
274,
263,
244,
256,
221,
253,
237,
239,
219,
247,
210,
213,
241,
217,
232,
203,
210,
201,
178,
199,
205,
185,
179,
178,
174,
165,
194,
159,
169,
167,
204,
147,
159,
170,
186,
152,
151,
147,
153,
160,
156,
141,
158,
119,
136,
154,
134,
134,
129,
141,
129,
140,
125,
116,
124,
105,
117,
118,
115,
115,
100,
84,
101,
93,
94,
82,
95,
88,
82,
72,
83,
78,
70,
68,
72,
72,
76,
71,
75,
56,
77,
57,
68,
80,
67,
58,
58,
50,
45,
51,
52,
33,
40,
47,
33,
46,
23,
32,
32,
38,
36,
33,
27,
29,
24,
15,
28,
24,
22,
19,
17,
14,
20,
17,
13,
13,
15,
9,
6,
5,
4,
9,
8,
4,
4,
3,
8,
4,
4,
7,
1,
1,
2,
3,
4,
0,
3,
1,
3,
2,
4,
3,
2,
2,
2,
3,
2,
9,
3,
2,
5,
2,
2,
4,
2,
3,
2,
3,
0,
2,
2,
5,
6,
2,
1,
2,
1,
0,
2,
2,
2,
0,
3,
2,
3,
3,
4,
2,
2,
0,
2,
0,
3,
3,
4,
2,
0,
3,
0,
1,
0,
2,
1,
0,
0,
3,
2,
1,
0,
2,
2,
4,
0,
1,
2,
1,
1,
0,
1,
2,
2,
2,
1,
0,
2,
0,
0,
1,
0,
0,
2,
2,
2,
2,
3,
2,
1,
2,
4,
1,
0,
0,
2,
1,
0,
0,
0,
3,
0,
0,
0,
2,
0,
1,
0,
1,
1,
0,
0,
1,
1,
0,
0,
0,
2,
1,
1,
1,
0,
3,
0,
0,
0,
1,
0,
3,
1,
1,
0,
0,
0,
0,
0,
0,
4,
1,
1,
0,
0,
1,
0,
1,
0,
1,
1,
2,
1,
0,
1,
1,
0,
0,
0,
0,
3,
1,
0,
0,
0,
0,
0,
1,
0,
0,
0,
1,
0,
0,
1,
0,
1,
0,
0,
0,
0,
1,
1,
3,
0,
1,
0,
0,
0,
0,
1,
1,
0,
0,
1,
1,
0,
0,
1,
0,
1,
1,
0,
0,
0,
0,
0,
2,
0,
0,
0,
0,
0,
1,
0,
2,
0,
0,
0,
1,
0,
0,
1,
1,
0,
0,
0,
0,
1,
1,
2,
2,
0,
1,
0,
1,
0,
0,
0,
0,
0,
1,
0,
0,
0,
0,
0,
1,
0,
0,
0,
0,
0,
3,
0,
1,
0,
0,
0,
0,
0,
0,
1,
0,
0,
0,
1,
0,
0,
0,
0,
1,
0,
0,
0,
1,
1,
0,
0,
0,
0,
1,
1,
0,
0,
1,
0,
1,
1,
0,
0,
1,
0,
0,
0,
0,
0,
0,
0,
0,
0,
0,
0,
0,
0,
0,
0,
0,
0,
0,
0,
0,
0,
0,
0,
0,
0,
0,
0,
0,
0,
0,
0,
0,
0,
0,
0,
0,
0,
0,
0,
0,
0,
0,
0,
0,
0,
0,
0,
0,
0,
0,
1,
0,
0,
0,
0,
0,
0,
0,
0,
0,
0,
0,
0,
0,
0,
0,
0,
0,
0,
0,
0,
0,
0,
0,
0,
0,
0,
0,
0,
0,
0,
0,
0,
0,
0,
0,
0,
0,
0,
0,
0,
0,
0,
0,
0,
0,
0,
0,
0,
0,
0,
0,
0,
1,
0,
0,
0,
0,
0,
0,
0,
0,
0,
0,
0,
0,
0,
0,
0,
0,
0,
0,
0,
0,
0,
0,
0,
0,
0,
0,
0,
0,
0,
0,
0,
0,
0,
0,
0,
0,
0,
0,
0,
0,
0,
0,
0,
0,
0,
0,
0,
0,
0,
0,
0,
0,
0,
0,
0,
0,
0,
0,
0,
0,
0,
0,
0,
0,
0,
0,
0,
0,
0,
0,
0,
0,
0,
0,
0,
0,
0,
0,
0,
0,
0,
0,
0,
0,
0,
0,
0,
0,
0,
0,
0,
0,
0,
0,
0,
0,
0,
0,
0,
0,
0,
0,
0,
0,
0,
0,
0,
0,
0,
0,
0,
0,
0,
0,
0,
0,
0,
0,
0,
0,
0,
0,
0,
0,
0,
0,
0,
0,
0,
0,
0,
0,
0,
0,
0,
0,
0,
0,
0,
0,
0,
0,
0,
0,
0,
0,
0,
0,
0,
0,
0,
0,
0,
0,
0,
0,
0,
0,
0,
0,
0,
0,
0,
0,
0,
0,
0,
0,
0,
0,
0,
0,
0,
0,
0,
0,
0,
0,
0,
0,
0,
0,
0,
0,
0,
0,
0,
0,
0,
0,
0,
0,
0,
0,
0,
0,
0,
0,
0,
0,
0,
0,
0,
0,
0,
0,
0,
0,
0,
0,
0,
0,
0,
0,
0,
0,
0,
0,
0,
0,
0,
0,
0,
0,
0,
0,
0,
0,
0,
0,
0,
0,
0,
0,
0,
0,
0,
0,
0,
0,
0,
0,
0,
0,
0,
0,
0,
0,
0,
0,
0,
0,
0,
0,
0,
0,
0,
0,
0,
0,
0,
0,
0,
0,
0,
0,
0,
0,
0,
0,
0,
0,
0,
0,
0,
0,
0,
0,
0,
0,
0,
0,
0,
0,
0,
0,
0,
0,
0,
0,
0,
#ENDOFDATA   :