File: N132962/Quantification/20 keV/MMM2/SPI MM2 MgAl2O4[1][4].msa
#FORMAT      : EMSA/MAS Spectral Data File
#VERSION     : 1.0
#TITLE       : SPI MM2 MgAl2O4[1][all]
#DATE        : 13-MAR-2025
#TIME        : 09:28
#OWNER       : Unknown
#NPOINTS     : 4096
#NCOLUMNS    : 1
#XUNITS      : eV
#YUNITS      : counts
#DATATYPE    : Y
#XPERCHAN    : 9.99778
#OFFSET      : 1.69135
#BEAMKV      : 20
#SIGNALTYPE  : EDS
#ELEVANGLE   : 35
#AZIMANGLE   : 0
#LIVETIME    : 239.811
#REALTIME    : 256.358
#PROBECUR    : 1.02582
#TAUWIND     : 0
#TDEADLYR    : 0
#TACTLYR     : 0.045
#TALWIND     : 0.025
#CHOFFSET    : 0.0
#XLABEL      : Energy (eV)
#YLABEL      : Counts
#XPOSITION   : 0.75806
#YPOSITION   : -5.35274
#ZPOSITION   : 31.03509
#EDSDET      : SD
##SPECIMEN   : SPI MM2 MgAl2O4[1][all]
##D2STDCMP   : MgAl2O4,(O:44.9839),(Mg:17.0844),(Al:37.9316)
##DET_HASH   : 12273538-fd48-a23f-0a19-f1e6fa85caef
##CALIB_HASH : 6abaa72c-aa41-8738-0be9-f592914732f3
##WORKING    : 15.0 mm
##DET_NAME   : EDAX All
##DET_MODE   : MediumLE
#SPECTRUM    :
40,
34,
10,
17,
80,
273,
888,
2490,
6998,
9330,
4895,
2506,
2616,
3494,
6570,
26088,
105679,
207067,
152951,
40120,
5112,
1794,
1863,
1955,
2175,
2315,
2399,
2505,
2809,
3012,
3035,
3287,
3446,
3888,
4240,
4462,
4753,
5172,
6492,
14506,
51523,
127646,
151839,
86781,
26822,
8399,
8912,
32391,
123085,
253601,
256996,
130785,
38578,
9766,
3606,
2286,
2083,
2339,
2643,
2775,
2656,
2326,
2068,
1979,
2190,
2356,
2867,
2856,
2589,
2261,
2184,
2155,
2042,
2097,
2219,
2137,
2254,
2210,
2140,
2130,
2079,
2193,
2206,
2339,
2348,
2293,
2251,
2212,
2181,
2159,
2392,
2720,
2548,
2485,
2228,
2205,
2141,
2233,
2387,
2545,
2368,
2265,
2041,
1929,
1995,
1927,
1940,
1882,
1896,
1906,
1830,
1912,
1810,
1872,
1818,
1861,
1835,
1821,
1791,
1758,
1766,
1747,
1782,
1697,
1763,
1658,
1642,
1652,
1610,
1656,
1565,
1635,
1593,
1578,
1593,
1616,
1529,
1519,
1556,
1553,
1460,
1528,
1510,
1565,
1470,
1488,
1489,
1439,
1404,
1480,
1385,
1380,
1357,
1352,
1365,
1363,
1333,
1346,
1343,
1306,
1340,
1252,
1355,
1342,
1235,
1232,
1293,
1214,
1255,
1229,
1288,
1168,
1170,
1195,
1248,
1168,
1180,
1198,
1156,
1194,
1142,
1105,
1103,
1121,
1094,
1068,
1108,
1087,
1087,
1100,
1013,
1079,
1064,
1038,
1052,
941,
961,
936,
990,
1000,
1002,
1054,
956,
949,
916,
923,
957,
894,
930,
928,
924,
1028,
976,
953,
1003,
949,
847,
859,
861,
862,
841,
851,
807,
797,
767,
765,
765,
763,
810,
797,
776,
810,
735,
778,
775,
757,
752,
766,
712,
739,
773,
688,
740,
708,
646,
701,
692,
720,
703,
707,
663,
723,
621,
653,
636,
606,
595,
570,
628,
671,
601,
623,
606,
603,
621,
599,
569,
582,
629,
543,
574,
573,
587,
601,
551,
538,
556,
593,
521,
530,
561,
498,
493,
502,
493,
496,
563,
495,
476,
501,
534,
468,
504,
500,
456,
462,
488,
469,
468,
457,
473,
452,
441,
441,
424,
406,
426,
450,
410,
427,
437,
414,
417,
435,
402,
399,
421,
412,
385,
398,
406,
387,
380,
433,
392,
398,
349,
349,
389,
380,
354,
380,
345,
335,
331,
349,
360,
400,
318,
341,
338,
380,
314,
346,
324,
313,
341,
301,
293,
321,
307,
343,
295,
297,
296,
338,
319,
341,
260,
282,
277,
277,
291,
273,
266,
275,
234,
300,
276,
236,
253,
275,
254,
267,
269,
252,
259,
275,
267,
212,
270,
243,
242,
247,
238,
261,
214,
222,
237,
195,
231,
202,
232,
205,
193,
196,
209,
212,
226,
203,
189,
192,
203,
183,
199,
194,
201,
201,
182,
176,
172,
171,
180,
182,
175,
170,
176,
165,
156,
177,
179,
158,
158,
154,
150,
167,
140,
136,
167,
137,
145,
142,
145,
154,
143,
140,
154,
119,
146,
126,
138,
160,
115,
135,
119,
124,
121,
121,
110,
137,
132,
93,
119,
120,
113,
120,
112,
123,
107,
109,
120,
126,
109,
109,
86,
108,
87,
98,
107,
99,
93,
93,
98,
79,
104,
89,
71,
85,
85,
99,
98,
97,
67,
94,
80,
83,
94,
84,
76,
71,
81,
83,
79,
69,
85,
62,
68,
74,
79,
81,
63,
83,
63,
67,
65,
71,
74,
66,
70,
56,
48,
62,
56,
51,
57,
50,
47,
57,
62,
60,
42,
64,
56,
62,
44,
57,
42,
48,
44,
47,
53,
42,
41,
40,
35,
42,
38,
39,
41,
45,
50,
41,
35,
36,
40,
36,
34,
34,
34,
31,
52,
27,
26,
35,
32,
25,
29,
28,
30,
28,
27,
36,
19,
29,
26,
26,
28,
26,
28,
21,
16,
19,
19,
27,
16,
17,
22,
14,
21,
22,
20,
25,
17,
23,
16,
25,
23,
17,
19,
15,
27,
20,
11,
15,
17,
17,
14,
20,
13,
15,
13,
12,
14,
10,
8,
11,
8,
11,
10,
17,
10,
12,
8,
8,
8,
5,
6,
8,
6,
8,
12,
11,
7,
5,
6,
7,
6,
7,
8,
5,
6,
6,
5,
4,
7,
9,
6,
4,
2,
2,
0,
3,
6,
3,
4,
4,
4,
3,
1,
2,
3,
4,
2,
4,
1,
3,
2,
1,
3,
2,
0,
2,
0,
1,
1,
1,
0,
0,
0,
0,
0,
0,
0,
0,
0,
0,
0,
0,
0,
0,
0,
0,
0,
0,
0,
0,
0,
0,
0,
0,
0,
0,
0,
0,
0,
0,
0,
0,
0,
0,
0,
0,
1,
0,
0,
0,
0,
0,
0,
0,
0,
0,
0,
0,
0,
0,
0,
0,
0,
0,
0,
0,
0,
0,
0,
0,
0,
0,
0,
0,
0,
0,
1,
0,
0,
0,
0,
0,
0,
0,
0,
0,
0,
0,
0,
0,
0,
0,
0,
0,
0,
0,
0,
0,
0,
0,
0,
0,
0,
0,
0,
0,
0,
0,
0,
0,
0,
0,
0,
0,
0,
0,
0,
0,
0,
0,
0,
0,
0,
0,
0,
0,
0,
0,
0,
0,
0,
0,
0,
0,
0,
0,
0,
0,
0,
0,
0,
0,
0,
0,
0,
0,
0,
0,
0,
0,
0,
0,
0,
0,
0,
0,
0,
0,
0,
0,
0,
0,
0,
0,
0,
0,
0,
0,
0,
0,
0,
0,
0,
0,
0,
0,
0,
0,
0,
0,
0,
0,
0,
0,
0,
0,
0,
0,
0,
0,
0,
0,
0,
0,
0,
0,
0,
0,
0,
0,
0,
0,
0,
0,
0,
0,
0,
0,
0,
0,
0,
0,
0,
0,
0,
0,
0,
0,
0,
0,
0,
0,
0,
0,
0,
0,
0,
0,
0,
0,
0,
0,
0,
0,
0,
0,
0,
0,
0,
0,
0,
0,
0,
0,
0,
0,
0,
0,
0,
0,
0,
0,
0,
0,
0,
0,
0,
0,
0,
0,
0,
0,
0,
0,
0,
0,
0,
0,
0,
0,
0,
0,
0,
0,
0,
0,
0,
0,
0,
0,
0,
0,
0,
0,
0,
0,
0,
0,
0,
0,
0,
0,
0,
0,
0,
0,
0,
0,
0,
0,
0,
0,
0,
0,
0,
0,
0,
0,
0,
0,
0,
0,
0,
0,
0,
0,
0,
0,
0,
0,
0,
0,
0,
0,
0,
0,
0,
0,
0,
0,
0,
0,
0,
0,
0,
0,
0,
0,
0,
0,
0,
0,
0,
0,
0,
0,
0,
0,
0,
0,
0,
0,
0,
0,
0,
0,
0,
0,
0,
0,
0,
0,
0,
0,
0,
0,
0,
0,
0,
0,
0,
0,
0,
0,
0,
0,
0,
0,
0,
0,
0,
0,
0,
0,
0,
0,
0,
0,
0,
0,
0,
0,
0,
0,
0,
0,
0,
0,
0,
0,
0,
0,
0,
0,
0,
0,
0,
0,
0,
0,
0,
0,
0,
0,
0,
0,
0,
0,
0,
0,
0,
0,
0,
0,
0,
0,
0,
0,
0,
0,
0,
0,
0,
0,
0,
0,
0,
0,
0,
0,
0,
0,
0,
0,
0,
0,
0,
0,
0,
0,
0,
0,
0,
0,
0,
0,
0,
0,
0,
0,
0,
0,
0,
0,
0,
0,
0,
0,
0,
0,
0,
0,
0,
0,
0,
0,
0,
0,
0,
0,
0,
0,
0,
0,
0,
0,
0,
0,
0,
0,
0,
0,
0,
0,
0,
0,
0,
0,
0,
0,
0,
0,
0,
0,
0,
0,
0,
0,
0,
0,
0,
0,
0,
0,
0,
0,
0,
0,
0,
0,
0,
0,
0,
0,
0,
0,
0,
0,
0,
0,
0,
0,
0,
0,
0,
0,
0,
0,
0,
0,
0,
0,
0,
0,
0,
0,
0,
0,
0,
0,
0,
0,
0,
0,
0,
0,
0,
0,
0,
0,
0,
0,
0,
0,
0,
0,
0,
0,
0,
0,
0,
0,
0,
0,
0,
0,
0,
0,
0,
0,
0,
0,
0,
0,
0,
0,
0,
0,
0,
0,
0,
0,
0,
0,
0,
0,
0,
0,
0,
0,
0,
0,
0,
0,
0,
0,
0,
0,
0,
0,
0,
0,
0,
0,
0,
0,
0,
0,
0,
0,
0,
0,
0,
0,
0,
0,
0,
0,
0,
0,
0,
0,
0,
0,
0,
0,
0,
0,
0,
0,
0,
0,
0,
0,
0,
0,
0,
0,
0,
0,
0,
0,
0,
0,
0,
0,
0,
0,
0,
0,
0,
0,
0,
0,
0,
0,
0,
0,
0,
0,
0,
0,
0,
0,
0,
0,
0,
0,
0,
0,
0,
0,
0,
0,
0,
0,
0,
0,
0,
0,
0,
0,
0,
0,
0,
0,
0,
0,
0,
0,
0,
0,
0,
0,
0,
0,
0,
0,
0,
0,
#ENDOFDATA   :