File: N132962/Quantification/20 keV/MMM2/SPI MM2 SPI Olivine[0][4].msa
#FORMAT      : EMSA/MAS Spectral Data File
#VERSION     : 1.0
#TITLE       : SPI MM2 SPI Olivine[0][all]
#DATE        : 13-MAR-2025
#TIME        : 09:45
#OWNER       : Unknown
#NPOINTS     : 4096
#NCOLUMNS    : 1
#XUNITS      : eV
#YUNITS      : counts
#DATATYPE    : Y
#XPERCHAN    : 9.99778
#OFFSET      : 1.69135
#BEAMKV      : 20
#SIGNALTYPE  : EDS
#ELEVANGLE   : 35
#AZIMANGLE   : 0
#LIVETIME    : 239.674
#REALTIME    : 255.782
#PROBECUR    : 1.02582
#TAUWIND     : 0
#TDEADLYR    : 0
#TACTLYR     : 0.045
#TALWIND     : 0.025
#CHOFFSET    : 0.0
#XLABEL      : Energy (eV)
#YLABEL      : Counts
#XPOSITION   : -3.18127
#YPOSITION   : -2.1151
#ZPOSITION   : 31.03509
#EDSDET      : SD
##SPECIMEN   : SPI MM2 SPI Olivine[0][all]
##D2STDCMP   : SPI Olivine,(O:43.96),(Mg:30.26),(Si:19.14),(Mn:0.089),(Fe:6.35),(Ni:0.278),5.0
##DET_HASH   : 12273538-fd48-a23f-0a19-f1e6fa85caef
##CALIB_HASH : 6abaa72c-aa41-8738-0be9-f592914732f3
##WORKING    : 15.0 mm
##DET_NAME   : EDAX All
##DET_MODE   : MediumLE
#SPECTRUM    :
28,
30,
6,
15,
75,
294,
887,
2590,
7436,
9594,
5177,
2528,
2799,
3632,
6573,
25277,
102612,
202405,
148449,
39565,
5814,
3063,
4051,
6753,
6797,
4212,
2796,
2893,
3293,
3388,
3147,
3162,
3254,
3611,
4146,
4415,
4818,
5506,
7149,
19016,
77807,
197660,
239530,
132646,
37127,
7604,
3148,
2683,
2675,
3019,
3232,
3290,
3289,
3434,
4252,
10461,
39616,
100211,
136760,
96722,
39622,
13856,
6732,
3752,
2475,
2309,
2231,
2240,
2349,
2280,
2321,
2361,
2334,
2348,
2549,
2612,
2685,
2440,
2417,
2476,
2374,
2375,
2551,
2676,
2704,
2657,
2376,
2281,
2294,
2320,
2272,
2281,
2306,
2264,
2205,
2207,
2191,
2344,
2404,
2614,
2647,
2431,
2312,
2175,
2182,
2095,
2129,
2178,
2058,
2119,
2097,
2094,
2072,
2034,
2046,
1969,
2132,
2108,
2004,
1966,
1861,
1917,
1983,
1850,
1856,
1827,
1733,
1832,
1838,
1880,
1769,
1813,
1820,
1756,
1788,
1712,
1673,
1687,
1725,
1705,
1619,
1616,
1662,
1608,
1613,
1616,
1565,
1516,
1594,
1589,
1476,
1555,
1493,
1478,
1541,
1570,
1552,
1466,
1421,
1449,
1442,
1453,
1417,
1347,
1385,
1351,
1349,
1355,
1337,
1372,
1287,
1308,
1327,
1235,
1290,
1253,
1248,
1245,
1242,
1265,
1360,
1273,
1260,
1157,
1220,
1161,
1164,
1146,
1190,
1160,
1134,
1199,
1125,
1106,
1188,
1276,
1303,
1234,
1199,
1216,
1177,
1035,
1053,
1034,
1035,
1057,
1034,
1092,
1323,
1911,
3643,
6593,
9995,
11832,
11210,
8210,
4789,
2714,
1443,
1030,
990,
925,
897,
909,
944,
884,
914,
902,
896,
947,
968,
1089,
1400,
1692,
2095,
2245,
2050,
1761,
1275,
1020,
859,
796,
761,
705,
721,
760,
900,
1022,
1092,
1097,
1048,
930,
803,
761,
763,
705,
751,
677,
708,
715,
635,
627,
642,
610,
681,
645,
622,
639,
643,
593,
545,
636,
648,
664,
664,
682,
659,
616,
648,
623,
600,
550,
581,
527,
589,
545,
550,
555,
550,
517,
513,
577,
555,
527,
521,
533,
509,
520,
476,
462,
484,
511,
494,
519,
457,
481,
495,
452,
436,
453,
450,
456,
469,
470,
478,
462,
420,
466,
486,
409,
396,
400,
440,
415,
465,
467,
397,
398,
408,
411,
382,
386,
391,
402,
349,
371,
391,
383,
370,
377,
355,
360,
357,
367,
389,
373,
332,
336,
324,
358,
310,
339,
348,
322,
319,
315,
322,
309,
310,
297,
326,
299,
305,
297,
289,
302,
289,
269,
280,
303,
319,
301,
270,
310,
311,
285,
265,
264,
271,
265,
277,
268,
270,
282,
235,
251,
284,
252,
242,
241,
236,
252,
224,
226,
218,
245,
228,
249,
223,
198,
227,
217,
218,
211,
197,
213,
242,
190,
205,
228,
209,
201,
189,
193,
209,
181,
195,
200,
185,
176,
179,
186,
183,
172,
175,
177,
170,
175,
170,
158,
164,
143,
158,
171,
159,
192,
152,
152,
166,
149,
143,
135,
150,
154,
137,
141,
184,
139,
132,
134,
136,
142,
137,
130,
125,
111,
134,
110,
130,
123,
131,
130,
115,
108,
109,
126,
104,
92,
98,
96,
104,
91,
94,
106,
99,
99,
103,
98,
75,
96,
120,
94,
95,
91,
92,
96,
88,
90,
69,
92,
80,
88,
80,
83,
79,
86,
84,
70,
79,
83,
78,
80,
77,
85,
72,
64,
63,
67,
71,
65,
59,
65,
79,
70,
62,
61,
65,
71,
56,
54,
54,
47,
59,
67,
76,
62,
55,
49,
57,
52,
53,
45,
49,
42,
30,
47,
48,
43,
36,
38,
28,
40,
36,
43,
33,
42,
49,
22,
37,
39,
45,
38,
34,
39,
33,
27,
29,
28,
26,
29,
30,
32,
28,
29,
31,
35,
25,
30,
29,
34,
17,
25,
30,
27,
28,
28,
31,
24,
23,
30,
20,
18,
21,
18,
17,
24,
17,
17,
33,
17,
30,
23,
23,
17,
15,
12,
15,
20,
20,
21,
11,
16,
15,
13,
15,
15,
18,
14,
15,
9,
9,
16,
17,
15,
13,
13,
10,
12,
12,
8,
6,
9,
6,
6,
3,
7,
9,
11,
8,
6,
7,
4,
12,
2,
4,
5,
2,
8,
4,
5,
6,
5,
3,
5,
4,
9,
3,
3,
4,
3,
5,
4,
3,
4,
0,
2,
2,
0,
1,
0,
3,
1,
2,
0,
0,
1,
2,
1,
0,
0,
0,
0,
0,
0,
0,
0,
0,
0,
0,
0,
0,
1,
0,
0,
0,
0,
0,
0,
0,
0,
0,
0,
0,
1,
0,
0,
0,
0,
0,
0,
0,
0,
0,
1,
0,
0,
0,
0,
1,
0,
0,
0,
0,
0,
0,
0,
0,
0,
0,
0,
0,
0,
0,
0,
0,
0,
0,
0,
0,
0,
0,
0,
0,
0,
0,
0,
0,
0,
0,
0,
0,
0,
0,
0,
0,
0,
0,
0,
0,
0,
0,
0,
0,
0,
0,
0,
0,
0,
0,
0,
0,
0,
0,
0,
0,
0,
0,
0,
0,
0,
0,
0,
0,
0,
0,
0,
1,
0,
0,
0,
0,
0,
0,
1,
0,
0,
0,
0,
0,
0,
0,
0,
0,
0,
0,
0,
0,
0,
0,
0,
0,
0,
0,
0,
0,
0,
0,
0,
0,
0,
0,
0,
0,
0,
0,
0,
0,
0,
0,
0,
0,
0,
0,
0,
0,
0,
0,
0,
0,
0,
0,
0,
1,
0,
0,
0,
0,
0,
0,
1,
0,
0,
0,
0,
0,
0,
0,
0,
0,
0,
0,
0,
0,
0,
0,
0,
0,
0,
0,
0,
0,
0,
0,
0,
0,
0,
0,
0,
0,
0,
0,
0,
0,
0,
0,
0,
0,
1,
0,
0,
0,
0,
0,
0,
0,
0,
0,
0,
0,
0,
0,
0,
0,
0,
0,
0,
0,
0,
0,
0,
0,
0,
0,
0,
0,
0,
0,
0,
0,
0,
0,
0,
0,
0,
0,
0,
0,
0,
0,
0,
0,
0,
0,
0,
0,
0,
0,
0,
0,
0,
0,
0,
0,
0,
0,
0,
0,
0,
0,
0,
0,
0,
0,
0,
0,
0,
0,
0,
0,
0,
0,
0,
0,
0,
0,
0,
0,
1,
0,
0,
0,
0,
0,
0,
0,
0,
0,
0,
0,
0,
0,
0,
0,
0,
0,
0,
0,
0,
0,
0,
0,
0,
0,
0,
0,
0,
0,
0,
0,
0,
0,
0,
0,
0,
0,
0,
0,
0,
0,
0,
0,
0,
0,
0,
0,
0,
0,
0,
0,
0,
0,
0,
0,
0,
0,
0,
0,
0,
0,
0,
0,
0,
0,
0,
0,
0,
0,
0,
0,
0,
0,
0,
0,
0,
0,
0,
0,
0,
0,
0,
0,
0,
0,
0,
0,
0,
0,
0,
0,
0,
0,
0,
0,
0,
0,
0,
0,
0,
0,
0,
0,
0,
0,
0,
0,
0,
0,
0,
0,
0,
0,
0,
0,
0,
0,
0,
0,
0,
0,
0,
0,
0,
0,
0,
0,
0,
0,
0,
0,
0,
0,
0,
0,
0,
0,
0,
0,
0,
0,
0,
0,
0,
0,
0,
0,
0,
0,
0,
0,
0,
0,
0,
0,
0,
0,
0,
0,
0,
0,
0,
0,
0,
0,
0,
0,
0,
0,
0,
0,
0,
0,
0,
0,
0,
0,
0,
0,
0,
0,
0,
0,
0,
0,
0,
0,
0,
0,
0,
0,
0,
0,
0,
0,
0,
0,
0,
0,
0,
0,
0,
0,
0,
0,
0,
0,
0,
0,
0,
0,
0,
0,
0,
0,
0,
0,
0,
0,
0,
0,
0,
0,
0,
0,
0,
0,
0,
0,
0,
0,
0,
0,
0,
0,
0,
0,
0,
0,
0,
0,
0,
0,
0,
0,
0,
0,
0,
0,
0,
0,
0,
0,
0,
0,
0,
0,
0,
0,
0,
0,
0,
0,
0,
0,
0,
0,
0,
0,
0,
0,
0,
0,
0,
0,
0,
0,
0,
0,
0,
0,
0,
0,
0,
0,
0,
0,
0,
0,
0,
0,
0,
0,
0,
0,
0,
0,
0,
0,
0,
0,
0,
0,
0,
0,
0,
0,
0,
0,
0,
0,
0,
0,
0,
0,
0,
0,
0,
0,
0,
0,
0,
0,
0,
0,
0,
0,
0,
0,
0,
0,
0,
0,
0,
0,
0,
0,
0,
0,
0,
0,
0,
0,
0,
0,
0,
0,
0,
0,
0,
0,
0,
0,
0,
0,
0,
0,
0,
0,
0,
0,
0,
0,
0,
0,
0,
0,
0,
0,
0,
0,
0,
0,
0,
0,
0,
0,
0,
0,
0,
0,
0,
0,
0,
0,
0,
0,
0,
0,
0,
0,
0,
0,
0,
0,
0,
0,
0,
0,
0,
0,
0,
0,
0,
0,
0,
0,
0,
#ENDOFDATA   :