File: N132962/Quantification/20 keV/MMM2/SPI MM2 SPI Plagioclase[0][4].msa
#FORMAT      : EMSA/MAS Spectral Data File
#VERSION     : 1.0
#TITLE       : SPI MM2 SPI Plagioclase[0][all]
#DATE        : 13-MAR-2025
#TIME        : 10:50
#OWNER       : Unknown
#NPOINTS     : 4096
#NCOLUMNS    : 1
#XUNITS      : eV
#YUNITS      : counts
#DATATYPE    : Y
#XPERCHAN    : 9.99778
#OFFSET      : 1.69135
#BEAMKV      : 20
#SIGNALTYPE  : EDS
#ELEVANGLE   : 35
#AZIMANGLE   : 0
#LIVETIME    : 239.832
#REALTIME    : 255.4026
#PROBECUR    : 1.02609
#TAUWIND     : 0
#TDEADLYR    : 0
#TACTLYR     : 0.045
#TALWIND     : 0.025
#CHOFFSET    : 0.0
#XLABEL      : Energy (eV)
#YLABEL      : Counts
#XPOSITION   : -1.32587
#YPOSITION   : -0.24655
#ZPOSITION   : 31.03511
#EDSDET      : SD
##SPECIMEN   : SPI MM2 SPI Plagioclase[0][all]
##D2STDCMP   : SPI Plagioclase,(O:46.79),(Na:3.24),(Al:15.54),(Si:24.83),(K:0.2),(Ca:8.53),(Fe:0.27)
##DET_HASH   : 12273538-fd48-a23f-0a19-f1e6fa85caef
##CALIB_HASH : 6abaa72c-aa41-8738-0be9-f592914732f3
##WORKING    : 15.0 mm
##DET_NAME   : EDAX All
##DET_MODE   : MediumLE
#SPECTRUM    :
33,
23,
11,
7,
73,
246,
810,
2540,
7494,
10323,
5970,
3029,
2603,
2854,
4988,
18098,
72543,
143374,
104332,
27594,
3860,
1734,
1853,
2160,
2280,
2240,
2391,
2555,
2693,
2799,
2880,
3117,
4259,
9326,
18758,
20726,
11749,
5268,
3864,
3819,
4165,
4324,
4582,
4763,
4842,
5253,
7001,
18978,
64262,
129438,
131695,
67945,
22296,
8439,
6281,
14266,
55044,
142145,
193796,
137265,
55884,
19159,
9039,
4804,
3161,
2903,
2877,
2682,
2478,
2308,
2364,
2333,
2323,
2431,
2623,
2875,
2840,
2565,
2386,
2397,
2380,
2376,
2257,
2354,
2413,
2364,
2267,
2268,
2301,
2320,
2296,
2285,
2445,
2373,
2283,
2220,
2284,
2232,
2281,
2344,
2322,
2194,
2238,
2257,
2279,
2341,
2439,
2479,
2810,
3256,
3517,
3626,
3048,
2530,
2263,
2220,
2341,
2455,
2731,
3906,
7849,
17619,
31822,
40087,
33824,
19467,
8411,
3668,
2172,
2008,
2289,
2991,
4343,
6001,
6402,
5342,
3410,
2302,
1715,
1669,
1713,
1619,
1575,
1618,
1557,
1580,
1591,
1539,
1583,
1562,
1643,
1616,
1636,
1486,
1486,
1369,
1362,
1401,
1400,
1384,
1431,
1302,
1335,
1370,
1342,
1378,
1374,
1304,
1304,
1358,
1331,
1315,
1311,
1377,
1346,
1260,
1261,
1205,
1248,
1290,
1203,
1244,
1309,
1204,
1224,
1261,
1127,
1197,
1186,
1099,
1220,
1039,
1088,
1094,
1099,
1056,
1114,
1067,
1059,
1051,
992,
1026,
1030,
1037,
987,
1048,
989,
1046,
973,
993,
1120,
1248,
1458,
1461,
1484,
1316,
1139,
1000,
966,
909,
892,
863,
870,
857,
847,
899,
945,
821,
869,
833,
805,
820,
850,
891,
930,
834,
885,
861,
831,
811,
747,
767,
798,
728,
743,
704,
728,
750,
758,
781,
771,
728,
702,
726,
716,
653,
687,
680,
721,
672,
658,
690,
661,
692,
648,
663,
641,
677,
683,
675,
573,
658,
624,
618,
629,
607,
631,
597,
633,
611,
562,
624,
603,
583,
577,
531,
543,
563,
559,
545,
526,
601,
552,
544,
501,
520,
520,
535,
522,
534,
482,
542,
482,
476,
504,
487,
473,
475,
503,
496,
458,
499,
473,
452,
444,
470,
441,
431,
482,
469,
418,
401,
429,
402,
447,
375,
413,
440,
407,
385,
405,
380,
393,
403,
387,
369,
404,
413,
393,
396,
369,
373,
377,
362,
366,
343,
355,
398,
340,
361,
300,
357,
335,
330,
323,
328,
336,
307,
341,
332,
356,
311,
303,
314,
301,
288,
301,
302,
306,
298,
282,
296,
266,
288,
281,
282,
262,
271,
283,
280,
264,
250,
257,
258,
254,
248,
261,
229,
242,
251,
261,
253,
246,
241,
239,
218,
226,
238,
223,
253,
254,
221,
232,
216,
214,
234,
195,
202,
193,
189,
224,
198,
202,
195,
197,
182,
207,
186,
171,
200,
186,
172,
176,
169,
175,
169,
168,
181,
155,
164,
189,
169,
163,
163,
157,
151,
144,
173,
151,
149,
133,
148,
145,
134,
158,
119,
144,
166,
144,
144,
153,
146,
127,
140,
132,
118,
141,
136,
125,
125,
118,
135,
99,
108,
114,
130,
106,
125,
106,
103,
110,
118,
108,
98,
100,
106,
110,
90,
98,
103,
94,
108,
91,
91,
105,
110,
100,
75,
87,
72,
77,
84,
78,
79,
81,
87,
91,
78,
90,
77,
70,
61,
89,
52,
82,
79,
84,
72,
72,
81,
74,
65,
64,
70,
55,
57,
53,
61,
66,
50,
64,
69,
70,
47,
53,
50,
57,
56,
49,
48,
49,
49,
58,
50,
39,
42,
48,
38,
44,
47,
39,
40,
40,
55,
41,
50,
35,
41,
38,
38,
34,
37,
35,
41,
36,
42,
27,
29,
28,
27,
44,
45,
27,
40,
32,
22,
30,
26,
26,
22,
32,
28,
17,
23,
20,
26,
27,
21,
28,
27,
25,
18,
23,
27,
18,
17,
20,
22,
10,
19,
15,
13,
25,
10,
14,
16,
18,
19,
23,
13,
18,
11,
13,
21,
20,
17,
13,
12,
14,
7,
5,
16,
18,
13,
13,
12,
8,
15,
11,
13,
17,
13,
10,
7,
16,
7,
7,
13,
10,
10,
9,
9,
6,
8,
4,
7,
6,
5,
9,
5,
11,
3,
6,
7,
3,
3,
0,
2,
2,
5,
3,
3,
3,
1,
1,
4,
2,
1,
2,
3,
1,
1,
0,
0,
0,
0,
0,
0,
0,
0,
0,
0,
1,
1,
0,
0,
0,
0,
0,
0,
0,
0,
0,
1,
1,
0,
1,
0,
0,
0,
0,
0,
0,
0,
0,
0,
0,
0,
1,
0,
0,
0,
0,
0,
1,
0,
0,
0,
0,
0,
1,
0,
0,
0,
0,
0,
1,
0,
0,
0,
0,
0,
1,
0,
0,
0,
1,
0,
0,
0,
0,
0,
0,
0,
1,
0,
0,
0,
0,
0,
0,
0,
1,
0,
0,
1,
0,
0,
0,
0,
0,
0,
0,
0,
0,
0,
0,
0,
0,
0,
0,
0,
0,
0,
0,
0,
0,
0,
0,
0,
0,
0,
0,
0,
0,
0,
0,
0,
0,
1,
0,
0,
0,
0,
0,
0,
0,
0,
0,
0,
0,
0,
0,
0,
0,
0,
0,
0,
0,
0,
0,
0,
0,
0,
0,
0,
0,
0,
0,
0,
0,
0,
0,
0,
0,
0,
0,
0,
0,
0,
0,
0,
0,
0,
0,
0,
0,
0,
0,
0,
0,
0,
0,
0,
0,
0,
0,
1,
0,
0,
0,
0,
0,
0,
0,
0,
0,
0,
0,
0,
1,
0,
0,
0,
0,
0,
0,
0,
0,
0,
0,
0,
0,
0,
0,
0,
0,
0,
0,
0,
0,
0,
0,
0,
0,
0,
0,
0,
0,
0,
0,
0,
0,
0,
0,
0,
0,
0,
0,
0,
0,
0,
0,
0,
0,
0,
0,
0,
0,
0,
0,
0,
0,
0,
0,
0,
0,
0,
0,
0,
0,
0,
0,
0,
0,
0,
0,
0,
0,
0,
0,
0,
0,
0,
0,
0,
0,
0,
0,
0,
0,
0,
0,
0,
0,
0,
0,
0,
0,
0,
0,
0,
0,
0,
0,
0,
0,
0,
0,
0,
0,
0,
0,
0,
0,
0,
0,
0,
0,
0,
0,
0,
0,
0,
0,
0,
0,
0,
0,
0,
0,
0,
0,
0,
0,
0,
0,
0,
0,
0,
0,
0,
0,
0,
0,
0,
0,
0,
0,
0,
0,
0,
0,
0,
0,
0,
0,
0,
0,
0,
0,
0,
0,
0,
0,
0,
0,
0,
0,
0,
0,
0,
0,
0,
0,
0,
0,
0,
0,
0,
0,
0,
0,
0,
0,
0,
0,
0,
0,
0,
0,
0,
0,
0,
0,
0,
0,
0,
0,
0,
0,
0,
0,
0,
0,
0,
0,
0,
0,
0,
0,
0,
0,
0,
0,
0,
0,
0,
0,
0,
0,
0,
0,
0,
0,
0,
0,
0,
0,
0,
0,
0,
0,
0,
0,
0,
0,
0,
0,
0,
0,
0,
0,
0,
0,
0,
0,
0,
0,
0,
0,
0,
0,
0,
0,
0,
0,
0,
0,
0,
0,
0,
0,
0,
0,
0,
0,
0,
0,
0,
0,
0,
0,
0,
0,
0,
0,
0,
0,
0,
0,
0,
0,
0,
0,
0,
0,
0,
0,
0,
0,
0,
0,
0,
0,
0,
0,
0,
0,
0,
0,
0,
0,
0,
0,
0,
0,
0,
0,
0,
0,
0,
0,
0,
0,
0,
0,
0,
0,
0,
0,
0,
0,
0,
0,
0,
0,
0,
0,
0,
0,
0,
0,
0,
0,
0,
0,
0,
0,
0,
0,
0,
0,
0,
0,
0,
0,
0,
0,
0,
0,
0,
0,
0,
0,
0,
0,
0,
0,
0,
0,
0,
0,
0,
0,
0,
0,
0,
0,
0,
0,
0,
0,
0,
0,
0,
0,
0,
0,
0,
0,
0,
0,
0,
0,
0,
0,
0,
0,
0,
0,
0,
0,
0,
0,
0,
0,
0,
0,
0,
0,
0,
0,
0,
0,
0,
0,
0,
0,
0,
0,
0,
0,
0,
0,
0,
0,
0,
0,
0,
0,
0,
0,
0,
0,
0,
0,
0,
0,
0,
0,
0,
0,
0,
0,
0,
0,
0,
0,
0,
0,
0,
0,
0,
0,
0,
0,
0,
0,
0,
0,
0,
0,
0,
0,
0,
0,
0,
0,
0,
0,
0,
0,
0,
0,
0,
0,
0,
0,
0,
0,
0,
0,
0,
0,
0,
0,
0,
0,
0,
0,
0,
0,
0,
0,
0,
0,
0,
0,
0,
0,
0,
0,
0,
0,
0,
0,
0,
0,
0,
0,
0,
0,
0,
0,
0,
0,
0,
0,
0,
0,
0,
0,
0,
0,
0,
0,
0,
0,
0,
0,
0,
0,
0,
0,
0,
#ENDOFDATA   :