File: N132962/Quantification/20 keV/MMM2/SPI MM2 Willemite[0][4].msa
#FORMAT      : EMSA/MAS Spectral Data File
#VERSION     : 1.0
#TITLE       : SPI MM2 Willemite[0][all]
#DATE        : 13-MAR-2025
#TIME        : 14:02
#OWNER       : Unknown
#NPOINTS     : 4096
#NCOLUMNS    : 1
#XUNITS      : eV
#YUNITS      : counts
#DATATYPE    : Y
#XPERCHAN    : 9.99778
#OFFSET      : 1.69135
#BEAMKV      : 20
#SIGNALTYPE  : EDS
#ELEVANGLE   : 35
#AZIMANGLE   : 0
#LIVETIME    : 239.763
#REALTIME    : 257.389
#PROBECUR    : 1.0264
#TAUWIND     : 0
#TDEADLYR    : 0
#TACTLYR     : 0.045
#TALWIND     : 0.025
#CHOFFSET    : 0.0
#XLABEL      : Energy (eV)
#YLABEL      : Counts
#XPOSITION   : 2.74825
#YPOSITION   : 6.23714
#ZPOSITION   : 31.03511
#EDSDET      : SD
##SPECIMEN   : SPI MM2 Willemite[0][all]
##DET_HASH   : 12273538-fd48-a23f-0a19-f1e6fa85caef
##CALIB_HASH : 6abaa72c-aa41-8738-0be9-f592914732f3
##WORKING    : 15.0 mm
##DET_NAME   : EDAX All
##DET_MODE   : MediumLE
#SPECTRUM    :
39,
29,
15,
12,
102,
394,
1073,
3508,
9820,
12777,
6897,
3392,
3238,
3930,
5991,
17296,
63259,
120741,
89414,
25677,
6680,
6014,
5652,
4932,
4654,
4719,
5192,
6663,
11530,
18594,
19834,
23819,
70787,
178826,
219825,
124860,
35869,
8520,
3916,
3048,
2952,
3355,
3624,
3420,
3100,
3185,
3263,
3403,
3573,
3772,
4031,
4292,
4311,
4141,
4654,
8260,
24663,
58849,
79166,
56782,
24761,
10137,
6089,
4353,
3769,
3596,
3529,
3884,
3862,
3770,
3610,
3587,
3571,
3533,
3750,
3792,
3758,
3669,
3760,
3817,
3652,
3751,
3688,
3721,
3783,
3789,
3748,
3869,
3773,
3745,
3719,
3841,
3889,
3894,
3823,
3623,
3682,
3706,
3593,
3491,
3634,
3513,
3588,
3659,
3575,
3532,
3565,
3479,
3526,
3484,
3446,
3464,
3350,
3456,
3316,
3317,
3365,
3353,
3327,
3167,
3180,
3180,
3228,
3208,
3185,
3073,
3071,
3106,
3088,
3120,
3100,
3010,
2996,
2939,
2975,
2986,
2827,
2939,
2942,
2965,
2832,
2848,
2819,
2781,
2735,
2779,
2717,
2819,
2703,
2669,
2650,
2586,
2533,
2621,
2718,
2568,
2562,
2566,
2594,
2551,
2508,
2496,
2454,
2421,
2425,
2455,
2331,
2473,
2387,
2296,
2346,
2355,
2327,
2394,
2278,
2254,
2313,
2242,
2237,
2240,
2201,
2277,
2129,
2169,
2160,
2133,
2172,
2131,
2172,
2152,
2139,
2198,
2619,
3581,
5549,
8422,
10441,
10267,
8276,
5373,
3368,
2348,
1983,
1927,
1907,
1833,
1855,
1787,
1859,
1885,
1848,
1999,
2128,
2325,
2613,
2807,
2905,
2939,
2345,
2081,
1897,
1752,
1697,
1587,
1604,
1691,
1666,
1675,
1724,
1771,
1663,
1666,
1612,
1615,
1539,
1570,
1570,
1530,
1476,
1557,
1486,
1479,
1521,
1491,
1478,
1480,
1499,
1442,
1484,
1489,
1539,
1516,
1374,
1411,
1384,
1338,
1370,
1309,
1342,
1307,
1235,
1366,
1298,
1262,
1234,
1269,
1221,
1303,
1230,
1233,
1248,
1213,
1192,
1236,
1263,
1234,
1263,
1277,
1303,
1296,
1411,
1839,
3286,
6566,
13599,
24230,
36218,
44940,
45966,
37868,
25649,
14584,
7289,
3297,
1772,
1229,
1093,
1045,
1039,
1056,
1072,
982,
998,
1104,
1073,
1059,
1055,
1042,
1052,
1031,
1041,
1011,
1108,
1313,
1675,
2425,
3754,
5300,
6525,
6883,
6158,
4842,
3316,
2162,
1356,
957,
832,
794,
758,
769,
746,
728,
703,
692,
772,
721,
759,
737,
709,
719,
704,
730,
704,
722,
713,
755,
712,
744,
722,
701,
686,
744,
665,
702,
626,
644,
631,
629,
575,
620,
630,
605,
593,
629,
591,
600,
602,
588,
592,
580,
542,
565,
555,
524,
568,
544,
552,
524,
558,
548,
514,
537,
551,
521,
538,
501,
485,
442,
487,
515,
482,
472,
459,
436,
449,
438,
483,
436,
461,
468,
460,
407,
456,
448,
450,
417,
413,
406,
430,
409,
405,
432,
421,
370,
397,
404,
424,
383,
383,
384,
361,
355,
357,
327,
370,
362,
366,
344,
359,
336,
379,
354,
313,
339,
345,
307,
357,
297,
281,
317,
363,
293,
306,
342,
316,
299,
285,
275,
304,
285,
265,
301,
261,
257,
257,
268,
298,
260,
285,
240,
266,
246,
280,
257,
232,
272,
205,
213,
234,
232,
241,
219,
237,
219,
210,
204,
229,
231,
240,
214,
210,
203,
226,
198,
207,
194,
173,
187,
192,
194,
191,
190,
189,
170,
205,
203,
174,
162,
174,
182,
156,
175,
162,
149,
158,
143,
168,
155,
148,
156,
170,
158,
136,
134,
140,
141,
125,
136,
145,
138,
99,
125,
140,
112,
114,
121,
102,
113,
114,
122,
107,
96,
104,
112,
96,
91,
98,
118,
124,
98,
95,
101,
82,
120,
100,
97,
93,
86,
85,
102,
99,
80,
98,
74,
86,
89,
97,
62,
66,
70,
74,
83,
78,
87,
86,
76,
68,
63,
78,
63,
61,
74,
83,
86,
83,
67,
76,
78,
71,
56,
62,
71,
59,
44,
50,
57,
49,
58,
40,
40,
35,
53,
49,
45,
46,
47,
54,
50,
30,
48,
35,
35,
39,
38,
32,
28,
29,
37,
30,
28,
36,
29,
40,
31,
23,
37,
34,
18,
34,
35,
19,
27,
28,
33,
25,
23,
23,
19,
12,
21,
12,
17,
14,
25,
24,
12,
15,
13,
19,
13,
10,
11,
15,
15,
13,
8,
7,
7,
11,
13,
4,
6,
6,
6,
7,
3,
5,
2,
3,
3,
3,
2,
3,
5,
3,
0,
2,
1,
2,
3,
1,
1,
0,
2,
1,
0,
2,
0,
0,
1,
1,
0,
0,
0,
0,
0,
0,
1,
0,
0,
0,
0,
1,
1,
0,
1,
0,
0,
1,
0,
2,
1,
0,
0,
2,
0,
0,
2,
1,
2,
1,
0,
0,
1,
2,
0,
1,
0,
1,
0,
0,
1,
0,
0,
2,
0,
0,
1,
0,
0,
1,
0,
1,
1,
1,
1,
0,
1,
3,
1,
0,
2,
0,
0,
1,
0,
0,
0,
0,
2,
0,
0,
3,
0,
0,
0,
0,
0,
0,
0,
0,
0,
1,
0,
0,
0,
0,
1,
0,
0,
0,
0,
0,
1,
0,
0,
0,
0,
0,
1,
0,
0,
0,
0,
0,
0,
0,
0,
2,
0,
1,
1,
0,
0,
0,
1,
0,
0,
0,
0,
0,
0,
0,
0,
0,
1,
1,
1,
0,
0,
0,
0,
0,
1,
0,
0,
0,
0,
1,
1,
0,
1,
0,
0,
1,
0,
0,
0,
0,
0,
0,
0,
0,
0,
1,
0,
0,
1,
1,
0,
1,
0,
0,
0,
1,
0,
0,
1,
0,
0,
0,
0,
0,
0,
0,
0,
0,
0,
1,
0,
0,
0,
0,
0,
0,
1,
0,
0,
0,
0,
0,
0,
1,
0,
0,
0,
1,
0,
0,
1,
0,
0,
1,
0,
0,
0,
0,
0,
0,
0,
0,
0,
0,
0,
0,
0,
0,
0,
0,
0,
0,
0,
0,
0,
0,
0,
0,
0,
0,
0,
0,
0,
0,
0,
0,
1,
0,
0,
0,
0,
0,
0,
0,
0,
0,
0,
0,
0,
1,
0,
0,
0,
0,
0,
0,
0,
1,
0,
0,
0,
0,
0,
0,
0,
0,
0,
0,
0,
0,
0,
0,
0,
0,
0,
0,
0,
0,
0,
0,
0,
0,
0,
0,
0,
0,
0,
0,
0,
0,
0,
0,
0,
0,
1,
0,
0,
0,
0,
0,
0,
0,
0,
0,
0,
1,
0,
0,
0,
0,
0,
0,
0,
0,
0,
0,
0,
0,
0,
0,
0,
0,
0,
0,
0,
0,
0,
0,
0,
0,
0,
0,
0,
0,
0,
0,
0,
0,
0,
0,
0,
0,
0,
0,
0,
0,
0,
0,
0,
0,
0,
0,
0,
0,
0,
0,
0,
0,
1,
0,
0,
0,
0,
0,
0,
0,
0,
0,
0,
0,
0,
0,
0,
0,
0,
0,
0,
0,
0,
0,
0,
1,
0,
0,
0,
0,
0,
0,
0,
0,
0,
0,
0,
0,
0,
0,
0,
0,
0,
0,
0,
0,
0,
0,
0,
0,
0,
0,
0,
0,
0,
0,
0,
0,
0,
0,
0,
0,
0,
0,
0,
0,
0,
0,
0,
0,
0,
0,
0,
0,
0,
0,
0,
0,
0,
0,
0,
0,
0,
0,
0,
0,
0,
0,
0,
0,
0,
0,
0,
0,
0,
0,
0,
0,
0,
0,
0,
0,
0,
0,
0,
0,
0,
0,
0,
0,
0,
0,
0,
0,
0,
0,
0,
0,
0,
0,
0,
0,
0,
0,
0,
0,
0,
0,
0,
0,
0,
0,
0,
0,
0,
0,
0,
0,
0,
0,
0,
0,
0,
0,
0,
0,
0,
0,
0,
0,
0,
0,
0,
0,
0,
0,
0,
0,
0,
0,
0,
0,
0,
0,
0,
0,
0,
0,
0,
0,
0,
0,
0,
0,
0,
0,
0,
0,
0,
0,
0,
0,
0,
0,
0,
0,
0,
0,
0,
0,
0,
0,
0,
0,
0,
0,
0,
0,
0,
0,
0,
0,
0,
0,
0,
0,
0,
0,
0,
0,
0,
0,
0,
0,
0,
0,
0,
0,
0,
0,
0,
0,
0,
0,
0,
0,
0,
0,
0,
0,
0,
0,
0,
0,
0,
0,
0,
0,
0,
0,
0,
0,
0,
0,
0,
0,
0,
0,
0,
0,
0,
0,
0,
0,
0,
0,
0,
0,
0,
0,
0,
0,
0,
0,
0,
0,
0,
0,
0,
0,
0,
0,
0,
0,
0,
0,
0,
0,
0,
0,
0,
0,
0,
0,
0,
0,
0,
0,
0,
0,
0,
0,
0,
0,
0,
0,
0,
0,
0,
0,
0,
0,
0,
0,
0,
0,
0,
0,
0,
0,
0,
0,
0,
0,
0,
0,
0,
0,
0,
0,
0,
0,
0,
0,
0,
0,
0,
0,
0,
0,
0,
#ENDOFDATA   :