File: N132962/Quantification/20 keV/MMM2/SPI MM2 C[1][4].msa
#FORMAT      : EMSA/MAS Spectral Data File
#VERSION     : 1.0
#TITLE       : SPI MM2 C[1][all]
#DATE        : 13-MAR-2025
#TIME        : 14:22
#OWNER       : Unknown
#NPOINTS     : 4096
#NCOLUMNS    : 1
#XUNITS      : eV
#YUNITS      : counts
#DATATYPE    : Y
#XPERCHAN    : 9.99778
#OFFSET      : 1.69135
#BEAMKV      : 20
#SIGNALTYPE  : EDS
#ELEVANGLE   : 35
#AZIMANGLE   : 0
#LIVETIME    : 240.006
#REALTIME    : 250.916
#PROBECUR    : 1.02609
#TAUWIND     : 0
#TDEADLYR    : 0
#TACTLYR     : 0.045
#TALWIND     : 0.025
#CHOFFSET    : 0.0
#XLABEL      : Energy (eV)
#YLABEL      : Counts
#XPOSITION   : 3.26382
#YPOSITION   : 8.85048
#ZPOSITION   : 31.03511
#EDSDET      : SD
##SPECIMEN   : SPI MM2 C[1][all]
##D2STDCMP   : C,(C:100.0)
##DET_HASH   : 12273538-fd48-a23f-0a19-f1e6fa85caef
##CALIB_HASH : 6abaa72c-aa41-8738-0be9-f592914732f3
##WORKING    : 15.0 mm
##DET_NAME   : EDAX All
##DET_MODE   : MediumLE
#SPECTRUM    :
24,
29,
14,
56,
318,
1717,
11245,
91731,
379447,
521908,
215687,
27606,
1656,
538,
568,
788,
1591,
3169,
3376,
1875,
1083,
900,
1065,
1233,
1205,
1313,
1377,
1467,
1518,
1658,
1733,
1805,
1941,
1933,
2034,
2205,
2137,
2273,
2313,
2377,
2436,
2461,
2425,
2556,
2553,
2603,
2571,
2548,
2713,
2547,
2660,
2604,
2566,
2559,
2573,
2631,
2546,
2542,
2559,
2510,
2531,
2318,
2151,
2123,
2030,
1974,
1991,
1971,
1976,
1929,
1941,
1859,
1864,
1806,
1807,
1858,
1789,
1776,
1764,
1680,
1646,
1634,
1614,
1633,
1585,
1572,
1527,
1561,
1491,
1428,
1492,
1428,
1427,
1446,
1405,
1306,
1418,
1300,
1278,
1296,
1275,
1290,
1270,
1217,
1271,
1150,
1161,
1192,
1167,
1100,
1129,
1132,
1153,
1174,
1020,
1102,
1091,
1055,
1053,
1017,
1044,
937,
1037,
1004,
996,
972,
931,
964,
935,
914,
850,
842,
908,
879,
956,
822,
885,
867,
821,
806,
828,
816,
782,
750,
763,
767,
802,
744,
743,
757,
729,
771,
748,
724,
731,
703,
701,
701,
729,
660,
658,
683,
660,
644,
623,
650,
645,
603,
642,
574,
657,
614,
595,
589,
585,
555,
598,
585,
563,
540,
529,
568,
597,
520,
544,
540,
585,
545,
518,
480,
522,
556,
507,
468,
461,
479,
434,
489,
470,
453,
459,
488,
466,
429,
425,
466,
421,
432,
447,
471,
445,
450,
497,
470,
513,
447,
434,
378,
433,
449,
423,
427,
387,
366,
384,
387,
389,
381,
379,
380,
337,
374,
336,
318,
382,
378,
335,
352,
319,
328,
356,
333,
323,
351,
310,
304,
299,
344,
339,
344,
280,
297,
305,
315,
308,
265,
275,
290,
304,
277,
260,
303,
283,
269,
249,
246,
285,
244,
284,
258,
260,
230,
252,
222,
238,
270,
238,
236,
248,
250,
226,
228,
245,
252,
227,
237,
222,
209,
235,
217,
248,
205,
201,
207,
207,
221,
201,
185,
227,
188,
220,
187,
225,
206,
189,
194,
161,
210,
176,
191,
191,
182,
194,
180,
208,
190,
200,
185,
149,
172,
147,
150,
149,
162,
165,
151,
181,
168,
161,
155,
163,
173,
148,
152,
157,
145,
147,
150,
148,
160,
133,
145,
128,
134,
128,
134,
131,
135,
121,
125,
125,
133,
129,
126,
122,
124,
132,
132,
121,
108,
129,
134,
104,
129,
120,
114,
104,
114,
114,
103,
108,
101,
98,
96,
110,
81,
118,
98,
117,
111,
89,
90,
88,
94,
89,
105,
87,
82,
113,
106,
98,
104,
99,
82,
100,
98,
94,
86,
97,
91,
86,
91,
75,
78,
78,
72,
77,
90,
78,
72,
57,
85,
76,
66,
78,
67,
76,
61,
66,
56,
51,
57,
57,
58,
70,
65,
57,
67,
51,
57,
69,
49,
51,
63,
64,
55,
63,
50,
60,
66,
51,
72,
46,
57,
58,
53,
46,
45,
48,
63,
54,
55,
60,
50,
38,
46,
51,
39,
43,
42,
35,
43,
46,
40,
35,
48,
38,
41,
37,
41,
28,
30,
37,
30,
29,
26,
37,
25,
36,
37,
33,
32,
26,
37,
29,
29,
38,
30,
36,
26,
25,
36,
24,
30,
21,
24,
30,
26,
23,
24,
28,
27,
25,
32,
36,
31,
14,
27,
18,
27,
26,
15,
14,
18,
18,
17,
23,
23,
24,
22,
20,
18,
19,
15,
18,
19,
19,
14,
20,
15,
22,
18,
19,
11,
16,
19,
13,
18,
12,
12,
11,
16,
21,
15,
13,
12,
11,
10,
11,
10,
14,
16,
11,
11,
13,
12,
13,
9,
12,
14,
10,
6,
13,
12,
16,
7,
14,
2,
5,
10,
10,
7,
9,
13,
5,
2,
11,
15,
12,
5,
3,
8,
4,
10,
10,
4,
6,
3,
6,
13,
5,
4,
3,
8,
9,
5,
4,
6,
6,
6,
1,
2,
3,
5,
4,
6,
7,
7,
0,
7,
2,
2,
1,
1,
3,
5,
5,
3,
3,
2,
2,
2,
2,
1,
2,
1,
3,
2,
4,
0,
0,
1,
1,
2,
0,
2,
1,
2,
1,
0,
1,
4,
2,
2,
2,
1,
0,
1,
0,
0,
1,
1,
0,
0,
0,
0,
1,
1,
0,
0,
0,
0,
0,
0,
1,
1,
0,
0,
0,
0,
0,
0,
0,
0,
0,
0,
0,
0,
0,
0,
0,
0,
0,
0,
0,
0,
0,
0,
0,
0,
0,
0,
0,
0,
0,
0,
0,
0,
0,
0,
0,
0,
0,
0,
0,
0,
0,
0,
0,
0,
0,
0,
0,
0,
0,
0,
0,
0,
0,
0,
0,
0,
0,
0,
0,
0,
0,
0,
0,
0,
0,
0,
0,
0,
0,
0,
0,
0,
0,
0,
0,
0,
0,
0,
0,
0,
0,
0,
0,
0,
0,
0,
0,
0,
0,
0,
0,
0,
0,
0,
0,
0,
0,
0,
0,
0,
0,
0,
0,
0,
0,
0,
0,
0,
0,
0,
0,
0,
0,
0,
0,
0,
0,
0,
0,
0,
0,
0,
0,
0,
0,
0,
0,
0,
0,
0,
0,
0,
0,
0,
0,
0,
0,
0,
0,
0,
0,
0,
0,
1,
0,
0,
0,
0,
0,
0,
0,
0,
0,
0,
0,
0,
0,
0,
0,
0,
0,
0,
0,
0,
0,
0,
0,
0,
0,
0,
0,
0,
0,
0,
0,
0,
0,
0,
0,
0,
0,
0,
0,
0,
0,
0,
0,
0,
0,
0,
0,
0,
0,
0,
0,
0,
0,
0,
0,
0,
0,
0,
0,
0,
0,
0,
0,
0,
0,
0,
0,
0,
0,
0,
0,
0,
0,
0,
0,
0,
0,
0,
0,
0,
0,
0,
0,
0,
0,
0,
0,
0,
0,
0,
0,
0,
0,
0,
0,
0,
0,
0,
0,
0,
0,
0,
0,
0,
0,
0,
0,
0,
0,
0,
0,
0,
0,
0,
0,
0,
0,
0,
0,
0,
0,
0,
0,
0,
0,
0,
0,
0,
0,
0,
0,
0,
0,
0,
0,
0,
0,
0,
0,
0,
0,
0,
0,
0,
0,
0,
0,
0,
0,
0,
0,
0,
0,
0,
0,
0,
0,
0,
0,
0,
0,
0,
0,
0,
0,
0,
0,
0,
0,
0,
0,
0,
0,
0,
0,
0,
0,
0,
0,
0,
0,
0,
1,
0,
0,
0,
0,
0,
0,
0,
0,
0,
0,
0,
0,
0,
0,
0,
0,
0,
0,
0,
0,
0,
0,
0,
0,
0,
0,
0,
0,
0,
0,
0,
0,
0,
0,
0,
0,
0,
0,
0,
0,
0,
0,
0,
0,
0,
0,
0,
0,
0,
0,
0,
0,
0,
0,
0,
0,
0,
0,
0,
0,
0,
0,
0,
0,
0,
0,
0,
0,
0,
0,
0,
0,
0,
0,
0,
0,
0,
0,
0,
0,
0,
0,
0,
0,
0,
0,
0,
0,
0,
0,
0,
0,
0,
0,
0,
0,
0,
0,
0,
0,
0,
0,
0,
0,
0,
0,
0,
0,
0,
0,
0,
0,
0,
0,
0,
0,
0,
0,
0,
0,
0,
0,
0,
0,
0,
0,
0,
0,
0,
0,
0,
0,
0,
0,
0,
0,
0,
0,
0,
0,
0,
0,
0,
0,
0,
0,
0,
0,
0,
0,
0,
0,
0,
0,
0,
0,
0,
0,
0,
0,
0,
0,
0,
0,
0,
0,
0,
0,
0,
0,
0,
0,
0,
0,
0,
0,
0,
0,
0,
0,
0,
0,
0,
0,
0,
0,
0,
0,
0,
0,
0,
0,
0,
0,
0,
0,
0,
0,
0,
0,
0,
0,
0,
0,
0,
0,
0,
0,
0,
0,
0,
0,
0,
0,
0,
0,
0,
0,
0,
0,
0,
0,
0,
0,
0,
0,
0,
0,
0,
0,
0,
0,
0,
0,
0,
0,
0,
0,
0,
0,
0,
0,
0,
0,
0,
0,
0,
0,
0,
0,
0,
0,
0,
0,
0,
0,
0,
0,
0,
0,
0,
0,
0,
0,
0,
0,
0,
0,
0,
0,
0,
0,
0,
0,
0,
0,
0,
0,
0,
0,
0,
0,
0,
0,
0,
0,
0,
0,
0,
0,
0,
0,
0,
0,
0,
0,
0,
0,
0,
0,
0,
0,
0,
0,
0,
0,
0,
0,
0,
0,
0,
0,
0,
0,
0,
0,
0,
0,
0,
0,
0,
0,
0,
0,
0,
0,
0,
0,
0,
0,
0,
0,
0,
0,
0,
0,
0,
0,
0,
0,
0,
0,
0,
0,
0,
0,
0,
0,
0,
0,
0,
0,
0,
0,
0,
0,
0,
0,
0,
0,
0,
0,
0,
0,
0,
0,
0,
0,
0,
0,
0,
0,
0,
#ENDOFDATA   :