File: N132962/Quantification/20 keV/MMM2/SPI MM2 Sphene[4][4].msa
#FORMAT      : EMSA/MAS Spectral Data File
#VERSION     : 1.0
#TITLE       : SPI MM2 Sphene[4][all]
#DATE        : 13-MAR-2025
#TIME        : 13:02
#OWNER       : Unknown
#NPOINTS     : 4096
#NCOLUMNS    : 1
#XUNITS      : eV
#YUNITS      : counts
#DATATYPE    : Y
#XPERCHAN    : 9.99778
#OFFSET      : 1.69135
#BEAMKV      : 20
#SIGNALTYPE  : EDS
#ELEVANGLE   : 35
#AZIMANGLE   : 0
#LIVETIME    : 239.841
#REALTIME    : 254.833
#PROBECUR    : 1.02627
#TAUWIND     : 0
#TDEADLYR    : 0
#TACTLYR     : 0.045
#TALWIND     : 0.025
#CHOFFSET    : 0.0
#XLABEL      : Energy (eV)
#YLABEL      : Counts
#XPOSITION   : 6.06198
#YPOSITION   : 3.74089
#ZPOSITION   : 31.03511
#EDSDET      : SD
##SPECIMEN   : SPI MM2 Sphene[4][all]
##DET_HASH   : 12273538-fd48-a23f-0a19-f1e6fa85caef
##CALIB_HASH : 6abaa72c-aa41-8738-0be9-f592914732f3
##WORKING    : 15.0 mm
##DET_NAME   : EDAX All
##DET_MODE   : MediumLE
#SPECTRUM    :
23,
29,
7,
13,
70,
280,
1010,
3205,
9558,
14350,
9965,
6058,
6060,
7096,
7769,
12357,
33460,
62975,
46067,
12878,
2583,
1690,
2186,
2397,
2451,
2137,
2082,
2289,
2408,
2564,
2556,
2633,
2725,
2916,
3002,
3169,
3402,
3359,
3510,
3486,
3746,
3888,
4125,
4083,
4296,
4441,
4530,
5057,
7074,
9544,
9720,
7430,
5909,
5275,
5876,
11645,
38699,
95372,
128967,
91900,
38764,
14736,
7914,
5510,
4817,
4847,
4474,
4024,
3891,
3607,
3748,
3892,
4370,
4398,
4184,
4024,
4152,
3769,
3529,
3397,
3336,
3295,
3390,
3390,
3194,
3252,
3233,
3285,
3197,
3309,
3357,
3602,
3704,
3555,
3435,
3224,
3093,
3140,
3056,
3040,
3072,
2978,
2988,
2960,
2931,
2885,
2978,
3046,
2917,
2948,
2876,
2723,
2711,
2689,
2777,
2880,
3001,
3320,
4158,
7012,
17598,
43962,
80668,
101651,
86582,
48928,
19427,
6876,
3519,
3182,
3522,
5439,
9014,
12989,
14419,
11392,
7338,
3905,
2486,
2092,
2059,
2137,
2080,
2094,
2347,
2893,
5115,
12147,
29063,
53948,
72160,
68019,
45146,
21946,
8212,
3425,
2076,
1923,
1982,
2085,
2385,
3408,
5582,
8592,
10958,
10718,
8059,
4896,
2838,
1939,
1540,
1491,
1471,
1448,
1480,
1412,
1427,
1447,
1430,
1620,
1548,
1567,
1619,
1562,
1340,
1323,
1295,
1357,
1351,
1328,
1285,
1294,
1303,
1308,
1372,
1367,
1332,
1322,
1365,
1300,
1230,
1254,
1205,
1174,
1143,
1136,
1256,
1259,
1283,
1368,
1425,
1712,
1846,
1985,
1813,
1742,
1452,
1224,
1173,
1038,
1167,
1092,
1160,
1124,
1133,
1023,
1105,
1043,
1023,
1047,
1137,
972,
1135,
1078,
1095,
1060,
1072,
1034,
1047,
1012,
1013,
907,
956,
1006,
949,
1017,
980,
1006,
981,
959,
954,
967,
873,
990,
874,
916,
871,
898,
876,
886,
836,
820,
853,
815,
783,
834,
797,
834,
814,
796,
780,
860,
796,
834,
836,
835,
807,
748,
800,
729,
701,
712,
697,
748,
752,
676,
732,
717,
721,
695,
663,
685,
709,
651,
656,
678,
650,
679,
640,
696,
641,
680,
698,
655,
622,
625,
543,
608,
599,
608,
580,
557,
590,
589,
601,
556,
577,
619,
549,
579,
561,
603,
577,
559,
550,
554,
538,
577,
548,
549,
506,
499,
468,
517,
500,
471,
457,
472,
529,
517,
482,
480,
490,
476,
454,
436,
467,
440,
429,
451,
504,
420,
455,
438,
418,
452,
423,
428,
404,
446,
420,
421,
396,
437,
414,
407,
422,
412,
380,
405,
372,
415,
362,
379,
383,
374,
365,
360,
359,
351,
323,
337,
311,
362,
322,
340,
322,
339,
310,
351,
352,
353,
341,
327,
323,
282,
316,
315,
280,
277,
283,
298,
313,
305,
289,
306,
266,
281,
265,
291,
253,
297,
267,
253,
270,
260,
246,
251,
272,
251,
237,
273,
253,
230,
227,
245,
206,
233,
229,
222,
230,
197,
233,
235,
217,
229,
227,
201,
215,
191,
205,
219,
181,
200,
204,
179,
197,
173,
192,
160,
187,
175,
158,
172,
170,
183,
162,
176,
159,
165,
174,
152,
171,
165,
183,
150,
156,
142,
148,
143,
155,
125,
148,
157,
131,
144,
119,
131,
149,
134,
151,
143,
119,
134,
133,
115,
129,
120,
112,
121,
116,
119,
122,
102,
117,
99,
110,
112,
122,
99,
92,
89,
97,
108,
94,
95,
111,
95,
67,
98,
89,
103,
93,
84,
96,
101,
80,
100,
72,
80,
85,
83,
98,
75,
76,
71,
60,
68,
76,
71,
83,
72,
64,
76,
58,
61,
68,
59,
52,
54,
63,
71,
61,
57,
62,
52,
72,
52,
59,
50,
46,
46,
43,
59,
54,
56,
54,
36,
42,
44,
52,
40,
32,
40,
39,
37,
33,
37,
60,
53,
45,
42,
30,
41,
34,
37,
40,
47,
35,
32,
44,
28,
33,
24,
29,
29,
29,
24,
29,
22,
37,
21,
20,
24,
25,
22,
24,
26,
25,
20,
26,
18,
21,
18,
22,
20,
25,
17,
19,
22,
21,
17,
16,
17,
12,
22,
15,
11,
11,
15,
23,
13,
9,
10,
16,
10,
19,
13,
8,
7,
14,
14,
19,
10,
6,
3,
5,
7,
3,
8,
8,
2,
4,
6,
9,
3,
4,
5,
9,
6,
5,
4,
0,
5,
1,
2,
2,
2,
1,
5,
2,
1,
0,
2,
1,
1,
1,
1,
1,
1,
1,
0,
0,
0,
0,
0,
0,
0,
0,
0,
0,
0,
2,
2,
2,
0,
1,
0,
0,
0,
0,
0,
0,
0,
0,
0,
0,
1,
0,
0,
0,
0,
0,
0,
0,
0,
1,
0,
0,
0,
0,
0,
0,
0,
0,
0,
0,
0,
0,
0,
2,
0,
0,
0,
0,
0,
1,
0,
0,
0,
0,
0,
0,
0,
0,
0,
0,
1,
0,
0,
0,
0,
0,
0,
0,
0,
1,
0,
1,
0,
0,
0,
0,
1,
0,
0,
0,
0,
1,
0,
0,
0,
1,
0,
0,
0,
0,
0,
0,
0,
0,
0,
0,
0,
0,
0,
0,
0,
0,
0,
0,
0,
0,
0,
0,
0,
0,
0,
0,
0,
0,
0,
0,
0,
0,
0,
0,
0,
0,
0,
0,
0,
0,
0,
0,
0,
0,
0,
0,
0,
0,
0,
0,
0,
1,
0,
0,
0,
0,
0,
0,
0,
0,
0,
0,
0,
0,
0,
0,
1,
0,
0,
0,
0,
0,
0,
0,
0,
0,
0,
0,
0,
0,
0,
0,
0,
0,
0,
0,
0,
0,
0,
0,
0,
0,
0,
0,
0,
0,
0,
0,
0,
0,
0,
0,
0,
0,
0,
0,
1,
0,
0,
0,
0,
0,
0,
0,
0,
0,
0,
0,
0,
0,
0,
0,
0,
0,
0,
0,
0,
0,
0,
0,
0,
0,
0,
0,
0,
0,
0,
0,
0,
0,
0,
0,
0,
0,
0,
0,
0,
0,
0,
0,
0,
0,
0,
0,
0,
0,
0,
1,
0,
0,
0,
0,
0,
0,
0,
0,
0,
0,
0,
0,
0,
0,
0,
0,
0,
0,
0,
0,
0,
0,
0,
0,
0,
0,
0,
0,
0,
0,
0,
0,
0,
0,
0,
0,
0,
0,
0,
0,
0,
0,
0,
0,
0,
0,
0,
0,
0,
0,
0,
0,
1,
0,
0,
0,
0,
0,
0,
0,
0,
0,
0,
0,
0,
0,
0,
0,
0,
0,
0,
0,
0,
0,
0,
0,
0,
0,
0,
0,
0,
0,
0,
0,
0,
0,
0,
0,
0,
0,
0,
0,
0,
0,
0,
0,
0,
0,
0,
0,
0,
0,
0,
0,
0,
0,
0,
0,
0,
0,
0,
0,
0,
0,
0,
0,
0,
0,
0,
0,
0,
0,
0,
0,
0,
0,
0,
0,
0,
0,
0,
0,
0,
0,
0,
0,
0,
0,
0,
0,
0,
0,
0,
0,
0,
0,
0,
0,
0,
0,
0,
0,
0,
0,
0,
0,
0,
0,
0,
0,
0,
0,
0,
0,
0,
0,
0,
0,
0,
0,
0,
0,
0,
0,
0,
0,
0,
0,
0,
0,
0,
0,
0,
0,
0,
0,
0,
0,
0,
0,
0,
0,
0,
0,
0,
0,
0,
0,
0,
0,
0,
0,
0,
0,
0,
0,
0,
0,
0,
0,
0,
0,
0,
0,
0,
0,
0,
0,
0,
0,
0,
0,
0,
0,
0,
0,
0,
0,
0,
0,
0,
0,
0,
0,
0,
0,
0,
0,
0,
0,
0,
0,
0,
0,
0,
0,
0,
0,
0,
0,
0,
0,
0,
0,
0,
0,
0,
0,
0,
0,
0,
0,
0,
0,
0,
0,
0,
0,
0,
0,
0,
0,
0,
0,
0,
0,
0,
0,
0,
0,
0,
0,
0,
0,
0,
0,
0,
0,
0,
0,
0,
0,
0,
0,
0,
0,
0,
0,
0,
0,
0,
0,
0,
0,
0,
0,
0,
0,
0,
0,
0,
0,
0,
0,
0,
0,
0,
0,
0,
0,
0,
0,
0,
0,
0,
0,
0,
0,
0,
0,
0,
0,
0,
0,
0,
0,
0,
0,
0,
0,
0,
0,
0,
0,
0,
0,
0,
0,
0,
0,
0,
0,
0,
0,
0,
0,
0,
0,
0,
0,
0,
0,
0,
0,
0,
0,
0,
0,
0,
0,
0,
0,
0,
0,
0,
0,
0,
0,
0,
0,
0,
0,
0,
0,
0,
0,
0,
0,
0,
0,
0,
0,
0,
0,
0,
0,
0,
0,
0,
0,
0,
0,
0,
0,
0,
0,
0,
0,
0,
0,
0,
0,
0,
0,
0,
0,
0,
0,
0,
0,
0,
0,
0,
0,
0,
0,
0,
0,
0,
0,
0,
0,
0,
0,
0,
0,
0,
0,
0,
0,
0,
0,
0,
0,
0,
#ENDOFDATA   :