File: N132962/Quantification/20 keV/MMM2/SPI MM2 SPI Magnetite[2][4].msa
#FORMAT      : EMSA/MAS Spectral Data File
#VERSION     : 1.0
#TITLE       : SPI MM2 SPI Magnetite[2][all]
#DATE        : 13-MAR-2025
#TIME        : 09:20
#OWNER       : Unknown
#NPOINTS     : 4096
#NCOLUMNS    : 1
#XUNITS      : eV
#YUNITS      : counts
#DATATYPE    : Y
#XPERCHAN    : 9.99778
#OFFSET      : 1.69135
#BEAMKV      : 20
#SIGNALTYPE  : EDS
#ELEVANGLE   : 35
#AZIMANGLE   : 0
#LIVETIME    : 240.007
#REALTIME    : 256.996
#PROBECUR    : 1.02582
#TAUWIND     : 0
#TDEADLYR    : 0
#TACTLYR     : 0.045
#TALWIND     : 0.025
#CHOFFSET    : 0.0
#XLABEL      : Energy (eV)
#YLABEL      : Counts
#XPOSITION   : 3.95208
#YPOSITION   : -4.1611
#ZPOSITION   : 31.03509
#EDSDET      : SD
##SPECIMEN   : SPI MM2 SPI Magnetite[2][all]
##D2STDCMP   : SPI Magnetite,(O:27.53),(Si:0.01),(Mn:0.18),(Fe:71.88)
##DET_HASH   : 12273538-fd48-a23f-0a19-f1e6fa85caef
##CALIB_HASH : 6abaa72c-aa41-8738-0be9-f592914732f3
##WORKING    : 15.0 mm
##DET_NAME   : EDAX All
##DET_MODE   : MediumLE
#SPECTRUM    :
23,
31,
8,
18,
116,
448,
1401,
3848,
10293,
13419,
7826,
4765,
4997,
6179,
9463,
27083,
96542,
181531,
133826,
44463,
24237,
23214,
30204,
49908,
42874,
17132,
4929,
2799,
2375,
2207,
2071,
2168,
2296,
2517,
2705,
2781,
2827,
2857,
3014,
3031,
3102,
3378,
3496,
3396,
3469,
3584,
3706,
3909,
4083,
4280,
4434,
4427,
4329,
4235,
4312,
4324,
4582,
4854,
5069,
5254,
5128,
4735,
4554,
4302,
4364,
4312,
4384,
4322,
4376,
4325,
4448,
4439,
4538,
4369,
4592,
4481,
4501,
4461,
4432,
4402,
4464,
4384,
4383,
4395,
4299,
4368,
4394,
4247,
4404,
4257,
4209,
4226,
4185,
4178,
4285,
4134,
4149,
3984,
4127,
4138,
3890,
4006,
3891,
3816,
3954,
3898,
3816,
3940,
3763,
3838,
3697,
3739,
3597,
3728,
3634,
3624,
3475,
3563,
3511,
3482,
3526,
3391,
3399,
3416,
3524,
3412,
3239,
3316,
3332,
3347,
3190,
3180,
3170,
3241,
3143,
3224,
3095,
3123,
3077,
3135,
3032,
3008,
2961,
2933,
2994,
3015,
2956,
2854,
2910,
2902,
2907,
2980,
2914,
3027,
3230,
3236,
3107,
3021,
2751,
2578,
2657,
2645,
2631,
2682,
2674,
2577,
2610,
2569,
2429,
2494,
2387,
2447,
2439,
2477,
2407,
2491,
2462,
2491,
2404,
2468,
2351,
2357,
2389,
2322,
2312,
2263,
2169,
2166,
2088,
2133,
2147,
2212,
2109,
2251,
2272,
2566,
2601,
2632,
2410,
2247,
2156,
2161,
2163,
2249,
2260,
2354,
2555,
3404,
6122,
14984,
35953,
73002,
116478,
141865,
132869,
95907,
53144,
23490,
8938,
3550,
2285,
1977,
1836,
1879,
1903,
1877,
1902,
1988,
2140,
2533,
3150,
4734,
7698,
12490,
17318,
19523,
17700,
12956,
7753,
4252,
2320,
1625,
1351,
1337,
1264,
1239,
1320,
1268,
1308,
1341,
1291,
1385,
1241,
1274,
1169,
1168,
1166,
1200,
1075,
1126,
1142,
1137,
1089,
1184,
1117,
1097,
1177,
1132,
1109,
1137,
1090,
1089,
1085,
1070,
1092,
1046,
1020,
1066,
1008,
1012,
979,
1041,
1025,
1020,
1060,
1026,
1015,
1027,
936,
993,
937,
988,
991,
959,
946,
995,
962,
932,
903,
879,
926,
931,
878,
913,
900,
898,
870,
857,
875,
845,
917,
868,
876,
888,
881,
794,
793,
871,
852,
826,
817,
801,
778,
843,
766,
893,
815,
784,
773,
785,
764,
742,
758,
792,
729,
793,
758,
752,
765,
773,
764,
739,
668,
718,
690,
672,
719,
708,
621,
694,
668,
720,
657,
631,
673,
634,
626,
647,
661,
615,
613,
592,
593,
593,
614,
569,
563,
608,
581,
590,
584,
614,
572,
562,
580,
623,
563,
588,
572,
572,
543,
558,
523,
558,
483,
517,
555,
510,
455,
487,
499,
463,
498,
497,
481,
463,
465,
436,
478,
512,
487,
484,
467,
515,
447,
468,
399,
414,
422,
431,
458,
416,
395,
407,
382,
413,
339,
387,
362,
422,
398,
431,
407,
403,
445,
460,
508,
454,
433,
441,
411,
383,
332,
366,
321,
317,
340,
320,
300,
311,
349,
305,
311,
324,
270,
338,
346,
347,
349,
323,
356,
295,
321,
316,
308,
265,
272,
265,
278,
289,
253,
264,
299,
283,
257,
261,
261,
242,
243,
235,
232,
235,
203,
222,
220,
229,
223,
229,
229,
201,
204,
214,
247,
224,
173,
204,
200,
191,
207,
198,
188,
169,
211,
190,
194,
169,
162,
167,
173,
165,
172,
158,
176,
183,
178,
159,
151,
148,
167,
123,
135,
157,
139,
152,
162,
135,
137,
129,
141,
144,
149,
128,
126,
131,
132,
118,
129,
114,
121,
104,
126,
125,
131,
120,
111,
102,
106,
102,
99,
85,
121,
88,
96,
96,
104,
95,
97,
85,
77,
97,
80,
88,
90,
86,
77,
86,
83,
69,
80,
67,
69,
88,
78,
85,
61,
86,
63,
58,
77,
61,
74,
70,
70,
58,
61,
69,
58,
67,
56,
63,
51,
54,
61,
52,
42,
51,
47,
40,
44,
57,
47,
43,
51,
46,
52,
38,
44,
37,
31,
38,
25,
42,
35,
44,
46,
25,
40,
23,
32,
38,
25,
33,
36,
29,
32,
29,
25,
32,
30,
24,
24,
22,
25,
27,
23,
17,
19,
16,
21,
15,
26,
17,
21,
20,
15,
15,
18,
17,
15,
15,
12,
12,
8,
13,
13,
5,
7,
9,
14,
11,
4,
7,
4,
6,
5,
7,
5,
5,
5,
5,
4,
2,
2,
1,
0,
1,
2,
4,
1,
0,
1,
3,
2,
1,
0,
2,
0,
2,
0,
1,
4,
2,
1,
0,
2,
1,
0,
3,
2,
0,
0,
0,
0,
1,
0,
0,
0,
1,
0,
2,
2,
1,
2,
1,
1,
1,
1,
0,
0,
0,
1,
0,
2,
1,
0,
2,
1,
0,
0,
1,
1,
1,
0,
1,
0,
0,
0,
0,
0,
1,
0,
2,
1,
0,
0,
1,
1,
1,
1,
1,
1,
1,
1,
1,
0,
0,
1,
0,
0,
0,
0,
1,
3,
0,
0,
0,
2,
0,
0,
0,
0,
0,
0,
1,
0,
0,
1,
0,
2,
2,
0,
1,
0,
0,
0,
0,
0,
1,
0,
0,
0,
0,
0,
0,
0,
0,
0,
0,
0,
0,
0,
0,
0,
0,
0,
0,
0,
0,
0,
0,
0,
1,
0,
0,
2,
0,
0,
0,
0,
0,
0,
0,
1,
0,
0,
0,
0,
0,
0,
0,
0,
1,
0,
0,
0,
0,
2,
1,
0,
0,
0,
2,
0,
1,
0,
1,
0,
0,
0,
0,
0,
0,
0,
0,
0,
0,
0,
0,
0,
0,
0,
0,
1,
0,
0,
0,
1,
0,
0,
0,
0,
0,
0,
0,
0,
0,
0,
0,
0,
0,
0,
0,
0,
0,
0,
0,
0,
0,
0,
0,
1,
0,
0,
0,
0,
0,
0,
0,
0,
0,
0,
0,
0,
0,
0,
0,
0,
0,
0,
0,
0,
0,
0,
0,
0,
0,
0,
0,
0,
1,
0,
0,
0,
1,
0,
0,
0,
0,
0,
0,
0,
0,
0,
0,
0,
0,
0,
0,
0,
0,
0,
0,
0,
0,
0,
0,
0,
0,
0,
0,
0,
0,
0,
0,
0,
0,
0,
0,
0,
0,
0,
0,
0,
0,
0,
0,
0,
0,
0,
0,
0,
0,
0,
0,
0,
0,
0,
0,
0,
1,
0,
0,
0,
0,
0,
0,
0,
0,
0,
0,
0,
0,
0,
0,
0,
0,
0,
0,
0,
0,
0,
0,
0,
0,
0,
0,
0,
0,
0,
0,
0,
0,
0,
0,
0,
0,
0,
0,
0,
0,
0,
0,
0,
0,
0,
0,
0,
0,
0,
0,
0,
0,
0,
0,
0,
0,
0,
0,
0,
0,
0,
0,
0,
0,
0,
0,
0,
0,
0,
0,
0,
0,
0,
0,
0,
0,
0,
0,
0,
0,
0,
0,
0,
0,
0,
0,
0,
0,
0,
0,
0,
0,
0,
0,
0,
0,
0,
0,
0,
0,
0,
0,
0,
0,
0,
0,
0,
0,
0,
0,
0,
0,
0,
0,
0,
0,
0,
0,
0,
0,
0,
0,
0,
0,
0,
0,
0,
0,
0,
0,
0,
0,
0,
0,
0,
0,
0,
0,
0,
0,
0,
0,
0,
0,
0,
0,
0,
0,
0,
0,
0,
0,
0,
0,
0,
0,
0,
0,
0,
0,
0,
0,
0,
0,
0,
0,
0,
0,
0,
0,
0,
0,
0,
0,
0,
0,
0,
0,
0,
0,
0,
0,
0,
0,
0,
0,
0,
0,
0,
0,
0,
0,
0,
0,
0,
0,
0,
0,
0,
0,
0,
0,
0,
0,
0,
0,
0,
0,
0,
0,
0,
0,
0,
0,
0,
0,
0,
0,
0,
0,
0,
0,
0,
0,
0,
0,
0,
0,
0,
0,
0,
0,
0,
0,
0,
0,
0,
0,
0,
0,
0,
0,
0,
0,
0,
0,
0,
0,
0,
0,
0,
0,
0,
0,
0,
0,
0,
0,
0,
0,
0,
0,
0,
0,
0,
0,
0,
0,
0,
0,
0,
0,
0,
0,
0,
0,
0,
0,
0,
0,
0,
0,
0,
0,
0,
0,
0,
0,
0,
0,
0,
0,
0,
0,
0,
0,
0,
0,
0,
0,
0,
0,
0,
0,
0,
0,
0,
0,
0,
0,
0,
0,
0,
0,
0,
0,
0,
0,
0,
0,
0,
0,
0,
0,
0,
0,
0,
0,
0,
0,
0,
0,
0,
0,
0,
0,
0,
0,
0,
0,
0,
0,
0,
0,
0,
0,
0,
0,
0,
0,
0,
0,
0,
0,
0,
0,
0,
0,
0,
0,
0,
0,
0,
0,
0,
0,
0,
0,
0,
0,
0,
0,
0,
0,
0,
0,
0,
0,
0,
0,
0,
0,
0,
0,
0,
0,
0,
0,
0,
0,
0,
0,
0,
0,
0,
0,
#ENDOFDATA   :