File: N132962/Quantification/20 keV/MMM2/SPI MM2 Pyrope[7][4].msa
#FORMAT      : EMSA/MAS Spectral Data File
#VERSION     : 1.0
#TITLE       : SPI MM2 Pyrope[7][all]
#DATE        : 13-MAR-2025
#TIME        : 12:47
#OWNER       : Unknown
#NPOINTS     : 4096
#NCOLUMNS    : 1
#XUNITS      : eV
#YUNITS      : counts
#DATATYPE    : Y
#XPERCHAN    : 9.99778
#OFFSET      : 1.69135
#BEAMKV      : 20
#SIGNALTYPE  : EDS
#ELEVANGLE   : 35
#AZIMANGLE   : 0
#LIVETIME    : 239.828
#REALTIME    : 255.077
#PROBECUR    : 1.02627
#TAUWIND     : 0
#TDEADLYR    : 0
#TACTLYR     : 0.045
#TALWIND     : 0.025
#CHOFFSET    : 0.0
#XLABEL      : Energy (eV)
#YLABEL      : Counts
#XPOSITION   : 4.59417
#YPOSITION   : 1.53982
#ZPOSITION   : 31.03511
#EDSDET      : SD
##SPECIMEN   : SPI MM2 Pyrope[7][all]
##D2STDCMP   : Pyrope,(O:47.6258),(Mg:18.0873),(Al:13.3861),(Si:20.9007),5.0
##DET_HASH   : 12273538-fd48-a23f-0a19-f1e6fa85caef
##CALIB_HASH : 6abaa72c-aa41-8738-0be9-f592914732f3
##WORKING    : 15.0 mm
##DET_NAME   : EDAX All
##DET_MODE   : MediumLE
#SPECTRUM    :
17,
33,
16,
7,
69,
279,
827,
2540,
7938,
10539,
5670,
2887,
2660,
3320,
6029,
22251,
89111,
175265,
128517,
33880,
5536,
3106,
4078,
6824,
6864,
4088,
2748,
2518,
2579,
2575,
2739,
2837,
3024,
3238,
3710,
4102,
4024,
4286,
5005,
9646,
32008,
78396,
94839,
54252,
16973,
6039,
5273,
12343,
39495,
79679,
81499,
42230,
14583,
6084,
5033,
11264,
40873,
103850,
142310,
100662,
40871,
14415,
7052,
3904,
2838,
2574,
2721,
2666,
2519,
2464,
2415,
2408,
2493,
2568,
2713,
2749,
2772,
2587,
2561,
2464,
2415,
2415,
2496,
2473,
2489,
2420,
2431,
2466,
2481,
2518,
2470,
2528,
2434,
2410,
2438,
2371,
2368,
2463,
2360,
2429,
2516,
2316,
2274,
2287,
2159,
2239,
2323,
2292,
2297,
2138,
2195,
2135,
2128,
2078,
2197,
2157,
2178,
2223,
2263,
2693,
4073,
7726,
12787,
15752,
13636,
8452,
4312,
2522,
1989,
1951,
2021,
2332,
2864,
3256,
3421,
3180,
2537,
2012,
1768,
1763,
1818,
1725,
1608,
1628,
1708,
1666,
1675,
1735,
2011,
2314,
2545,
2609,
2264,
1872,
1610,
1571,
1504,
1587,
1484,
1521,
1486,
1454,
1451,
1527,
1648,
1540,
1543,
1492,
1442,
1385,
1380,
1370,
1321,
1355,
1400,
1416,
1439,
1602,
2146,
2782,
3221,
3293,
2652,
1902,
1509,
1334,
1237,
1260,
1309,
1188,
1137,
1236,
1230,
1308,
1316,
1587,
1748,
1826,
1721,
1541,
1370,
1173,
1128,
1088,
1106,
1110,
1076,
1088,
1392,
2119,
3899,
7199,
10746,
13235,
12472,
9123,
5491,
2818,
1671,
1083,
977,
954,
962,
899,
850,
885,
925,
892,
982,
958,
1006,
1221,
1404,
1826,
2232,
2399,
2288,
1815,
1364,
1009,
884,
839,
804,
778,
737,
755,
811,
802,
817,
816,
791,
819,
754,
751,
720,
748,
701,
696,
706,
718,
684,
694,
726,
637,
680,
668,
658,
648,
658,
632,
632,
695,
672,
616,
641,
611,
640,
668,
614,
614,
604,
541,
566,
589,
575,
545,
563,
622,
582,
564,
567,
537,
588,
548,
563,
558,
590,
494,
532,
523,
551,
483,
511,
499,
538,
519,
561,
519,
489,
475,
467,
465,
496,
510,
470,
451,
479,
440,
476,
467,
442,
401,
452,
412,
423,
377,
438,
410,
440,
440,
451,
416,
408,
394,
390,
380,
405,
413,
384,
366,
420,
415,
377,
377,
335,
369,
386,
362,
388,
391,
339,
375,
358,
338,
325,
329,
309,
357,
340,
357,
348,
317,
330,
356,
299,
311,
320,
318,
338,
281,
297,
300,
266,
297,
312,
266,
285,
301,
268,
265,
273,
288,
267,
251,
272,
278,
285,
253,
265,
239,
283,
245,
214,
256,
253,
270,
249,
252,
234,
229,
218,
235,
263,
220,
243,
232,
241,
209,
228,
210,
213,
219,
207,
190,
208,
222,
185,
170,
202,
206,
193,
207,
166,
206,
180,
204,
202,
186,
175,
163,
180,
155,
164,
165,
177,
160,
177,
166,
175,
176,
147,
166,
157,
183,
169,
146,
148,
132,
128,
144,
148,
153,
137,
146,
115,
134,
122,
145,
125,
135,
144,
121,
134,
110,
118,
122,
135,
111,
119,
104,
95,
126,
118,
103,
97,
111,
81,
106,
103,
103,
105,
100,
106,
106,
95,
101,
107,
86,
91,
100,
93,
104,
84,
80,
96,
75,
89,
103,
86,
73,
86,
68,
70,
83,
86,
81,
95,
62,
87,
72,
81,
84,
60,
55,
81,
59,
88,
64,
65,
51,
64,
69,
59,
66,
53,
37,
71,
64,
58,
48,
52,
58,
44,
55,
44,
56,
45,
46,
47,
51,
54,
48,
42,
39,
32,
34,
45,
34,
34,
41,
34,
45,
46,
39,
27,
49,
32,
41,
42,
29,
36,
33,
30,
34,
31,
23,
36,
35,
29,
31,
35,
21,
29,
35,
25,
22,
27,
20,
23,
27,
26,
21,
30,
27,
32,
14,
32,
31,
18,
33,
18,
19,
19,
22,
18,
16,
21,
20,
7,
16,
8,
17,
16,
16,
17,
11,
17,
8,
15,
15,
7,
12,
16,
13,
8,
14,
7,
6,
10,
14,
16,
8,
5,
15,
7,
6,
11,
6,
9,
3,
7,
10,
10,
4,
4,
3,
5,
6,
7,
6,
4,
6,
9,
4,
6,
4,
4,
2,
4,
1,
4,
4,
5,
7,
2,
3,
4,
0,
1,
1,
2,
0,
2,
0,
1,
0,
1,
0,
0,
0,
1,
0,
2,
0,
0,
0,
0,
0,
1,
0,
0,
0,
0,
0,
0,
0,
0,
0,
0,
0,
0,
0,
0,
0,
0,
0,
1,
0,
0,
1,
0,
0,
0,
0,
0,
0,
0,
0,
0,
1,
0,
0,
0,
0,
0,
0,
0,
0,
0,
0,
0,
0,
0,
1,
0,
0,
0,
0,
0,
0,
1,
0,
0,
0,
0,
0,
0,
0,
0,
0,
1,
0,
0,
1,
0,
0,
0,
0,
0,
0,
0,
0,
0,
0,
0,
0,
0,
0,
0,
1,
0,
0,
0,
0,
0,
0,
0,
0,
0,
0,
0,
0,
0,
0,
0,
0,
0,
0,
0,
0,
0,
0,
0,
0,
0,
0,
0,
0,
0,
0,
0,
0,
0,
0,
0,
0,
0,
0,
0,
0,
0,
0,
0,
0,
1,
0,
0,
0,
0,
0,
0,
0,
0,
0,
0,
0,
0,
0,
0,
0,
0,
0,
0,
0,
0,
0,
0,
0,
0,
0,
0,
0,
0,
0,
0,
0,
0,
0,
0,
0,
0,
0,
0,
0,
0,
0,
0,
0,
0,
0,
0,
0,
0,
0,
0,
0,
0,
0,
0,
0,
0,
0,
0,
1,
0,
0,
0,
0,
0,
0,
0,
0,
0,
0,
0,
0,
0,
0,
0,
0,
0,
0,
0,
0,
0,
0,
0,
0,
0,
0,
0,
0,
0,
0,
0,
0,
0,
0,
0,
0,
0,
0,
0,
0,
0,
0,
0,
0,
0,
0,
0,
0,
0,
0,
0,
0,
0,
0,
0,
0,
0,
0,
0,
0,
0,
0,
0,
0,
0,
0,
0,
0,
0,
0,
0,
0,
0,
0,
0,
0,
0,
0,
0,
0,
0,
0,
0,
0,
0,
0,
0,
0,
0,
0,
0,
0,
0,
0,
0,
0,
0,
0,
0,
0,
0,
0,
0,
0,
0,
0,
0,
0,
0,
0,
0,
0,
0,
0,
0,
0,
0,
0,
0,
0,
0,
0,
0,
0,
0,
0,
0,
0,
0,
0,
0,
0,
0,
0,
0,
0,
0,
0,
0,
0,
0,
0,
0,
0,
0,
0,
0,
0,
0,
0,
0,
0,
0,
0,
0,
0,
0,
0,
0,
0,
0,
0,
0,
0,
0,
0,
0,
0,
0,
0,
0,
0,
0,
0,
0,
0,
0,
0,
0,
0,
0,
0,
0,
0,
0,
0,
0,
0,
0,
0,
0,
0,
0,
0,
0,
0,
0,
0,
0,
0,
0,
0,
0,
0,
0,
0,
0,
0,
0,
0,
0,
0,
0,
0,
0,
0,
0,
0,
0,
0,
0,
0,
0,
0,
0,
0,
0,
0,
0,
0,
0,
0,
0,
0,
0,
0,
0,
0,
0,
0,
0,
0,
0,
0,
0,
0,
0,
0,
0,
0,
0,
0,
0,
0,
0,
0,
0,
0,
0,
0,
0,
0,
0,
0,
0,
0,
0,
0,
0,
0,
0,
0,
0,
0,
0,
0,
0,
0,
0,
0,
0,
0,
0,
0,
0,
0,
0,
0,
0,
0,
0,
0,
0,
0,
0,
0,
0,
0,
0,
0,
0,
0,
0,
0,
0,
0,
0,
0,
0,
0,
0,
0,
0,
0,
0,
0,
0,
0,
0,
0,
0,
0,
0,
0,
0,
0,
0,
0,
0,
0,
0,
0,
0,
0,
0,
0,
0,
0,
0,
0,
0,
0,
0,
0,
0,
0,
0,
0,
0,
0,
0,
0,
0,
0,
0,
0,
0,
0,
0,
0,
0,
0,
0,
0,
0,
0,
0,
0,
0,
0,
0,
0,
0,
0,
0,
0,
0,
0,
0,
0,
0,
0,
0,
0,
0,
0,
0,
0,
0,
0,
0,
0,
0,
0,
0,
0,
0,
0,
0,
0,
0,
0,
0,
0,
0,
0,
0,
0,
0,
0,
0,
0,
0,
0,
0,
0,
0,
0,
0,
0,
0,
0,
0,
0,
0,
0,
0,
0,
0,
0,
0,
0,
0,
0,
0,
0,
0,
0,
0,
0,
0,
0,
0,
0,
0,
0,
0,
0,
0,
0,
0,
0,
0,
0,
0,
0,
0,
0,
0,
0,
0,
0,
0,
0,
0,
0,
0,
0,
0,
0,
0,
0,
0,
0,
0,
0,
0,
0,
0,
0,
0,
0,
0,
0,
0,
0,
0,
0,
0,
0,
0,
0,
0,
0,
0,
0,
0,
0,
0,
0,
0,
0,
#ENDOFDATA   :