File: N132962/Quantification/20 keV/MMM2/SPI MM2 SPI Mangotantalite[6][4].msa
#FORMAT      : EMSA/MAS Spectral Data File
#VERSION     : 1.0
#TITLE       : SPI MM2 SPI Mangotantalite[6][all]
#DATE        : 13-MAR-2025
#TIME        : 09:43
#OWNER       : Unknown
#NPOINTS     : 4096
#NCOLUMNS    : 1
#XUNITS      : eV
#YUNITS      : counts
#DATATYPE    : Y
#XPERCHAN    : 9.99778
#OFFSET      : 1.69135
#BEAMKV      : 20
#SIGNALTYPE  : EDS
#ELEVANGLE   : 35
#AZIMANGLE   : 0
#LIVETIME    : 239.876
#REALTIME    : 261.735
#PROBECUR    : 1.02582
#TAUWIND     : 0
#TDEADLYR    : 0
#TACTLYR     : 0.045
#TALWIND     : 0.025
#CHOFFSET    : 0.0
#XLABEL      : Energy (eV)
#YLABEL      : Counts
#XPOSITION   : -1.57371
#YPOSITION   : -4.58274
#ZPOSITION   : 31.03509
#EDSDET      : SD
##SPECIMEN   : SPI MM2 SPI Mangotantalite[6][all]
##DET_HASH   : 12273538-fd48-a23f-0a19-f1e6fa85caef
##CALIB_HASH : 6abaa72c-aa41-8738-0be9-f592914732f3
##WORKING    : 15.0 mm
##DET_NAME   : EDAX All
##DET_MODE   : MediumLE
#SPECTRUM    :
23,
31,
11,
32,
259,
1147,
3128,
6123,
13267,
16603,
8966,
4528,
4119,
4793,
6167,
11597,
34137,
63308,
48236,
16683,
8897,
10596,
9989,
8206,
7203,
5574,
5396,
5341,
5614,
5982,
5620,
5755,
6090,
6355,
6592,
6754,
6948,
7068,
7228,
7725,
7923,
8480,
10071,
14323,
18859,
17732,
12986,
10272,
9679,
9687,
9731,
9988,
10378,
12370,
21037,
55463,
132788,
190925,
170203,
109935,
54344,
20720,
9176,
7722,
9070,
10074,
9420,
8006,
7054,
8115,
13470,
24901,
33874,
31864,
24622,
20521,
16639,
12108,
8919,
7114,
6038,
5382,
5103,
4782,
4884,
4640,
4722,
4988,
5021,
5138,
4836,
4760,
4591,
4564,
4575,
4577,
4759,
4674,
4726,
4694,
4876,
4756,
4882,
4742,
4757,
4826,
4709,
4848,
4788,
4941,
4709,
4865,
4852,
4879,
5067,
5071,
4873,
4887,
4906,
4863,
4828,
4726,
4894,
4716,
4569,
4716,
4709,
4766,
4680,
4685,
4759,
4701,
4666,
4696,
4623,
4610,
4524,
4606,
4721,
4703,
4559,
4492,
4480,
4417,
4384,
4508,
4491,
4561,
4860,
5175,
5503,
5495,
4977,
4565,
4333,
4261,
4275,
4267,
4284,
4268,
4121,
4098,
4203,
4364,
4260,
4207,
4295,
4037,
4092,
4091,
4060,
4009,
4045,
4136,
3979,
3935,
3951,
3931,
3965,
3847,
3927,
3879,
3948,
3977,
3879,
3810,
3719,
3883,
3838,
3720,
3974,
4074,
5243,
8297,
13724,
21851,
28105,
27729,
21512,
13655,
7749,
4726,
3980,
3616,
3440,
3485,
3406,
3457,
3496,
3792,
4518,
5973,
7566,
8800,
9591,
9141,
8028,
6755,
5423,
4325,
3535,
3256,
3025,
2989,
3026,
2974,
2918,
2913,
2862,
2850,
2918,
2986,
3095,
3175,
3483,
3571,
3788,
3910,
4000,
3996,
3775,
3409,
3231,
2917,
2819,
2892,
2881,
2873,
2833,
2921,
2894,
2822,
2714,
2668,
2631,
2636,
2560,
2544,
2542,
2632,
2482,
2594,
2560,
2593,
2681,
3039,
4160,
6483,
10618,
16226,
22475,
25886,
24717,
19679,
13195,
7827,
4747,
3275,
2726,
2626,
2578,
2590,
2502,
2480,
2370,
2156,
2173,
2139,
2139,
2201,
2148,
2121,
2103,
2068,
2094,
2027,
2071,
2070,
1992,
1991,
2016,
2077,
2147,
2206,
2561,
2968,
3511,
4464,
5914,
7869,
9575,
10717,
10287,
8856,
6966,
5286,
4358,
3984,
4122,
4864,
5400,
5966,
5876,
5109,
4080,
3165,
2438,
2106,
1889,
1883,
1883,
1802,
1705,
1604,
1575,
1573,
1512,
1502,
1557,
1453,
1463,
1525,
1499,
1460,
1451,
1527,
1488,
1498,
1479,
1464,
1410,
1476,
1436,
1400,
1469,
1415,
1396,
1504,
1583,
1731,
2046,
2274,
2569,
2727,
2596,
2244,
1971,
1645,
1444,
1334,
1403,
1477,
1482,
1654,
1633,
1640,
1606,
1543,
1386,
1259,
1251,
1116,
1147,
1124,
1174,
1144,
1183,
1150,
1159,
1129,
1166,
1091,
1043,
1044,
1022,
1049,
1074,
1063,
915,
1017,
958,
978,
1011,
975,
960,
985,
945,
908,
877,
887,
950,
949,
864,
877,
880,
884,
840,
918,
914,
904,
833,
875,
827,
862,
815,
815,
801,
814,
788,
795,
776,
770,
779,
766,
759,
773,
745,
751,
724,
748,
718,
703,
682,
703,
657,
726,
679,
695,
635,
705,
639,
626,
655,
655,
655,
659,
676,
613,
622,
602,
653,
610,
610,
573,
609,
595,
579,
571,
541,
553,
590,
574,
553,
519,
481,
517,
498,
535,
499,
478,
500,
481,
516,
497,
484,
463,
465,
426,
464,
449,
457,
479,
451,
425,
451,
415,
417,
396,
422,
417,
406,
441,
405,
434,
386,
418,
398,
367,
378,
362,
363,
369,
369,
331,
352,
398,
362,
329,
301,
323,
359,
350,
327,
308,
338,
321,
283,
301,
273,
299,
288,
288,
291,
281,
251,
271,
267,
280,
263,
260,
285,
266,
263,
244,
274,
249,
245,
263,
246,
282,
246,
244,
271,
244,
257,
226,
231,
243,
216,
203,
197,
204,
224,
194,
224,
208,
182,
175,
201,
182,
176,
181,
172,
194,
157,
171,
151,
153,
153,
161,
139,
158,
147,
149,
150,
146,
121,
146,
131,
135,
139,
105,
133,
111,
137,
113,
93,
106,
111,
104,
109,
96,
92,
112,
88,
90,
75,
101,
94,
77,
91,
91,
104,
84,
79,
89,
66,
73,
95,
71,
62,
80,
73,
63,
55,
56,
67,
58,
48,
55,
63,
52,
65,
39,
56,
42,
34,
37,
39,
34,
46,
37,
34,
36,
25,
38,
31,
25,
28,
19,
23,
33,
22,
20,
19,
16,
18,
13,
13,
9,
7,
10,
7,
4,
11,
3,
4,
2,
4,
1,
6,
1,
7,
6,
0,
3,
2,
2,
4,
0,
2,
4,
4,
3,
3,
7,
3,
3,
0,
0,
3,
2,
3,
2,
3,
5,
1,
1,
2,
4,
2,
2,
2,
5,
2,
2,
5,
3,
5,
4,
3,
3,
1,
3,
2,
0,
3,
0,
2,
1,
3,
1,
1,
1,
2,
1,
1,
3,
1,
3,
0,
2,
0,
2,
1,
1,
0,
0,
2,
3,
3,
1,
3,
2,
2,
2,
1,
0,
1,
1,
0,
3,
3,
0,
0,
3,
0,
0,
2,
0,
3,
2,
1,
1,
0,
2,
2,
1,
1,
1,
1,
1,
1,
1,
1,
1,
1,
0,
1,
4,
0,
1,
3,
0,
1,
3,
2,
0,
1,
1,
0,
1,
1,
1,
0,
0,
0,
0,
1,
0,
1,
0,
1,
0,
0,
4,
1,
1,
1,
0,
1,
1,
0,
2,
1,
1,
0,
1,
3,
0,
1,
0,
0,
0,
3,
0,
0,
1,
2,
1,
0,
1,
2,
1,
1,
0,
2,
2,
0,
0,
1,
0,
0,
1,
1,
0,
2,
2,
0,
1,
1,
2,
1,
1,
0,
0,
1,
1,
1,
0,
0,
0,
1,
1,
1,
2,
1,
0,
0,
3,
0,
2,
0,
0,
0,
0,
0,
1,
0,
1,
0,
0,
0,
0,
1,
1,
1,
1,
0,
0,
0,
0,
0,
1,
0,
0,
0,
0,
0,
1,
0,
0,
0,
0,
1,
0,
0,
0,
1,
0,
2,
0,
0,
0,
0,
0,
0,
0,
0,
0,
0,
0,
0,
1,
0,
0,
0,
1,
0,
0,
0,
0,
0,
0,
0,
0,
0,
0,
0,
1,
0,
0,
0,
0,
1,
1,
1,
0,
0,
2,
0,
1,
0,
1,
0,
0,
0,
1,
0,
0,
0,
0,
0,
1,
0,
0,
0,
0,
0,
0,
0,
0,
0,
0,
0,
0,
0,
0,
0,
0,
0,
0,
0,
0,
1,
0,
0,
0,
0,
0,
0,
0,
0,
0,
0,
0,
0,
0,
0,
0,
0,
0,
0,
0,
0,
0,
0,
0,
0,
0,
0,
1,
0,
0,
0,
1,
0,
0,
0,
0,
0,
0,
0,
0,
0,
0,
0,
0,
0,
0,
0,
0,
0,
0,
0,
0,
0,
0,
0,
0,
0,
0,
0,
0,
0,
0,
0,
0,
0,
0,
0,
0,
0,
0,
0,
0,
0,
0,
0,
0,
0,
0,
0,
0,
0,
0,
0,
0,
0,
1,
0,
0,
0,
0,
0,
0,
0,
0,
0,
0,
0,
0,
0,
0,
0,
0,
0,
0,
0,
0,
0,
0,
0,
0,
0,
0,
0,
0,
0,
0,
0,
0,
0,
0,
0,
0,
0,
0,
0,
0,
0,
0,
0,
0,
0,
0,
0,
0,
0,
0,
0,
0,
0,
0,
0,
0,
0,
0,
0,
0,
0,
0,
0,
0,
0,
0,
0,
0,
0,
0,
0,
0,
0,
0,
0,
0,
0,
0,
0,
0,
0,
0,
0,
0,
0,
0,
1,
0,
0,
0,
0,
0,
0,
0,
0,
0,
0,
0,
0,
0,
0,
0,
0,
0,
0,
0,
0,
0,
0,
0,
0,
0,
0,
0,
0,
0,
0,
0,
0,
0,
0,
0,
0,
0,
0,
0,
0,
0,
0,
0,
0,
0,
0,
0,
0,
0,
0,
0,
0,
0,
0,
0,
0,
0,
0,
0,
0,
0,
0,
0,
0,
0,
0,
0,
0,
0,
0,
0,
0,
0,
0,
0,
0,
0,
0,
0,
0,
0,
0,
0,
0,
0,
0,
0,
0,
0,
0,
0,
0,
0,
0,
0,
0,
0,
0,
0,
0,
0,
0,
0,
0,
0,
0,
0,
0,
0,
0,
0,
0,
0,
0,
0,
0,
0,
0,
0,
0,
0,
0,
0,
0,
0,
0,
0,
0,
0,
0,
0,
0,
0,
0,
0,
0,
0,
0,
0,
0,
0,
0,
0,
0,
0,
0,
0,
0,
0,
0,
0,
0,
0,
0,
0,
0,
0,
0,
0,
0,
0,
0,
0,
0,
0,
0,
0,
0,
0,
0,
0,
0,
0,
0,
0,
0,
0,
0,
0,
0,
0,
0,
0,
0,
0,
0,
0,
0,
0,
0,
0,
0,
0,
0,
0,
0,
0,
0,
0,
0,
0,
0,
0,
0,
0,
0,
0,
0,
0,
#ENDOFDATA   :