File: N132962/Quantification/20 keV/MMM2/SPI MM2 Scheelite[1][4].msa
#FORMAT      : EMSA/MAS Spectral Data File
#VERSION     : 1.0
#TITLE       : SPI MM2 Scheelite[1][all]
#DATE        : 13-MAR-2025
#TIME        : 12:13
#OWNER       : Unknown
#NPOINTS     : 4096
#NCOLUMNS    : 1
#XUNITS      : eV
#YUNITS      : counts
#DATATYPE    : Y
#XPERCHAN    : 9.99778
#OFFSET      : 1.69135
#BEAMKV      : 20
#SIGNALTYPE  : EDS
#ELEVANGLE   : 35
#AZIMANGLE   : 0
#LIVETIME    : 240.1164
#REALTIME    : 263.3464
#PROBECUR    : 1.02616
#TAUWIND     : 0
#TDEADLYR    : 0
#TACTLYR     : 0.045
#TALWIND     : 0.025
#CHOFFSET    : 0.0
#XLABEL      : Energy (eV)
#YLABEL      : Counts
#XPOSITION   : -2.84133
#YPOSITION   : 2.00301
#ZPOSITION   : 31.03511
#EDSDET      : SD
##SPECIMEN   : SPI MM2 Scheelite[1][all]
##DET_HASH   : 12273538-fd48-a23f-0a19-f1e6fa85caef
##CALIB_HASH : 6abaa72c-aa41-8738-0be9-f592914732f3
##WORKING    : 15.0 mm
##DET_NAME   : EDAX All
##DET_MODE   : MediumLE
#SPECTRUM    :
22,
28,
12,
25,
194,
812,
2662,
6713,
15139,
19607,
11879,
6181,
4192,
4086,
4787,
9775,
28688,
53453,
40350,
13307,
4683,
4130,
4540,
5035,
5258,
5234,
5432,
5764,
6165,
6455,
6461,
6687,
6839,
6801,
7153,
7314,
7481,
7730,
7905,
8144,
8271,
8494,
8899,
9356,
12607,
18804,
22920,
19248,
13872,
11325,
10293,
10140,
9860,
10393,
10973,
13274,
21509,
57133,
144880,
227639,
222309,
158179,
87808,
34951,
12226,
7391,
7912,
9697,
9683,
8063,
6164,
5126,
5111,
5334,
5454,
5879,
6130,
6442,
6326,
5708,
5229,
5044,
4826,
4929,
4902,
4853,
4927,
4860,
4759,
4726,
4832,
4893,
5048,
5055,
4890,
4890,
4864,
4811,
4800,
4915,
4850,
4830,
4879,
4902,
4901,
4970,
4925,
4941,
4814,
4969,
4820,
4918,
4902,
4960,
4758,
4978,
5313,
5581,
6099,
7841,
14425,
30354,
52411,
65065,
55479,
32923,
15058,
7462,
5579,
4938,
5384,
6660,
8843,
11463,
12333,
10403,
7430,
5660,
4802,
4368,
4416,
4256,
4277,
4239,
4231,
4290,
4073,
4356,
4211,
4256,
4242,
4025,
4237,
4240,
4191,
4163,
4215,
4150,
4140,
4099,
4024,
4066,
4020,
3898,
3813,
4018,
3957,
4044,
3983,
3984,
3959,
3906,
3886,
3885,
3794,
3828,
3855,
3766,
3915,
3851,
3828,
3906,
3885,
3930,
3877,
3846,
3709,
3777,
3597,
3684,
3653,
3641,
3620,
3516,
3468,
3636,
3563,
3474,
3442,
3308,
3457,
3366,
3444,
3306,
3337,
3319,
3443,
3342,
3360,
3320,
3419,
3403,
3518,
3696,
3636,
3588,
3377,
3245,
3222,
3215,
3135,
3209,
3110,
3014,
3001,
3036,
2939,
2931,
3082,
2984,
2940,
2978,
2968,
2945,
2928,
3064,
2912,
2871,
2814,
2943,
2903,
2861,
3026,
3259,
3532,
3903,
3949,
4051,
3667,
3375,
3159,
2937,
2735,
2728,
2667,
2637,
2581,
2492,
2579,
2525,
2567,
2682,
2571,
2414,
2457,
2568,
2387,
2396,
2610,
2477,
2399,
2510,
2652,
3005,
3803,
5752,
9503,
15537,
21885,
26410,
27419,
23554,
16688,
10489,
6242,
3780,
2770,
2494,
2360,
2358,
2434,
2367,
2334,
2299,
2216,
2103,
2108,
2046,
2068,
2037,
2033,
2004,
1981,
1968,
1937,
1913,
2006,
1900,
1996,
1928,
1987,
1923,
2076,
2113,
2236,
2530,
3124,
3707,
4692,
6169,
8211,
10011,
10914,
10251,
8723,
6880,
5417,
4578,
4577,
4907,
5637,
6122,
6279,
5685,
4603,
3457,
2704,
2298,
2044,
1854,
1825,
1739,
1729,
1598,
1493,
1517,
1455,
1493,
1336,
1445,
1412,
1408,
1376,
1337,
1420,
1325,
1334,
1384,
1283,
1370,
1345,
1332,
1341,
1355,
1431,
1477,
1347,
1233,
1339,
1249,
1369,
1535,
1622,
1976,
2350,
2553,
2673,
2538,
2218,
1928,
1557,
1376,
1409,
1315,
1292,
1414,
1487,
1588,
1510,
1445,
1374,
1283,
1230,
1160,
1173,
1103,
1068,
1022,
1084,
1065,
1044,
1095,
1089,
1081,
1055,
973,
1011,
899,
918,
928,
902,
933,
923,
885,
893,
933,
885,
852,
851,
865,
818,
849,
880,
851,
846,
818,
826,
756,
822,
828,
791,
778,
821,
775,
754,
793,
810,
792,
735,
715,
687,
745,
701,
719,
700,
710,
681,
655,
673,
678,
696,
646,
629,
644,
649,
641,
608,
615,
670,
664,
641,
615,
641,
561,
595,
569,
608,
572,
568,
539,
548,
552,
534,
513,
554,
567,
500,
576,
534,
499,
520,
545,
490,
498,
483,
485,
498,
481,
441,
462,
435,
455,
458,
458,
456,
459,
455,
449,
436,
433,
426,
399,
403,
392,
399,
409,
374,
374,
380,
371,
346,
330,
376,
350,
384,
375,
340,
372,
337,
317,
332,
333,
294,
350,
310,
284,
331,
287,
284,
319,
284,
277,
307,
305,
276,
295,
277,
269,
284,
248,
243,
291,
274,
254,
258,
238,
238,
216,
246,
245,
245,
219,
230,
226,
217,
243,
217,
210,
204,
218,
210,
215,
204,
216,
207,
204,
217,
200,
181,
189,
201,
175,
190,
177,
150,
169,
183,
156,
169,
139,
183,
145,
157,
155,
153,
130,
136,
149,
130,
106,
120,
141,
145,
128,
133,
113,
101,
113,
113,
106,
106,
104,
94,
122,
105,
100,
102,
80,
88,
90,
97,
79,
111,
93,
74,
86,
73,
76,
66,
74,
73,
72,
73,
70,
54,
63,
52,
50,
54,
52,
47,
46,
65,
46,
59,
40,
36,
42,
48,
42,
33,
34,
49,
27,
32,
29,
40,
24,
28,
28,
24,
22,
18,
26,
17,
24,
15,
14,
12,
15,
12,
11,
6,
7,
9,
7,
5,
7,
2,
3,
3,
3,
3,
2,
6,
5,
3,
3,
1,
4,
3,
6,
6,
2,
1,
2,
1,
5,
5,
2,
3,
1,
0,
1,
4,
3,
4,
1,
5,
2,
5,
2,
1,
2,
1,
2,
4,
2,
0,
4,
2,
0,
2,
2,
2,
5,
2,
3,
3,
4,
2,
1,
0,
5,
1,
0,
2,
0,
0,
3,
1,
2,
5,
1,
1,
3,
1,
3,
2,
5,
1,
2,
0,
1,
3,
0,
3,
2,
1,
1,
0,
2,
1,
0,
2,
0,
0,
1,
4,
1,
0,
1,
1,
0,
1,
1,
0,
2,
2,
2,
1,
2,
0,
0,
0,
3,
0,
0,
1,
0,
1,
1,
1,
1,
0,
2,
1,
0,
0,
0,
1,
0,
1,
0,
0,
0,
0,
2,
0,
1,
1,
0,
1,
0,
1,
1,
0,
0,
4,
0,
0,
2,
1,
1,
0,
1,
1,
2,
1,
1,
0,
0,
0,
1,
2,
2,
0,
1,
1,
2,
0,
2,
0,
4,
0,
0,
0,
0,
1,
0,
0,
1,
1,
0,
2,
1,
2,
0,
2,
1,
0,
0,
1,
1,
1,
1,
0,
0,
1,
1,
0,
1,
0,
0,
0,
0,
0,
1,
0,
0,
0,
1,
0,
0,
1,
0,
1,
3,
0,
0,
1,
0,
0,
0,
1,
0,
3,
0,
0,
0,
1,
0,
2,
1,
0,
0,
0,
0,
0,
1,
0,
0,
1,
0,
0,
2,
0,
0,
0,
0,
0,
1,
1,
0,
1,
1,
1,
0,
0,
1,
0,
0,
0,
0,
0,
0,
0,
0,
0,
0,
0,
0,
1,
0,
0,
0,
0,
0,
1,
1,
0,
0,
0,
0,
1,
0,
0,
1,
0,
0,
0,
0,
0,
0,
0,
0,
0,
1,
0,
0,
1,
0,
0,
0,
0,
0,
0,
0,
0,
0,
0,
0,
0,
0,
1,
0,
0,
0,
0,
0,
0,
0,
0,
1,
0,
0,
0,
0,
0,
0,
1,
0,
0,
1,
0,
0,
0,
0,
0,
0,
0,
0,
0,
0,
2,
0,
0,
0,
1,
0,
0,
0,
0,
0,
0,
0,
0,
0,
0,
1,
0,
0,
0,
0,
0,
0,
0,
0,
0,
0,
0,
0,
0,
0,
0,
0,
0,
0,
0,
0,
0,
0,
0,
0,
0,
0,
0,
0,
0,
0,
0,
0,
0,
0,
0,
0,
0,
0,
0,
0,
0,
0,
0,
0,
0,
0,
0,
0,
0,
0,
0,
0,
0,
0,
0,
0,
0,
0,
0,
0,
0,
0,
0,
0,
0,
0,
0,
0,
0,
0,
0,
0,
0,
0,
0,
0,
0,
0,
0,
0,
0,
0,
0,
0,
0,
0,
0,
0,
0,
0,
0,
0,
0,
0,
0,
0,
0,
0,
0,
0,
0,
0,
0,
0,
0,
0,
0,
0,
0,
0,
0,
0,
0,
0,
0,
0,
0,
0,
0,
0,
0,
0,
0,
0,
0,
0,
0,
0,
0,
0,
0,
0,
0,
0,
0,
0,
0,
0,
0,
0,
0,
0,
0,
0,
0,
1,
0,
0,
0,
0,
0,
0,
0,
0,
0,
0,
0,
0,
0,
0,
0,
0,
0,
0,
0,
0,
0,
0,
0,
0,
0,
0,
0,
0,
0,
0,
0,
0,
0,
0,
0,
0,
0,
0,
0,
0,
0,
0,
0,
0,
0,
0,
0,
0,
0,
0,
0,
0,
0,
0,
0,
0,
0,
0,
0,
0,
0,
0,
0,
0,
0,
0,
0,
0,
0,
0,
0,
0,
0,
0,
0,
0,
0,
0,
0,
0,
0,
0,
0,
0,
0,
0,
0,
0,
0,
0,
0,
0,
0,
0,
0,
0,
0,
0,
0,
0,
0,
0,
0,
0,
0,
0,
0,
0,
0,
0,
0,
0,
0,
0,
0,
0,
0,
0,
0,
0,
0,
0,
0,
0,
0,
0,
0,
0,
0,
0,
0,
0,
0,
0,
0,
0,
0,
0,
0,
0,
0,
0,
0,
0,
0,
0,
0,
0,
0,
0,
0,
0,
0,
0,
0,
0,
0,
0,
0,
0,
0,
0,
0,
0,
0,
0,
0,
0,
0,
0,
0,
0,
0,
0,
0,
0,
0,
0,
0,
0,
0,
0,
0,
0,
0,
0,
0,
0,
0,
0,
0,
0,
0,
0,
0,
0,
0,
0,
0,
0,
#ENDOFDATA   :