File: N132962/Quantification/20 keV/MMM2/SPI MM2 SPI Orthoclaise[7][4].msa
#FORMAT      : EMSA/MAS Spectral Data File
#VERSION     : 1.0
#TITLE       : SPI MM2 SPI Orthoclaise[7][all]
#DATE        : 13-MAR-2025
#TIME        : 10:30
#OWNER       : Unknown
#NPOINTS     : 4096
#NCOLUMNS    : 1
#XUNITS      : eV
#YUNITS      : counts
#DATATYPE    : Y
#XPERCHAN    : 9.99778
#OFFSET      : 1.69135
#BEAMKV      : 20
#SIGNALTYPE  : EDS
#ELEVANGLE   : 35
#AZIMANGLE   : 0
#LIVETIME    : 239.868
#REALTIME    : 255.976
#PROBECUR    : 1.02606
#TAUWIND     : 0
#TDEADLYR    : 0
#TACTLYR     : 0.045
#TALWIND     : 0.025
#CHOFFSET    : 0.0
#XLABEL      : Energy (eV)
#YLABEL      : Counts
#XPOSITION   : 6.17364
#YPOSITION   : 0.07022
#ZPOSITION   : 31.0351
#EDSDET      : SD
##SPECIMEN   : SPI MM2 SPI Orthoclaise[7][all]
##D2STDCMP   : SPI Orthoclaise,(O:45.86),(Na:0.67),(Al:8.85),(Si:30.29),(K:12.85),(Fe:1.4),(Ba:0.04),5.0
##DET_HASH   : 12273538-fd48-a23f-0a19-f1e6fa85caef
##CALIB_HASH : 6abaa72c-aa41-8738-0be9-f592914732f3
##WORKING    : 15.0 mm
##DET_NAME   : EDAX All
##DET_MODE   : MediumLE
#SPECTRUM    :
26,
23,
9,
18,
64,
269,
895,
3158,
8758,
10920,
5315,
2242,
2105,
2520,
4393,
15810,
63677,
125573,
91603,
24337,
3919,
2183,
2549,
3562,
3512,
2740,
2372,
2498,
2579,
2832,
2834,
2915,
3066,
3596,
4198,
4571,
4150,
3720,
3754,
3865,
4020,
4252,
4408,
4602,
4775,
5099,
6178,
12851,
38169,
74242,
76109,
40904,
16093,
8126,
7432,
18362,
73755,
190721,
262078,
184775,
74266,
24806,
10876,
5281,
3022,
2555,
2501,
2584,
2444,
2426,
2504,
2443,
2553,
2621,
2900,
2874,
2863,
2709,
2582,
2496,
2523,
2497,
2421,
2523,
2371,
2376,
2451,
2430,
2373,
2452,
2373,
2473,
2564,
2485,
2483,
2416,
2456,
2422,
2331,
2367,
2311,
2283,
2356,
2363,
2480,
2958,
3817,
7439,
18676,
41091,
62491,
63025,
41009,
18290,
6633,
3552,
3286,
4169,
6396,
8527,
9364,
7294,
4300,
2687,
2079,
1812,
1858,
1861,
1849,
1823,
1770,
1694,
1756,
1635,
1711,
1690,
1643,
1663,
1628,
1628,
1593,
1592,
1598,
1595,
1570,
1544,
1566,
1599,
1612,
1637,
1634,
1551,
1566,
1518,
1492,
1485,
1511,
1508,
1465,
1483,
1465,
1522,
1472,
1470,
1405,
1370,
1474,
1501,
1491,
1484,
1552,
1370,
1363,
1354,
1361,
1322,
1298,
1246,
1274,
1272,
1292,
1220,
1261,
1235,
1264,
1200,
1172,
1208,
1117,
1198,
1097,
1081,
1127,
1126,
1105,
1140,
1036,
1134,
1091,
1059,
1102,
1066,
1076,
1052,
1042,
1025,
1056,
1050,
1074,
1302,
1854,
2784,
3813,
4393,
4247,
3288,
2336,
1510,
1217,
957,
1002,
900,
890,
895,
979,
894,
904,
863,
908,
876,
880,
960,
1084,
1116,
1244,
1307,
1244,
1071,
945,
888,
776,
788,
712,
750,
774,
784,
805,
788,
764,
783,
738,
740,
774,
687,
749,
742,
712,
677,
702,
675,
636,
716,
694,
661,
686,
671,
687,
724,
639,
652,
672,
669,
638,
591,
588,
626,
623,
623,
625,
592,
588,
594,
603,
608,
648,
560,
572,
636,
617,
619,
553,
537,
610,
492,
600,
531,
533,
567,
478,
509,
541,
502,
543,
509,
524,
530,
481,
498,
507,
489,
514,
448,
474,
453,
474,
493,
485,
471,
451,
454,
487,
439,
473,
456,
432,
451,
417,
424,
449,
419,
425,
405,
425,
395,
433,
422,
399,
422,
395,
401,
378,
388,
386,
405,
382,
368,
370,
382,
391,
368,
322,
350,
399,
381,
386,
358,
341,
324,
326,
323,
342,
319,
322,
321,
311,
309,
313,
329,
332,
294,
320,
284,
288,
310,
282,
294,
270,
285,
305,
277,
270,
272,
291,
284,
291,
299,
280,
267,
275,
282,
253,
240,
263,
234,
262,
238,
260,
235,
228,
249,
223,
220,
244,
235,
210,
202,
232,
213,
218,
211,
206,
227,
216,
207,
206,
189,
214,
195,
186,
212,
180,
231,
183,
175,
176,
177,
164,
188,
180,
153,
173,
156,
189,
187,
171,
191,
167,
167,
146,
166,
180,
171,
159,
150,
156,
151,
141,
175,
161,
153,
134,
122,
151,
125,
132,
105,
166,
133,
137,
155,
120,
157,
155,
112,
121,
128,
115,
127,
110,
95,
121,
110,
122,
93,
106,
113,
118,
115,
110,
111,
106,
83,
107,
73,
95,
94,
82,
109,
101,
87,
103,
86,
90,
95,
77,
84,
74,
74,
90,
73,
80,
64,
82,
77,
73,
74,
93,
68,
61,
61,
65,
75,
78,
66,
64,
66,
58,
67,
56,
80,
50,
60,
70,
83,
53,
56,
55,
66,
49,
72,
48,
46,
53,
69,
48,
58,
55,
59,
47,
43,
33,
43,
56,
39,
47,
53,
63,
44,
34,
34,
36,
37,
31,
35,
33,
44,
28,
35,
27,
36,
45,
43,
34,
32,
44,
36,
33,
28,
24,
31,
32,
30,
37,
27,
20,
27,
29,
33,
21,
28,
29,
28,
18,
24,
30,
28,
25,
21,
25,
22,
10,
16,
21,
23,
21,
14,
21,
14,
16,
12,
14,
15,
18,
13,
12,
13,
16,
15,
13,
7,
15,
9,
15,
9,
14,
6,
9,
19,
9,
13,
14,
11,
13,
2,
5,
8,
5,
8,
12,
10,
8,
10,
12,
7,
5,
7,
2,
2,
4,
9,
4,
5,
4,
8,
4,
4,
7,
3,
4,
5,
3,
3,
4,
2,
3,
1,
0,
3,
3,
0,
0,
5,
3,
1,
2,
1,
0,
0,
0,
1,
0,
0,
0,
0,
0,
0,
0,
0,
0,
0,
0,
0,
0,
0,
2,
1,
0,
0,
0,
0,
0,
0,
0,
0,
0,
0,
0,
0,
0,
0,
0,
0,
0,
0,
0,
0,
0,
1,
1,
0,
0,
0,
0,
0,
1,
0,
0,
0,
0,
1,
0,
0,
0,
0,
0,
0,
0,
0,
0,
0,
0,
0,
0,
0,
0,
0,
0,
0,
0,
0,
0,
0,
0,
0,
0,
0,
0,
0,
0,
0,
0,
0,
1,
0,
0,
0,
0,
0,
1,
0,
0,
0,
0,
0,
0,
0,
0,
1,
0,
0,
0,
0,
0,
0,
0,
0,
0,
0,
0,
0,
0,
0,
0,
0,
0,
0,
0,
0,
0,
0,
0,
0,
0,
0,
0,
0,
0,
0,
0,
0,
0,
0,
0,
0,
0,
0,
0,
0,
0,
0,
0,
0,
0,
0,
1,
0,
0,
0,
0,
0,
0,
0,
0,
0,
1,
0,
0,
0,
0,
0,
0,
0,
0,
0,
0,
1,
1,
0,
0,
0,
0,
0,
0,
0,
0,
0,
0,
0,
0,
0,
0,
0,
0,
0,
0,
0,
0,
0,
0,
0,
0,
0,
0,
0,
0,
0,
0,
0,
0,
0,
0,
0,
0,
0,
0,
0,
0,
0,
0,
0,
0,
0,
1,
0,
0,
0,
0,
0,
0,
0,
0,
0,
0,
0,
0,
0,
0,
0,
0,
0,
0,
0,
0,
0,
0,
0,
0,
0,
0,
0,
0,
0,
0,
0,
0,
0,
0,
0,
0,
0,
0,
0,
0,
0,
0,
0,
0,
0,
0,
0,
0,
0,
0,
0,
0,
0,
0,
0,
0,
0,
0,
0,
0,
0,
0,
0,
0,
0,
0,
0,
0,
0,
0,
0,
0,
0,
0,
0,
0,
0,
0,
0,
0,
0,
0,
0,
0,
0,
0,
0,
0,
0,
0,
0,
0,
0,
0,
0,
0,
0,
0,
0,
0,
0,
0,
0,
0,
0,
0,
0,
0,
0,
0,
0,
0,
0,
0,
0,
0,
0,
0,
0,
0,
0,
0,
0,
0,
0,
0,
0,
0,
0,
0,
0,
0,
0,
0,
0,
0,
0,
0,
0,
0,
0,
0,
0,
0,
0,
0,
0,
0,
0,
0,
0,
0,
0,
0,
0,
0,
0,
0,
0,
0,
0,
0,
0,
0,
0,
0,
0,
0,
0,
0,
0,
0,
0,
0,
0,
0,
0,
0,
0,
0,
0,
0,
0,
0,
0,
0,
0,
0,
0,
0,
0,
0,
0,
0,
0,
0,
0,
0,
0,
0,
0,
0,
0,
0,
0,
0,
0,
0,
0,
0,
0,
0,
0,
0,
0,
0,
0,
0,
0,
0,
0,
0,
0,
0,
0,
0,
0,
0,
0,
0,
0,
0,
0,
0,
0,
0,
0,
0,
0,
0,
0,
0,
0,
0,
0,
0,
0,
0,
0,
0,
0,
0,
0,
0,
0,
0,
0,
0,
0,
0,
0,
0,
0,
0,
0,
0,
0,
0,
0,
0,
0,
0,
0,
0,
0,
0,
0,
0,
0,
0,
0,
0,
0,
0,
0,
0,
0,
0,
0,
0,
0,
0,
0,
0,
0,
0,
0,
0,
0,
0,
0,
0,
0,
0,
0,
0,
0,
0,
0,
0,
0,
0,
0,
0,
0,
0,
0,
0,
0,
0,
0,
0,
0,
0,
0,
0,
0,
0,
0,
0,
0,
0,
0,
0,
0,
0,
0,
0,
0,
0,
0,
0,
0,
0,
0,
0,
0,
0,
0,
0,
0,
0,
0,
0,
0,
0,
0,
0,
0,
0,
0,
0,
0,
0,
0,
0,
0,
0,
0,
0,
0,
0,
0,
0,
0,
0,
0,
0,
0,
0,
0,
0,
0,
0,
0,
0,
0,
0,
0,
0,
0,
0,
0,
0,
0,
0,
0,
0,
0,
0,
0,
0,
0,
0,
0,
0,
0,
0,
0,
0,
0,
0,
0,
0,
0,
0,
0,
0,
0,
0,
0,
0,
0,
0,
0,
0,
0,
0,
0,
0,
0,
0,
0,
0,
0,
0,
0,
0,
0,
0,
0,
0,
0,
0,
0,
0,
0,
0,
0,
0,
0,
0,
0,
0,
0,
0,
0,
0,
0,
0,
0,
0,
0,
0,
0,
0,
0,
0,
0,
0,
0,
0,
0,
0,
0,
0,
0,
0,
0,
0,
0,
0,
0,
#ENDOFDATA   :