File: N132962/Quantification/20 keV/MMM2/SPI MM2 Pyrite[6][4].msa
#FORMAT      : EMSA/MAS Spectral Data File
#VERSION     : 1.0
#TITLE       : SPI MM2 Pyrite[6][all]
#DATE        : 13-MAR-2025
#TIME        : 12:56
#OWNER       : Unknown
#NPOINTS     : 4096
#NCOLUMNS    : 1
#XUNITS      : eV
#YUNITS      : counts
#DATATYPE    : Y
#XPERCHAN    : 9.99778
#OFFSET      : 1.69135
#BEAMKV      : 20
#SIGNALTYPE  : EDS
#ELEVANGLE   : 35
#AZIMANGLE   : 0
#LIVETIME    : 239.843
#REALTIME    : 262.063
#PROBECUR    : 1.02627
#TAUWIND     : 0
#TDEADLYR    : 0
#TACTLYR     : 0.045
#TALWIND     : 0.025
#CHOFFSET    : 0.0
#XLABEL      : Energy (eV)
#YLABEL      : Counts
#XPOSITION   : 7.88002
#YPOSITION   : 1.93359
#ZPOSITION   : 31.03511
#EDSDET      : SD
##SPECIMEN   : SPI MM2 Pyrite[6][all]
##DET_HASH   : 12273538-fd48-a23f-0a19-f1e6fa85caef
##CALIB_HASH : 6abaa72c-aa41-8738-0be9-f592914732f3
##WORKING    : 15.0 mm
##DET_NAME   : EDAX All
##DET_MODE   : MediumLE
#SPECTRUM    :
19,
26,
10,
62,
419,
860,
1249,
3167,
9319,
12410,
6039,
2406,
2152,
2423,
2627,
3278,
4512,
7147,
12498,
18287,
20650,
20754,
34355,
61314,
51170,
19050,
5956,
3942,
3609,
3527,
3378,
3525,
3538,
3709,
3796,
4030,
4058,
4214,
4405,
4508,
4631,
4740,
4775,
5000,
5270,
5335,
5423,
5655,
5731,
5892,
5889,
5955,
6083,
5860,
5937,
5999,
6220,
6705,
7158,
7005,
6756,
6280,
6062,
5869,
5867,
6095,
6155,
6146,
6340,
6382,
6539,
7382,
10621,
20061,
52608,
148997,
309638,
386208,
281476,
121465,
40828,
27707,
30683,
25787,
14348,
6523,
3769,
3224,
3158,
3013,
3135,
3224,
3184,
3184,
3175,
3235,
3275,
3284,
3363,
3361,
3447,
3433,
3395,
3243,
3193,
3047,
3147,
3248,
3112,
3151,
3134,
3088,
3099,
3062,
3121,
3009,
3047,
3072,
3153,
3033,
3032,
2946,
2980,
2913,
2990,
2982,
2913,
2975,
2876,
3024,
2901,
2979,
2916,
2893,
2928,
2842,
2824,
2831,
2841,
2707,
2835,
2699,
2622,
2733,
2633,
2740,
2746,
2701,
2678,
2643,
2757,
2782,
3165,
3456,
3737,
3519,
3254,
2881,
2752,
2549,
2543,
2481,
2532,
2372,
2452,
2389,
2314,
2380,
2382,
2316,
2354,
2284,
2352,
2303,
2191,
2204,
2295,
2256,
2256,
2252,
2245,
2283,
2195,
2135,
2013,
2092,
2140,
2163,
2075,
2107,
2002,
2069,
2089,
1943,
1989,
1977,
1942,
1992,
1961,
2031,
1989,
1959,
2088,
2037,
2031,
2097,
2271,
2655,
4379,
9706,
22855,
45658,
72226,
88600,
83333,
59948,
33709,
14977,
6157,
2905,
2007,
1821,
1728,
1714,
1754,
1745,
1837,
1748,
1776,
2017,
2377,
3319,
5224,
8316,
11138,
13002,
11659,
8665,
5477,
3266,
2055,
1494,
1366,
1235,
1262,
1315,
1355,
1374,
1328,
1386,
1382,
1287,
1299,
1278,
1228,
1288,
1256,
1177,
1204,
1182,
1189,
1184,
1155,
1219,
1198,
1211,
1165,
1244,
1174,
1163,
1133,
1141,
1206,
1092,
1161,
1102,
1102,
1129,
1141,
1067,
1054,
1077,
1050,
1036,
1060,
1085,
1095,
1141,
1228,
1326,
1328,
1289,
1235,
1135,
1020,
1065,
1008,
968,
994,
955,
974,
974,
984,
963,
935,
942,
908,
943,
889,
865,
941,
926,
923,
875,
853,
848,
908,
927,
768,
834,
863,
891,
789,
801,
868,
846,
801,
810,
808,
774,
805,
796,
775,
744,
794,
774,
754,
748,
762,
765,
727,
730,
675,
724,
772,
693,
737,
699,
703,
721,
680,
674,
713,
675,
666,
660,
669,
639,
640,
669,
642,
644,
630,
620,
645,
677,
643,
603,
611,
586,
617,
659,
534,
561,
583,
571,
546,
562,
571,
523,
575,
576,
561,
524,
560,
528,
488,
509,
519,
508,
508,
482,
497,
467,
441,
493,
482,
484,
434,
465,
435,
436,
481,
444,
449,
416,
461,
447,
443,
400,
374,
433,
434,
410,
394,
371,
429,
402,
403,
391,
398,
371,
397,
419,
373,
407,
460,
371,
353,
375,
390,
366,
346,
340,
342,
351,
330,
313,
352,
322,
317,
329,
325,
306,
307,
318,
332,
328,
301,
302,
284,
286,
287,
272,
309,
261,
269,
262,
265,
267,
267,
270,
259,
278,
261,
243,
232,
240,
236,
230,
273,
229,
234,
243,
241,
233,
227,
224,
217,
222,
202,
227,
237,
201,
211,
194,
208,
209,
204,
187,
214,
183,
187,
198,
195,
193,
212,
187,
161,
160,
176,
168,
158,
204,
163,
165,
158,
151,
141,
160,
148,
133,
147,
149,
147,
145,
145,
151,
133,
138,
117,
144,
148,
106,
121,
129,
122,
125,
130,
137,
122,
117,
112,
108,
105,
132,
102,
105,
113,
95,
108,
103,
95,
92,
74,
109,
89,
117,
78,
104,
106,
104,
78,
77,
87,
81,
97,
68,
76,
90,
80,
75,
75,
65,
72,
69,
69,
81,
64,
61,
74,
72,
65,
59,
61,
61,
56,
57,
59,
49,
63,
53,
60,
67,
51,
56,
47,
57,
61,
53,
44,
52,
42,
34,
48,
46,
37,
42,
35,
39,
37,
42,
38,
34,
32,
29,
26,
39,
30,
35,
22,
32,
40,
22,
36,
41,
29,
25,
25,
24,
29,
20,
31,
20,
17,
21,
21,
17,
23,
19,
21,
15,
12,
23,
21,
18,
9,
18,
17,
10,
6,
12,
15,
12,
17,
12,
7,
10,
11,
7,
4,
8,
6,
7,
7,
5,
3,
1,
8,
4,
0,
4,
2,
3,
1,
1,
2,
1,
1,
1,
1,
1,
1,
1,
2,
0,
2,
0,
1,
2,
2,
1,
1,
1,
2,
3,
0,
3,
0,
3,
1,
1,
1,
0,
0,
2,
0,
0,
1,
0,
0,
0,
1,
1,
0,
4,
1,
0,
0,
1,
1,
0,
1,
1,
1,
0,
1,
0,
0,
0,
0,
1,
0,
0,
1,
0,
1,
0,
0,
1,
1,
0,
0,
0,
2,
0,
1,
0,
0,
1,
2,
0,
0,
0,
2,
0,
0,
0,
0,
0,
0,
0,
0,
1,
0,
0,
0,
1,
0,
0,
0,
0,
0,
0,
0,
0,
1,
0,
0,
0,
0,
0,
0,
0,
0,
0,
0,
0,
1,
1,
1,
0,
0,
0,
0,
0,
0,
0,
0,
0,
0,
0,
0,
1,
0,
0,
1,
0,
0,
0,
0,
0,
0,
0,
0,
0,
0,
0,
0,
0,
0,
1,
0,
0,
0,
0,
0,
0,
0,
0,
0,
0,
0,
0,
0,
0,
0,
1,
0,
0,
0,
0,
0,
0,
0,
1,
0,
0,
0,
0,
0,
0,
0,
0,
1,
0,
0,
0,
0,
0,
0,
0,
0,
0,
0,
0,
0,
0,
0,
0,
0,
1,
0,
0,
0,
0,
0,
0,
1,
0,
0,
0,
0,
0,
0,
0,
0,
0,
0,
0,
0,
0,
0,
0,
0,
0,
0,
1,
0,
0,
0,
0,
0,
0,
0,
0,
0,
0,
0,
0,
1,
0,
0,
0,
0,
0,
0,
0,
0,
0,
0,
0,
0,
0,
0,
0,
0,
0,
0,
0,
0,
0,
0,
0,
0,
0,
0,
0,
0,
0,
0,
0,
0,
0,
0,
0,
0,
0,
0,
0,
0,
0,
0,
0,
0,
0,
0,
0,
0,
0,
0,
0,
0,
0,
0,
0,
0,
0,
0,
0,
0,
0,
0,
0,
0,
0,
0,
0,
0,
0,
0,
0,
0,
0,
0,
0,
0,
0,
0,
0,
0,
0,
0,
0,
0,
0,
0,
0,
0,
0,
0,
0,
0,
0,
0,
0,
0,
0,
0,
0,
0,
0,
0,
0,
0,
0,
0,
0,
0,
0,
0,
0,
0,
0,
0,
0,
0,
0,
0,
0,
0,
0,
0,
0,
0,
0,
0,
0,
0,
0,
0,
0,
0,
0,
0,
0,
0,
0,
0,
0,
0,
0,
0,
0,
0,
0,
0,
0,
0,
0,
0,
0,
0,
0,
0,
0,
0,
0,
0,
0,
0,
0,
0,
0,
0,
0,
0,
0,
0,
0,
0,
0,
0,
0,
0,
0,
0,
0,
0,
0,
0,
0,
0,
1,
0,
0,
0,
0,
0,
0,
0,
0,
0,
0,
0,
0,
0,
0,
0,
0,
0,
0,
0,
0,
0,
0,
0,
1,
0,
0,
0,
0,
0,
0,
0,
0,
0,
0,
0,
0,
0,
0,
0,
0,
0,
0,
0,
0,
0,
0,
0,
0,
0,
0,
0,
0,
0,
0,
0,
0,
0,
0,
0,
0,
0,
0,
0,
0,
0,
0,
0,
0,
0,
0,
0,
0,
0,
0,
0,
0,
0,
0,
0,
0,
0,
0,
0,
0,
0,
0,
0,
0,
0,
0,
0,
0,
0,
0,
0,
0,
0,
0,
0,
0,
0,
0,
0,
0,
0,
0,
0,
0,
0,
0,
0,
0,
0,
0,
0,
0,
0,
0,
0,
0,
0,
0,
0,
0,
0,
0,
0,
0,
0,
0,
0,
0,
0,
0,
0,
0,
0,
0,
0,
0,
0,
0,
0,
0,
0,
0,
0,
0,
0,
0,
0,
0,
0,
0,
0,
0,
0,
0,
0,
0,
0,
0,
0,
0,
0,
0,
0,
0,
0,
0,
0,
0,
0,
0,
0,
0,
0,
0,
0,
0,
0,
0,
0,
0,
0,
0,
0,
0,
0,
0,
0,
0,
0,
0,
0,
0,
0,
0,
0,
0,
0,
0,
0,
0,
0,
0,
0,
0,
0,
0,
0,
0,
0,
0,
0,
0,
0,
0,
0,
0,
0,
0,
0,
0,
0,
0,
0,
0,
0,
0,
0,
0,
0,
0,
0,
0,
0,
0,
0,
0,
0,
0,
0,
0,
0,
0,
0,
0,
0,
0,
0,
0,
0,
0,
0,
0,
0,
0,
0,
0,
0,
0,
0,
0,
0,
0,
0,
0,
0,
0,
0,
0,
0,
0,
0,
0,
0,
0,
0,
0,
0,
0,
#ENDOFDATA   :