File: N132962/Quantification/20 keV/MMM2/SPI MM2 Sphene[2][4].msa
#FORMAT      : EMSA/MAS Spectral Data File
#VERSION     : 1.0
#TITLE       : SPI MM2 Sphene[2][all]
#DATE        : 13-MAR-2025
#TIME        : 13:00
#OWNER       : Unknown
#NPOINTS     : 4096
#NCOLUMNS    : 1
#XUNITS      : eV
#YUNITS      : counts
#DATATYPE    : Y
#XPERCHAN    : 9.99778
#OFFSET      : 1.69135
#BEAMKV      : 20
#SIGNALTYPE  : EDS
#ELEVANGLE   : 35
#AZIMANGLE   : 0
#LIVETIME    : 239.843
#REALTIME    : 254.823
#PROBECUR    : 1.02627
#TAUWIND     : 0
#TDEADLYR    : 0
#TACTLYR     : 0.045
#TALWIND     : 0.025
#CHOFFSET    : 0.0
#XLABEL      : Energy (eV)
#YLABEL      : Counts
#XPOSITION   : 6.08369
#YPOSITION   : 3.78803
#ZPOSITION   : 31.03511
#EDSDET      : SD
##SPECIMEN   : SPI MM2 Sphene[2][all]
##DET_HASH   : 12273538-fd48-a23f-0a19-f1e6fa85caef
##CALIB_HASH : 6abaa72c-aa41-8738-0be9-f592914732f3
##WORKING    : 15.0 mm
##DET_NAME   : EDAX All
##DET_MODE   : MediumLE
#SPECTRUM    :
22,
24,
5,
13,
60,
314,
979,
3151,
9400,
14135,
9944,
6167,
5922,
6949,
7658,
12591,
33945,
63487,
46174,
12895,
2472,
1752,
2024,
2365,
2324,
2064,
1976,
2234,
2425,
2522,
2499,
2666,
2823,
2844,
3081,
3228,
3288,
3350,
3551,
3659,
3731,
3672,
4138,
4066,
4254,
4375,
4556,
5225,
7138,
9999,
10268,
7592,
5807,
5368,
5871,
11688,
38510,
95555,
130100,
92356,
38569,
14883,
7989,
5505,
4859,
4742,
4435,
3995,
3653,
3550,
3549,
3692,
3865,
3704,
3705,
3757,
3784,
3664,
3552,
3361,
3325,
3432,
3328,
3292,
3328,
3267,
3328,
3220,
3222,
3299,
3437,
3461,
3732,
3603,
3401,
3177,
3089,
3064,
2961,
2971,
3006,
2955,
3006,
3018,
2939,
2886,
3009,
2935,
2855,
2867,
2784,
2851,
2717,
2676,
2772,
2821,
3061,
3254,
4102,
7055,
17556,
43612,
80715,
101684,
86465,
49086,
19764,
6973,
3371,
2924,
3563,
5412,
8938,
12967,
14393,
11594,
7194,
3854,
2441,
2171,
2094,
2092,
2109,
2136,
2353,
2807,
5023,
12268,
29209,
54048,
71959,
67243,
44309,
21720,
8153,
3336,
2127,
1943,
1985,
2085,
2301,
3383,
5608,
8800,
10915,
10793,
8113,
4924,
2896,
1887,
1553,
1464,
1433,
1417,
1381,
1414,
1408,
1440,
1500,
1546,
1563,
1607,
1553,
1551,
1387,
1376,
1393,
1316,
1359,
1248,
1307,
1286,
1267,
1397,
1276,
1328,
1352,
1283,
1361,
1271,
1226,
1253,
1266,
1198,
1234,
1247,
1224,
1316,
1338,
1327,
1476,
1703,
1970,
2016,
1995,
1796,
1468,
1287,
1193,
1186,
1087,
1140,
1088,
1108,
1083,
1098,
1035,
1034,
1055,
1015,
1020,
1035,
1036,
1072,
1090,
1095,
1083,
1024,
981,
1026,
984,
951,
1007,
991,
966,
979,
960,
1022,
981,
1061,
965,
924,
955,
932,
832,
859,
854,
870,
830,
810,
900,
821,
804,
857,
824,
781,
803,
768,
750,
784,
782,
881,
826,
873,
819,
798,
811,
731,
730,
764,
696,
697,
739,
751,
745,
694,
689,
695,
765,
718,
732,
713,
679,
648,
687,
642,
650,
710,
667,
671,
688,
622,
688,
645,
588,
618,
660,
603,
627,
602,
574,
592,
616,
606,
636,
581,
574,
567,
561,
516,
549,
597,
561,
531,
555,
553,
501,
558,
529,
527,
486,
520,
511,
541,
513,
486,
503,
492,
488,
510,
480,
511,
476,
475,
459,
455,
419,
456,
419,
459,
425,
456,
434,
449,
438,
447,
449,
423,
420,
436,
437,
402,
409,
386,
383,
387,
358,
410,
398,
387,
359,
388,
385,
366,
345,
345,
363,
358,
342,
346,
364,
337,
334,
368,
364,
307,
333,
338,
311,
341,
332,
339,
299,
333,
312,
337,
294,
318,
318,
274,
297,
293,
295,
289,
284,
265,
268,
285,
279,
266,
270,
269,
268,
232,
287,
271,
254,
234,
251,
253,
241,
246,
266,
244,
215,
247,
217,
217,
222,
244,
235,
213,
198,
200,
218,
221,
214,
215,
202,
197,
206,
206,
178,
181,
188,
201,
161,
207,
202,
159,
187,
193,
213,
179,
182,
170,
168,
175,
164,
184,
158,
192,
168,
169,
163,
152,
166,
146,
148,
155,
152,
133,
149,
125,
136,
147,
129,
127,
141,
155,
126,
117,
136,
126,
145,
120,
127,
133,
119,
131,
143,
113,
91,
107,
98,
107,
101,
103,
113,
101,
105,
113,
91,
94,
106,
109,
105,
86,
92,
89,
86,
105,
117,
91,
96,
89,
82,
92,
78,
70,
59,
75,
80,
77,
83,
83,
82,
59,
74,
63,
76,
68,
77,
82,
67,
67,
78,
47,
60,
56,
64,
61,
57,
66,
60,
48,
57,
64,
46,
45,
57,
52,
35,
44,
49,
44,
42,
40,
47,
43,
46,
39,
41,
34,
36,
54,
41,
45,
42,
40,
55,
33,
38,
39,
32,
30,
42,
41,
35,
36,
29,
35,
30,
27,
29,
31,
35,
26,
29,
34,
25,
21,
27,
30,
26,
25,
20,
18,
19,
28,
28,
20,
20,
19,
20,
12,
14,
20,
21,
18,
15,
17,
13,
21,
24,
11,
14,
23,
20,
12,
11,
11,
13,
15,
12,
13,
16,
14,
7,
5,
18,
7,
15,
14,
8,
5,
10,
14,
7,
6,
3,
5,
7,
5,
5,
1,
5,
5,
2,
3,
6,
9,
4,
4,
3,
2,
3,
3,
0,
5,
2,
1,
1,
2,
0,
2,
2,
0,
1,
1,
0,
1,
0,
0,
0,
0,
0,
2,
1,
0,
1,
0,
0,
0,
1,
0,
0,
1,
1,
0,
0,
0,
0,
1,
0,
1,
0,
0,
0,
0,
1,
0,
0,
1,
0,
0,
0,
0,
0,
0,
1,
0,
0,
0,
0,
0,
0,
1,
0,
2,
0,
0,
0,
0,
0,
0,
0,
0,
1,
0,
0,
0,
0,
0,
0,
0,
0,
1,
1,
1,
0,
2,
0,
0,
0,
1,
0,
0,
0,
0,
0,
0,
0,
0,
0,
0,
0,
0,
0,
0,
1,
0,
0,
0,
0,
0,
0,
0,
0,
0,
0,
0,
0,
0,
0,
0,
0,
0,
0,
0,
0,
0,
0,
0,
0,
0,
0,
0,
0,
0,
0,
0,
0,
0,
0,
0,
0,
0,
1,
0,
0,
0,
0,
0,
0,
0,
0,
0,
0,
0,
0,
0,
0,
1,
0,
0,
0,
0,
1,
0,
0,
0,
0,
0,
0,
0,
0,
0,
0,
0,
0,
0,
0,
0,
0,
0,
0,
0,
1,
0,
0,
0,
0,
0,
0,
0,
0,
0,
1,
0,
0,
0,
0,
0,
0,
0,
0,
0,
0,
0,
0,
0,
0,
0,
0,
0,
0,
0,
0,
0,
0,
0,
0,
0,
0,
0,
0,
0,
0,
0,
0,
0,
0,
0,
0,
0,
0,
0,
0,
0,
0,
1,
0,
0,
0,
1,
0,
0,
0,
0,
0,
0,
0,
0,
0,
0,
0,
0,
0,
0,
0,
0,
0,
0,
0,
0,
0,
0,
0,
0,
0,
0,
0,
0,
0,
0,
0,
0,
0,
0,
0,
0,
0,
0,
0,
0,
0,
0,
1,
0,
0,
0,
0,
0,
0,
0,
0,
0,
0,
0,
0,
0,
0,
0,
0,
0,
0,
0,
0,
0,
0,
0,
0,
0,
0,
0,
0,
0,
0,
0,
0,
0,
0,
0,
0,
0,
0,
0,
0,
0,
0,
0,
0,
0,
0,
0,
0,
0,
0,
0,
0,
0,
0,
0,
0,
0,
0,
0,
0,
0,
0,
0,
0,
0,
0,
0,
0,
0,
0,
0,
0,
0,
0,
0,
0,
0,
0,
0,
0,
0,
0,
0,
0,
0,
0,
0,
0,
0,
0,
0,
0,
0,
0,
0,
0,
0,
0,
0,
0,
0,
0,
0,
0,
0,
0,
0,
0,
0,
0,
0,
0,
0,
0,
0,
0,
0,
0,
0,
0,
0,
0,
0,
0,
0,
0,
0,
0,
0,
0,
0,
0,
0,
0,
0,
0,
0,
0,
0,
0,
0,
0,
0,
0,
0,
0,
0,
0,
0,
0,
0,
0,
0,
0,
0,
0,
0,
0,
0,
0,
0,
0,
0,
0,
0,
0,
0,
0,
0,
0,
0,
0,
0,
0,
0,
0,
0,
0,
0,
0,
0,
0,
0,
0,
0,
0,
0,
0,
0,
0,
0,
0,
0,
0,
0,
0,
0,
0,
0,
0,
0,
0,
0,
0,
0,
0,
0,
0,
0,
0,
0,
0,
0,
0,
0,
0,
0,
0,
0,
0,
0,
0,
0,
0,
0,
0,
0,
0,
0,
0,
0,
0,
0,
0,
0,
0,
0,
0,
0,
0,
0,
0,
0,
0,
0,
0,
0,
0,
0,
0,
0,
0,
0,
0,
0,
0,
0,
0,
0,
0,
0,
0,
0,
0,
0,
0,
0,
0,
0,
0,
0,
0,
0,
0,
0,
0,
0,
0,
0,
0,
0,
0,
0,
0,
0,
0,
0,
0,
0,
0,
0,
0,
0,
0,
0,
0,
0,
0,
0,
0,
0,
0,
0,
0,
0,
0,
0,
0,
0,
0,
0,
0,
1,
0,
0,
0,
0,
0,
0,
0,
0,
0,
0,
0,
0,
0,
0,
0,
0,
0,
0,
0,
0,
0,
0,
0,
0,
0,
0,
0,
0,
0,
0,
0,
0,
0,
0,
0,
0,
0,
0,
0,
0,
0,
0,
0,
0,
0,
0,
0,
0,
0,
0,
0,
0,
0,
0,
0,
0,
0,
0,
0,
0,
0,
0,
0,
0,
0,
0,
0,
0,
0,
0,
0,
0,
0,
0,
0,
0,
0,
0,
0,
0,
0,
0,
0,
0,
0,
0,
0,
0,
0,
0,
0,
0,
0,
0,
0,
0,
0,
0,
0,
0,
0,
0,
0,
0,
0,
0,
0,
0,
0,
0,
0,
0,
0,
0,
#ENDOFDATA   :