File: N132962/Quantification/20 keV/MMM2/SPI MM2 Uvarovite[4][4].msa
#FORMAT      : EMSA/MAS Spectral Data File
#VERSION     : 1.0
#TITLE       : SPI MM2 Uvarovite[4][all]
#DATE        : 13-MAR-2025
#TIME        : 14:16
#OWNER       : Unknown
#NPOINTS     : 4096
#NCOLUMNS    : 1
#XUNITS      : eV
#YUNITS      : counts
#DATATYPE    : Y
#XPERCHAN    : 9.99778
#OFFSET      : 1.69135
#BEAMKV      : 20
#SIGNALTYPE  : EDS
#ELEVANGLE   : 35
#AZIMANGLE   : 0
#LIVETIME    : 239.742
#REALTIME    : 255.202
#PROBECUR    : 1.02609
#TAUWIND     : 0
#TDEADLYR    : 0
#TACTLYR     : 0.045
#TALWIND     : 0.025
#CHOFFSET    : 0.0
#XLABEL      : Energy (eV)
#YLABEL      : Counts
#XPOSITION   : 5.67741
#YPOSITION   : 6.40559
#ZPOSITION   : 31.03511
#EDSDET      : SD
##SPECIMEN   : SPI MM2 Uvarovite[4][all]
##DET_HASH   : 12273538-fd48-a23f-0a19-f1e6fa85caef
##CALIB_HASH : 6abaa72c-aa41-8738-0be9-f592914732f3
##WORKING    : 15.0 mm
##DET_NAME   : EDAX All
##DET_MODE   : MediumLE
#SPECTRUM    :
31,
35,
10,
10,
75,
338,
950,
3135,
9481,
14205,
9528,
5108,
3231,
2890,
4091,
12563,
45929,
87692,
65837,
19822,
4724,
2254,
2235,
2554,
2614,
2193,
2096,
2267,
2435,
2576,
2628,
2598,
2852,
3032,
3084,
3310,
3389,
3443,
3595,
3739,
3925,
4089,
4250,
4257,
4400,
4600,
5031,
7193,
15139,
27003,
27554,
16406,
8059,
5689,
6075,
12444,
43476,
108577,
147408,
104905,
42873,
15689,
8282,
5486,
4754,
4670,
4158,
3594,
3363,
3275,
3335,
3257,
3355,
3403,
3578,
3510,
3545,
3308,
3390,
3235,
3184,
3254,
3084,
3161,
3173,
3254,
3146,
3180,
3153,
3116,
3144,
3072,
3036,
3150,
3005,
3036,
3086,
3011,
2961,
2917,
2889,
2986,
2891,
2948,
2843,
2910,
2889,
2896,
2819,
2825,
2784,
2739,
2673,
2592,
2806,
2780,
3100,
3502,
4417,
7684,
19885,
50007,
93261,
118602,
99542,
56165,
22346,
7456,
3441,
2957,
3639,
6008,
10115,
14681,
16311,
13105,
7897,
4175,
2613,
2113,
1972,
1951,
1958,
1903,
1859,
1939,
1987,
2259,
3140,
4191,
5014,
4886,
3838,
2687,
2029,
1691,
1680,
1656,
1665,
1740,
1727,
1749,
1969,
2294,
2466,
2637,
2423,
2051,
1783,
1635,
1574,
1640,
1593,
1708,
1795,
2043,
3282,
6809,
14656,
24988,
31861,
31260,
22489,
12346,
5742,
2600,
1688,
1408,
1429,
1443,
1376,
1464,
1555,
1603,
1804,
2433,
3588,
4794,
5205,
4883,
3598,
2527,
1780,
1315,
1188,
1154,
1136,
1198,
1260,
1287,
1554,
1898,
2504,
2855,
2614,
2171,
1743,
1313,
1182,
1116,
1091,
1037,
1053,
1065,
1034,
1023,
1044,
1037,
1029,
1022,
1041,
1044,
1041,
1123,
1275,
1242,
1172,
1136,
1060,
1067,
986,
1002,
977,
925,
1002,
989,
981,
1055,
999,
954,
963,
899,
908,
916,
879,
847,
839,
847,
896,
862,
852,
842,
800,
799,
811,
807,
833,
789,
793,
775,
759,
785,
802,
771,
723,
759,
746,
749,
747,
729,
699,
758,
711,
731,
743,
665,
729,
695,
676,
713,
670,
677,
646,
645,
695,
637,
685,
651,
643,
623,
635,
641,
665,
682,
625,
622,
640,
586,
554,
602,
599,
611,
590,
619,
558,
595,
545,
582,
562,
575,
594,
549,
564,
576,
572,
565,
548,
574,
500,
522,
500,
518,
516,
517,
454,
485,
468,
523,
514,
518,
454,
485,
529,
447,
448,
460,
448,
427,
475,
429,
446,
430,
462,
433,
456,
444,
410,
407,
427,
416,
404,
447,
413,
425,
399,
375,
372,
409,
374,
350,
355,
380,
380,
372,
380,
415,
354,
364,
346,
366,
351,
342,
341,
365,
353,
354,
327,
344,
298,
299,
320,
352,
305,
309,
302,
303,
288,
306,
301,
281,
314,
305,
286,
277,
303,
266,
259,
283,
282,
253,
276,
245,
249,
244,
244,
270,
279,
261,
228,
259,
236,
218,
262,
244,
224,
248,
237,
217,
216,
235,
230,
208,
223,
194,
233,
208,
204,
187,
194,
184,
198,
206,
168,
198,
193,
182,
180,
188,
171,
167,
182,
189,
183,
180,
185,
169,
180,
133,
176,
147,
182,
147,
167,
159,
143,
168,
159,
154,
137,
165,
144,
162,
138,
127,
134,
126,
137,
137,
149,
120,
124,
140,
137,
117,
130,
133,
108,
120,
129,
116,
107,
108,
110,
111,
97,
106,
106,
104,
122,
108,
116,
125,
102,
79,
104,
95,
105,
76,
104,
111,
92,
71,
89,
82,
82,
93,
73,
92,
87,
86,
73,
68,
76,
91,
72,
90,
75,
89,
75,
56,
71,
60,
63,
64,
76,
63,
63,
72,
68,
61,
50,
55,
67,
47,
54,
61,
54,
54,
54,
47,
52,
42,
60,
41,
54,
48,
47,
45,
48,
44,
42,
49,
46,
35,
36,
46,
37,
41,
46,
34,
41,
39,
37,
31,
46,
31,
43,
27,
38,
28,
31,
33,
23,
36,
24,
43,
22,
30,
24,
23,
26,
30,
29,
24,
16,
19,
22,
24,
20,
21,
12,
24,
15,
24,
28,
23,
16,
21,
15,
18,
21,
19,
14,
11,
18,
15,
17,
18,
5,
11,
8,
6,
10,
11,
8,
16,
13,
10,
12,
16,
8,
8,
11,
6,
3,
8,
9,
12,
7,
8,
9,
6,
3,
1,
7,
6,
6,
4,
0,
5,
4,
3,
2,
2,
3,
3,
2,
4,
1,
1,
0,
2,
1,
0,
1,
2,
0,
0,
1,
1,
0,
1,
0,
0,
0,
1,
1,
0,
0,
0,
0,
0,
0,
1,
0,
0,
1,
2,
0,
0,
0,
0,
0,
0,
0,
1,
0,
1,
0,
0,
0,
0,
0,
0,
0,
0,
0,
0,
1,
0,
0,
1,
0,
0,
0,
0,
0,
1,
0,
0,
0,
1,
0,
0,
0,
1,
0,
0,
0,
1,
1,
0,
0,
0,
1,
1,
0,
0,
0,
0,
1,
0,
0,
0,
0,
0,
0,
1,
0,
0,
1,
0,
0,
0,
0,
0,
1,
0,
0,
0,
0,
0,
0,
1,
0,
0,
0,
0,
0,
0,
0,
0,
0,
0,
0,
0,
0,
0,
0,
0,
0,
0,
0,
0,
0,
0,
0,
0,
0,
0,
0,
0,
0,
0,
0,
0,
0,
0,
0,
0,
1,
0,
0,
0,
0,
0,
0,
0,
0,
0,
0,
0,
0,
0,
0,
0,
0,
0,
0,
1,
0,
0,
0,
0,
0,
0,
0,
0,
0,
0,
0,
0,
0,
0,
0,
0,
0,
0,
0,
0,
0,
0,
0,
0,
0,
0,
1,
0,
0,
0,
0,
0,
0,
0,
0,
0,
1,
0,
0,
0,
0,
0,
0,
0,
0,
0,
0,
0,
0,
0,
0,
0,
0,
0,
0,
0,
0,
0,
0,
0,
0,
0,
0,
0,
0,
0,
0,
0,
0,
0,
0,
0,
0,
0,
0,
0,
0,
0,
0,
0,
0,
0,
0,
0,
0,
0,
0,
0,
0,
0,
0,
0,
0,
0,
0,
0,
0,
0,
0,
0,
0,
0,
0,
0,
0,
0,
0,
0,
0,
0,
0,
0,
0,
0,
0,
0,
0,
0,
0,
0,
0,
0,
0,
0,
0,
0,
1,
0,
0,
0,
0,
0,
0,
0,
0,
0,
0,
0,
0,
0,
0,
0,
0,
0,
0,
0,
0,
0,
0,
0,
0,
0,
0,
0,
0,
0,
0,
0,
0,
0,
0,
0,
0,
0,
0,
0,
0,
0,
0,
0,
0,
0,
0,
0,
0,
0,
0,
0,
0,
0,
0,
0,
0,
0,
0,
0,
0,
0,
0,
0,
0,
0,
0,
0,
0,
0,
0,
0,
0,
0,
0,
0,
0,
0,
0,
0,
0,
0,
0,
0,
0,
0,
0,
0,
0,
0,
0,
0,
0,
0,
0,
0,
0,
0,
0,
0,
0,
0,
0,
0,
0,
0,
0,
0,
0,
0,
0,
0,
0,
0,
0,
0,
0,
0,
0,
0,
0,
0,
0,
0,
0,
0,
0,
0,
0,
0,
0,
0,
0,
0,
0,
0,
0,
0,
0,
0,
0,
0,
0,
0,
0,
0,
0,
0,
0,
0,
0,
0,
0,
0,
0,
0,
0,
0,
0,
0,
0,
0,
0,
0,
0,
0,
0,
0,
0,
0,
0,
0,
0,
0,
0,
0,
0,
0,
0,
0,
0,
0,
0,
0,
0,
0,
0,
0,
0,
0,
0,
0,
0,
0,
0,
0,
0,
0,
0,
0,
0,
0,
0,
0,
0,
0,
0,
0,
0,
0,
0,
0,
0,
0,
0,
0,
0,
0,
0,
0,
0,
0,
0,
0,
0,
0,
0,
0,
0,
0,
0,
0,
0,
0,
0,
0,
0,
0,
0,
0,
0,
0,
0,
0,
0,
0,
0,
0,
0,
0,
0,
0,
0,
0,
0,
0,
0,
0,
0,
0,
0,
0,
0,
0,
0,
0,
0,
0,
0,
0,
0,
0,
0,
0,
0,
0,
0,
0,
0,
0,
0,
0,
0,
0,
0,
0,
0,
0,
0,
0,
0,
0,
0,
0,
0,
0,
0,
0,
0,
0,
0,
0,
0,
0,
0,
0,
0,
0,
0,
0,
0,
0,
0,
0,
0,
0,
0,
0,
0,
0,
0,
0,
0,
0,
0,
0,
0,
0,
0,
0,
0,
0,
0,
0,
0,
0,
0,
0,
0,
0,
0,
0,
0,
0,
0,
0,
0,
0,
0,
0,
0,
0,
0,
0,
0,
0,
0,
0,
0,
0,
0,
0,
0,
0,
0,
0,
0,
0,
0,
0,
0,
0,
0,
0,
0,
0,
0,
0,
0,
0,
0,
0,
0,
0,
0,
0,
0,
0,
0,
0,
0,
0,
0,
0,
0,
0,
0,
0,
0,
0,
0,
0,
0,
0,
0,
0,
0,
0,
0,
0,
0,
0,
0,
0,
0,
0,
0,
0,
0,
0,
#ENDOFDATA   :