File: N132962/Quantification/20 keV/MMM2/SPI MM2 Scheelite[3][4].msa
#FORMAT      : EMSA/MAS Spectral Data File
#VERSION     : 1.0
#TITLE       : SPI MM2 Scheelite[3][all]
#DATE        : 13-MAR-2025
#TIME        : 12:15
#OWNER       : Unknown
#NPOINTS     : 4096
#NCOLUMNS    : 1
#XUNITS      : eV
#YUNITS      : counts
#DATATYPE    : Y
#XPERCHAN    : 9.99778
#OFFSET      : 1.69135
#BEAMKV      : 20
#SIGNALTYPE  : EDS
#ELEVANGLE   : 35
#AZIMANGLE   : 0
#LIVETIME    : 239.974
#REALTIME    : 263.081
#PROBECUR    : 1.02616
#TAUWIND     : 0
#TDEADLYR    : 0
#TACTLYR     : 0.045
#TALWIND     : 0.025
#CHOFFSET    : 0.0
#XLABEL      : Energy (eV)
#YLABEL      : Counts
#XPOSITION   : -2.80884
#YPOSITION   : 2.03971
#ZPOSITION   : 31.03511
#EDSDET      : SD
##SPECIMEN   : SPI MM2 Scheelite[3][all]
##DET_HASH   : 12273538-fd48-a23f-0a19-f1e6fa85caef
##CALIB_HASH : 6abaa72c-aa41-8738-0be9-f592914732f3
##WORKING    : 15.0 mm
##DET_NAME   : EDAX All
##DET_MODE   : MediumLE
#SPECTRUM    :
34,
28,
10,
33,
204,
794,
2613,
6667,
15038,
19317,
11749,
5975,
4356,
4035,
4717,
9484,
28621,
53013,
39887,
12840,
4509,
4068,
4358,
5002,
5233,
5099,
5355,
5577,
6145,
6353,
6405,
6495,
6723,
6858,
7167,
7262,
7405,
7567,
7655,
8089,
8219,
8308,
8732,
9543,
12188,
18786,
22870,
19218,
13653,
11153,
10367,
10042,
10000,
10070,
11238,
13221,
21564,
56807,
143665,
226931,
222509,
157350,
87012,
34504,
12017,
7367,
7908,
9140,
9716,
8024,
6099,
5280,
5193,
5238,
5355,
5518,
6300,
6493,
6279,
5689,
5326,
5005,
4704,
4827,
4800,
4839,
4665,
4806,
4766,
4810,
4730,
4916,
4894,
4848,
4890,
4827,
4806,
4780,
4708,
4857,
4894,
4779,
4734,
4881,
4858,
4888,
5007,
5059,
5006,
5024,
4798,
4892,
4795,
4897,
5015,
5069,
5182,
5506,
6095,
7953,
14171,
30032,
52114,
64966,
55349,
33014,
15054,
7380,
5373,
5074,
5502,
6596,
8722,
11438,
12597,
10310,
7565,
5511,
4624,
4352,
4352,
4261,
4253,
4342,
4271,
4367,
4316,
4078,
4221,
4150,
4248,
4156,
4128,
4105,
4129,
4069,
4195,
4122,
4114,
3998,
4037,
3961,
4074,
4067,
3981,
4021,
4055,
3978,
3973,
4021,
3906,
3879,
3895,
3908,
3857,
3861,
3878,
3888,
3856,
3716,
3753,
3916,
3998,
3884,
3872,
3769,
3817,
3659,
3592,
3531,
3550,
3534,
3647,
3603,
3585,
3521,
3426,
3547,
3420,
3485,
3397,
3444,
3406,
3431,
3427,
3286,
3361,
3196,
3286,
3396,
3387,
3519,
3511,
3661,
3633,
3412,
3401,
3244,
3224,
3251,
3171,
3059,
3133,
3074,
3035,
2929,
2955,
3089,
2945,
2988,
2905,
3008,
2938,
2990,
2950,
2976,
3065,
2829,
2814,
2788,
2873,
2777,
2907,
3236,
3441,
3954,
3974,
4006,
3763,
3512,
3121,
2925,
2804,
2700,
2621,
2622,
2579,
2577,
2555,
2592,
2647,
2520,
2518,
2533,
2551,
2508,
2432,
2544,
2468,
2446,
2494,
2441,
2613,
3000,
3909,
5888,
9681,
15497,
22016,
26632,
27365,
23490,
16745,
10385,
6150,
3660,
2805,
2449,
2341,
2445,
2404,
2505,
2354,
2261,
2153,
2082,
2129,
2083,
2055,
2110,
2031,
2072,
2013,
2002,
1973,
2027,
1939,
1951,
1917,
1965,
1938,
2009,
2115,
2055,
2242,
2547,
3058,
3612,
4588,
6049,
8195,
9870,
10818,
10385,
8874,
6878,
5337,
4513,
4519,
4948,
5658,
6315,
6375,
5754,
4693,
3584,
2708,
2260,
1939,
1885,
1785,
1725,
1699,
1642,
1561,
1517,
1485,
1470,
1468,
1354,
1402,
1432,
1383,
1346,
1384,
1429,
1348,
1304,
1345,
1336,
1315,
1365,
1381,
1314,
1361,
1374,
1338,
1293,
1333,
1358,
1398,
1486,
1697,
1981,
2279,
2605,
2577,
2589,
2127,
1802,
1654,
1435,
1317,
1322,
1412,
1387,
1497,
1516,
1475,
1521,
1396,
1279,
1177,
1156,
1041,
1109,
1062,
1027,
1035,
1012,
1007,
1061,
1114,
1010,
1000,
985,
963,
1013,
930,
931,
950,
923,
912,
940,
900,
862,
852,
870,
858,
857,
824,
850,
817,
830,
797,
839,
787,
776,
821,
818,
759,
812,
720,
823,
755,
744,
738,
738,
745,
717,
699,
703,
779,
742,
694,
720,
706,
728,
665,
709,
647,
688,
677,
666,
646,
668,
604,
623,
593,
623,
617,
605,
604,
573,
607,
571,
589,
576,
552,
582,
565,
579,
575,
516,
534,
502,
565,
531,
494,
531,
491,
476,
494,
548,
466,
485,
473,
460,
460,
435,
449,
448,
458,
436,
433,
423,
476,
439,
440,
399,
422,
401,
432,
390,
400,
408,
380,
413,
368,
396,
369,
366,
378,
341,
383,
342,
378,
340,
358,
349,
300,
325,
316,
308,
315,
301,
337,
284,
308,
297,
314,
275,
299,
260,
288,
283,
279,
279,
259,
262,
257,
262,
246,
292,
236,
232,
273,
232,
224,
233,
224,
236,
220,
232,
233,
223,
215,
234,
218,
189,
197,
207,
203,
180,
208,
194,
201,
157,
171,
175,
168,
196,
208,
169,
155,
161,
158,
162,
179,
160,
158,
169,
150,
151,
138,
140,
137,
138,
136,
137,
131,
121,
114,
128,
145,
135,
115,
114,
118,
114,
126,
115,
92,
120,
91,
116,
101,
97,
101,
88,
71,
84,
86,
86,
86,
74,
80,
79,
75,
73,
62,
59,
71,
58,
61,
68,
49,
62,
51,
46,
41,
45,
46,
48,
55,
57,
47,
40,
41,
39,
45,
40,
41,
39,
27,
37,
16,
29,
25,
25,
27,
24,
25,
29,
22,
21,
15,
15,
16,
12,
19,
14,
10,
4,
8,
7,
10,
2,
2,
0,
2,
1,
4,
4,
5,
2,
2,
2,
3,
5,
4,
4,
6,
4,
3,
3,
9,
4,
3,
2,
0,
1,
3,
1,
3,
2,
0,
1,
2,
2,
1,
3,
4,
4,
2,
3,
2,
2,
5,
3,
1,
1,
3,
1,
2,
4,
3,
0,
1,
1,
0,
1,
4,
2,
2,
2,
0,
2,
1,
2,
1,
0,
3,
5,
1,
2,
5,
1,
1,
2,
3,
2,
0,
2,
4,
1,
1,
2,
0,
1,
2,
2,
2,
3,
1,
2,
3,
0,
1,
1,
3,
0,
0,
0,
2,
0,
1,
2,
1,
0,
0,
1,
2,
3,
1,
3,
0,
0,
2,
2,
0,
1,
0,
0,
1,
0,
0,
1,
0,
0,
0,
2,
0,
0,
1,
1,
2,
1,
3,
0,
0,
2,
0,
1,
0,
2,
0,
0,
0,
0,
2,
0,
0,
0,
1,
0,
3,
0,
1,
0,
0,
1,
1,
1,
0,
0,
0,
3,
0,
0,
1,
0,
2,
1,
0,
0,
1,
0,
1,
0,
1,
0,
2,
0,
1,
1,
2,
0,
2,
1,
1,
0,
1,
1,
0,
0,
1,
0,
0,
0,
0,
0,
1,
1,
1,
2,
0,
0,
0,
0,
1,
1,
1,
0,
0,
0,
1,
3,
0,
0,
0,
0,
0,
0,
0,
1,
1,
1,
1,
0,
0,
0,
0,
0,
0,
0,
1,
1,
0,
0,
0,
2,
0,
1,
0,
0,
0,
0,
0,
0,
0,
0,
0,
0,
0,
0,
0,
0,
0,
0,
0,
1,
0,
1,
0,
1,
0,
1,
0,
0,
0,
0,
0,
0,
0,
0,
0,
0,
0,
0,
1,
0,
0,
1,
1,
0,
0,
0,
0,
0,
0,
0,
0,
0,
0,
1,
1,
0,
0,
0,
0,
1,
0,
0,
0,
0,
0,
0,
0,
1,
0,
0,
1,
0,
0,
0,
0,
0,
0,
0,
0,
0,
0,
0,
0,
0,
0,
0,
0,
0,
0,
0,
0,
0,
0,
0,
0,
0,
0,
0,
0,
0,
0,
0,
0,
0,
0,
1,
0,
0,
0,
0,
0,
0,
0,
0,
0,
0,
0,
0,
0,
0,
0,
0,
0,
0,
0,
1,
0,
0,
0,
0,
0,
0,
0,
0,
0,
0,
0,
0,
0,
1,
0,
0,
0,
1,
0,
0,
0,
0,
0,
0,
0,
0,
0,
0,
0,
0,
0,
0,
0,
0,
0,
0,
0,
0,
0,
0,
0,
0,
0,
0,
0,
0,
0,
0,
0,
0,
0,
1,
0,
0,
0,
0,
0,
0,
0,
0,
0,
0,
0,
0,
0,
0,
0,
0,
0,
0,
0,
1,
0,
0,
0,
0,
0,
0,
0,
0,
0,
0,
0,
0,
0,
0,
0,
0,
0,
0,
0,
0,
0,
0,
0,
0,
0,
0,
0,
0,
0,
0,
0,
0,
0,
0,
0,
0,
0,
0,
0,
0,
0,
0,
0,
0,
0,
0,
0,
0,
0,
0,
0,
0,
0,
0,
0,
0,
0,
0,
0,
0,
0,
0,
0,
0,
0,
0,
0,
0,
0,
0,
0,
0,
0,
0,
0,
0,
0,
0,
0,
0,
0,
0,
0,
0,
0,
0,
0,
0,
0,
0,
0,
0,
0,
0,
0,
0,
0,
0,
0,
0,
0,
0,
0,
0,
0,
0,
0,
0,
0,
0,
0,
0,
0,
0,
0,
0,
0,
0,
0,
0,
0,
0,
0,
0,
0,
0,
0,
0,
0,
0,
0,
0,
0,
0,
0,
0,
0,
0,
0,
0,
0,
0,
0,
0,
0,
0,
0,
0,
0,
0,
0,
0,
0,
0,
0,
0,
0,
0,
0,
0,
0,
0,
0,
0,
0,
0,
0,
0,
0,
0,
0,
0,
0,
0,
0,
0,
0,
0,
0,
0,
0,
0,
0,
0,
0,
0,
0,
0,
0,
0,
0,
0,
0,
0,
0,
0,
0,
0,
0,
0,
0,
0,
0,
0,
0,
0,
0,
0,
0,
0,
0,
0,
0,
0,
0,
0,
0,
0,
0,
0,
0,
0,
0,
0,
0,
0,
0,
0,
0,
0,
0,
0,
0,
0,
0,
0,
0,
0,
0,
0,
0,
0,
0,
0,
0,
0,
0,
0,
0,
0,
0,
0,
0,
0,
0,
0,
0,
0,
0,
0,
0,
0,
0,
0,
0,
0,
#ENDOFDATA   :