File: N132962/Quantification/20 keV/MMM2/SPI MM2 SPI Molybdenite[2][4].msa
#FORMAT      : EMSA/MAS Spectral Data File
#VERSION     : 1.0
#TITLE       : SPI MM2 SPI Molybdenite[2][all]
#DATE        : 13-MAR-2025
#TIME        : 10:15
#OWNER       : Unknown
#NPOINTS     : 4096
#NCOLUMNS    : 1
#XUNITS      : eV
#YUNITS      : counts
#DATATYPE    : Y
#XPERCHAN    : 9.99778
#OFFSET      : 1.69135
#BEAMKV      : 20
#SIGNALTYPE  : EDS
#ELEVANGLE   : 35
#AZIMANGLE   : 0
#LIVETIME    : 239.737
#REALTIME    : 266.349
#PROBECUR    : 1.02627
#TAUWIND     : 0
#TDEADLYR    : 0
#TACTLYR     : 0.045
#TALWIND     : 0.025
#CHOFFSET    : 0.0
#XLABEL      : Energy (eV)
#YLABEL      : Counts
#XPOSITION   : 5.94302
#YPOSITION   : -2.9238
#ZPOSITION   : 31.03509
#EDSDET      : SD
##SPECIMEN   : SPI MM2 SPI Molybdenite[2][all]
##D2STDCMP   : SPI Molybdenite,(S:39.84),(Mo:59.29),5.0
##DET_HASH   : 12273538-fd48-a23f-0a19-f1e6fa85caef
##CALIB_HASH : 6abaa72c-aa41-8738-0be9-f592914732f3
##WORKING    : 15.0 mm
##DET_NAME   : EDAX All
##DET_MODE   : MediumLE
#SPECTRUM    :
25,
32,
16,
181,
1255,
3152,
4196,
6053,
13289,
17315,
8254,
2982,
2393,
2472,
2532,
3268,
4448,
8268,
13997,
13777,
7802,
5739,
5961,
5867,
5706,
5368,
5272,
5450,
5830,
6023,
6092,
6114,
6388,
6730,
6995,
7055,
7256,
7393,
7593,
7824,
7873,
8074,
8106,
8072,
8203,
8595,
8532,
8665,
9027,
9204,
9259,
9048,
9004,
8950,
8921,
9004,
9388,
10155,
10607,
10266,
9894,
9330,
8602,
8751,
9283,
10761,
14080,
16808,
16391,
13312,
12609,
13909,
18627,
34759,
92866,
248092,
465299,
534667,
381166,
208259,
128608,
92917,
65994,
43375,
24442,
12579,
7565,
5757,
4898,
4163,
3471,
3287,
3551,
3940,
4303,
4288,
3922,
3409,
3188,
3141,
3139,
3142,
3074,
3224,
3203,
3182,
3266,
3230,
3107,
3218,
3293,
3288,
3330,
3290,
3307,
3313,
3330,
3331,
3369,
3394,
3341,
3454,
3331,
3361,
3332,
3357,
3437,
3336,
3395,
3420,
3399,
3391,
3365,
3289,
3402,
3390,
3299,
3373,
3282,
3283,
3377,
3266,
3364,
3343,
3336,
3419,
3302,
3373,
3267,
3341,
3431,
3854,
4257,
4618,
4782,
4637,
4205,
3992,
3788,
3664,
3408,
3301,
3116,
3064,
3063,
2974,
2991,
3046,
2995,
2889,
2985,
2959,
2839,
2863,
3014,
2886,
2873,
2831,
2830,
2805,
2982,
2890,
2827,
2791,
2750,
2732,
2761,
2806,
2664,
2658,
2675,
2661,
2684,
2631,
2579,
2551,
2536,
2624,
2601,
2598,
2600,
2595,
2496,
2507,
2460,
2446,
2475,
2492,
2355,
2554,
2561,
2576,
2617,
2783,
2790,
2605,
2493,
2356,
2233,
2354,
2256,
2327,
2248,
2284,
2173,
2225,
2282,
2243,
2181,
2179,
2200,
2196,
2218,
2132,
2202,
2095,
2098,
2084,
2086,
2043,
2067,
1980,
2035,
2063,
2013,
2053,
2004,
2013,
2180,
2082,
2093,
2032,
1957,
1914,
1883,
1805,
1876,
1907,
1775,
1885,
1848,
1894,
1744,
1853,
1822,
1802,
1713,
1752,
1757,
1721,
1810,
1762,
1719,
1708,
1706,
1694,
1660,
1601,
1614,
1671,
1636,
1638,
1583,
1554,
1539,
1634,
1518,
1563,
1557,
1578,
1521,
1500,
1430,
1493,
1472,
1443,
1442,
1454,
1428,
1475,
1419,
1409,
1351,
1433,
1380,
1382,
1433,
1293,
1388,
1387,
1320,
1340,
1402,
1303,
1284,
1282,
1306,
1347,
1259,
1319,
1332,
1294,
1234,
1211,
1213,
1194,
1307,
1215,
1231,
1283,
1206,
1189,
1207,
1171,
1160,
1242,
1065,
1100,
1118,
1099,
1084,
1115,
1087,
1102,
1113,
1098,
1037,
1063,
1030,
1089,
1064,
1023,
1014,
1044,
964,
996,
964,
990,
1007,
999,
999,
927,
988,
991,
956,
961,
893,
900,
867,
908,
903,
890,
935,
868,
806,
897,
851,
905,
827,
865,
817,
819,
878,
791,
836,
774,
790,
751,
838,
746,
801,
725,
744,
776,
784,
729,
767,
710,
728,
691,
752,
740,
766,
679,
672,
676,
718,
650,
664,
680,
643,
658,
677,
633,
660,
614,
595,
627,
644,
609,
587,
579,
563,
597,
614,
571,
560,
570,
553,
556,
543,
582,
528,
552,
529,
547,
536,
506,
497,
502,
501,
481,
501,
482,
495,
456,
504,
499,
450,
442,
471,
451,
449,
434,
433,
416,
459,
433,
447,
426,
392,
457,
413,
407,
421,
397,
385,
379,
381,
381,
378,
378,
361,
338,
360,
388,
330,
368,
328,
331,
298,
299,
344,
323,
327,
280,
329,
327,
332,
314,
327,
298,
287,
281,
301,
296,
281,
292,
298,
283,
262,
275,
255,
265,
261,
269,
259,
224,
253,
240,
241,
215,
251,
256,
228,
217,
228,
207,
227,
232,
196,
230,
207,
182,
201,
186,
201,
187,
200,
185,
205,
188,
224,
188,
182,
197,
192,
177,
173,
183,
152,
159,
177,
163,
159,
151,
129,
153,
131,
169,
143,
149,
129,
136,
116,
129,
142,
156,
134,
134,
129,
128,
102,
121,
117,
124,
121,
123,
114,
109,
107,
104,
107,
96,
93,
89,
101,
112,
97,
102,
88,
88,
87,
82,
98,
76,
78,
85,
94,
87,
72,
79,
70,
72,
79,
88,
61,
75,
68,
74,
94,
81,
72,
58,
68,
56,
48,
39,
76,
63,
53,
48,
47,
52,
47,
42,
36,
44,
47,
45,
37,
24,
51,
30,
43,
28,
28,
37,
32,
30,
35,
21,
32,
30,
30,
27,
19,
15,
28,
20,
27,
27,
19,
16,
16,
16,
9,
12,
11,
19,
16,
15,
10,
13,
10,
9,
5,
7,
6,
10,
5,
9,
5,
1,
3,
5,
5,
3,
2,
1,
2,
2,
1,
3,
3,
1,
1,
0,
0,
2,
4,
3,
1,
2,
5,
1,
2,
0,
1,
2,
1,
2,
2,
3,
4,
0,
1,
0,
0,
0,
0,
2,
3,
3,
0,
1,
1,
0,
0,
0,
2,
0,
2,
2,
2,
0,
0,
1,
1,
1,
0,
0,
0,
0,
1,
1,
0,
0,
1,
0,
0,
0,
0,
0,
0,
0,
1,
2,
0,
0,
0,
1,
0,
0,
0,
1,
1,
1,
1,
1,
0,
1,
1,
0,
0,
1,
0,
0,
0,
0,
1,
0,
1,
0,
0,
0,
1,
0,
2,
0,
0,
1,
0,
0,
0,
0,
0,
1,
0,
0,
0,
0,
0,
0,
0,
0,
1,
0,
2,
0,
0,
0,
0,
0,
0,
1,
0,
0,
1,
0,
0,
0,
0,
1,
0,
0,
0,
0,
1,
1,
0,
0,
0,
0,
0,
0,
0,
0,
0,
2,
0,
0,
1,
0,
1,
0,
0,
0,
0,
0,
0,
0,
0,
0,
0,
0,
0,
0,
0,
1,
0,
0,
0,
0,
0,
0,
0,
0,
2,
0,
1,
1,
0,
0,
0,
0,
0,
0,
0,
0,
0,
0,
0,
1,
0,
1,
0,
0,
1,
0,
0,
1,
0,
0,
0,
0,
1,
0,
0,
0,
1,
0,
0,
0,
0,
0,
0,
0,
0,
0,
0,
0,
0,
0,
0,
0,
1,
0,
0,
0,
2,
0,
0,
0,
0,
0,
0,
0,
0,
0,
0,
0,
0,
0,
0,
0,
0,
0,
0,
0,
0,
0,
0,
0,
0,
0,
0,
0,
0,
0,
0,
0,
0,
0,
0,
0,
0,
0,
0,
0,
0,
0,
0,
0,
1,
0,
0,
0,
0,
0,
0,
0,
0,
0,
0,
0,
0,
0,
0,
0,
0,
0,
0,
0,
0,
0,
0,
0,
0,
0,
0,
0,
0,
0,
0,
0,
0,
0,
0,
0,
0,
0,
0,
0,
0,
0,
0,
0,
0,
0,
0,
0,
0,
0,
0,
0,
0,
0,
0,
0,
0,
0,
0,
0,
0,
0,
0,
0,
0,
0,
0,
0,
0,
0,
0,
0,
0,
0,
0,
0,
1,
0,
0,
0,
0,
0,
0,
0,
0,
0,
0,
0,
0,
0,
0,
0,
0,
0,
0,
0,
0,
0,
0,
0,
0,
0,
0,
0,
0,
0,
0,
0,
0,
0,
0,
0,
0,
0,
0,
0,
0,
0,
0,
0,
0,
0,
0,
0,
0,
0,
0,
0,
0,
0,
0,
0,
0,
0,
0,
0,
0,
0,
0,
0,
0,
0,
0,
0,
0,
0,
0,
0,
0,
0,
0,
0,
0,
0,
0,
0,
0,
0,
0,
0,
0,
0,
0,
0,
0,
0,
0,
0,
0,
0,
0,
0,
0,
0,
0,
0,
0,
0,
0,
0,
0,
0,
0,
0,
0,
0,
0,
0,
0,
0,
0,
0,
0,
0,
0,
0,
0,
0,
0,
0,
0,
0,
0,
0,
0,
0,
0,
0,
0,
0,
0,
0,
0,
0,
0,
0,
0,
0,
0,
0,
0,
0,
0,
0,
0,
0,
0,
0,
0,
0,
0,
0,
0,
0,
0,
0,
0,
0,
0,
0,
0,
0,
0,
0,
0,
0,
0,
0,
0,
0,
0,
0,
0,
0,
0,
0,
0,
0,
0,
0,
0,
0,
0,
0,
0,
0,
0,
0,
0,
0,
0,
0,
0,
0,
0,
0,
0,
0,
0,
0,
0,
0,
0,
0,
0,
0,
0,
0,
0,
0,
0,
0,
0,
0,
0,
0,
0,
0,
0,
0,
0,
0,
0,
0,
0,
0,
0,
0,
0,
0,
0,
0,
0,
0,
0,
0,
0,
0,
0,
0,
0,
0,
0,
0,
0,
0,
0,
0,
0,
0,
0,
0,
0,
0,
0,
0,
0,
0,
0,
0,
0,
0,
0,
0,
0,
0,
0,
0,
0,
0,
0,
0,
0,
0,
0,
0,
0,
0,
0,
0,
0,
0,
0,
0,
0,
0,
0,
0,
0,
0,
0,
0,
0,
0,
0,
0,
0,
0,
0,
0,
0,
0,
0,
0,
0,
0,
0,
0,
0,
0,
0,
0,
0,
0,
0,
0,
0,
0,
0,
0,
0,
0,
0,
0,
0,
0,
0,
0,
0,
0,
0,
0,
0,
0,
0,
0,
0,
0,
0,
0,
0,
0,
#ENDOFDATA   :