File: N132962/Quantification/20 keV/MMM2/SPI MM2 Uvarovite[3][4].msa
#FORMAT      : EMSA/MAS Spectral Data File
#VERSION     : 1.0
#TITLE       : SPI MM2 Uvarovite[3][all]
#DATE        : 13-MAR-2025
#TIME        : 14:15
#OWNER       : Unknown
#NPOINTS     : 4096
#NCOLUMNS    : 1
#XUNITS      : eV
#YUNITS      : counts
#DATATYPE    : Y
#XPERCHAN    : 9.99778
#OFFSET      : 1.69135
#BEAMKV      : 20
#SIGNALTYPE  : EDS
#ELEVANGLE   : 35
#AZIMANGLE   : 0
#LIVETIME    : 239.758
#REALTIME    : 255.215
#PROBECUR    : 1.02609
#TAUWIND     : 0
#TDEADLYR    : 0
#TACTLYR     : 0.045
#TALWIND     : 0.025
#CHOFFSET    : 0.0
#XLABEL      : Energy (eV)
#YLABEL      : Counts
#XPOSITION   : 5.68505
#YPOSITION   : 6.4181
#ZPOSITION   : 31.03511
#EDSDET      : SD
##SPECIMEN   : SPI MM2 Uvarovite[3][all]
##DET_HASH   : 12273538-fd48-a23f-0a19-f1e6fa85caef
##CALIB_HASH : 6abaa72c-aa41-8738-0be9-f592914732f3
##WORKING    : 15.0 mm
##DET_NAME   : EDAX All
##DET_MODE   : MediumLE
#SPECTRUM    :
23,
27,
11,
24,
80,
298,
978,
3141,
9662,
14164,
9887,
5111,
3230,
2798,
4222,
12613,
46076,
88117,
65462,
19810,
4684,
2249,
2108,
2422,
2521,
2235,
2198,
2277,
2461,
2626,
2546,
2757,
2765,
2951,
3197,
3246,
3507,
3503,
3560,
3583,
3804,
4195,
4206,
4341,
4470,
4472,
4942,
7011,
15138,
27384,
28168,
16561,
8142,
5795,
6145,
12578,
43523,
108502,
148163,
105625,
43117,
15815,
8207,
5453,
4677,
4629,
4145,
3607,
3350,
3372,
3331,
3295,
3208,
3334,
3498,
3493,
3649,
3460,
3329,
3277,
3201,
3215,
3185,
3253,
3289,
3106,
3178,
3148,
3023,
3145,
3137,
3129,
3051,
2993,
3060,
3022,
3044,
3008,
3003,
2917,
2940,
2980,
2926,
2888,
2965,
2834,
2919,
3005,
2810,
2791,
2786,
2707,
2703,
2669,
2830,
2826,
3167,
3542,
4289,
7627,
19779,
50286,
93638,
118220,
99813,
55963,
22328,
7379,
3442,
3048,
3711,
5801,
9854,
14800,
16250,
12925,
7738,
4237,
2502,
2120,
1984,
1983,
1934,
1902,
1949,
1829,
1987,
2250,
3053,
4138,
4889,
4582,
3674,
2647,
2022,
1848,
1716,
1695,
1684,
1681,
1721,
1762,
2026,
2197,
2522,
2574,
2335,
2042,
1797,
1590,
1591,
1589,
1665,
1731,
1708,
2120,
3248,
6845,
14497,
24969,
32244,
31201,
22400,
12430,
5675,
2615,
1677,
1443,
1398,
1400,
1474,
1457,
1486,
1530,
1826,
2450,
3546,
4757,
5304,
4815,
3792,
2494,
1721,
1377,
1261,
1211,
1152,
1126,
1221,
1354,
1552,
1907,
2461,
2735,
2687,
2209,
1721,
1315,
1157,
1130,
1083,
1101,
1099,
1019,
1067,
1049,
1038,
1035,
1056,
1024,
1046,
1037,
1074,
1114,
1221,
1242,
1223,
1228,
1118,
990,
992,
960,
919,
967,
989,
962,
992,
1030,
979,
996,
978,
923,
900,
943,
878,
889,
875,
894,
829,
801,
825,
806,
880,
815,
798,
808,
801,
744,
804,
775,
765,
818,
760,
750,
765,
800,
820,
781,
692,
813,
724,
732,
754,
711,
706,
713,
720,
690,
653,
674,
636,
695,
653,
664,
645,
683,
697,
661,
690,
628,
624,
643,
673,
640,
671,
646,
682,
643,
623,
595,
612,
608,
649,
559,
590,
589,
588,
591,
557,
557,
584,
560,
546,
494,
565,
526,
551,
520,
476,
530,
469,
490,
547,
487,
467,
517,
471,
506,
494,
511,
484,
463,
495,
485,
428,
459,
467,
479,
424,
442,
470,
437,
448,
421,
428,
392,
417,
422,
410,
427,
406,
386,
432,
387,
384,
394,
399,
394,
398,
406,
404,
348,
370,
385,
375,
388,
345,
343,
365,
384,
332,
388,
355,
323,
337,
338,
309,
346,
310,
313,
350,
307,
314,
303,
325,
322,
292,
327,
305,
280,
309,
259,
296,
252,
308,
304,
285,
263,
296,
301,
261,
272,
253,
249,
246,
237,
263,
260,
257,
245,
229,
240,
257,
232,
226,
226,
253,
226,
215,
230,
223,
219,
237,
219,
236,
218,
221,
200,
229,
210,
188,
200,
212,
183,
219,
206,
197,
178,
162,
196,
156,
169,
161,
162,
160,
154,
171,
169,
159,
168,
167,
169,
151,
165,
145,
171,
165,
140,
143,
151,
144,
144,
144,
150,
155,
141,
122,
124,
132,
121,
145,
127,
136,
143,
130,
102,
112,
110,
121,
121,
124,
139,
100,
97,
107,
107,
113,
92,
132,
111,
93,
83,
72,
72,
85,
96,
92,
97,
83,
93,
72,
108,
86,
80,
82,
77,
88,
66,
73,
86,
81,
84,
65,
73,
86,
78,
74,
54,
78,
63,
75,
77,
72,
74,
71,
70,
54,
66,
61,
69,
56,
51,
62,
62,
66,
49,
64,
68,
64,
59,
44,
47,
49,
34,
41,
48,
47,
37,
49,
48,
34,
39,
40,
49,
48,
48,
53,
34,
36,
41,
40,
32,
38,
43,
26,
36,
39,
43,
22,
28,
33,
33,
29,
23,
32,
30,
29,
33,
30,
23,
30,
28,
24,
34,
21,
16,
18,
23,
22,
20,
19,
21,
14,
15,
17,
15,
10,
17,
11,
25,
25,
19,
18,
17,
15,
10,
24,
8,
7,
13,
10,
11,
17,
9,
19,
8,
9,
9,
10,
15,
6,
13,
13,
9,
15,
5,
5,
8,
3,
4,
5,
13,
6,
9,
4,
6,
4,
3,
9,
1,
6,
4,
3,
3,
3,
0,
0,
4,
3,
1,
1,
0,
2,
1,
3,
2,
0,
0,
0,
0,
2,
0,
0,
0,
0,
0,
0,
1,
1,
0,
0,
0,
0,
0,
0,
0,
0,
0,
0,
1,
1,
0,
0,
0,
0,
1,
0,
0,
0,
1,
1,
1,
0,
0,
0,
1,
0,
0,
2,
0,
1,
0,
0,
0,
0,
0,
0,
0,
0,
0,
0,
1,
0,
0,
0,
0,
0,
0,
0,
0,
0,
0,
0,
0,
0,
0,
0,
0,
0,
0,
0,
0,
0,
0,
0,
0,
0,
0,
2,
0,
0,
0,
0,
1,
0,
0,
0,
0,
0,
0,
0,
0,
0,
0,
0,
0,
0,
0,
0,
0,
0,
0,
0,
0,
0,
0,
0,
0,
0,
0,
0,
0,
0,
0,
0,
0,
0,
0,
0,
0,
0,
0,
0,
0,
0,
0,
0,
0,
0,
0,
0,
0,
0,
0,
0,
0,
0,
0,
0,
0,
0,
0,
0,
0,
0,
0,
0,
1,
0,
0,
0,
0,
0,
0,
0,
0,
0,
0,
0,
0,
0,
0,
0,
0,
0,
0,
0,
0,
0,
0,
0,
0,
0,
0,
0,
0,
0,
0,
0,
0,
0,
0,
0,
0,
0,
0,
0,
0,
0,
0,
0,
0,
0,
0,
0,
0,
0,
0,
0,
0,
0,
0,
0,
0,
0,
0,
0,
0,
0,
0,
1,
0,
0,
0,
0,
0,
0,
0,
0,
0,
0,
0,
0,
0,
0,
0,
0,
0,
0,
0,
0,
0,
0,
1,
0,
0,
0,
0,
0,
0,
0,
0,
0,
0,
0,
0,
1,
0,
0,
0,
0,
0,
1,
0,
0,
0,
0,
0,
0,
0,
0,
0,
0,
0,
0,
0,
0,
0,
0,
0,
0,
0,
0,
0,
0,
0,
0,
0,
0,
0,
0,
0,
0,
0,
0,
0,
0,
0,
0,
0,
0,
0,
0,
0,
0,
0,
0,
0,
0,
0,
0,
0,
0,
0,
0,
0,
0,
0,
0,
0,
0,
0,
0,
0,
0,
0,
0,
0,
0,
0,
0,
0,
0,
1,
0,
0,
0,
0,
0,
0,
0,
0,
0,
0,
0,
0,
0,
0,
0,
0,
0,
0,
0,
0,
0,
0,
0,
0,
0,
0,
0,
0,
0,
0,
0,
0,
0,
0,
0,
0,
0,
0,
0,
0,
0,
0,
0,
0,
0,
0,
0,
0,
0,
0,
0,
0,
0,
0,
0,
0,
0,
0,
0,
0,
0,
0,
0,
0,
0,
0,
0,
0,
0,
0,
0,
0,
0,
0,
0,
0,
0,
0,
0,
0,
0,
0,
0,
0,
0,
0,
0,
0,
0,
0,
0,
0,
0,
0,
0,
0,
0,
0,
0,
0,
0,
0,
0,
0,
0,
0,
0,
0,
0,
0,
0,
0,
0,
0,
0,
0,
0,
0,
0,
0,
0,
0,
0,
0,
0,
0,
0,
0,
0,
0,
0,
0,
0,
0,
0,
0,
0,
0,
0,
0,
0,
0,
0,
0,
0,
0,
0,
0,
0,
0,
0,
0,
0,
0,
0,
0,
0,
0,
0,
0,
0,
0,
0,
0,
0,
0,
0,
0,
0,
0,
0,
0,
0,
0,
0,
0,
0,
0,
0,
0,
0,
0,
0,
0,
0,
0,
0,
0,
0,
0,
0,
0,
0,
0,
0,
0,
0,
0,
0,
0,
0,
0,
0,
0,
0,
0,
0,
0,
0,
0,
0,
0,
0,
0,
0,
0,
0,
0,
0,
0,
0,
0,
0,
0,
0,
0,
0,
0,
0,
0,
0,
0,
0,
0,
0,
0,
0,
0,
0,
0,
0,
0,
0,
0,
0,
0,
0,
0,
0,
0,
0,
0,
0,
0,
0,
0,
0,
0,
0,
0,
0,
0,
0,
0,
0,
0,
0,
0,
0,
0,
0,
0,
0,
0,
0,
0,
0,
0,
0,
0,
0,
0,
0,
0,
0,
0,
0,
0,
0,
0,
0,
0,
0,
0,
0,
0,
0,
0,
0,
0,
0,
0,
0,
0,
0,
0,
0,
0,
0,
0,
0,
0,
0,
0,
0,
0,
0,
0,
0,
0,
0,
0,
0,
0,
0,
0,
0,
0,
0,
0,
0,
0,
0,
0,
0,
0,
0,
0,
0,
0,
0,
0,
0,
0,
0,
0,
0,
0,
0,
0,
0,
0,
0,
0,
0,
0,
0,
0,
0,
0,
0,
0,
0,
0,
0,
0,
0,
0,
0,
0,
0,
0,
#ENDOFDATA   :