File: N132962/Quantification/20 keV/MMM2/SPI MM2 SPI Monazite[0][4].msa
#FORMAT      : EMSA/MAS Spectral Data File
#VERSION     : 1.0
#TITLE       : SPI MM2 SPI Monazite[0][all]
#DATE        : 13-MAR-2025
#TIME        : 10:04
#OWNER       : Unknown
#NPOINTS     : 4096
#NCOLUMNS    : 1
#XUNITS      : eV
#YUNITS      : counts
#DATATYPE    : Y
#XPERCHAN    : 9.99778
#OFFSET      : 1.69135
#BEAMKV      : 20
#SIGNALTYPE  : EDS
#ELEVANGLE   : 35
#AZIMANGLE   : 0
#LIVETIME    : 239.961
#REALTIME    : 258.542
#PROBECUR    : 1.02627
#TAUWIND     : 0
#TDEADLYR    : 0
#TACTLYR     : 0.045
#TALWIND     : 0.025
#CHOFFSET    : 0.0
#XLABEL      : Energy (eV)
#YLABEL      : Counts
#XPOSITION   : 2.41417
#YPOSITION   : -2.72714
#ZPOSITION   : 31.03509
#EDSDET      : SD
##SPECIMEN   : SPI MM2 SPI Monazite[0][all]
##D2STDCMP   : SPI Monazite,(O:26.45),(Si:0.83),(P:11.85),(Ca:0.65),(Y:1.59),(La:7.84),(Ce:19.96),(Pr:2.47),(Nd:9.68),(Sm:3.7),(Eu:0.38),(Gd:2.89),(Tb:0.35),(Dy:1.21),(Pb:0.25),(Th:9.7),(U:0.16),5.0
##DET_HASH   : 12273538-fd48-a23f-0a19-f1e6fa85caef
##CALIB_HASH : 6abaa72c-aa41-8738-0be9-f592914732f3
##WORKING    : 15.0 mm
##DET_NAME   : EDAX All
##DET_MODE   : MediumLE
#SPECTRUM    :
32,
26,
15,
28,
176,
735,
2166,
6261,
15350,
19594,
11077,
6062,
5879,
6110,
8129,
18456,
62303,
116811,
86088,
25190,
7531,
8096,
9774,
9883,
8760,
8156,
7703,
8827,
10734,
11981,
11300,
9518,
9072,
9007,
8179,
7745,
7754,
7527,
7034,
7488,
7392,
6858,
6578,
6516,
6321,
5915,
5725,
5702,
5476,
5587,
5902,
5701,
5713,
5706,
5657,
6040,
7631,
10449,
11990,
10483,
8207,
7057,
7574,
10163,
15468,
28822,
55125,
73170,
58034,
28566,
12950,
9285,
7822,
6373,
5357,
5110,
5373,
5942,
6229,
6067,
5783,
5419,
5381,
5383,
5180,
5237,
5176,
5333,
5291,
5190,
5430,
5242,
5385,
5120,
5150,
5394,
5817,
7292,
11618,
17580,
21343,
17843,
12764,
10993,
13343,
15042,
12643,
8904,
6447,
5582,
5467,
5942,
6096,
5999,
5398,
5075,
4857,
4816,
4794,
4612,
4983,
5498,
6604,
7126,
6935,
5793,
4959,
4556,
4411,
4349,
4454,
4655,
4871,
4882,
5031,
4900,
4686,
4756,
4665,
4556,
4469,
4622,
4877,
5067,
4779,
4576,
4244,
4090,
4127,
4120,
4337,
5003,
6364,
9508,
13020,
14967,
13496,
10747,
10912,
15350,
23679,
29271,
27532,
19878,
12230,
8563,
8858,
10800,
12084,
11215,
9314,
9285,
11791,
17604,
23412,
25562,
22714,
17195,
12405,
9840,
8165,
7051,
6177,
6043,
6287,
7529,
9681,
11634,
12036,
11732,
10751,
9705,
8250,
6970,
5829,
5020,
4394,
3936,
3844,
4645,
5878,
7333,
8297,
7922,
6679,
5542,
4974,
4649,
4451,
4417,
4366,
4078,
4057,
3817,
3665,
3664,
3580,
3985,
3970,
4020,
4026,
3870,
3765,
3543,
3405,
3116,
2915,
2855,
2820,
2776,
2761,
2714,
2642,
2608,
2496,
2641,
2681,
2751,
2697,
2652,
2656,
2633,
2602,
2359,
2410,
2321,
2317,
2405,
2433,
2356,
2252,
2278,
2225,
2211,
2227,
2192,
2167,
2139,
2188,
2173,
2070,
2128,
1968,
1956,
2010,
1988,
1908,
1958,
1893,
1894,
1962,
1929,
1938,
1910,
1881,
1855,
1834,
1772,
1858,
1829,
1772,
1851,
1844,
1707,
1664,
1756,
1734,
1723,
1716,
1698,
1663,
1670,
1711,
1707,
1635,
1592,
1600,
1629,
1605,
1560,
1581,
1560,
1564,
1607,
1578,
1631,
1526,
1517,
1509,
1499,
1500,
1431,
1537,
1473,
1428,
1446,
1470,
1401,
1488,
1429,
1426,
1419,
1457,
1518,
1408,
1343,
1387,
1329,
1433,
1393,
1334,
1310,
1349,
1408,
1346,
1318,
1274,
1300,
1250,
1258,
1292,
1214,
1258,
1302,
1283,
1215,
1157,
1242,
1159,
1183,
1189,
1221,
1201,
1217,
1181,
1164,
1189,
1135,
1142,
1053,
1142,
1089,
1108,
1088,
1089,
1117,
1119,
1028,
1078,
1098,
1049,
1079,
988,
982,
995,
1004,
1032,
969,
987,
953,
969,
923,
952,
960,
880,
924,
907,
917,
862,
886,
900,
875,
890,
844,
841,
912,
841,
864,
922,
866,
821,
771,
757,
794,
780,
752,
812,
748,
752,
725,
744,
787,
754,
723,
746,
743,
754,
794,
713,
714,
742,
675,
724,
748,
716,
714,
766,
731,
713,
858,
829,
894,
869,
799,
800,
804,
709,
634,
648,
596,
579,
574,
605,
569,
570,
595,
583,
528,
527,
563,
546,
552,
549,
522,
502,
525,
498,
521,
508,
483,
504,
524,
527,
447,
459,
484,
437,
451,
458,
443,
449,
456,
446,
439,
424,
418,
408,
438,
415,
390,
436,
411,
394,
397,
431,
391,
377,
348,
402,
372,
370,
380,
364,
389,
378,
332,
392,
370,
336,
363,
338,
345,
303,
344,
335,
326,
339,
288,
308,
297,
320,
298,
289,
300,
330,
279,
295,
270,
285,
282,
280,
281,
332,
255,
268,
289,
257,
245,
226,
220,
229,
215,
249,
215,
224,
211,
222,
226,
221,
184,
184,
212,
208,
195,
213,
196,
149,
209,
196,
155,
180,
172,
156,
183,
169,
153,
167,
168,
181,
180,
159,
140,
153,
157,
160,
153,
163,
156,
147,
128,
130,
102,
127,
129,
140,
118,
126,
128,
110,
131,
127,
105,
114,
99,
107,
110,
99,
103,
107,
99,
112,
84,
88,
99,
93,
81,
86,
80,
90,
74,
73,
86,
88,
82,
61,
70,
68,
78,
72,
70,
62,
66,
58,
51,
53,
60,
70,
50,
43,
46,
43,
54,
58,
49,
50,
42,
41,
43,
42,
44,
25,
23,
33,
36,
40,
31,
27,
30,
25,
27,
24,
23,
23,
19,
17,
40,
22,
17,
17,
17,
19,
20,
14,
16,
9,
9,
11,
2,
7,
10,
7,
5,
9,
4,
4,
3,
3,
5,
3,
2,
4,
2,
1,
2,
2,
1,
2,
1,
1,
3,
1,
4,
0,
0,
2,
1,
0,
1,
2,
3,
2,
0,
3,
3,
3,
0,
3,
0,
1,
1,
1,
0,
3,
2,
2,
1,
2,
1,
1,
1,
1,
1,
2,
1,
0,
0,
1,
0,
2,
0,
1,
0,
0,
0,
1,
1,
1,
0,
1,
0,
2,
3,
0,
3,
2,
0,
1,
1,
0,
1,
1,
1,
1,
1,
0,
0,
0,
0,
1,
0,
1,
2,
3,
0,
0,
1,
1,
0,
2,
0,
1,
0,
0,
0,
1,
1,
1,
1,
0,
1,
0,
0,
1,
0,
1,
1,
0,
1,
0,
2,
1,
1,
1,
0,
0,
1,
0,
0,
0,
2,
1,
1,
2,
0,
0,
2,
1,
0,
0,
1,
1,
0,
1,
0,
0,
0,
0,
0,
2,
0,
1,
0,
1,
0,
0,
0,
0,
0,
2,
1,
0,
0,
0,
1,
0,
1,
0,
0,
0,
1,
0,
2,
0,
0,
0,
1,
0,
0,
3,
0,
1,
2,
1,
0,
0,
2,
0,
0,
1,
1,
0,
1,
0,
0,
0,
0,
0,
0,
1,
0,
1,
0,
0,
0,
0,
0,
0,
0,
0,
0,
1,
1,
0,
0,
2,
0,
1,
0,
0,
0,
0,
0,
0,
0,
0,
0,
1,
1,
0,
0,
0,
0,
0,
0,
1,
0,
1,
0,
0,
0,
0,
1,
0,
1,
0,
0,
0,
0,
0,
0,
0,
1,
0,
0,
0,
1,
1,
1,
0,
0,
0,
0,
1,
0,
0,
0,
0,
0,
0,
0,
0,
1,
1,
0,
0,
0,
0,
0,
0,
0,
0,
0,
0,
0,
0,
0,
0,
0,
1,
0,
0,
0,
0,
0,
0,
0,
0,
0,
0,
0,
0,
0,
0,
0,
0,
0,
0,
0,
0,
0,
0,
0,
0,
0,
0,
0,
0,
0,
0,
0,
0,
0,
0,
0,
0,
0,
0,
0,
0,
0,
0,
0,
0,
0,
1,
0,
0,
1,
0,
0,
0,
0,
0,
0,
0,
0,
1,
0,
0,
0,
0,
0,
0,
0,
0,
0,
0,
0,
0,
0,
0,
0,
0,
0,
0,
0,
0,
0,
0,
0,
0,
0,
0,
0,
0,
0,
0,
0,
0,
0,
0,
0,
0,
0,
0,
0,
0,
0,
0,
0,
0,
0,
0,
0,
0,
0,
0,
0,
1,
0,
0,
0,
0,
0,
0,
0,
0,
0,
0,
0,
0,
0,
0,
0,
0,
0,
0,
0,
0,
0,
0,
0,
0,
0,
0,
0,
0,
0,
0,
0,
1,
0,
0,
0,
0,
0,
0,
0,
0,
0,
0,
0,
0,
0,
0,
0,
0,
0,
0,
0,
0,
0,
0,
0,
0,
0,
0,
0,
0,
0,
0,
0,
0,
0,
0,
0,
0,
0,
0,
0,
0,
0,
0,
0,
0,
0,
0,
0,
0,
0,
0,
0,
0,
0,
0,
0,
0,
0,
0,
0,
0,
0,
0,
0,
0,
0,
0,
0,
0,
0,
0,
0,
0,
0,
0,
0,
0,
0,
0,
0,
0,
0,
0,
0,
0,
0,
0,
0,
0,
0,
0,
0,
0,
0,
0,
0,
0,
0,
0,
0,
0,
0,
0,
0,
0,
0,
0,
0,
0,
0,
0,
0,
0,
0,
0,
0,
0,
0,
0,
0,
0,
0,
0,
0,
0,
0,
0,
0,
0,
0,
0,
0,
0,
0,
0,
0,
0,
0,
0,
0,
0,
0,
0,
0,
0,
0,
0,
0,
0,
0,
0,
0,
0,
0,
0,
0,
0,
0,
0,
0,
0,
0,
0,
0,
0,
0,
0,
0,
0,
0,
0,
0,
0,
0,
0,
0,
0,
0,
0,
0,
0,
0,
0,
0,
0,
0,
0,
0,
0,
0,
0,
0,
0,
0,
0,
0,
0,
0,
0,
0,
0,
0,
0,
0,
0,
0,
0,
0,
0,
0,
0,
0,
0,
0,
0,
0,
0,
0,
0,
0,
0,
0,
0,
0,
0,
0,
0,
0,
0,
0,
0,
0,
0,
0,
0,
0,
0,
0,
0,
0,
0,
0,
0,
0,
0,
0,
0,
0,
0,
0,
0,
0,
0,
0,
0,
0,
0,
0,
0,
0,
0,
0,
0,
0,
0,
0,
0,
0,
0,
0,
0,
0,
0,
0,
0,
0,
#ENDOFDATA   :