File: N132962/Quantification/20 keV/MMM2/SPI MM2 SPI Orthoclaise[6][4].msa
#FORMAT      : EMSA/MAS Spectral Data File
#VERSION     : 1.0
#TITLE       : SPI MM2 SPI Orthoclaise[6][all]
#DATE        : 13-MAR-2025
#TIME        : 10:29
#OWNER       : Unknown
#NPOINTS     : 4096
#NCOLUMNS    : 1
#XUNITS      : eV
#YUNITS      : counts
#DATATYPE    : Y
#XPERCHAN    : 9.99778
#OFFSET      : 1.69135
#BEAMKV      : 20
#SIGNALTYPE  : EDS
#ELEVANGLE   : 35
#AZIMANGLE   : 0
#LIVETIME    : 239.869
#REALTIME    : 255.98
#PROBECUR    : 1.02606
#TAUWIND     : 0
#TDEADLYR    : 0
#TACTLYR     : 0.045
#TALWIND     : 0.025
#CHOFFSET    : 0.0
#XLABEL      : Energy (eV)
#YLABEL      : Counts
#XPOSITION   : 6.12003
#YPOSITION   : 0.12852
#ZPOSITION   : 31.0351
#EDSDET      : SD
##SPECIMEN   : SPI MM2 SPI Orthoclaise[6][all]
##D2STDCMP   : SPI Orthoclaise,(O:45.86),(Na:0.67),(Al:8.85),(Si:30.29),(K:12.85),(Fe:1.4),(Ba:0.04),5.0
##DET_HASH   : 12273538-fd48-a23f-0a19-f1e6fa85caef
##CALIB_HASH : 6abaa72c-aa41-8738-0be9-f592914732f3
##WORKING    : 15.0 mm
##DET_NAME   : EDAX All
##DET_MODE   : MediumLE
#SPECTRUM    :
28,
31,
12,
15,
63,
290,
898,
3159,
8757,
11012,
5275,
2289,
2101,
2507,
4471,
16165,
64203,
126269,
92546,
24625,
3822,
2162,
2564,
3503,
3489,
2686,
2316,
2424,
2603,
2700,
2858,
2832,
3088,
3606,
4369,
4541,
4307,
3719,
3728,
3888,
3933,
4291,
4442,
4579,
4863,
5069,
6015,
12808,
37771,
74806,
76218,
41878,
15941,
7907,
7367,
18553,
73886,
191325,
261067,
184424,
73863,
24630,
11057,
5253,
2950,
2589,
2536,
2597,
2557,
2422,
2459,
2478,
2431,
2549,
2787,
2911,
2949,
2641,
2519,
2437,
2448,
2512,
2551,
2428,
2349,
2457,
2491,
2454,
2492,
2442,
2520,
2369,
2448,
2409,
2401,
2449,
2321,
2485,
2436,
2440,
2411,
2347,
2383,
2340,
2537,
2954,
3965,
7370,
18469,
40441,
62523,
62930,
41037,
18194,
6731,
3532,
3349,
4305,
6416,
8614,
9289,
7198,
4444,
2768,
2101,
1799,
1723,
1804,
1850,
1817,
1815,
1729,
1711,
1681,
1656,
1633,
1679,
1675,
1690,
1587,
1628,
1567,
1541,
1476,
1603,
1599,
1490,
1572,
1624,
1608,
1578,
1575,
1597,
1502,
1504,
1506,
1516,
1448,
1503,
1473,
1453,
1468,
1505,
1412,
1387,
1398,
1383,
1460,
1524,
1534,
1424,
1426,
1426,
1362,
1312,
1286,
1363,
1312,
1294,
1292,
1253,
1244,
1242,
1207,
1195,
1192,
1270,
1215,
1169,
1154,
1203,
1186,
1100,
1115,
1135,
1139,
1124,
1093,
1095,
1108,
1063,
1101,
1037,
1017,
1047,
1082,
1055,
1049,
1170,
1277,
1752,
2697,
3794,
4526,
4334,
3340,
2176,
1474,
1132,
955,
977,
942,
929,
901,
945,
933,
923,
867,
865,
854,
930,
930,
1050,
1082,
1228,
1248,
1189,
1126,
1017,
854,
767,
818,
801,
817,
765,
808,
769,
739,
819,
820,
717,
743,
741,
681,
680,
685,
663,
679,
679,
720,
663,
705,
740,
636,
703,
655,
659,
726,
669,
683,
661,
648,
629,
703,
639,
597,
611,
597,
590,
620,
623,
582,
570,
554,
624,
574,
628,
588,
572,
552,
534,
565,
573,
549,
547,
569,
524,
551,
546,
521,
515,
551,
507,
496,
506,
474,
516,
494,
516,
459,
485,
508,
483,
447,
485,
474,
464,
466,
462,
456,
492,
432,
480,
432,
468,
469,
440,
455,
419,
413,
417,
394,
397,
385,
427,
383,
411,
410,
418,
415,
389,
390,
368,
366,
333,
408,
319,
348,
362,
365,
388,
374,
356,
346,
390,
366,
318,
339,
333,
319,
329,
311,
311,
292,
309,
278,
310,
336,
287,
324,
320,
296,
330,
295,
290,
318,
296,
300,
258,
293,
290,
269,
279,
267,
267,
233,
276,
251,
310,
244,
251,
277,
236,
268,
248,
222,
217,
216,
229,
272,
229,
252,
252,
204,
200,
231,
227,
228,
211,
218,
212,
199,
222,
207,
209,
195,
198,
214,
206,
187,
201,
201,
181,
205,
198,
182,
187,
197,
182,
194,
199,
166,
176,
159,
154,
150,
178,
191,
134,
134,
145,
166,
138,
171,
139,
176,
150,
125,
147,
149,
161,
112,
130,
122,
126,
137,
125,
132,
114,
110,
130,
129,
127,
113,
130,
118,
108,
122,
117,
119,
116,
114,
110,
114,
121,
116,
121,
85,
103,
99,
105,
119,
103,
97,
104,
96,
92,
95,
91,
86,
84,
96,
83,
89,
90,
84,
100,
82,
78,
85,
83,
96,
79,
74,
70,
79,
55,
58,
67,
68,
53,
80,
79,
74,
72,
62,
82,
70,
62,
62,
55,
64,
58,
44,
76,
64,
53,
63,
77,
63,
47,
59,
56,
64,
50,
51,
42,
40,
59,
36,
47,
33,
55,
46,
55,
47,
36,
35,
42,
53,
41,
32,
49,
33,
34,
38,
36,
33,
36,
40,
46,
43,
36,
39,
25,
33,
29,
43,
25,
30,
37,
33,
27,
25,
23,
22,
24,
27,
39,
27,
19,
23,
16,
24,
21,
26,
26,
21,
21,
19,
17,
20,
17,
14,
19,
13,
16,
13,
21,
15,
16,
19,
20,
15,
10,
16,
11,
13,
12,
15,
11,
18,
10,
15,
9,
13,
10,
10,
11,
17,
15,
9,
4,
8,
9,
7,
7,
8,
6,
8,
7,
6,
7,
2,
13,
10,
7,
4,
8,
5,
7,
1,
4,
5,
9,
3,
4,
1,
1,
3,
5,
4,
5,
2,
6,
1,
3,
1,
0,
2,
0,
0,
2,
1,
2,
0,
1,
1,
0,
0,
1,
0,
0,
0,
0,
1,
0,
0,
0,
1,
0,
0,
0,
0,
0,
0,
1,
1,
0,
0,
0,
0,
0,
0,
1,
0,
0,
0,
0,
0,
0,
0,
0,
0,
1,
0,
0,
0,
0,
0,
0,
0,
0,
0,
0,
0,
0,
0,
0,
0,
0,
0,
0,
0,
0,
0,
0,
0,
0,
1,
0,
0,
0,
0,
1,
0,
0,
0,
0,
0,
0,
0,
0,
0,
0,
0,
0,
0,
0,
0,
0,
0,
0,
0,
0,
0,
1,
0,
0,
0,
1,
0,
0,
0,
0,
0,
0,
0,
0,
0,
0,
0,
0,
0,
0,
0,
0,
0,
0,
0,
0,
0,
0,
0,
0,
0,
0,
0,
0,
0,
0,
0,
0,
0,
0,
0,
0,
0,
0,
0,
0,
0,
0,
0,
0,
0,
0,
0,
0,
0,
0,
0,
0,
0,
0,
0,
0,
0,
0,
0,
0,
0,
0,
0,
0,
0,
0,
2,
0,
0,
0,
1,
0,
0,
0,
0,
0,
0,
0,
0,
0,
0,
0,
0,
0,
0,
0,
0,
0,
0,
0,
0,
0,
0,
0,
0,
0,
0,
0,
0,
0,
0,
1,
0,
0,
0,
0,
0,
0,
0,
0,
0,
0,
0,
0,
0,
0,
0,
0,
0,
0,
0,
0,
0,
0,
0,
0,
0,
0,
0,
0,
0,
0,
0,
0,
0,
0,
0,
0,
0,
0,
0,
0,
0,
0,
0,
0,
0,
0,
0,
0,
0,
0,
0,
0,
0,
0,
0,
0,
0,
0,
0,
0,
0,
0,
0,
0,
0,
0,
0,
0,
0,
0,
0,
0,
0,
0,
0,
0,
0,
0,
0,
0,
0,
0,
0,
0,
0,
0,
0,
0,
0,
0,
0,
0,
0,
0,
0,
0,
0,
0,
0,
0,
0,
0,
0,
0,
0,
0,
0,
0,
0,
0,
0,
0,
0,
0,
0,
0,
0,
0,
0,
0,
0,
0,
0,
0,
0,
0,
0,
0,
0,
0,
0,
0,
0,
0,
0,
0,
0,
0,
0,
0,
0,
0,
0,
0,
0,
0,
0,
0,
0,
0,
0,
0,
0,
0,
0,
0,
0,
0,
0,
0,
0,
0,
0,
0,
0,
0,
0,
0,
0,
0,
0,
0,
0,
0,
0,
0,
0,
0,
0,
0,
0,
0,
0,
0,
0,
0,
0,
0,
0,
0,
0,
0,
0,
0,
0,
0,
0,
0,
0,
0,
0,
0,
0,
0,
0,
0,
0,
0,
0,
0,
0,
0,
0,
0,
0,
0,
0,
0,
0,
0,
0,
0,
0,
0,
0,
0,
0,
0,
0,
0,
0,
0,
0,
0,
0,
0,
0,
0,
0,
0,
0,
0,
0,
0,
0,
0,
0,
0,
0,
0,
0,
0,
0,
0,
0,
0,
0,
0,
0,
0,
0,
0,
0,
0,
0,
0,
0,
0,
0,
0,
0,
0,
0,
0,
0,
0,
0,
0,
0,
0,
0,
0,
0,
0,
0,
0,
0,
0,
0,
0,
0,
0,
0,
0,
0,
0,
0,
0,
0,
0,
0,
0,
0,
0,
0,
0,
0,
0,
0,
0,
0,
0,
0,
0,
0,
0,
0,
0,
0,
0,
0,
0,
0,
0,
0,
0,
0,
0,
0,
0,
0,
0,
0,
0,
0,
0,
0,
0,
0,
0,
0,
0,
0,
0,
0,
0,
0,
0,
0,
0,
0,
0,
0,
0,
0,
0,
0,
0,
0,
0,
0,
0,
0,
0,
0,
0,
0,
0,
0,
0,
0,
0,
0,
0,
0,
0,
0,
0,
0,
0,
0,
0,
0,
0,
0,
0,
0,
0,
0,
0,
0,
0,
0,
0,
0,
0,
0,
0,
0,
0,
0,
0,
0,
0,
0,
0,
0,
0,
0,
0,
0,
0,
0,
0,
0,
0,
0,
0,
0,
0,
0,
0,
0,
0,
0,
0,
0,
0,
0,
0,
0,
0,
0,
0,
0,
0,
0,
0,
0,
0,
0,
0,
0,
0,
0,
0,
0,
0,
0,
0,
0,
0,
0,
0,
0,
0,
0,
0,
0,
0,
0,
0,
0,
0,
0,
0,
0,
0,
0,
0,
0,
0,
0,
0,
0,
0,
0,
0,
0,
0,
0,
0,
0,
0,
0,
0,
0,
0,
0,
0,
0,
0,
0,
0,
0,
0,
0,
0,
0,
0,
0,
0,
0,
#ENDOFDATA   :