File: N132962/Quantification/20 keV/MMM2/SPI MM2 Wollastonite[2][4].msa
#FORMAT      : EMSA/MAS Spectral Data File
#VERSION     : 1.0
#TITLE       : SPI MM2 Wollastonite[2][all]
#DATE        : 13-MAR-2025
#TIME        : 13:56
#OWNER       : Unknown
#NPOINTS     : 4096
#NCOLUMNS    : 1
#XUNITS      : eV
#YUNITS      : counts
#DATATYPE    : Y
#XPERCHAN    : 9.99778
#OFFSET      : 1.69135
#BEAMKV      : 20
#SIGNALTYPE  : EDS
#ELEVANGLE   : 35
#AZIMANGLE   : 0
#LIVETIME    : 239.806
#REALTIME    : 256.108
#PROBECUR    : 1.0264
#TAUWIND     : 0
#TDEADLYR    : 0
#TACTLYR     : 0.045
#TALWIND     : 0.025
#CHOFFSET    : 0.0
#XLABEL      : Energy (eV)
#YLABEL      : Counts
#XPOSITION   : -0.05192
#YPOSITION   : 6.24196
#ZPOSITION   : 31.03511
#EDSDET      : SD
##SPECIMEN   : SPI MM2 Wollastonite[2][all]
##DET_HASH   : 12273538-fd48-a23f-0a19-f1e6fa85caef
##CALIB_HASH : 6abaa72c-aa41-8738-0be9-f592914732f3
##WORKING    : 15.0 mm
##DET_NAME   : EDAX All
##DET_MODE   : MediumLE
#SPECTRUM    :
31,
21,
16,
14,
69,
284,
863,
3002,
9299,
14498,
10498,
5444,
3002,
2347,
3012,
9228,
35508,
69587,
52047,
14003,
2632,
1699,
1801,
2054,
2109,
2200,
2206,
2482,
2678,
2710,
2839,
2903,
3078,
3145,
3266,
3469,
3596,
3737,
3880,
3973,
4035,
4303,
4331,
4478,
4451,
4635,
4756,
4861,
5076,
5391,
5560,
5604,
5780,
5953,
7154,
17462,
66364,
168664,
229409,
161424,
65605,
22799,
10738,
6278,
4965,
4958,
4323,
3511,
3223,
3215,
3257,
3170,
3184,
3179,
3369,
3534,
3530,
3315,
3253,
3043,
3142,
3098,
3095,
3099,
3003,
3121,
3003,
2988,
3002,
2849,
3014,
2855,
2990,
2951,
2904,
2936,
2882,
2850,
2831,
2731,
2767,
2815,
2856,
2691,
2733,
2797,
2863,
2799,
2731,
2736,
2656,
2732,
2520,
2705,
2824,
2855,
3259,
3778,
4922,
9616,
26182,
67684,
127793,
161319,
135841,
75794,
29233,
9154,
3790,
3274,
4160,
7172,
12717,
19246,
21421,
16842,
9869,
4671,
2552,
1985,
1856,
1728,
1806,
1727,
1574,
1565,
1687,
1577,
1613,
1577,
1644,
1539,
1546,
1631,
1610,
1544,
1566,
1562,
1587,
1579,
1410,
1559,
1472,
1511,
1456,
1486,
1433,
1372,
1389,
1375,
1434,
1389,
1368,
1417,
1410,
1408,
1438,
1438,
1430,
1544,
1655,
1720,
1735,
1612,
1487,
1354,
1361,
1292,
1277,
1281,
1290,
1306,
1342,
1389,
1342,
1287,
1405,
1336,
1269,
1292,
1234,
1208,
1166,
1192,
1201,
1181,
1108,
1143,
1170,
1132,
1157,
1174,
1210,
1229,
1218,
1174,
1184,
1121,
1096,
1041,
1030,
1091,
1028,
1001,
1063,
973,
1064,
989,
1015,
996,
966,
976,
951,
970,
924,
946,
918,
954,
872,
929,
859,
966,
899,
973,
974,
960,
1007,
1061,
990,
992,
949,
914,
882,
797,
828,
772,
828,
837,
870,
794,
815,
811,
767,
771,
739,
784,
808,
797,
773,
718,
779,
753,
740,
727,
702,
726,
692,
674,
747,
675,
702,
705,
705,
693,
654,
686,
681,
632,
636,
646,
622,
614,
623,
640,
667,
678,
618,
595,
621,
619,
615,
577,
586,
611,
572,
583,
613,
540,
545,
592,
607,
592,
565,
534,
527,
526,
520,
509,
548,
541,
545,
553,
510,
499,
519,
456,
499,
489,
474,
519,
463,
467,
500,
480,
474,
462,
495,
485,
418,
457,
433,
440,
438,
427,
398,
471,
455,
433,
420,
422,
463,
412,
387,
404,
387,
386,
427,
387,
401,
432,
405,
378,
399,
361,
368,
366,
366,
402,
369,
411,
394,
371,
331,
343,
339,
319,
360,
335,
320,
353,
345,
297,
334,
329,
303,
306,
320,
312,
329,
285,
296,
299,
296,
282,
286,
276,
290,
305,
265,
247,
282,
261,
281,
271,
248,
275,
249,
257,
252,
255,
248,
252,
254,
269,
243,
240,
237,
222,
225,
234,
238,
235,
216,
246,
233,
240,
204,
218,
194,
207,
192,
198,
210,
167,
196,
196,
199,
168,
194,
177,
170,
191,
181,
176,
198,
167,
179,
165,
173,
155,
170,
167,
166,
149,
154,
149,
164,
167,
150,
169,
134,
137,
142,
143,
128,
126,
125,
157,
133,
134,
130,
139,
131,
124,
150,
120,
127,
116,
132,
114,
122,
111,
119,
130,
117,
97,
103,
120,
111,
109,
127,
115,
102,
100,
117,
109,
102,
110,
93,
94,
95,
95,
82,
87,
83,
83,
82,
97,
80,
73,
81,
90,
80,
82,
79,
72,
84,
70,
71,
67,
66,
74,
75,
90,
69,
58,
79,
69,
69,
48,
52,
65,
56,
65,
53,
51,
52,
49,
62,
72,
63,
51,
49,
56,
54,
49,
57,
53,
51,
47,
53,
43,
49,
43,
52,
38,
49,
42,
41,
43,
39,
60,
43,
40,
33,
41,
38,
52,
31,
35,
29,
36,
25,
35,
35,
33,
30,
29,
29,
34,
41,
34,
27,
21,
28,
28,
33,
28,
20,
19,
29,
27,
25,
26,
24,
27,
19,
24,
27,
20,
29,
15,
19,
15,
19,
17,
25,
19,
19,
16,
12,
16,
13,
9,
20,
11,
11,
11,
6,
15,
14,
18,
12,
14,
9,
17,
8,
12,
14,
10,
11,
10,
5,
14,
7,
9,
2,
5,
5,
9,
9,
3,
6,
7,
5,
6,
4,
4,
2,
2,
1,
4,
1,
3,
5,
1,
5,
2,
4,
1,
2,
1,
0,
2,
2,
0,
0,
1,
0,
0,
0,
0,
0,
0,
2,
0,
0,
0,
1,
0,
0,
0,
0,
1,
1,
1,
1,
1,
0,
0,
1,
0,
1,
0,
0,
0,
0,
1,
0,
0,
0,
0,
0,
0,
0,
0,
0,
0,
0,
0,
0,
0,
0,
0,
0,
0,
0,
0,
0,
0,
0,
0,
1,
0,
0,
0,
0,
0,
0,
0,
0,
0,
0,
0,
1,
0,
1,
1,
0,
1,
0,
0,
0,
0,
1,
0,
0,
0,
0,
0,
0,
0,
0,
1,
0,
0,
0,
0,
0,
0,
0,
0,
0,
1,
0,
0,
1,
0,
0,
0,
0,
0,
0,
0,
0,
0,
0,
0,
0,
0,
0,
0,
0,
0,
0,
0,
1,
0,
0,
0,
0,
1,
0,
0,
0,
0,
0,
0,
0,
0,
0,
0,
0,
0,
0,
1,
1,
0,
0,
0,
0,
0,
0,
0,
0,
0,
0,
0,
0,
0,
0,
0,
0,
0,
0,
0,
0,
0,
0,
0,
0,
0,
0,
0,
0,
1,
0,
0,
0,
0,
0,
0,
0,
0,
0,
0,
0,
0,
0,
0,
0,
0,
1,
0,
0,
0,
0,
0,
0,
0,
0,
0,
0,
0,
0,
0,
0,
0,
0,
0,
0,
0,
0,
0,
0,
0,
0,
0,
0,
0,
0,
0,
0,
0,
0,
0,
0,
0,
0,
0,
0,
0,
0,
0,
0,
0,
0,
0,
0,
0,
0,
1,
0,
0,
0,
0,
0,
0,
0,
0,
0,
0,
0,
0,
0,
0,
0,
0,
0,
0,
0,
0,
0,
0,
0,
0,
0,
0,
0,
0,
0,
0,
0,
0,
0,
0,
0,
0,
0,
0,
0,
0,
0,
0,
0,
0,
0,
0,
0,
0,
0,
0,
0,
0,
0,
0,
0,
0,
0,
0,
0,
0,
0,
0,
0,
0,
0,
0,
0,
0,
0,
0,
0,
0,
0,
0,
0,
0,
0,
0,
0,
0,
0,
0,
0,
0,
0,
0,
0,
0,
0,
0,
0,
0,
0,
0,
0,
0,
0,
0,
0,
0,
0,
0,
0,
0,
0,
0,
0,
0,
0,
0,
0,
0,
0,
0,
0,
0,
0,
0,
0,
0,
0,
0,
0,
0,
0,
0,
0,
0,
0,
0,
0,
0,
0,
0,
0,
0,
0,
0,
0,
0,
0,
0,
0,
0,
0,
0,
0,
0,
0,
0,
0,
0,
0,
0,
0,
0,
0,
0,
0,
0,
0,
0,
0,
0,
0,
0,
0,
0,
0,
0,
0,
0,
0,
0,
0,
0,
0,
0,
0,
0,
0,
0,
0,
0,
0,
0,
0,
0,
0,
0,
0,
0,
0,
0,
0,
0,
0,
0,
0,
0,
0,
0,
0,
0,
0,
0,
0,
0,
0,
0,
0,
0,
0,
0,
0,
0,
0,
0,
0,
0,
0,
0,
0,
0,
0,
0,
0,
0,
0,
0,
0,
0,
0,
0,
0,
0,
0,
0,
0,
0,
0,
0,
0,
0,
0,
0,
0,
0,
0,
0,
0,
0,
0,
0,
0,
0,
0,
0,
0,
0,
0,
0,
0,
0,
0,
0,
0,
0,
0,
0,
0,
0,
0,
0,
0,
0,
0,
0,
0,
0,
0,
0,
0,
0,
0,
0,
0,
0,
0,
0,
0,
0,
0,
0,
0,
0,
0,
0,
0,
0,
0,
0,
0,
0,
0,
0,
0,
0,
0,
0,
0,
0,
0,
0,
0,
0,
0,
0,
0,
0,
0,
0,
0,
0,
0,
0,
0,
0,
0,
0,
0,
0,
0,
0,
0,
0,
0,
0,
0,
0,
0,
0,
0,
0,
0,
0,
0,
0,
0,
0,
0,
0,
0,
0,
0,
0,
0,
0,
0,
0,
0,
0,
0,
0,
0,
0,
0,
0,
0,
0,
0,
0,
0,
0,
0,
0,
0,
0,
0,
0,
0,
0,
0,
0,
0,
0,
0,
0,
0,
0,
0,
0,
0,
0,
0,
0,
0,
0,
0,
0,
0,
0,
0,
0,
0,
0,
0,
0,
0,
0,
0,
0,
0,
0,
0,
0,
0,
0,
0,
0,
0,
0,
0,
0,
0,
0,
0,
0,
0,
0,
0,
0,
0,
0,
0,
0,
0,
0,
0,
0,
0,
0,
0,
0,
0,
0,
0,
0,
0,
0,
0,
0,
0,
0,
0,
0,
0,
0,
0,
0,
0,
0,
0,
0,
#ENDOFDATA   :