File: N132962/Quantification/20 keV/MMM2/SPI MM2 Rhodonite[7][4].msa
#FORMAT      : EMSA/MAS Spectral Data File
#VERSION     : 1.0
#TITLE       : SPI MM2 Rhodonite[7][all]
#DATE        : 13-MAR-2025
#TIME        : 12:29
#OWNER       : Unknown
#NPOINTS     : 4096
#NCOLUMNS    : 1
#XUNITS      : eV
#YUNITS      : counts
#DATATYPE    : Y
#XPERCHAN    : 9.99778
#OFFSET      : 1.69135
#BEAMKV      : 20
#SIGNALTYPE  : EDS
#ELEVANGLE   : 35
#AZIMANGLE   : 0
#LIVETIME    : 239.931
#REALTIME    : 255.982
#PROBECUR    : 1.02616
#TAUWIND     : 0
#TDEADLYR    : 0
#TACTLYR     : 0.045
#TALWIND     : 0.025
#CHOFFSET    : 0.0
#XLABEL      : Energy (eV)
#YLABEL      : Counts
#XPOSITION   : 0.12776
#YPOSITION   : 1.23483
#ZPOSITION   : 31.03511
#EDSDET      : SD
##SPECIMEN   : SPI MM2 Rhodonite[7][all]
##DET_HASH   : 12273538-fd48-a23f-0a19-f1e6fa85caef
##CALIB_HASH : 6abaa72c-aa41-8738-0be9-f592914732f3
##WORKING    : 15.0 mm
##DET_NAME   : EDAX All
##DET_MODE   : MediumLE
#SPECTRUM    :
15,
24,
7,
14,
104,
376,
1120,
4001,
12225,
16574,
8579,
3728,
3520,
4041,
6731,
22185,
86469,
170125,
126429,
37013,
13110,
15868,
12497,
6934,
4566,
2827,
2090,
2228,
2308,
2360,
2509,
2573,
2653,
2864,
3000,
3153,
3150,
3155,
3320,
3800,
5394,
8799,
9964,
7164,
4778,
4092,
4167,
4200,
4454,
4610,
4799,
4876,
5035,
5234,
6079,
14050,
51573,
131194,
177986,
125640,
51579,
18339,
8982,
5017,
3706,
3218,
3179,
3207,
3109,
3203,
3141,
3187,
3182,
3261,
3459,
3599,
3537,
3351,
3378,
3259,
3188,
3248,
3163,
3313,
3161,
3157,
3246,
3227,
3187,
3274,
3086,
3093,
3066,
3123,
3078,
3083,
3057,
2955,
3029,
2936,
2988,
3004,
2887,
2820,
2874,
2914,
2843,
2777,
2752,
2730,
2791,
2710,
2686,
2733,
2690,
2759,
2943,
2933,
2929,
3319,
4863,
8897,
14526,
17507,
14961,
9451,
5093,
3078,
2559,
2515,
2504,
2793,
3480,
4028,
4134,
3803,
3167,
2775,
2704,
2492,
2448,
2304,
2294,
2101,
2136,
2113,
2050,
2074,
2150,
2069,
2113,
2011,
2074,
2069,
2044,
2001,
2063,
1984,
2023,
1969,
1891,
1867,
1875,
1904,
1918,
1848,
1863,
1826,
1870,
1801,
1792,
1824,
1800,
1781,
1720,
1675,
1738,
1710,
1686,
1695,
1720,
1695,
1633,
1664,
1648,
1667,
1689,
1685,
1801,
1736,
1977,
2907,
5741,
13772,
30266,
51813,
68565,
67884,
50912,
28659,
13057,
5150,
2406,
1677,
1520,
1498,
1462,
1517,
1625,
2067,
3239,
4971,
7569,
10187,
11954,
12721,
12355,
10414,
7300,
4446,
2514,
1607,
1212,
1171,
1126,
1155,
1186,
1039,
1076,
1127,
1140,
1190,
1354,
1450,
1732,
1802,
1720,
1494,
1216,
1134,
1034,
984,
1021,
966,
915,
991,
974,
1038,
1025,
992,
994,
1038,
974,
1015,
1024,
1069,
963,
957,
965,
923,
905,
893,
840,
866,
838,
835,
865,
887,
865,
827,
782,
791,
843,
795,
787,
842,
748,
812,
770,
785,
748,
752,
801,
724,
787,
745,
766,
778,
741,
731,
738,
710,
719,
700,
686,
711,
727,
683,
703,
698,
667,
652,
657,
659,
640,
646,
665,
644,
662,
622,
636,
616,
637,
612,
650,
624,
619,
603,
657,
641,
622,
589,
595,
592,
574,
571,
599,
578,
556,
580,
552,
572,
572,
544,
533,
534,
527,
550,
479,
551,
568,
501,
508,
508,
473,
491,
496,
454,
466,
459,
458,
443,
492,
437,
471,
449,
428,
467,
483,
464,
456,
451,
424,
463,
422,
452,
408,
425,
422,
464,
424,
442,
378,
396,
417,
400,
386,
392,
383,
386,
365,
371,
358,
378,
358,
347,
339,
362,
352,
377,
360,
346,
381,
378,
373,
343,
373,
364,
321,
323,
334,
299,
302,
307,
300,
306,
307,
289,
288,
327,
297,
321,
257,
291,
289,
295,
289,
265,
280,
272,
275,
252,
281,
248,
272,
257,
238,
246,
234,
244,
230,
241,
254,
228,
231,
232,
217,
231,
216,
219,
221,
217,
219,
214,
244,
231,
198,
233,
197,
194,
201,
189,
187,
170,
190,
189,
166,
198,
201,
179,
170,
192,
152,
181,
151,
172,
159,
170,
177,
156,
185,
173,
166,
150,
168,
143,
162,
154,
150,
113,
138,
126,
145,
124,
128,
146,
132,
121,
148,
111,
131,
127,
127,
125,
146,
126,
93,
138,
141,
103,
107,
99,
102,
110,
119,
110,
100,
109,
96,
108,
85,
96,
94,
95,
101,
80,
86,
78,
93,
85,
68,
78,
78,
84,
88,
99,
74,
70,
78,
86,
78,
77,
68,
77,
70,
72,
64,
66,
73,
69,
71,
77,
67,
66,
56,
68,
74,
63,
65,
47,
39,
70,
54,
45,
53,
53,
58,
47,
51,
53,
43,
52,
52,
47,
50,
48,
48,
38,
49,
33,
32,
51,
51,
50,
43,
43,
37,
39,
33,
30,
39,
39,
30,
34,
38,
36,
34,
37,
33,
33,
26,
27,
23,
29,
20,
30,
29,
35,
27,
31,
29,
18,
23,
28,
22,
26,
24,
21,
24,
20,
9,
19,
24,
17,
18,
15,
17,
11,
15,
10,
21,
15,
12,
8,
11,
17,
18,
12,
9,
14,
13,
13,
13,
10,
10,
3,
9,
8,
12,
9,
10,
8,
12,
3,
8,
6,
6,
11,
4,
5,
4,
2,
7,
7,
2,
1,
4,
4,
5,
2,
2,
5,
2,
1,
0,
0,
2,
0,
1,
1,
1,
1,
0,
1,
1,
0,
1,
0,
0,
2,
2,
1,
0,
1,
1,
0,
0,
1,
1,
0,
0,
1,
0,
0,
0,
0,
0,
1,
0,
1,
0,
0,
0,
0,
0,
0,
0,
0,
0,
1,
0,
1,
0,
0,
0,
0,
0,
0,
0,
0,
0,
1,
0,
1,
0,
2,
0,
0,
1,
0,
0,
1,
1,
0,
0,
0,
0,
0,
2,
0,
0,
0,
1,
0,
0,
1,
1,
0,
0,
0,
0,
0,
0,
0,
1,
1,
0,
0,
0,
0,
0,
0,
0,
1,
0,
0,
1,
0,
0,
1,
1,
0,
0,
0,
0,
0,
0,
0,
0,
0,
1,
0,
0,
0,
0,
0,
0,
0,
0,
0,
0,
0,
0,
0,
0,
0,
0,
0,
0,
0,
0,
0,
0,
0,
0,
0,
0,
0,
0,
0,
0,
0,
0,
0,
0,
0,
0,
0,
0,
0,
0,
0,
0,
0,
0,
0,
0,
0,
0,
0,
0,
0,
0,
0,
0,
0,
0,
0,
0,
0,
0,
0,
0,
0,
0,
0,
0,
0,
0,
0,
0,
0,
0,
0,
0,
0,
0,
0,
0,
0,
0,
0,
0,
0,
0,
0,
0,
0,
0,
0,
0,
0,
0,
0,
0,
0,
0,
0,
0,
0,
0,
0,
0,
0,
0,
0,
0,
0,
0,
0,
0,
0,
0,
1,
0,
0,
0,
0,
0,
0,
0,
0,
0,
0,
0,
0,
0,
0,
0,
0,
0,
0,
0,
0,
0,
0,
0,
0,
0,
0,
0,
0,
0,
0,
0,
0,
0,
0,
0,
0,
0,
0,
0,
0,
0,
0,
0,
0,
0,
0,
0,
0,
0,
0,
0,
0,
0,
0,
0,
0,
0,
0,
0,
0,
0,
0,
0,
0,
0,
0,
0,
0,
0,
0,
0,
0,
0,
0,
0,
0,
0,
0,
0,
0,
0,
0,
0,
0,
0,
0,
0,
0,
0,
0,
0,
0,
0,
0,
0,
0,
0,
0,
0,
0,
0,
0,
0,
0,
0,
0,
0,
0,
0,
0,
0,
0,
0,
0,
0,
0,
0,
0,
0,
0,
0,
0,
0,
0,
0,
0,
0,
0,
0,
0,
0,
0,
0,
0,
0,
0,
0,
0,
0,
0,
0,
0,
0,
0,
0,
0,
0,
0,
0,
0,
0,
0,
0,
0,
0,
0,
0,
0,
0,
0,
0,
0,
0,
0,
0,
0,
0,
0,
0,
0,
0,
0,
0,
0,
0,
0,
0,
0,
0,
0,
0,
0,
0,
0,
0,
0,
0,
0,
0,
0,
0,
0,
0,
0,
0,
0,
0,
0,
0,
0,
0,
0,
0,
0,
0,
0,
0,
0,
0,
0,
0,
0,
0,
0,
0,
0,
0,
0,
0,
0,
0,
0,
0,
0,
0,
0,
0,
0,
0,
0,
0,
0,
0,
0,
0,
0,
1,
0,
0,
0,
0,
0,
0,
0,
0,
0,
0,
0,
0,
0,
0,
0,
0,
0,
0,
0,
0,
0,
0,
0,
0,
0,
0,
0,
0,
0,
0,
0,
0,
0,
0,
0,
0,
0,
0,
0,
0,
0,
0,
0,
0,
0,
0,
0,
0,
0,
0,
0,
0,
0,
0,
0,
0,
0,
0,
0,
0,
0,
0,
0,
0,
0,
0,
0,
0,
0,
0,
0,
0,
0,
0,
0,
0,
0,
0,
0,
0,
0,
0,
0,
0,
0,
0,
0,
0,
0,
0,
0,
0,
0,
0,
0,
0,
0,
0,
0,
0,
0,
0,
0,
0,
0,
0,
0,
0,
0,
0,
0,
0,
0,
0,
0,
0,
0,
0,
0,
0,
0,
0,
0,
0,
0,
0,
0,
0,
0,
0,
0,
0,
0,
0,
0,
0,
0,
0,
0,
0,
0,
0,
0,
0,
0,
0,
0,
0,
0,
0,
0,
0,
0,
0,
0,
0,
0,
0,
0,
0,
0,
0,
0,
0,
0,
0,
0,
0,
0,
0,
0,
0,
0,
0,
0,
0,
0,
0,
0,
0,
0,
0,
0,
0,
0,
0,
0,
0,
0,
0,
0,
0,
0,
0,
0,
0,
0,
0,
0,
0,
0,
0,
0,
0,
0,
0,
0,
0,
0,
0,
0,
0,
0,
0,
0,
0,
0,
0,
0,
0,
0,
0,
0,
0,
0,
0,
0,
0,
0,
0,
0,
0,
0,
0,
0,
#ENDOFDATA   :