File: N132962/Quantification/20 keV/MMM2/SPI MM2 Willemite[5][4].msa
#FORMAT      : EMSA/MAS Spectral Data File
#VERSION     : 1.0
#TITLE       : SPI MM2 Willemite[5][all]
#DATE        : 13-MAR-2025
#TIME        : 14:08
#OWNER       : Unknown
#NPOINTS     : 4096
#NCOLUMNS    : 1
#XUNITS      : eV
#YUNITS      : counts
#DATATYPE    : Y
#XPERCHAN    : 9.99778
#OFFSET      : 1.69135
#BEAMKV      : 20
#SIGNALTYPE  : EDS
#ELEVANGLE   : 35
#AZIMANGLE   : 0
#LIVETIME    : 239.799
#REALTIME    : 257.449
#PROBECUR    : 1.02609
#TAUWIND     : 0
#TDEADLYR    : 0
#TACTLYR     : 0.045
#TALWIND     : 0.025
#CHOFFSET    : 0.0
#XLABEL      : Energy (eV)
#YLABEL      : Counts
#XPOSITION   : 2.77165
#YPOSITION   : 6.19037
#ZPOSITION   : 31.03511
#EDSDET      : SD
##SPECIMEN   : SPI MM2 Willemite[5][all]
##DET_HASH   : 12273538-fd48-a23f-0a19-f1e6fa85caef
##CALIB_HASH : 6abaa72c-aa41-8738-0be9-f592914732f3
##WORKING    : 15.0 mm
##DET_NAME   : EDAX All
##DET_MODE   : MediumLE
#SPECTRUM    :
37,
29,
8,
22,
88,
389,
1165,
3557,
9741,
12958,
6934,
3425,
3341,
3932,
6059,
17687,
64407,
122158,
90211,
26144,
7228,
6660,
5935,
4796,
4561,
4643,
5231,
6864,
11443,
17916,
19470,
23821,
69993,
174602,
215266,
123282,
35681,
8471,
3855,
3034,
3072,
3472,
3689,
3433,
3068,
3140,
3181,
3337,
3516,
3878,
4206,
4303,
4262,
4179,
4628,
8116,
24914,
59461,
79800,
57265,
25215,
10350,
6148,
4432,
3641,
3600,
3637,
3772,
3917,
3818,
3657,
3584,
3572,
3763,
3772,
3769,
3811,
3854,
3801,
3688,
3695,
3742,
3691,
3709,
3693,
3783,
3744,
3824,
3664,
3839,
3814,
3853,
3830,
3787,
3732,
3741,
3629,
3573,
3739,
3587,
3549,
3556,
3567,
3480,
3595,
3442,
3427,
3474,
3434,
3522,
3384,
3538,
3452,
3306,
3444,
3346,
3340,
3317,
3313,
3244,
3282,
3155,
3172,
3284,
3218,
3224,
3103,
3152,
3170,
3015,
3102,
2996,
3090,
2866,
3046,
3037,
2892,
2954,
2925,
2959,
2829,
2897,
2835,
2785,
2761,
2771,
2709,
2781,
2831,
2733,
2761,
2651,
2645,
2573,
2635,
2670,
2492,
2516,
2639,
2519,
2550,
2423,
2497,
2394,
2377,
2453,
2560,
2431,
2446,
2466,
2358,
2412,
2326,
2309,
2363,
2208,
2399,
2247,
2242,
2246,
2177,
2207,
2141,
2149,
2120,
2131,
2163,
2208,
2128,
2167,
2221,
2271,
2687,
4064,
6239,
9768,
12170,
11684,
9405,
6201,
3801,
2503,
2046,
1866,
1870,
1912,
1888,
1889,
1924,
1911,
1903,
2085,
2250,
2377,
2771,
3063,
3073,
3031,
2533,
2120,
1844,
1693,
1694,
1614,
1655,
1594,
1632,
1636,
1679,
1645,
1652,
1678,
1626,
1567,
1600,
1507,
1592,
1539,
1435,
1502,
1480,
1495,
1456,
1442,
1500,
1417,
1425,
1477,
1486,
1526,
1461,
1478,
1386,
1445,
1391,
1351,
1333,
1315,
1428,
1355,
1280,
1262,
1228,
1232,
1310,
1269,
1272,
1319,
1260,
1203,
1216,
1170,
1223,
1204,
1239,
1233,
1254,
1325,
1297,
1302,
1520,
1866,
3189,
6559,
13293,
24023,
35666,
44541,
44963,
37363,
25434,
14409,
6942,
3205,
1748,
1248,
1107,
1071,
1059,
1009,
982,
1023,
1067,
1034,
1005,
1055,
1028,
1042,
1067,
1016,
1025,
1043,
1130,
1315,
1626,
2469,
3756,
5207,
6496,
6789,
5964,
4774,
3265,
2121,
1357,
982,
860,
757,
746,
741,
724,
744,
749,
723,
709,
753,
757,
741,
730,
712,
721,
758,
682,
710,
761,
760,
721,
696,
685,
700,
655,
697,
634,
565,
648,
706,
651,
619,
630,
623,
608,
618,
592,
604,
587,
583,
584,
613,
582,
565,
629,
565,
560,
559,
562,
570,
525,
553,
565,
526,
531,
504,
524,
520,
493,
461,
497,
485,
457,
534,
521,
489,
467,
499,
506,
455,
495,
457,
453,
413,
475,
455,
434,
390,
426,
400,
417,
409,
433,
428,
411,
410,
365,
408,
412,
421,
393,
394,
404,
409,
392,
348,
380,
372,
349,
376,
341,
351,
360,
356,
347,
354,
331,
335,
339,
315,
318,
347,
305,
301,
320,
319,
334,
307,
303,
304,
309,
315,
298,
297,
272,
304,
295,
262,
278,
256,
266,
277,
287,
270,
249,
262,
234,
248,
264,
224,
244,
272,
237,
212,
223,
224,
229,
181,
210,
232,
244,
232,
206,
212,
225,
233,
187,
206,
210,
198,
193,
203,
187,
194,
195,
197,
163,
180,
192,
181,
183,
197,
182,
164,
206,
182,
157,
156,
156,
143,
144,
144,
145,
170,
144,
150,
134,
126,
144,
122,
144,
143,
128,
144,
143,
112,
131,
104,
129,
107,
120,
117,
132,
121,
100,
125,
116,
121,
109,
106,
115,
90,
107,
116,
88,
99,
103,
91,
92,
84,
91,
84,
99,
80,
81,
87,
87,
89,
70,
75,
97,
61,
80,
83,
82,
64,
75,
77,
87,
80,
69,
64,
71,
79,
74,
72,
72,
83,
70,
71,
75,
79,
76,
43,
76,
71,
60,
44,
59,
45,
54,
46,
53,
51,
51,
55,
39,
44,
52,
43,
48,
27,
46,
38,
44,
36,
39,
36,
47,
42,
38,
31,
34,
41,
32,
27,
25,
29,
29,
31,
24,
37,
21,
36,
31,
21,
31,
26,
16,
24,
26,
17,
24,
19,
20,
15,
15,
16,
11,
9,
18,
14,
14,
16,
13,
15,
11,
16,
14,
7,
9,
11,
8,
8,
6,
9,
9,
3,
6,
6,
6,
6,
2,
5,
6,
2,
0,
5,
1,
1,
0,
0,
1,
1,
0,
1,
1,
1,
1,
1,
2,
0,
1,
1,
1,
0,
1,
0,
1,
1,
0,
2,
0,
0,
0,
0,
1,
2,
0,
3,
0,
1,
0,
2,
1,
0,
0,
1,
0,
0,
1,
1,
1,
0,
0,
1,
1,
0,
1,
0,
0,
1,
0,
1,
1,
0,
1,
1,
0,
0,
0,
0,
0,
0,
0,
0,
0,
0,
0,
0,
1,
0,
1,
0,
0,
0,
0,
0,
0,
0,
0,
1,
1,
1,
1,
0,
1,
0,
1,
0,
1,
0,
1,
1,
1,
0,
0,
1,
0,
0,
0,
0,
0,
0,
0,
0,
0,
0,
0,
1,
0,
0,
1,
0,
0,
0,
0,
0,
0,
0,
1,
0,
0,
0,
0,
1,
1,
0,
0,
0,
0,
0,
0,
1,
1,
1,
0,
0,
1,
0,
1,
0,
0,
1,
0,
0,
0,
0,
0,
0,
0,
0,
1,
0,
0,
0,
0,
1,
0,
0,
2,
0,
0,
0,
0,
0,
1,
1,
0,
0,
0,
2,
0,
1,
0,
1,
0,
0,
0,
0,
0,
0,
0,
1,
0,
0,
0,
0,
0,
0,
0,
0,
0,
0,
0,
0,
0,
0,
0,
0,
0,
0,
0,
0,
0,
1,
0,
0,
0,
0,
0,
0,
0,
0,
0,
0,
0,
0,
0,
0,
0,
0,
0,
0,
0,
0,
0,
0,
0,
0,
0,
0,
0,
1,
0,
0,
0,
0,
0,
0,
0,
0,
0,
0,
0,
0,
1,
0,
1,
0,
0,
0,
0,
0,
0,
0,
0,
0,
0,
0,
0,
0,
0,
0,
0,
0,
0,
1,
0,
0,
0,
0,
0,
0,
0,
0,
0,
0,
0,
0,
0,
0,
0,
0,
0,
0,
0,
0,
0,
0,
0,
0,
0,
0,
0,
0,
0,
0,
0,
0,
0,
0,
0,
0,
0,
0,
0,
0,
0,
0,
0,
0,
0,
0,
0,
0,
0,
0,
0,
0,
0,
0,
0,
0,
0,
0,
0,
0,
0,
0,
0,
0,
0,
0,
0,
0,
0,
0,
0,
0,
0,
0,
0,
0,
0,
0,
0,
0,
0,
0,
0,
0,
0,
0,
0,
0,
0,
0,
0,
0,
0,
0,
0,
0,
0,
0,
0,
0,
0,
0,
0,
0,
0,
0,
0,
0,
0,
0,
0,
0,
0,
0,
0,
0,
0,
0,
0,
0,
0,
0,
0,
0,
0,
0,
0,
0,
0,
0,
0,
0,
0,
0,
0,
0,
0,
0,
0,
0,
0,
0,
0,
0,
0,
0,
0,
0,
0,
0,
0,
0,
0,
0,
0,
0,
0,
0,
0,
0,
0,
0,
0,
0,
0,
0,
0,
0,
0,
0,
0,
0,
0,
0,
0,
0,
0,
0,
0,
0,
0,
0,
0,
0,
0,
0,
0,
0,
0,
0,
0,
0,
0,
0,
0,
0,
0,
0,
0,
0,
0,
0,
0,
0,
0,
0,
0,
0,
0,
0,
0,
0,
0,
0,
0,
0,
0,
0,
0,
0,
0,
0,
0,
0,
0,
0,
0,
0,
0,
0,
0,
0,
0,
0,
0,
0,
0,
0,
0,
0,
0,
0,
0,
0,
0,
0,
0,
0,
0,
0,
0,
0,
0,
0,
0,
0,
0,
0,
0,
0,
0,
0,
0,
0,
0,
0,
0,
0,
0,
0,
0,
0,
0,
0,
0,
0,
0,
0,
0,
0,
0,
0,
0,
0,
0,
0,
0,
0,
0,
0,
0,
0,
0,
0,
0,
0,
0,
0,
0,
0,
0,
0,
0,
0,
0,
0,
0,
0,
0,
0,
0,
0,
0,
0,
0,
0,
0,
0,
0,
0,
0,
0,
0,
0,
0,
0,
0,
0,
0,
0,
0,
0,
0,
0,
0,
0,
0,
0,
0,
0,
0,
0,
0,
0,
0,
0,
0,
0,
0,
0,
0,
0,
0,
0,
0,
0,
0,
0,
0,
0,
0,
0,
0,
0,
0,
0,
0,
0,
0,
0,
0,
0,
0,
0,
0,
0,
0,
0,
0,
0,
0,
0,
0,
0,
0,
0,
0,
0,
0,
0,
0,
0,
0,
0,
0,
0,
0,
0,
0,
0,
0,
0,
0,
0,
0,
0,
0,
0,
0,
0,
0,
0,
0,
0,
0,
0,
0,
0,
0,
0,
0,
0,
0,
0,
0,
0,
0,
0,
0,
0,
0,
0,
#ENDOFDATA   :