File: N132962/Quantification/20 keV/MMM2/SPI MM2 SPI Monazite[5][4].msa
#FORMAT      : EMSA/MAS Spectral Data File
#VERSION     : 1.0
#TITLE       : SPI MM2 SPI Monazite[5][all]
#DATE        : 13-MAR-2025
#TIME        : 10:09
#OWNER       : Unknown
#NPOINTS     : 4096
#NCOLUMNS    : 1
#XUNITS      : eV
#YUNITS      : counts
#DATATYPE    : Y
#XPERCHAN    : 9.99778
#OFFSET      : 1.69135
#BEAMKV      : 20
#SIGNALTYPE  : EDS
#ELEVANGLE   : 35
#AZIMANGLE   : 0
#LIVETIME    : 239.98
#REALTIME    : 258.542
#PROBECUR    : 1.02627
#TAUWIND     : 0
#TDEADLYR    : 0
#TACTLYR     : 0.045
#TALWIND     : 0.025
#CHOFFSET    : 0.0
#XLABEL      : Energy (eV)
#YLABEL      : Counts
#XPOSITION   : 2.344
#YPOSITION   : -2.701
#ZPOSITION   : 31.03509
#EDSDET      : SD
##SPECIMEN   : SPI MM2 SPI Monazite[5][all]
##D2STDCMP   : SPI Monazite,(O:26.45),(Si:0.83),(P:11.85),(Ca:0.65),(Y:1.59),(La:7.84),(Ce:19.96),(Pr:2.47),(Nd:9.68),(Sm:3.7),(Eu:0.38),(Gd:2.89),(Tb:0.35),(Dy:1.21),(Pb:0.25),(Th:9.7),(U:0.16),5.0
##DET_HASH   : 12273538-fd48-a23f-0a19-f1e6fa85caef
##CALIB_HASH : 6abaa72c-aa41-8738-0be9-f592914732f3
##WORKING    : 15.0 mm
##DET_NAME   : EDAX All
##DET_MODE   : MediumLE
#SPECTRUM    :
23,
26,
13,
33,
143,
679,
2239,
6283,
15270,
19484,
10916,
6190,
5917,
6230,
8029,
18849,
61975,
117685,
86020,
24671,
7596,
8265,
9951,
9907,
8881,
8160,
7711,
9011,
10956,
12080,
11298,
9453,
8998,
9251,
8267,
7697,
8032,
7640,
7203,
7332,
7267,
6673,
6675,
6437,
6167,
5823,
5724,
5775,
5720,
5698,
5470,
5698,
5622,
5490,
5702,
6202,
7498,
10011,
12005,
10416,
8123,
6981,
7572,
10227,
15571,
28932,
54934,
72811,
57830,
28439,
12793,
9112,
7870,
6392,
5280,
5142,
5307,
5928,
6321,
6044,
5862,
5549,
5297,
5459,
5386,
5112,
5145,
5194,
5126,
5370,
5410,
5392,
5129,
5197,
5243,
5340,
5879,
7414,
11531,
17790,
21282,
17653,
12606,
11230,
13514,
14629,
12618,
8950,
6243,
5388,
5655,
5733,
6116,
5791,
5575,
4893,
4822,
4711,
4735,
4746,
4848,
5723,
6414,
7217,
6773,
5666,
4795,
4422,
4433,
4482,
4455,
4569,
4757,
4899,
4809,
4730,
4789,
4897,
4642,
4474,
4433,
4640,
4952,
4959,
4888,
4414,
4301,
4148,
4205,
4113,
4339,
4886,
6355,
9508,
13165,
14941,
13577,
10841,
10836,
15460,
23353,
29255,
27599,
20074,
12226,
8645,
8957,
10896,
12015,
11023,
9544,
9126,
11955,
17447,
22953,
25452,
22562,
17075,
12653,
9642,
8219,
7091,
6165,
5964,
6278,
7581,
9663,
11585,
12142,
11523,
11070,
9764,
8300,
7011,
5865,
5138,
4382,
3875,
3941,
4690,
5968,
7359,
8104,
7833,
6702,
5676,
4968,
4533,
4470,
4297,
4119,
4218,
4033,
3820,
3586,
3688,
3788,
3811,
3872,
3973,
4131,
3919,
3731,
3553,
3368,
3132,
2940,
2801,
2790,
2807,
2703,
2761,
2574,
2519,
2599,
2625,
2811,
2758,
2722,
2776,
2594,
2674,
2501,
2421,
2503,
2348,
2321,
2388,
2375,
2446,
2286,
2324,
2121,
2199,
2262,
2179,
2162,
2047,
2232,
2111,
2141,
2145,
2066,
1952,
1873,
2000,
1931,
2004,
2010,
1897,
1960,
1950,
1979,
1874,
1825,
1909,
1875,
1784,
1765,
1845,
1815,
1850,
1782,
1731,
1816,
1761,
1686,
1743,
1727,
1736,
1722,
1671,
1675,
1624,
1601,
1665,
1704,
1631,
1610,
1617,
1592,
1551,
1549,
1556,
1531,
1539,
1536,
1456,
1520,
1503,
1566,
1496,
1537,
1441,
1468,
1512,
1501,
1536,
1493,
1470,
1450,
1355,
1357,
1419,
1371,
1407,
1404,
1366,
1338,
1430,
1356,
1435,
1287,
1323,
1342,
1352,
1326,
1286,
1281,
1319,
1288,
1273,
1215,
1270,
1294,
1236,
1215,
1276,
1210,
1260,
1210,
1221,
1253,
1176,
1085,
1218,
1160,
1190,
1093,
1173,
1094,
1091,
1054,
1089,
1060,
1089,
1112,
1047,
1050,
1070,
985,
1088,
996,
994,
1058,
1022,
1013,
973,
985,
970,
984,
910,
957,
932,
937,
945,
944,
923,
932,
921,
888,
889,
845,
830,
850,
860,
821,
840,
854,
866,
829,
781,
788,
808,
814,
773,
802,
757,
803,
746,
838,
756,
743,
752,
724,
772,
714,
729,
704,
699,
738,
724,
739,
699,
709,
691,
713,
766,
765,
733,
847,
909,
872,
868,
744,
755,
690,
633,
610,
567,
619,
596,
582,
631,
563,
577,
581,
603,
551,
574,
531,
555,
533,
577,
541,
496,
543,
517,
525,
509,
526,
471,
503,
488,
505,
502,
481,
443,
471,
460,
437,
474,
439,
424,
447,
397,
413,
421,
394,
413,
411,
432,
400,
414,
427,
373,
398,
381,
337,
353,
365,
362,
365,
388,
364,
381,
393,
343,
381,
370,
393,
365,
324,
334,
305,
333,
340,
350,
308,
284,
302,
289,
271,
284,
309,
291,
287,
292,
291,
309,
301,
285,
299,
280,
248,
263,
255,
248,
237,
215,
229,
225,
232,
232,
206,
213,
243,
188,
214,
212,
197,
204,
209,
197,
192,
197,
207,
178,
200,
174,
179,
162,
157,
177,
170,
184,
160,
165,
160,
127,
160,
157,
137,
151,
153,
145,
152,
148,
131,
132,
155,
133,
126,
129,
119,
120,
137,
103,
100,
99,
116,
109,
130,
121,
119,
114,
93,
101,
114,
103,
98,
100,
85,
84,
85,
92,
79,
93,
76,
97,
87,
84,
77,
95,
69,
82,
86,
67,
68,
53,
72,
55,
55,
55,
59,
67,
58,
53,
58,
51,
45,
49,
43,
45,
57,
47,
53,
45,
46,
29,
39,
41,
35,
45,
28,
38,
34,
27,
50,
24,
22,
23,
27,
25,
29,
19,
20,
21,
25,
18,
21,
24,
17,
17,
9,
8,
7,
8,
14,
9,
4,
7,
5,
10,
5,
4,
1,
0,
2,
1,
3,
1,
3,
2,
0,
4,
2,
1,
1,
1,
2,
2,
1,
3,
5,
4,
1,
1,
0,
1,
2,
1,
1,
2,
1,
3,
4,
1,
3,
1,
1,
0,
0,
2,
2,
0,
3,
3,
2,
1,
0,
0,
0,
1,
2,
2,
1,
1,
1,
1,
2,
1,
2,
1,
0,
1,
0,
1,
2,
0,
0,
1,
1,
2,
0,
2,
0,
1,
0,
1,
0,
1,
1,
1,
2,
1,
1,
1,
1,
1,
0,
0,
0,
1,
0,
0,
1,
0,
0,
0,
3,
0,
0,
3,
1,
0,
0,
2,
0,
0,
0,
1,
3,
1,
0,
1,
1,
0,
1,
1,
2,
0,
1,
1,
1,
1,
1,
1,
0,
0,
0,
0,
1,
0,
0,
0,
0,
0,
0,
0,
0,
1,
2,
1,
1,
0,
0,
3,
0,
0,
1,
0,
2,
0,
0,
1,
0,
2,
1,
0,
0,
0,
0,
0,
0,
0,
0,
0,
0,
1,
0,
1,
1,
1,
0,
0,
0,
0,
0,
0,
0,
0,
0,
0,
0,
1,
0,
0,
0,
0,
1,
1,
0,
0,
0,
0,
0,
1,
0,
1,
0,
0,
0,
0,
1,
0,
0,
0,
0,
1,
1,
0,
1,
0,
1,
0,
0,
0,
0,
0,
0,
0,
0,
0,
0,
1,
0,
0,
0,
0,
0,
0,
0,
1,
1,
0,
1,
0,
0,
0,
0,
0,
0,
0,
0,
0,
0,
0,
0,
0,
0,
0,
0,
0,
0,
0,
0,
0,
0,
0,
0,
0,
0,
1,
0,
0,
0,
0,
0,
0,
1,
0,
0,
0,
0,
0,
0,
0,
0,
0,
0,
0,
0,
0,
0,
0,
0,
0,
0,
0,
0,
0,
0,
0,
0,
1,
0,
0,
0,
0,
0,
0,
0,
0,
0,
0,
0,
0,
0,
0,
0,
0,
0,
0,
0,
0,
0,
0,
0,
0,
1,
0,
0,
0,
0,
1,
0,
0,
0,
0,
0,
0,
0,
0,
0,
0,
0,
0,
0,
1,
0,
0,
0,
0,
0,
0,
0,
0,
0,
0,
0,
0,
0,
0,
0,
0,
0,
0,
0,
0,
0,
0,
0,
0,
0,
0,
0,
0,
0,
0,
0,
0,
0,
0,
0,
0,
0,
0,
0,
0,
0,
0,
0,
0,
0,
0,
0,
0,
0,
0,
0,
0,
0,
0,
0,
0,
0,
0,
0,
0,
0,
0,
0,
0,
0,
0,
0,
0,
0,
0,
0,
0,
0,
0,
0,
0,
0,
0,
0,
0,
0,
0,
0,
0,
0,
0,
0,
0,
0,
0,
0,
0,
0,
0,
0,
0,
0,
0,
0,
0,
0,
0,
0,
0,
0,
0,
0,
0,
0,
0,
0,
0,
0,
0,
0,
0,
0,
0,
0,
0,
0,
0,
0,
0,
0,
0,
0,
0,
0,
0,
0,
0,
0,
0,
0,
0,
0,
0,
0,
0,
0,
0,
0,
0,
0,
0,
0,
0,
0,
0,
0,
0,
0,
0,
0,
0,
0,
0,
0,
0,
0,
0,
0,
0,
0,
0,
0,
0,
0,
0,
0,
0,
0,
0,
0,
0,
0,
0,
0,
0,
0,
0,
0,
0,
0,
0,
0,
0,
0,
0,
0,
0,
0,
0,
0,
0,
0,
0,
0,
0,
0,
0,
0,
0,
0,
0,
0,
0,
0,
0,
0,
0,
0,
0,
0,
0,
0,
0,
0,
0,
0,
0,
0,
0,
0,
0,
0,
0,
0,
0,
0,
0,
0,
0,
0,
0,
0,
0,
0,
0,
0,
0,
0,
0,
0,
0,
0,
0,
0,
0,
0,
0,
0,
0,
0,
0,
0,
0,
0,
0,
0,
0,
0,
0,
0,
0,
0,
0,
0,
0,
0,
0,
0,
0,
0,
0,
0,
0,
0,
0,
0,
0,
0,
0,
0,
0,
0,
0,
0,
0,
0,
0,
0,
0,
0,
0,
0,
0,
0,
0,
0,
0,
0,
0,
0,
0,
0,
0,
0,
0,
0,
0,
0,
0,
0,
0,
0,
0,
0,
0,
0,
0,
0,
0,
0,
0,
0,
0,
0,
0,
0,
0,
0,
0,
0,
0,
0,
0,
0,
0,
0,
0,
0,
0,
0,
0,
0,
0,
0,
0,
0,
0,
0,
0,
0,
0,
0,
0,
0,
0,
0,
0,
0,
0,
0,
0,
#ENDOFDATA   :