File: N132962/Quantification/20 keV/MMM2/SPI MM2 Quartz[1][4].msa
#FORMAT      : EMSA/MAS Spectral Data File
#VERSION     : 1.0
#TITLE       : SPI MM2 Quartz[1][all]
#DATE        : 13-MAR-2025
#TIME        : 12:31
#OWNER       : Unknown
#NPOINTS     : 4096
#NCOLUMNS    : 1
#XUNITS      : eV
#YUNITS      : counts
#DATATYPE    : Y
#XPERCHAN    : 9.99778
#OFFSET      : 1.69135
#BEAMKV      : 20
#SIGNALTYPE  : EDS
#ELEVANGLE   : 35
#AZIMANGLE   : 0
#LIVETIME    : 239.843
#REALTIME    : 257.832
#PROBECUR    : 1.02616
#TAUWIND     : 0
#TDEADLYR    : 0
#TACTLYR     : 0.045
#TALWIND     : 0.025
#CHOFFSET    : 0.0
#XLABEL      : Energy (eV)
#YLABEL      : Counts
#XPOSITION   : 2.45461
#YPOSITION   : 2.23493
#ZPOSITION   : 31.03511
#EDSDET      : SD
##SPECIMEN   : SPI MM2 Quartz[1][all]
##D2STDCMP   : Quartz,(O:53.2565),(Si:46.7435),2.65
##DET_HASH   : 12273538-fd48-a23f-0a19-f1e6fa85caef
##CALIB_HASH : 6abaa72c-aa41-8738-0be9-f592914732f3
##WORKING    : 15.0 mm
##DET_NAME   : EDAX All
##DET_MODE   : MediumLE
#SPECTRUM    :
25,
25,
7,
17,
62,
307,
811,
2481,
7176,
9608,
4983,
2474,
2500,
3395,
6483,
25297,
102265,
200681,
147725,
37907,
4676,
1769,
1744,
1918,
2047,
2042,
2121,
2372,
2437,
2592,
2570,
2840,
2871,
3120,
3309,
3584,
3384,
3586,
3589,
3733,
3860,
3921,
4010,
4049,
4276,
4514,
4585,
4854,
5037,
5440,
5786,
5961,
6358,
6630,
9078,
30039,
129676,
340445,
467568,
328457,
129618,
40518,
16155,
6641,
2905,
2114,
1919,
1955,
1910,
2024,
2006,
1989,
2088,
2393,
2933,
3413,
3209,
2731,
2192,
2069,
2170,
2004,
2111,
2073,
2087,
2102,
2059,
2039,
2143,
2026,
2085,
2025,
2073,
2045,
2054,
2032,
2010,
2011,
2030,
1971,
1953,
2014,
1967,
1958,
1936,
1878,
1846,
1907,
1926,
1909,
1881,
1878,
1979,
1993,
2404,
2861,
3080,
2900,
2408,
2097,
1856,
1783,
1706,
1712,
1668,
1679,
1691,
1625,
1672,
1679,
1721,
1557,
1591,
1613,
1605,
1689,
1557,
1575,
1573,
1504,
1503,
1512,
1480,
1486,
1470,
1538,
1419,
1452,
1437,
1499,
1396,
1438,
1434,
1417,
1376,
1359,
1311,
1413,
1334,
1330,
1340,
1337,
1349,
1259,
1267,
1326,
1193,
1262,
1231,
1227,
1241,
1227,
1206,
1222,
1167,
1193,
1131,
1197,
1189,
1103,
1195,
1128,
1110,
1143,
1112,
1080,
1115,
1127,
1102,
1045,
1046,
1007,
959,
1059,
1089,
961,
1055,
1018,
980,
1017,
1006,
909,
982,
877,
933,
927,
973,
900,
901,
899,
986,
954,
982,
1009,
964,
933,
915,
893,
854,
915,
801,
871,
799,
789,
816,
844,
797,
836,
778,
766,
740,
738,
705,
801,
725,
742,
793,
709,
713,
695,
721,
709,
733,
672,
709,
685,
704,
728,
711,
699,
676,
694,
682,
683,
669,
648,
629,
670,
628,
610,
638,
643,
607,
586,
617,
567,
611,
593,
531,
577,
567,
566,
506,
542,
517,
565,
534,
569,
541,
527,
546,
516,
527,
509,
497,
521,
531,
489,
487,
521,
487,
501,
476,
443,
494,
466,
473,
476,
448,
460,
485,
483,
478,
447,
430,
489,
445,
394,
433,
420,
437,
439,
479,
427,
405,
374,
449,
420,
425,
399,
374,
413,
388,
359,
368,
400,
379,
401,
372,
415,
366,
385,
367,
395,
350,
351,
332,
326,
355,
336,
324,
354,
334,
315,
329,
314,
298,
339,
343,
325,
332,
306,
302,
300,
308,
321,
292,
273,
319,
281,
312,
314,
296,
269,
286,
269,
273,
286,
258,
252,
283,
282,
277,
288,
264,
248,
277,
273,
233,
238,
220,
230,
263,
236,
238,
222,
198,
235,
214,
233,
205,
209,
210,
237,
244,
223,
222,
202,
199,
193,
201,
221,
207,
181,
194,
178,
204,
172,
221,
186,
184,
198,
205,
190,
198,
188,
172,
158,
175,
155,
157,
181,
150,
161,
138,
132,
154,
157,
161,
160,
149,
143,
149,
143,
137,
126,
138,
133,
117,
127,
142,
124,
154,
122,
137,
125,
109,
120,
142,
120,
139,
134,
131,
115,
116,
118,
100,
104,
115,
105,
96,
99,
103,
117,
101,
108,
124,
103,
80,
95,
87,
100,
95,
108,
103,
75,
84,
95,
90,
84,
84,
78,
80,
84,
89,
95,
77,
66,
85,
76,
81,
72,
79,
69,
54,
86,
67,
70,
92,
82,
72,
73,
63,
63,
73,
72,
63,
54,
64,
53,
76,
61,
58,
59,
68,
61,
58,
55,
51,
55,
37,
56,
59,
58,
47,
45,
37,
42,
53,
43,
44,
46,
50,
40,
40,
56,
45,
52,
40,
44,
49,
45,
45,
36,
41,
34,
36,
28,
33,
39,
34,
44,
39,
27,
32,
24,
36,
23,
30,
26,
23,
34,
23,
24,
26,
29,
20,
20,
32,
23,
18,
23,
22,
31,
40,
17,
20,
26,
24,
15,
29,
12,
12,
18,
22,
16,
17,
22,
20,
23,
17,
12,
14,
23,
9,
10,
18,
19,
21,
11,
20,
9,
15,
13,
12,
17,
8,
15,
15,
17,
10,
12,
13,
14,
11,
9,
7,
12,
8,
7,
3,
13,
13,
8,
13,
10,
11,
8,
8,
12,
4,
1,
6,
2,
5,
9,
5,
1,
4,
4,
5,
8,
3,
5,
4,
9,
5,
6,
1,
3,
3,
4,
0,
2,
0,
0,
2,
1,
3,
0,
2,
0,
0,
1,
0,
1,
1,
0,
0,
0,
0,
0,
1,
0,
0,
0,
1,
0,
0,
0,
0,
0,
0,
0,
0,
1,
1,
0,
0,
0,
2,
0,
0,
0,
0,
0,
0,
0,
0,
1,
0,
0,
0,
0,
0,
0,
0,
0,
0,
1,
1,
0,
0,
0,
0,
0,
0,
0,
0,
0,
0,
0,
0,
0,
0,
0,
1,
0,
0,
0,
0,
0,
0,
0,
0,
0,
0,
0,
0,
0,
0,
0,
0,
0,
0,
0,
0,
1,
1,
0,
0,
0,
0,
0,
0,
0,
0,
0,
1,
0,
0,
0,
0,
0,
0,
0,
0,
0,
0,
0,
0,
0,
0,
0,
0,
0,
0,
0,
0,
0,
0,
0,
0,
0,
0,
0,
0,
0,
0,
0,
0,
0,
0,
0,
0,
0,
0,
0,
0,
0,
0,
0,
0,
0,
0,
0,
0,
0,
0,
0,
0,
0,
0,
0,
0,
0,
0,
0,
0,
0,
0,
0,
0,
0,
0,
0,
0,
0,
0,
0,
0,
1,
0,
0,
0,
0,
0,
0,
0,
0,
0,
0,
0,
0,
0,
0,
0,
0,
0,
0,
0,
0,
0,
0,
1,
0,
0,
0,
0,
0,
0,
0,
0,
0,
0,
0,
0,
0,
0,
0,
0,
0,
0,
0,
0,
0,
0,
0,
0,
0,
0,
0,
0,
0,
0,
0,
0,
0,
0,
0,
0,
0,
0,
0,
0,
0,
0,
0,
0,
0,
0,
0,
0,
0,
0,
0,
0,
0,
0,
0,
0,
0,
0,
0,
0,
0,
0,
0,
0,
0,
0,
0,
0,
0,
0,
0,
0,
0,
0,
0,
0,
0,
0,
0,
0,
0,
0,
0,
0,
0,
0,
0,
0,
0,
0,
0,
0,
0,
0,
0,
0,
0,
0,
0,
0,
0,
0,
0,
0,
0,
0,
0,
0,
0,
0,
0,
0,
0,
0,
0,
0,
0,
0,
0,
0,
0,
0,
0,
0,
0,
0,
0,
0,
0,
0,
0,
0,
0,
0,
0,
0,
0,
0,
0,
0,
0,
0,
0,
0,
0,
0,
0,
0,
0,
0,
0,
0,
0,
0,
0,
0,
0,
0,
0,
0,
0,
0,
0,
0,
0,
0,
0,
0,
0,
0,
0,
0,
0,
0,
0,
0,
0,
0,
0,
0,
0,
0,
0,
0,
0,
0,
0,
0,
0,
0,
0,
0,
0,
0,
0,
0,
0,
0,
0,
0,
0,
0,
0,
0,
0,
0,
0,
0,
0,
0,
0,
0,
0,
0,
0,
0,
0,
0,
0,
0,
0,
0,
0,
0,
0,
0,
0,
0,
0,
0,
0,
0,
0,
0,
0,
0,
0,
0,
0,
0,
0,
0,
0,
0,
0,
0,
0,
0,
0,
0,
0,
0,
0,
0,
0,
0,
0,
0,
0,
0,
0,
0,
0,
0,
0,
0,
0,
0,
0,
0,
0,
0,
0,
0,
0,
0,
0,
0,
0,
0,
0,
0,
0,
0,
0,
0,
0,
0,
0,
0,
0,
0,
0,
0,
0,
0,
0,
0,
0,
0,
0,
0,
0,
0,
0,
0,
0,
0,
0,
0,
0,
0,
0,
0,
0,
0,
0,
0,
0,
0,
0,
0,
0,
0,
0,
0,
0,
0,
0,
0,
0,
0,
0,
0,
0,
0,
0,
0,
0,
0,
0,
0,
0,
0,
0,
0,
0,
0,
0,
0,
0,
0,
0,
0,
0,
0,
0,
0,
0,
0,
0,
0,
0,
0,
0,
0,
0,
0,
0,
0,
0,
0,
0,
0,
0,
0,
0,
0,
0,
0,
0,
0,
0,
0,
0,
0,
0,
0,
0,
0,
0,
0,
0,
0,
0,
0,
0,
0,
0,
0,
0,
0,
0,
0,
0,
0,
0,
0,
0,
0,
0,
0,
0,
0,
0,
0,
0,
0,
0,
0,
0,
0,
0,
0,
0,
0,
0,
0,
0,
0,
0,
0,
0,
0,
0,
0,
0,
0,
0,
0,
0,
0,
0,
0,
0,
0,
0,
0,
0,
0,
0,
0,
0,
0,
0,
0,
0,
0,
0,
0,
0,
0,
0,
0,
0,
0,
0,
0,
0,
0,
0,
0,
0,
0,
0,
0,
0,
0,
0,
0,
0,
0,
0,
0,
0,
0,
0,
0,
0,
0,
0,
0,
0,
0,
0,
0,
0,
0,
0,
0,
0,
0,
0,
0,
0,
0,
0,
0,
0,
0,
0,
#ENDOFDATA   :