File: N132962/Quantification/20 keV/MMM2/SPI MM2 SPI Obsidian[7][4].msa
#FORMAT      : EMSA/MAS Spectral Data File
#VERSION     : 1.0
#TITLE       : SPI MM2 SPI Obsidian[7][all]
#DATE        : 13-MAR-2025
#TIME        : 10:02
#OWNER       : Unknown
#NPOINTS     : 4096
#NCOLUMNS    : 1
#XUNITS      : eV
#YUNITS      : counts
#DATATYPE    : Y
#XPERCHAN    : 9.99778
#OFFSET      : 1.69135
#BEAMKV      : 20
#SIGNALTYPE  : EDS
#ELEVANGLE   : 35
#AZIMANGLE   : 0
#LIVETIME    : 239.86
#REALTIME    : 256.308
#PROBECUR    : 1.02627
#TAUWIND     : 0
#TDEADLYR    : 0
#TACTLYR     : 0.045
#TALWIND     : 0.025
#CHOFFSET    : 0.0
#XLABEL      : Energy (eV)
#YLABEL      : Counts
#XPOSITION   : -0.0059
#YPOSITION   : -2.98673
#ZPOSITION   : 31.03509
#EDSDET      : SD
##SPECIMEN   : SPI MM2 SPI Obsidian[7][all]
##D2STDCMP   : SPI Obsidian,(O:49.01),(Na:2.77),(Mg:0.06),(Al:6.9),(Si:35.66),(K:3.58),(Ca:0.63),(Ti:0.06),(Mn:0.04),(Fe:0.59),5.0
##DET_HASH   : 12273538-fd48-a23f-0a19-f1e6fa85caef
##CALIB_HASH : 6abaa72c-aa41-8738-0be9-f592914732f3
##WORKING    : 15.0 mm
##DET_NAME   : EDAX All
##DET_MODE   : MediumLE
#SPECTRUM    :
27,
30,
6,
22,
61,
278,
832,
2657,
7345,
9550,
5224,
2461,
2482,
3087,
5714,
21845,
88144,
173545,
126958,
32921,
4344,
1875,
2152,
2476,
2591,
2372,
2266,
2461,
2634,
2776,
2968,
3134,
4184,
8666,
17215,
18815,
10804,
4899,
3749,
3749,
3994,
4472,
4517,
4553,
4538,
4750,
5603,
11196,
31163,
60644,
62373,
33792,
13446,
7324,
7310,
21190,
87525,
230490,
315295,
222981,
88226,
28802,
12129,
5602,
2863,
2328,
2259,
2427,
2255,
2158,
2143,
2196,
2290,
2387,
2725,
2979,
2997,
2611,
2378,
2391,
2246,
2232,
2266,
2181,
2254,
2239,
2256,
2295,
2254,
2226,
2316,
2210,
2287,
2344,
2265,
2191,
2204,
2218,
2094,
2141,
2162,
2099,
2099,
2096,
2174,
2191,
2571,
3577,
6359,
12204,
17842,
17681,
12092,
6131,
3255,
2595,
2674,
2868,
3237,
3838,
4211,
4174,
4536,
4535,
3951,
2975,
2155,
1814,
1773,
1764,
1645,
1729,
1833,
1918,
2003,
1861,
1760,
1684,
1551,
1532,
1528,
1556,
1556,
1534,
1487,
1546,
1563,
1573,
1680,
1789,
1750,
1686,
1578,
1492,
1471,
1524,
1447,
1473,
1417,
1393,
1416,
1415,
1438,
1436,
1379,
1378,
1293,
1293,
1386,
1419,
1327,
1260,
1341,
1305,
1272,
1206,
1216,
1197,
1219,
1157,
1224,
1133,
1248,
1143,
1173,
1109,
1106,
1116,
1066,
1140,
1112,
1103,
1077,
1144,
1067,
1151,
1093,
1066,
1085,
1050,
1036,
972,
974,
985,
991,
934,
964,
936,
964,
1040,
1235,
1544,
1935,
2097,
1992,
1674,
1283,
1121,
892,
857,
876,
856,
882,
855,
856,
811,
815,
820,
793,
828,
852,
818,
896,
901,
895,
932,
885,
830,
821,
739,
747,
729,
744,
731,
735,
745,
771,
760,
780,
680,
796,
665,
653,
692,
680,
663,
673,
693,
691,
646,
622,
640,
652,
647,
604,
644,
609,
606,
606,
585,
624,
606,
594,
597,
575,
555,
598,
583,
552,
541,
599,
513,
540,
522,
563,
605,
512,
547,
491,
512,
544,
525,
521,
465,
534,
507,
490,
486,
492,
459,
493,
454,
471,
478,
453,
446,
411,
465,
461,
439,
482,
475,
396,
476,
442,
428,
421,
438,
402,
414,
467,
436,
418,
416,
420,
406,
409,
390,
426,
385,
363,
408,
383,
391,
384,
373,
383,
369,
391,
345,
331,
327,
349,
388,
355,
368,
327,
332,
355,
286,
320,
381,
335,
303,
313,
306,
305,
314,
294,
321,
296,
293,
298,
291,
295,
270,
306,
267,
276,
283,
273,
264,
261,
302,
278,
281,
281,
269,
246,
234,
250,
269,
244,
250,
222,
238,
250,
244,
242,
199,
220,
230,
225,
230,
226,
223,
225,
222,
251,
236,
200,
230,
221,
235,
232,
195,
194,
198,
227,
185,
180,
183,
204,
160,
195,
174,
200,
188,
179,
173,
180,
182,
157,
176,
183,
166,
172,
139,
166,
147,
151,
167,
146,
159,
161,
163,
158,
159,
157,
148,
137,
160,
120,
125,
138,
154,
116,
130,
133,
139,
126,
123,
157,
119,
127,
116,
137,
130,
109,
117,
102,
113,
89,
122,
112,
108,
125,
95,
92,
121,
110,
91,
111,
99,
91,
103,
90,
68,
104,
76,
77,
81,
85,
92,
90,
98,
100,
76,
63,
73,
85,
78,
90,
88,
75,
66,
68,
69,
78,
74,
55,
73,
58,
76,
62,
68,
63,
69,
52,
64,
51,
63,
70,
62,
56,
58,
64,
47,
54,
47,
44,
61,
55,
49,
53,
53,
49,
58,
61,
51,
45,
42,
56,
43,
51,
52,
44,
40,
44,
42,
61,
43,
29,
31,
39,
36,
31,
30,
31,
40,
51,
36,
37,
29,
25,
33,
31,
29,
33,
28,
32,
27,
34,
23,
34,
23,
25,
40,
20,
31,
22,
27,
29,
28,
21,
31,
18,
40,
20,
24,
37,
26,
19,
16,
26,
20,
18,
24,
21,
15,
13,
25,
24,
23,
24,
19,
24,
13,
13,
13,
21,
16,
16,
13,
16,
11,
12,
9,
12,
12,
11,
8,
5,
9,
7,
9,
9,
13,
9,
12,
6,
10,
10,
5,
14,
10,
10,
10,
4,
8,
6,
4,
6,
5,
8,
3,
4,
7,
4,
8,
10,
7,
4,
3,
9,
4,
2,
4,
5,
1,
8,
5,
1,
1,
1,
0,
0,
3,
1,
1,
4,
1,
0,
0,
1,
0,
0,
0,
0,
0,
0,
0,
0,
0,
1,
0,
0,
0,
0,
1,
1,
1,
0,
0,
0,
0,
0,
0,
1,
0,
0,
0,
0,
0,
0,
0,
0,
0,
0,
0,
0,
0,
0,
1,
0,
0,
0,
0,
0,
0,
0,
0,
0,
0,
0,
0,
0,
0,
0,
0,
0,
1,
0,
0,
0,
0,
0,
0,
1,
0,
0,
0,
0,
0,
0,
0,
0,
0,
0,
0,
0,
0,
1,
0,
0,
0,
0,
0,
0,
0,
0,
0,
0,
0,
0,
0,
0,
0,
0,
0,
0,
0,
1,
0,
0,
0,
0,
0,
0,
0,
0,
0,
0,
0,
1,
0,
0,
0,
0,
0,
0,
0,
0,
0,
0,
0,
0,
0,
0,
0,
0,
0,
0,
0,
0,
0,
0,
0,
0,
0,
0,
0,
0,
0,
0,
0,
0,
0,
0,
0,
0,
0,
0,
0,
0,
0,
0,
0,
0,
0,
0,
0,
0,
0,
0,
0,
0,
0,
0,
0,
0,
0,
0,
0,
0,
0,
0,
0,
0,
0,
0,
0,
0,
0,
0,
0,
0,
0,
0,
0,
0,
0,
0,
0,
0,
0,
0,
0,
0,
0,
0,
0,
0,
0,
0,
0,
0,
0,
0,
0,
0,
0,
1,
0,
0,
0,
0,
0,
0,
0,
0,
0,
0,
0,
0,
0,
0,
0,
0,
0,
0,
0,
0,
0,
0,
0,
0,
0,
0,
0,
0,
0,
0,
0,
0,
0,
0,
0,
0,
0,
0,
0,
0,
0,
0,
0,
0,
0,
0,
0,
0,
0,
0,
0,
0,
0,
0,
0,
0,
0,
0,
0,
0,
0,
0,
0,
0,
0,
0,
0,
0,
0,
0,
0,
0,
0,
0,
0,
0,
0,
0,
0,
1,
0,
0,
0,
0,
0,
0,
0,
0,
0,
0,
0,
0,
0,
0,
0,
0,
0,
0,
0,
0,
0,
0,
0,
0,
0,
0,
0,
0,
0,
0,
0,
0,
0,
0,
0,
0,
0,
0,
0,
0,
0,
0,
0,
0,
0,
0,
0,
0,
0,
0,
0,
0,
0,
0,
0,
0,
0,
0,
0,
0,
0,
0,
0,
0,
0,
0,
0,
0,
0,
0,
0,
0,
0,
0,
0,
0,
0,
0,
0,
0,
0,
0,
0,
0,
0,
0,
0,
0,
0,
0,
0,
0,
0,
0,
0,
0,
0,
0,
0,
0,
0,
0,
0,
0,
0,
0,
0,
0,
0,
0,
0,
0,
0,
0,
0,
0,
0,
0,
0,
0,
0,
0,
0,
0,
0,
0,
0,
0,
0,
0,
0,
0,
0,
0,
0,
0,
0,
0,
0,
0,
0,
0,
0,
0,
0,
0,
0,
0,
0,
0,
0,
0,
0,
0,
0,
0,
0,
0,
0,
0,
0,
0,
0,
0,
0,
0,
0,
0,
0,
0,
0,
0,
0,
0,
0,
0,
0,
0,
0,
0,
0,
0,
0,
0,
0,
0,
0,
0,
0,
0,
0,
0,
0,
0,
0,
0,
0,
0,
0,
0,
0,
0,
0,
0,
0,
0,
0,
0,
0,
0,
0,
0,
0,
0,
0,
0,
0,
0,
0,
0,
0,
0,
0,
0,
0,
0,
0,
0,
0,
0,
0,
0,
0,
0,
0,
0,
0,
0,
0,
0,
0,
0,
0,
0,
0,
0,
0,
0,
0,
0,
0,
0,
0,
0,
0,
0,
0,
0,
0,
0,
0,
0,
0,
0,
0,
0,
0,
0,
0,
0,
0,
0,
0,
0,
0,
0,
0,
0,
0,
0,
0,
0,
0,
0,
0,
0,
0,
0,
0,
0,
0,
0,
0,
0,
0,
0,
0,
0,
0,
0,
0,
0,
0,
0,
0,
0,
0,
0,
0,
0,
0,
0,
0,
0,
0,
0,
0,
0,
0,
0,
0,
0,
0,
0,
0,
0,
0,
0,
0,
0,
0,
0,
0,
0,
0,
0,
0,
0,
0,
0,
0,
0,
0,
0,
0,
0,
0,
0,
0,
0,
0,
0,
0,
0,
0,
0,
0,
0,
0,
0,
0,
0,
0,
0,
0,
0,
0,
0,
0,
0,
0,
0,
0,
0,
0,
0,
0,
0,
0,
0,
0,
0,
0,
0,
0,
0,
0,
0,
0,
0,
0,
0,
0,
0,
0,
0,
0,
0,
0,
0,
0,
0,
0,
0,
0,
0,
0,
0,
0,
0,
0,
0,
0,
#ENDOFDATA   :