File: N132962/Quantification/20 keV/MMM2/SPI MM2 SPI Pollucite[3][4].msa
#FORMAT      : EMSA/MAS Spectral Data File
#VERSION     : 1.0
#TITLE       : SPI MM2 SPI Pollucite[3][all]
#DATE        : 13-MAR-2025
#TIME        : 11:03
#OWNER       : Unknown
#NPOINTS     : 4096
#NCOLUMNS    : 1
#XUNITS      : eV
#YUNITS      : counts
#DATATYPE    : Y
#XPERCHAN    : 9.99778
#OFFSET      : 1.69135
#BEAMKV      : 20
#SIGNALTYPE  : EDS
#ELEVANGLE   : 35
#AZIMANGLE   : 0
#LIVETIME    : 239.744
#REALTIME    : 256.945
#PROBECUR    : 1.02609
#TAUWIND     : 0
#TDEADLYR    : 0
#TACTLYR     : 0.045
#TALWIND     : 0.025
#CHOFFSET    : 0.0
#XLABEL      : Energy (eV)
#YLABEL      : Counts
#XPOSITION   : -4.01093
#YPOSITION   : -1.16934
#ZPOSITION   : 31.0351
#EDSDET      : SD
##SPECIMEN   : SPI MM2 SPI Pollucite[3][all]
##D2STDCMP   : SPI Pollucite,(Li:0.05),(O:35.94),(Na:1.5),(Al:9.06),(Si:22.2),(K:0.05),(Rb:0.17),(Cs:32.3)
##DET_HASH   : 12273538-fd48-a23f-0a19-f1e6fa85caef
##CALIB_HASH : 6abaa72c-aa41-8738-0be9-f592914732f3
##WORKING    : 15.0 mm
##DET_NAME   : EDAX All
##DET_MODE   : MediumLE
#SPECTRUM    :
22,
28,
9,
23,
100,
404,
1188,
3565,
9649,
12759,
7078,
3765,
3926,
4846,
7735,
25018,
94159,
182306,
135850,
38528,
6964,
3300,
3620,
4618,
5127,
4500,
3566,
3375,
3408,
3799,
4430,
4725,
4963,
6424,
9153,
9327,
6238,
4282,
3883,
3858,
4223,
4164,
4341,
4424,
4561,
4745,
5744,
10660,
29229,
55780,
56509,
31268,
12358,
6823,
6341,
13191,
45276,
112775,
151982,
107818,
44553,
16613,
8489,
5033,
3873,
3685,
4012,
4074,
4021,
3796,
3701,
3657,
3539,
3694,
3967,
4070,
3933,
3890,
3708,
3720,
3664,
3745,
3850,
3849,
4163,
4163,
3979,
3761,
3810,
3570,
3658,
3633,
3741,
3660,
3654,
3794,
3816,
3552,
3678,
3599,
3501,
3653,
3495,
3459,
3464,
3491,
3670,
3501,
3615,
3695,
3544,
3591,
3527,
3362,
3299,
3369,
3319,
3431,
3359,
3291,
3240,
3277,
3263,
3389,
3671,
4275,
4841,
4730,
4327,
3538,
3269,
3101,
3129,
3094,
3040,
3020,
3299,
3790,
4440,
6740,
13505,
26927,
42341,
48565,
39503,
23127,
10816,
5079,
3500,
3247,
4163,
6863,
12390,
20060,
24568,
23020,
17591,
12151,
8408,
5943,
4538,
4329,
5238,
7548,
9115,
9467,
7804,
5424,
3578,
2619,
2428,
2410,
2464,
2921,
3741,
4527,
5018,
4643,
3645,
2924,
2389,
2326,
2437,
2795,
3116,
3256,
2875,
2550,
2383,
2130,
2085,
2008,
1946,
1824,
1820,
1827,
1835,
1854,
1783,
1789,
1819,
1823,
1759,
1786,
1754,
1686,
1657,
1707,
1746,
1680,
1749,
1854,
1880,
1934,
1883,
1767,
1658,
1558,
1573,
1630,
1589,
1587,
1542,
1510,
1591,
1505,
1538,
1517,
1511,
1486,
1480,
1396,
1539,
1514,
1475,
1515,
1470,
1412,
1474,
1476,
1398,
1366,
1409,
1434,
1426,
1418,
1387,
1360,
1521,
1428,
1381,
1345,
1303,
1338,
1397,
1239,
1278,
1317,
1258,
1254,
1303,
1239,
1227,
1229,
1230,
1200,
1247,
1215,
1218,
1139,
1118,
1155,
1173,
1160,
1179,
1117,
1192,
1164,
1160,
1142,
1173,
1154,
1127,
1077,
1088,
1108,
1089,
1068,
1033,
1057,
1075,
1007,
1049,
1021,
994,
1011,
1054,
971,
989,
1015,
961,
989,
1025,
971,
981,
976,
930,
969,
941,
967,
932,
904,
932,
892,
919,
868,
895,
848,
882,
845,
850,
853,
881,
781,
897,
811,
852,
851,
846,
837,
755,
774,
846,
756,
771,
842,
718,
780,
743,
764,
812,
727,
748,
750,
773,
738,
755,
700,
691,
765,
744,
693,
705,
669,
671,
674,
641,
647,
658,
658,
659,
569,
646,
601,
613,
625,
622,
617,
632,
621,
633,
642,
594,
616,
601,
588,
596,
658,
565,
580,
528,
558,
546,
620,
531,
537,
543,
487,
517,
512,
531,
511,
532,
478,
483,
518,
484,
499,
493,
503,
441,
453,
421,
476,
448,
446,
481,
454,
417,
422,
415,
454,
465,
441,
410,
455,
451,
415,
413,
411,
377,
418,
408,
416,
430,
397,
383,
414,
395,
392,
362,
343,
369,
374,
357,
366,
346,
384,
351,
307,
340,
310,
357,
333,
358,
350,
319,
315,
331,
277,
302,
302,
291,
325,
259,
295,
267,
266,
266,
276,
315,
256,
258,
264,
263,
227,
245,
268,
273,
242,
224,
266,
266,
232,
227,
214,
223,
216,
234,
243,
223,
200,
234,
287,
185,
231,
197,
204,
191,
208,
190,
187,
192,
202,
214,
158,
150,
214,
178,
186,
153,
177,
160,
171,
153,
145,
146,
181,
171,
147,
179,
163,
151,
132,
147,
156,
150,
135,
129,
141,
148,
152,
160,
128,
137,
121,
129,
107,
134,
121,
104,
141,
102,
122,
130,
132,
117,
109,
105,
95,
113,
132,
83,
102,
106,
83,
92,
114,
112,
93,
108,
90,
80,
87,
109,
81,
82,
87,
67,
78,
81,
82,
81,
90,
79,
77,
80,
58,
58,
61,
68,
68,
78,
68,
91,
77,
64,
55,
67,
67,
66,
55,
62,
42,
54,
63,
50,
49,
63,
59,
57,
41,
37,
44,
43,
50,
32,
28,
46,
47,
44,
25,
43,
48,
41,
43,
33,
36,
30,
28,
34,
37,
33,
36,
22,
37,
34,
19,
29,
31,
24,
26,
23,
23,
28,
29,
15,
29,
27,
8,
14,
15,
19,
18,
15,
23,
10,
20,
16,
20,
19,
9,
5,
14,
10,
8,
5,
12,
13,
7,
11,
11,
8,
7,
5,
3,
3,
5,
5,
4,
1,
3,
1,
1,
5,
3,
1,
0,
0,
1,
1,
1,
1,
0,
0,
0,
0,
1,
1,
1,
0,
0,
2,
0,
0,
0,
0,
0,
1,
0,
0,
0,
2,
0,
1,
1,
0,
0,
0,
2,
1,
1,
0,
0,
0,
0,
1,
0,
0,
0,
0,
0,
0,
0,
0,
0,
0,
1,
1,
1,
0,
0,
1,
0,
1,
0,
0,
1,
0,
0,
0,
1,
1,
0,
1,
0,
2,
2,
0,
0,
1,
0,
0,
0,
0,
0,
1,
0,
0,
1,
1,
0,
0,
0,
0,
0,
0,
0,
0,
0,
0,
0,
0,
0,
0,
0,
0,
0,
0,
0,
0,
1,
0,
0,
0,
0,
0,
0,
1,
0,
0,
1,
0,
0,
0,
0,
0,
0,
1,
0,
0,
0,
1,
1,
0,
0,
1,
1,
0,
0,
0,
0,
0,
0,
0,
0,
0,
0,
0,
0,
0,
0,
0,
0,
0,
0,
0,
0,
0,
0,
1,
0,
1,
1,
0,
0,
0,
0,
0,
1,
0,
0,
0,
0,
0,
0,
1,
0,
1,
0,
0,
0,
0,
0,
0,
0,
1,
0,
0,
0,
0,
1,
1,
0,
0,
0,
0,
0,
0,
0,
0,
0,
0,
0,
0,
0,
0,
0,
0,
0,
0,
0,
0,
1,
0,
0,
0,
0,
0,
0,
1,
0,
0,
0,
0,
0,
0,
0,
0,
0,
0,
0,
0,
0,
0,
0,
0,
0,
0,
0,
0,
0,
0,
0,
0,
0,
0,
0,
0,
0,
0,
0,
0,
0,
0,
0,
0,
1,
0,
0,
0,
0,
0,
0,
0,
0,
0,
0,
0,
0,
0,
0,
0,
0,
0,
0,
0,
0,
0,
0,
0,
0,
0,
0,
0,
0,
0,
0,
0,
0,
0,
0,
0,
0,
0,
0,
0,
0,
0,
0,
0,
0,
0,
0,
0,
0,
0,
0,
0,
0,
0,
0,
0,
0,
0,
0,
0,
0,
0,
0,
0,
0,
0,
0,
0,
0,
0,
0,
0,
0,
0,
0,
0,
0,
0,
0,
0,
0,
0,
0,
0,
0,
0,
0,
0,
0,
0,
0,
0,
0,
0,
0,
0,
0,
0,
0,
0,
0,
0,
0,
0,
0,
0,
0,
0,
0,
0,
0,
0,
0,
0,
0,
0,
0,
0,
0,
0,
0,
0,
0,
0,
0,
0,
0,
0,
0,
0,
0,
0,
0,
0,
0,
0,
0,
0,
0,
0,
0,
0,
0,
0,
0,
0,
0,
0,
0,
0,
0,
0,
0,
0,
0,
0,
0,
0,
0,
0,
0,
0,
0,
0,
0,
0,
0,
0,
0,
0,
0,
0,
0,
0,
0,
0,
0,
0,
0,
0,
0,
0,
0,
0,
0,
0,
0,
0,
0,
0,
0,
0,
0,
0,
0,
0,
0,
0,
0,
0,
0,
0,
0,
0,
0,
0,
0,
0,
0,
0,
0,
0,
0,
0,
0,
0,
0,
0,
0,
0,
0,
0,
0,
0,
0,
0,
0,
0,
0,
0,
0,
0,
0,
0,
0,
0,
0,
0,
0,
0,
0,
0,
0,
0,
0,
0,
0,
0,
0,
0,
0,
0,
0,
0,
0,
0,
0,
0,
0,
0,
0,
0,
0,
0,
0,
0,
0,
0,
0,
0,
0,
0,
0,
0,
0,
0,
0,
0,
0,
0,
0,
0,
0,
0,
0,
0,
0,
0,
0,
0,
0,
0,
0,
0,
0,
0,
0,
0,
0,
0,
0,
0,
0,
0,
0,
0,
0,
0,
0,
0,
0,
0,
0,
0,
0,
0,
0,
0,
0,
0,
0,
0,
0,
0,
0,
0,
0,
0,
0,
0,
0,
0,
0,
0,
0,
0,
0,
0,
0,
0,
0,
0,
0,
0,
0,
0,
0,
0,
0,
0,
0,
0,
0,
0,
0,
0,
0,
0,
0,
0,
0,
0,
0,
0,
0,
0,
0,
0,
0,
0,
0,
0,
0,
0,
0,
0,
0,
0,
0,
0,
0,
0,
0,
0,
0,
0,
0,
0,
0,
0,
0,
0,
0,
0,
0,
0,
0,
0,
0,
0,
0,
0,
0,
0,
0,
0,
0,
0,
0,
0,
0,
0,
0,
0,
0,
0,
0,
0,
0,
0,
0,
0,
0,
0,
0,
0,
0,
0,
0,
0,
0,
0,
0,
0,
0,
0,
0,
0,
0,
0,
0,
0,
0,
0,
0,
0,
0,
0,
0,
#ENDOFDATA   :