File: N132962/Quantification/20 keV/MMM2/SPI MM2 SPI Pentlandite[4][4].msa
#FORMAT      : EMSA/MAS Spectral Data File
#VERSION     : 1.0
#TITLE       : SPI MM2 SPI Pentlandite[4][all]
#DATE        : 13-MAR-2025
#TIME        : 10:36
#OWNER       : Unknown
#NPOINTS     : 4096
#NCOLUMNS    : 1
#XUNITS      : eV
#YUNITS      : counts
#DATATYPE    : Y
#XPERCHAN    : 9.99778
#OFFSET      : 1.69135
#BEAMKV      : 20
#SIGNALTYPE  : EDS
#ELEVANGLE   : 35
#AZIMANGLE   : 0
#LIVETIME    : 239.903
#REALTIME    : 260.208
#PROBECUR    : 1.02606
#TAUWIND     : 0
#TDEADLYR    : 0
#TACTLYR     : 0.045
#TALWIND     : 0.025
#CHOFFSET    : 0.0
#XLABEL      : Energy (eV)
#YLABEL      : Counts
#XPOSITION   : 3.91682
#YPOSITION   : -0.29173
#ZPOSITION   : 31.0351
#EDSDET      : SD
##SPECIMEN   : SPI MM2 SPI Pentlandite[4][all]
##D2STDCMP   : SPI Pentlandite,(S:32.89),(Fe:30.88),(Co:0.43),(Ni:35.61)
##DET_HASH   : 12273538-fd48-a23f-0a19-f1e6fa85caef
##CALIB_HASH : 6abaa72c-aa41-8738-0be9-f592914732f3
##WORKING    : 15.0 mm
##DET_NAME   : EDAX All
##DET_MODE   : MediumLE
#SPECTRUM    :
23,
29,
11,
33,
207,
613,
1254,
3559,
10029,
13400,
6899,
2886,
2540,
2856,
3254,
3994,
5100,
7067,
10477,
14986,
18176,
18957,
28217,
48010,
44171,
24040,
17550,
35804,
63217,
53360,
21200,
6565,
3905,
3327,
3203,
3222,
3448,
3490,
3536,
3669,
3798,
4038,
4068,
4238,
4436,
4511,
4635,
4822,
5092,
5141,
5156,
5159,
5164,
5112,
5227,
5430,
5664,
5932,
6158,
6215,
5993,
5812,
5465,
5193,
5432,
5364,
5535,
5583,
5588,
5599,
5841,
6345,
8096,
13607,
31604,
85705,
175047,
219419,
159593,
69962,
25282,
18142,
20133,
17034,
10404,
5869,
4266,
3857,
3732,
3856,
3841,
3858,
3771,
3798,
3778,
3951,
3881,
3907,
3838,
3945,
3949,
4004,
3846,
3795,
3990,
3887,
3834,
3769,
3885,
3679,
3716,
3741,
3643,
3688,
3685,
3567,
3635,
3565,
3503,
3566,
3578,
3431,
3537,
3451,
3538,
3490,
3429,
3432,
3457,
3387,
3375,
3338,
3399,
3383,
3258,
3305,
3320,
3328,
3182,
3239,
3137,
3178,
3116,
3083,
3085,
3096,
3130,
3114,
3107,
3139,
3036,
3115,
3172,
3202,
3390,
3318,
3264,
3052,
2973,
2991,
2903,
2834,
2762,
2749,
2771,
2721,
2702,
2797,
2634,
2597,
2653,
2652,
2693,
2623,
2621,
2727,
2634,
2652,
2610,
2539,
2531,
2667,
2651,
2501,
2397,
2405,
2399,
2430,
2445,
2472,
2497,
2432,
2490,
2412,
2312,
2330,
2273,
2310,
2184,
2364,
2258,
2261,
2304,
2273,
2306,
2333,
2506,
2711,
3979,
7776,
17322,
33801,
52763,
64374,
60841,
43875,
25217,
11536,
5024,
2882,
2258,
2018,
2009,
1960,
1995,
1972,
2020,
2152,
2332,
2693,
3261,
3919,
5196,
7111,
9212,
10091,
9149,
7083,
4688,
3059,
2271,
1961,
1962,
2557,
4325,
8885,
17997,
30836,
43109,
47728,
42802,
30466,
17560,
8652,
4207,
2400,
1793,
1612,
1519,
1532,
1396,
1461,
1469,
1418,
1501,
1402,
1510,
1408,
1435,
1572,
1805,
2354,
3334,
4822,
6323,
7312,
7062,
5671,
4007,
2585,
1799,
1403,
1198,
1223,
1132,
1159,
1138,
1168,
1210,
1224,
1239,
1292,
1238,
1169,
1106,
1136,
1097,
1108,
1106,
1102,
1004,
1047,
1059,
999,
1056,
1039,
1070,
1049,
1043,
1036,
949,
1005,
977,
1000,
970,
940,
937,
969,
1009,
933,
1024,
935,
995,
1013,
964,
1012,
971,
1006,
988,
939,
936,
933,
925,
902,
910,
925,
851,
856,
883,
821,
860,
810,
845,
800,
820,
836,
811,
770,
770,
810,
823,
800,
778,
765,
820,
755,
733,
687,
766,
758,
747,
771,
744,
733,
749,
695,
770,
684,
716,
668,
677,
680,
714,
606,
650,
664,
585,
643,
612,
637,
634,
624,
643,
660,
602,
571,
582,
597,
559,
572,
609,
621,
529,
565,
580,
607,
545,
526,
521,
543,
549,
505,
541,
514,
554,
501,
464,
493,
530,
452,
491,
491,
523,
510,
484,
495,
506,
491,
441,
484,
456,
449,
429,
466,
429,
431,
468,
424,
425,
442,
411,
431,
409,
386,
423,
407,
392,
403,
406,
386,
360,
358,
352,
393,
367,
358,
379,
382,
343,
333,
321,
335,
341,
315,
329,
342,
332,
300,
329,
325,
361,
368,
311,
335,
332,
300,
258,
294,
297,
273,
275,
262,
298,
236,
277,
275,
250,
256,
269,
272,
279,
247,
255,
250,
255,
239,
269,
250,
244,
242,
233,
243,
207,
226,
211,
207,
235,
224,
225,
215,
193,
212,
205,
200,
203,
176,
168,
171,
172,
178,
178,
183,
176,
186,
150,
156,
167,
170,
159,
160,
175,
173,
173,
158,
147,
146,
145,
139,
158,
158,
145,
129,
149,
145,
144,
127,
145,
128,
121,
133,
109,
119,
121,
121,
109,
112,
126,
120,
116,
115,
105,
112,
99,
116,
104,
107,
119,
103,
82,
94,
82,
99,
93,
102,
91,
87,
95,
91,
88,
89,
83,
79,
57,
84,
71,
63,
85,
82,
75,
62,
64,
65,
62,
57,
67,
68,
74,
56,
45,
53,
71,
58,
64,
65,
61,
51,
49,
54,
45,
53,
44,
41,
45,
49,
55,
38,
42,
49,
35,
26,
37,
38,
43,
26,
36,
26,
38,
29,
32,
39,
32,
28,
23,
20,
20,
21,
17,
27,
18,
26,
24,
22,
19,
20,
21,
28,
18,
25,
13,
19,
11,
21,
22,
12,
9,
12,
10,
5,
10,
15,
15,
8,
7,
6,
11,
13,
4,
8,
5,
5,
2,
8,
5,
5,
2,
3,
1,
2,
6,
2,
3,
2,
1,
0,
4,
1,
2,
0,
4,
1,
0,
0,
1,
2,
1,
0,
0,
1,
0,
1,
2,
1,
1,
4,
1,
0,
0,
1,
1,
2,
0,
2,
0,
0,
0,
2,
0,
0,
2,
0,
0,
0,
0,
0,
0,
1,
0,
0,
1,
2,
1,
0,
0,
2,
2,
2,
1,
1,
0,
4,
0,
1,
1,
1,
1,
0,
0,
0,
1,
0,
1,
2,
3,
0,
1,
2,
0,
2,
1,
0,
0,
0,
0,
0,
0,
1,
1,
0,
0,
1,
2,
0,
1,
0,
1,
1,
1,
0,
1,
1,
0,
1,
1,
0,
1,
0,
0,
1,
0,
0,
0,
0,
2,
0,
0,
1,
0,
0,
0,
0,
1,
0,
0,
0,
0,
0,
1,
0,
0,
0,
1,
1,
0,
0,
0,
0,
0,
0,
0,
0,
0,
1,
0,
0,
0,
0,
2,
0,
0,
1,
0,
1,
0,
0,
1,
0,
0,
0,
0,
0,
0,
0,
0,
0,
0,
0,
0,
1,
0,
0,
1,
1,
0,
0,
0,
0,
0,
0,
0,
0,
0,
0,
0,
1,
0,
0,
0,
0,
0,
0,
0,
0,
0,
0,
1,
0,
0,
0,
0,
0,
0,
1,
0,
0,
1,
0,
0,
0,
0,
0,
0,
0,
0,
0,
0,
0,
0,
0,
0,
1,
0,
1,
0,
0,
0,
0,
0,
0,
0,
0,
0,
1,
0,
0,
1,
0,
0,
0,
0,
0,
0,
0,
0,
0,
0,
0,
0,
0,
0,
0,
0,
0,
0,
0,
0,
0,
0,
0,
0,
0,
0,
0,
0,
0,
0,
0,
0,
0,
0,
0,
0,
0,
0,
0,
0,
0,
0,
0,
0,
0,
0,
0,
0,
0,
0,
0,
0,
0,
0,
0,
0,
0,
0,
0,
0,
0,
0,
0,
0,
0,
0,
0,
0,
0,
0,
0,
0,
0,
0,
0,
0,
0,
0,
0,
0,
0,
0,
0,
0,
0,
0,
0,
0,
0,
0,
0,
0,
0,
0,
0,
0,
0,
0,
0,
0,
0,
0,
0,
0,
0,
0,
0,
0,
0,
0,
0,
0,
0,
0,
0,
0,
0,
0,
0,
0,
0,
0,
0,
0,
0,
0,
0,
0,
0,
0,
0,
0,
0,
0,
0,
0,
0,
0,
0,
0,
0,
0,
0,
0,
0,
0,
0,
0,
0,
0,
0,
0,
0,
0,
0,
0,
0,
0,
0,
0,
0,
0,
0,
0,
0,
0,
0,
0,
0,
0,
0,
0,
0,
0,
0,
0,
0,
0,
0,
0,
0,
0,
1,
0,
0,
0,
0,
0,
0,
0,
0,
0,
0,
0,
0,
0,
0,
0,
0,
0,
0,
1,
0,
0,
0,
0,
0,
0,
0,
0,
0,
0,
0,
0,
0,
0,
0,
0,
0,
0,
0,
0,
0,
0,
0,
0,
0,
0,
0,
0,
0,
0,
0,
0,
0,
0,
0,
0,
0,
0,
0,
0,
0,
0,
0,
0,
0,
0,
0,
0,
0,
0,
0,
0,
0,
0,
0,
0,
0,
0,
0,
0,
0,
0,
0,
0,
0,
0,
0,
0,
0,
0,
0,
0,
0,
0,
0,
0,
0,
0,
0,
0,
0,
0,
0,
0,
0,
0,
0,
0,
0,
0,
0,
0,
0,
0,
0,
0,
0,
0,
0,
0,
0,
0,
0,
0,
0,
0,
0,
0,
0,
0,
0,
0,
0,
0,
0,
0,
0,
0,
0,
0,
0,
0,
0,
0,
0,
0,
0,
0,
0,
0,
0,
0,
0,
0,
0,
0,
0,
0,
0,
0,
0,
0,
0,
0,
0,
0,
0,
0,
0,
0,
0,
0,
0,
0,
0,
0,
0,
0,
0,
0,
0,
0,
0,
0,
0,
0,
0,
0,
0,
0,
0,
0,
0,
0,
0,
0,
0,
0,
0,
0,
0,
0,
0,
0,
0,
0,
0,
0,
0,
0,
0,
0,
0,
0,
0,
0,
0,
0,
0,
0,
0,
0,
0,
0,
0,
0,
0,
0,
0,
0,
0,
0,
0,
0,
0,
0,
0,
0,
0,
0,
0,
0,
0,
0,
0,
0,
0,
0,
0,
0,
0,
0,
0,
0,
0,
0,
0,
0,
0,
0,
0,
0,
0,
0,
0,
0,
0,
0,
0,
0,
0,
0,
0,
0,
0,
0,
0,
0,
0,
#ENDOFDATA   :