File: N132962/Quantification/20 keV/MMM2/SPI MM2 SPI Magnetite[1][4].msa
#FORMAT      : EMSA/MAS Spectral Data File
#VERSION     : 1.0
#TITLE       : SPI MM2 SPI Magnetite[1][all]
#DATE        : 13-MAR-2025
#TIME        : 09:19
#OWNER       : Unknown
#NPOINTS     : 4096
#NCOLUMNS    : 1
#XUNITS      : eV
#YUNITS      : counts
#DATATYPE    : Y
#XPERCHAN    : 9.99778
#OFFSET      : 1.69135
#BEAMKV      : 20
#SIGNALTYPE  : EDS
#ELEVANGLE   : 35
#AZIMANGLE   : 0
#LIVETIME    : 239.922
#REALTIME    : 256.873
#PROBECUR    : 1.02582
#TAUWIND     : 0
#TDEADLYR    : 0
#TACTLYR     : 0.045
#TALWIND     : 0.025
#CHOFFSET    : 0.0
#XLABEL      : Energy (eV)
#YLABEL      : Counts
#XPOSITION   : 3.82889
#YPOSITION   : -4.1503
#ZPOSITION   : 31.03509
#EDSDET      : SD
##SPECIMEN   : SPI MM2 SPI Magnetite[1][all]
##D2STDCMP   : SPI Magnetite,(O:27.53),(Si:0.01),(Mn:0.18),(Fe:71.88)
##DET_HASH   : 12273538-fd48-a23f-0a19-f1e6fa85caef
##CALIB_HASH : 6abaa72c-aa41-8738-0be9-f592914732f3
##WORKING    : 15.0 mm
##DET_NAME   : EDAX All
##DET_MODE   : MediumLE
#SPECTRUM    :
29,
22,
14,
28,
86,
461,
1309,
3868,
10314,
13684,
7746,
4823,
5126,
6249,
9493,
26986,
95630,
181760,
133887,
43976,
24000,
23346,
30140,
49548,
43349,
16747,
5070,
2731,
2318,
2084,
2012,
2159,
2288,
2367,
2658,
2817,
2864,
2843,
2797,
2983,
3129,
3366,
3415,
3394,
3522,
3587,
3673,
3888,
4116,
4256,
4293,
4247,
4309,
4256,
4360,
4391,
4724,
4933,
5065,
5027,
5007,
4662,
4472,
4287,
4245,
4331,
4294,
4339,
4359,
4455,
4462,
4430,
4375,
4470,
4319,
4508,
4349,
4367,
4475,
4489,
4381,
4346,
4396,
4351,
4426,
4462,
4298,
4402,
4149,
4177,
4113,
4147,
4205,
4209,
4057,
4025,
4077,
4190,
4079,
3865,
4059,
3979,
3978,
3946,
3954,
3788,
3914,
3771,
3826,
3751,
3748,
3771,
3702,
3587,
3637,
3544,
3663,
3616,
3471,
3571,
3407,
3439,
3436,
3539,
3335,
3447,
3251,
3358,
3272,
3256,
3204,
3222,
3255,
3170,
3212,
3281,
3150,
3040,
3052,
3105,
3072,
2963,
2941,
2864,
2922,
2914,
2926,
2975,
2883,
3064,
3050,
3010,
3016,
3051,
3236,
3244,
3231,
3009,
2817,
2755,
2682,
2703,
2611,
2583,
2630,
2586,
2576,
2558,
2615,
2416,
2501,
2427,
2489,
2536,
2353,
2449,
2399,
2488,
2333,
2466,
2331,
2328,
2296,
2330,
2279,
2235,
2244,
2153,
2216,
2152,
2161,
2113,
2130,
2249,
2307,
2466,
2590,
2667,
2550,
2393,
2162,
2172,
1994,
2102,
2250,
2330,
2575,
3352,
6112,
14875,
36163,
72914,
116343,
141771,
133442,
95571,
53180,
23295,
8886,
3673,
2308,
1945,
1859,
1799,
1915,
1878,
1908,
1934,
2149,
2535,
3230,
4867,
7879,
12716,
17631,
19628,
17983,
12870,
7905,
4183,
2315,
1558,
1285,
1269,
1173,
1214,
1195,
1188,
1363,
1361,
1356,
1286,
1286,
1197,
1208,
1217,
1197,
1190,
1232,
1194,
1166,
1161,
1126,
1158,
1152,
1071,
1128,
1096,
1148,
1126,
1092,
1118,
1058,
1137,
1075,
1030,
1062,
1075,
1055,
1064,
1067,
1040,
962,
1015,
1071,
1014,
983,
1048,
994,
994,
980,
1004,
970,
999,
929,
881,
1019,
945,
949,
933,
897,
880,
897,
881,
898,
856,
919,
878,
842,
847,
885,
860,
894,
862,
825,
825,
861,
833,
823,
841,
828,
826,
804,
850,
776,
822,
823,
843,
719,
767,
745,
735,
781,
810,
765,
755,
756,
721,
727,
740,
721,
743,
705,
687,
658,
759,
719,
698,
685,
657,
687,
666,
662,
662,
589,
624,
676,
684,
672,
636,
658,
639,
625,
598,
572,
570,
601,
627,
584,
607,
559,
571,
567,
593,
551,
551,
555,
541,
538,
565,
546,
488,
523,
506,
488,
551,
534,
501,
548,
466,
542,
493,
473,
493,
498,
493,
447,
465,
465,
476,
480,
481,
439,
468,
409,
444,
414,
421,
425,
446,
440,
379,
415,
441,
392,
367,
389,
380,
429,
357,
401,
376,
361,
407,
426,
466,
476,
458,
474,
409,
404,
401,
366,
357,
317,
356,
338,
349,
344,
328,
297,
335,
312,
332,
360,
317,
338,
307,
307,
324,
310,
280,
297,
317,
291,
287,
269,
267,
282,
254,
256,
255,
239,
234,
276,
249,
264,
228,
236,
246,
232,
262,
198,
222,
232,
196,
256,
217,
202,
203,
234,
203,
190,
227,
191,
214,
182,
187,
198,
200,
191,
201,
184,
168,
185,
164,
174,
166,
167,
163,
155,
170,
159,
149,
171,
163,
172,
174,
147,
136,
151,
151,
144,
159,
132,
127,
138,
133,
174,
119,
143,
137,
121,
125,
130,
149,
137,
107,
128,
122,
120,
139,
141,
116,
112,
101,
113,
91,
98,
94,
107,
103,
94,
103,
100,
93,
84,
89,
85,
107,
83,
93,
109,
82,
81,
67,
78,
75,
85,
63,
74,
76,
63,
70,
72,
56,
65,
73,
73,
63,
78,
72,
67,
62,
81,
66,
67,
47,
60,
57,
62,
52,
49,
58,
59,
55,
50,
52,
48,
69,
54,
54,
43,
53,
39,
35,
38,
38,
27,
37,
41,
38,
36,
33,
35,
41,
32,
35,
31,
24,
32,
38,
31,
21,
36,
21,
24,
28,
25,
24,
26,
22,
27,
23,
27,
19,
33,
23,
18,
18,
23,
21,
15,
12,
20,
16,
13,
13,
20,
17,
14,
8,
9,
7,
12,
10,
15,
9,
6,
10,
14,
5,
4,
9,
7,
4,
7,
6,
5,
4,
1,
5,
3,
1,
1,
2,
3,
0,
1,
1,
2,
0,
1,
0,
1,
0,
1,
0,
2,
1,
1,
1,
1,
1,
0,
4,
2,
0,
1,
3,
1,
1,
1,
1,
0,
1,
0,
1,
1,
1,
1,
2,
0,
1,
1,
0,
1,
1,
1,
0,
2,
1,
0,
0,
0,
1,
0,
2,
0,
0,
1,
1,
0,
0,
0,
0,
1,
2,
1,
0,
0,
0,
1,
0,
1,
0,
2,
1,
0,
0,
1,
0,
0,
0,
0,
0,
0,
2,
0,
0,
1,
0,
0,
1,
0,
0,
0,
0,
0,
0,
1,
0,
1,
0,
1,
1,
0,
0,
0,
0,
0,
0,
0,
1,
0,
0,
0,
0,
0,
0,
0,
0,
0,
0,
1,
0,
0,
0,
0,
0,
0,
1,
0,
0,
1,
0,
0,
1,
0,
1,
0,
0,
0,
0,
1,
0,
0,
0,
0,
0,
0,
1,
1,
0,
1,
0,
0,
1,
2,
0,
2,
0,
0,
0,
1,
0,
0,
0,
0,
0,
1,
0,
0,
0,
0,
1,
1,
1,
0,
0,
0,
0,
0,
0,
1,
0,
0,
0,
0,
0,
0,
0,
0,
0,
0,
0,
0,
0,
0,
0,
0,
0,
2,
0,
0,
0,
0,
0,
0,
0,
0,
1,
0,
0,
0,
0,
0,
0,
0,
0,
0,
0,
0,
0,
0,
0,
0,
0,
0,
0,
0,
0,
0,
0,
0,
0,
0,
0,
0,
0,
0,
0,
0,
0,
1,
0,
0,
0,
0,
0,
0,
0,
0,
0,
0,
0,
0,
0,
0,
0,
0,
0,
0,
0,
0,
0,
0,
0,
0,
0,
0,
0,
0,
0,
0,
0,
0,
0,
0,
0,
0,
0,
0,
0,
0,
0,
0,
0,
0,
0,
0,
0,
0,
0,
0,
0,
0,
0,
0,
0,
0,
0,
0,
0,
0,
0,
0,
0,
0,
0,
0,
0,
0,
0,
0,
0,
0,
0,
0,
0,
0,
0,
0,
0,
0,
0,
0,
0,
0,
0,
0,
0,
0,
0,
0,
0,
0,
0,
0,
0,
0,
0,
0,
0,
0,
0,
0,
0,
0,
0,
0,
0,
0,
0,
0,
0,
0,
0,
0,
0,
0,
0,
0,
0,
0,
0,
0,
0,
0,
0,
0,
0,
0,
0,
0,
0,
0,
0,
0,
0,
0,
0,
0,
0,
0,
0,
0,
0,
0,
0,
0,
0,
0,
0,
0,
0,
0,
0,
0,
0,
0,
0,
0,
0,
0,
0,
0,
0,
0,
0,
0,
0,
0,
0,
0,
0,
0,
0,
0,
0,
0,
0,
0,
0,
0,
0,
0,
0,
0,
0,
0,
0,
0,
0,
0,
0,
0,
0,
0,
0,
0,
0,
0,
0,
0,
0,
0,
0,
0,
0,
0,
0,
0,
0,
0,
0,
0,
0,
0,
0,
0,
0,
0,
0,
0,
0,
0,
0,
0,
0,
0,
0,
0,
0,
0,
0,
0,
0,
0,
0,
0,
0,
0,
0,
0,
0,
0,
0,
0,
0,
0,
0,
0,
0,
0,
0,
0,
0,
0,
0,
0,
0,
0,
0,
0,
0,
0,
0,
0,
0,
0,
0,
0,
0,
0,
0,
0,
0,
0,
0,
0,
0,
0,
0,
0,
0,
0,
0,
0,
0,
0,
0,
0,
0,
0,
0,
0,
0,
0,
0,
0,
0,
0,
0,
0,
0,
0,
0,
0,
0,
0,
0,
0,
0,
0,
0,
0,
0,
0,
0,
0,
0,
0,
0,
0,
0,
0,
0,
0,
0,
0,
0,
0,
0,
0,
0,
0,
0,
0,
0,
0,
0,
0,
0,
0,
0,
0,
0,
0,
0,
0,
0,
0,
0,
0,
0,
0,
0,
0,
0,
0,
0,
0,
0,
0,
0,
0,
0,
0,
0,
0,
0,
0,
0,
0,
0,
0,
0,
0,
0,
0,
0,
0,
0,
0,
0,
0,
0,
0,
0,
0,
0,
0,
0,
0,
0,
0,
0,
0,
0,
0,
0,
0,
0,
0,
0,
0,
0,
0,
0,
0,
0,
0,
0,
0,
0,
0,
0,
0,
0,
0,
0,
0,
0,
0,
0,
0,
0,
0,
0,
0,
0,
0,
0,
0,
0,
0,
0,
0,
0,
0,
0,
0,
0,
0,
0,
0,
0,
0,
0,
0,
0,
0,
0,
0,
0,
0,
0,
0,
0,
0,
0,
0,
0,
0,
0,
#ENDOFDATA   :