File: N132962/Quantification/20 keV/MMM2/SPI MM2 Uvarovite[1][4].msa
#FORMAT      : EMSA/MAS Spectral Data File
#VERSION     : 1.0
#TITLE       : SPI MM2 Uvarovite[1][all]
#DATE        : 13-MAR-2025
#TIME        : 14:13
#OWNER       : Unknown
#NPOINTS     : 4096
#NCOLUMNS    : 1
#XUNITS      : eV
#YUNITS      : counts
#DATATYPE    : Y
#XPERCHAN    : 9.99778
#OFFSET      : 1.69135
#BEAMKV      : 20
#SIGNALTYPE  : EDS
#ELEVANGLE   : 35
#AZIMANGLE   : 0
#LIVETIME    : 239.897
#REALTIME    : 255.395
#PROBECUR    : 1.02609
#TAUWIND     : 0
#TDEADLYR    : 0
#TACTLYR     : 0.045
#TALWIND     : 0.025
#CHOFFSET    : 0.0
#XLABEL      : Energy (eV)
#YLABEL      : Counts
#XPOSITION   : 5.73735
#YPOSITION   : 6.33131
#ZPOSITION   : 31.03511
#EDSDET      : SD
##SPECIMEN   : SPI MM2 Uvarovite[1][all]
##DET_HASH   : 12273538-fd48-a23f-0a19-f1e6fa85caef
##CALIB_HASH : 6abaa72c-aa41-8738-0be9-f592914732f3
##WORKING    : 15.0 mm
##DET_NAME   : EDAX All
##DET_MODE   : MediumLE
#SPECTRUM    :
22,
22,
4,
27,
72,
319,
910,
3221,
9514,
14190,
9692,
4955,
3249,
2933,
4139,
12690,
46233,
88333,
66206,
19956,
4669,
2234,
2239,
2660,
2560,
2230,
2116,
2244,
2433,
2638,
2573,
2772,
2944,
3059,
3197,
3311,
3309,
3467,
3611,
3748,
3837,
4122,
4224,
4331,
4394,
4389,
4984,
7243,
15927,
28639,
29375,
17372,
8411,
5878,
5941,
12656,
43709,
109416,
149285,
105663,
43593,
16143,
8354,
5451,
4699,
4553,
4177,
3769,
3334,
3357,
3400,
3363,
3294,
3297,
3443,
3556,
3571,
3480,
3328,
3254,
3316,
3331,
3297,
3238,
3121,
3228,
3140,
3123,
3164,
3072,
2986,
3165,
3104,
3063,
3005,
3015,
2818,
3019,
2905,
2980,
2926,
3078,
2881,
2974,
2975,
2856,
2926,
2866,
2878,
2851,
2852,
2738,
2725,
2700,
2688,
2831,
3030,
3559,
4386,
7773,
19764,
50072,
93331,
118911,
99608,
56113,
22101,
7432,
3483,
3059,
3735,
5756,
10100,
14867,
16237,
13069,
7802,
4341,
2548,
2058,
1957,
2029,
1964,
1886,
1917,
1842,
1967,
2274,
2747,
3675,
4251,
4239,
3223,
2474,
1914,
1851,
1705,
1742,
1681,
1678,
1708,
1624,
1972,
2160,
2428,
2512,
2358,
2099,
1766,
1698,
1561,
1561,
1642,
1696,
1822,
2121,
3221,
6740,
14180,
24644,
31493,
30847,
22174,
12320,
5505,
2621,
1719,
1433,
1426,
1440,
1405,
1414,
1466,
1558,
1800,
2470,
3439,
4619,
5304,
4919,
3647,
2512,
1753,
1370,
1229,
1196,
1225,
1193,
1254,
1311,
1589,
2047,
2554,
2928,
2768,
2285,
1737,
1391,
1199,
1123,
1080,
1105,
1053,
1038,
1121,
1070,
1044,
1003,
1009,
1021,
1038,
1024,
1120,
1169,
1156,
1163,
1221,
1233,
1140,
997,
1021,
941,
960,
988,
961,
989,
1033,
992,
992,
1008,
940,
940,
952,
902,
891,
902,
888,
896,
821,
890,
842,
826,
796,
777,
779,
815,
795,
787,
763,
779,
766,
800,
796,
765,
743,
767,
731,
732,
713,
732,
721,
728,
659,
647,
715,
714,
710,
707,
694,
683,
677,
684,
705,
658,
630,
664,
645,
635,
622,
635,
667,
638,
609,
652,
625,
668,
650,
641,
609,
571,
597,
577,
581,
610,
589,
537,
551,
571,
620,
547,
567,
541,
531,
567,
516,
572,
507,
548,
507,
498,
550,
474,
493,
512,
506,
488,
491,
471,
507,
498,
494,
478,
477,
449,
451,
475,
430,
477,
457,
468,
466,
423,
416,
429,
432,
391,
385,
420,
391,
447,
441,
392,
397,
440,
395,
424,
396,
424,
345,
388,
361,
390,
361,
354,
365,
378,
379,
344,
365,
344,
346,
365,
366,
339,
348,
320,
338,
331,
308,
342,
309,
321,
302,
301,
291,
304,
287,
305,
297,
259,
259,
284,
286,
276,
268,
270,
279,
260,
235,
271,
284,
260,
231,
277,
263,
254,
241,
248,
271,
237,
257,
242,
247,
225,
236,
250,
220,
230,
206,
234,
212,
249,
232,
228,
236,
193,
191,
241,
182,
215,
205,
211,
214,
202,
162,
196,
201,
209,
166,
187,
154,
184,
153,
183,
165,
180,
170,
168,
155,
163,
178,
165,
151,
148,
168,
141,
124,
164,
142,
138,
144,
156,
155,
146,
133,
147,
132,
104,
124,
145,
153,
133,
144,
124,
123,
132,
126,
105,
108,
128,
117,
126,
106,
105,
98,
96,
116,
90,
106,
105,
112,
96,
102,
77,
98,
95,
88,
103,
77,
92,
99,
86,
95,
79,
86,
85,
81,
97,
83,
70,
71,
73,
67,
78,
84,
57,
64,
61,
69,
75,
63,
69,
65,
62,
81,
66,
59,
79,
60,
67,
60,
68,
52,
69,
49,
44,
58,
68,
56,
41,
42,
61,
62,
47,
57,
51,
40,
40,
36,
42,
44,
42,
39,
53,
60,
34,
28,
30,
40,
37,
28,
33,
28,
39,
25,
45,
37,
32,
36,
40,
27,
37,
32,
21,
32,
27,
25,
20,
31,
31,
21,
21,
18,
25,
22,
24,
25,
18,
23,
23,
18,
18,
21,
30,
26,
12,
24,
20,
12,
14,
17,
16,
17,
8,
19,
18,
15,
17,
13,
19,
10,
19,
15,
9,
13,
9,
18,
9,
10,
14,
12,
3,
12,
10,
9,
9,
11,
9,
11,
11,
7,
5,
4,
7,
10,
6,
8,
7,
2,
6,
4,
3,
6,
1,
5,
2,
0,
1,
3,
2,
1,
0,
1,
0,
2,
0,
0,
0,
0,
0,
0,
0,
0,
0,
0,
0,
0,
1,
1,
0,
0,
0,
0,
0,
0,
0,
0,
0,
0,
0,
0,
2,
2,
0,
0,
0,
0,
1,
0,
1,
0,
0,
0,
0,
0,
0,
0,
0,
0,
0,
0,
0,
0,
0,
0,
1,
0,
0,
0,
0,
0,
0,
1,
0,
0,
0,
0,
0,
0,
0,
0,
0,
0,
2,
0,
0,
0,
0,
0,
0,
0,
1,
0,
0,
0,
0,
0,
0,
1,
0,
0,
0,
0,
0,
0,
0,
1,
0,
0,
0,
0,
0,
0,
0,
0,
0,
0,
0,
0,
0,
0,
0,
0,
0,
0,
0,
0,
1,
0,
0,
0,
0,
0,
0,
0,
0,
0,
0,
0,
0,
0,
0,
0,
0,
0,
0,
0,
0,
0,
0,
0,
0,
0,
0,
0,
0,
0,
0,
0,
0,
0,
0,
0,
0,
0,
0,
0,
0,
0,
1,
0,
0,
0,
0,
0,
0,
0,
0,
0,
0,
0,
0,
0,
0,
0,
0,
0,
0,
0,
0,
0,
0,
0,
1,
0,
0,
0,
0,
0,
0,
0,
0,
0,
0,
0,
0,
0,
0,
0,
0,
0,
0,
0,
0,
0,
0,
0,
0,
0,
0,
0,
0,
0,
0,
0,
0,
0,
0,
0,
0,
0,
0,
0,
0,
0,
0,
0,
0,
0,
0,
0,
0,
0,
0,
0,
0,
0,
0,
0,
0,
0,
0,
0,
0,
0,
0,
0,
0,
0,
0,
0,
0,
0,
0,
0,
0,
0,
1,
0,
0,
0,
0,
0,
0,
0,
0,
0,
0,
0,
0,
0,
0,
0,
0,
0,
0,
0,
0,
0,
0,
0,
0,
0,
0,
0,
0,
0,
0,
0,
0,
0,
0,
0,
0,
0,
0,
0,
0,
0,
0,
0,
0,
0,
0,
0,
0,
0,
0,
0,
0,
0,
0,
0,
0,
0,
0,
0,
0,
0,
0,
0,
0,
0,
0,
0,
0,
0,
0,
0,
0,
0,
0,
0,
0,
0,
0,
0,
0,
0,
0,
0,
0,
0,
0,
0,
0,
0,
0,
0,
0,
0,
0,
0,
0,
0,
0,
0,
0,
0,
0,
0,
0,
0,
0,
0,
0,
0,
0,
0,
0,
0,
0,
0,
0,
0,
0,
0,
0,
0,
0,
0,
0,
0,
0,
0,
0,
0,
0,
0,
0,
0,
0,
0,
0,
0,
0,
0,
0,
0,
0,
0,
0,
0,
0,
0,
0,
0,
0,
0,
0,
0,
0,
0,
0,
0,
0,
0,
0,
0,
0,
0,
0,
0,
0,
0,
0,
0,
0,
0,
0,
0,
0,
0,
0,
0,
0,
0,
0,
0,
0,
0,
0,
0,
0,
0,
0,
0,
0,
0,
0,
0,
0,
0,
0,
0,
0,
0,
0,
0,
0,
0,
0,
0,
0,
0,
0,
0,
0,
0,
0,
0,
0,
0,
0,
0,
0,
0,
0,
0,
0,
0,
0,
0,
0,
0,
0,
0,
0,
0,
0,
0,
0,
0,
0,
0,
0,
0,
0,
0,
0,
0,
0,
0,
0,
0,
0,
0,
0,
0,
0,
0,
0,
0,
0,
0,
0,
0,
0,
0,
0,
0,
0,
0,
0,
0,
0,
0,
0,
0,
0,
0,
0,
0,
0,
0,
0,
0,
0,
0,
0,
0,
0,
0,
0,
0,
0,
0,
0,
0,
0,
0,
0,
0,
0,
0,
0,
0,
0,
0,
0,
0,
0,
0,
0,
0,
0,
0,
0,
0,
0,
0,
0,
0,
0,
0,
0,
0,
0,
0,
0,
0,
0,
0,
0,
0,
0,
0,
0,
0,
0,
0,
0,
0,
0,
0,
0,
0,
0,
0,
0,
0,
0,
0,
0,
0,
0,
0,
0,
0,
0,
0,
0,
0,
0,
0,
0,
0,
0,
0,
0,
0,
0,
0,
0,
0,
0,
0,
0,
0,
0,
0,
0,
0,
0,
0,
0,
0,
0,
0,
0,
0,
0,
0,
0,
0,
0,
0,
0,
0,
0,
0,
0,
0,
0,
0,
0,
0,
0,
0,
0,
0,
0,
0,
0,
0,
0,
0,
0,
0,
0,
0,
0,
0,
0,
0,
0,
0,
0,
0,
0,
0,
0,
0,
0,
0,
0,
0,
0,
0,
0,
0,
0,
0,
0,
0,
0,
0,
0,
0,
0,
0,
0,
0,
0,
0,
0,
#ENDOFDATA   :