File: N132962/Quantification/20 keV/MMM2/SPI MM2 SPI Pentlandite[5][4].msa
#FORMAT      : EMSA/MAS Spectral Data File
#VERSION     : 1.0
#TITLE       : SPI MM2 SPI Pentlandite[5][all]
#DATE        : 13-MAR-2025
#TIME        : 10:37
#OWNER       : Unknown
#NPOINTS     : 4096
#NCOLUMNS    : 1
#XUNITS      : eV
#YUNITS      : counts
#DATATYPE    : Y
#XPERCHAN    : 9.99778
#OFFSET      : 1.69135
#BEAMKV      : 20
#SIGNALTYPE  : EDS
#ELEVANGLE   : 35
#AZIMANGLE   : 0
#LIVETIME    : 239.963
#REALTIME    : 260.265
#PROBECUR    : 1.02606
#TAUWIND     : 0
#TDEADLYR    : 0
#TACTLYR     : 0.045
#TALWIND     : 0.025
#CHOFFSET    : 0.0
#XLABEL      : Energy (eV)
#YLABEL      : Counts
#XPOSITION   : 3.94259
#YPOSITION   : -0.30857
#ZPOSITION   : 31.0351
#EDSDET      : SD
##SPECIMEN   : SPI MM2 SPI Pentlandite[5][all]
##D2STDCMP   : SPI Pentlandite,(S:32.89),(Fe:30.88),(Co:0.43),(Ni:35.61)
##DET_HASH   : 12273538-fd48-a23f-0a19-f1e6fa85caef
##CALIB_HASH : 6abaa72c-aa41-8738-0be9-f592914732f3
##WORKING    : 15.0 mm
##DET_NAME   : EDAX All
##DET_MODE   : MediumLE
#SPECTRUM    :
32,
31,
12,
31,
231,
596,
1241,
3431,
10066,
13415,
6741,
2727,
2676,
2984,
3245,
4109,
5379,
7477,
10837,
14962,
17901,
18903,
28321,
47191,
44372,
23693,
17342,
35417,
63151,
53083,
21017,
6585,
3915,
3395,
3181,
3269,
3308,
3538,
3427,
3676,
3855,
4022,
4142,
4283,
4439,
4506,
4544,
4756,
4905,
5106,
5142,
5230,
5249,
5270,
5123,
5340,
5624,
5930,
6149,
6271,
5984,
5767,
5367,
5259,
5254,
5312,
5517,
5613,
5617,
5692,
5682,
6280,
8044,
13712,
32002,
86344,
175693,
218982,
160970,
70392,
25425,
18096,
19919,
17217,
10571,
5850,
4221,
3764,
3801,
3841,
3745,
3745,
3694,
3822,
3824,
3876,
3884,
3888,
3852,
3891,
3913,
3921,
3822,
3775,
3793,
3861,
3753,
3809,
3747,
3670,
3693,
3575,
3664,
3638,
3604,
3591,
3513,
3588,
3478,
3506,
3485,
3487,
3443,
3543,
3477,
3371,
3468,
3378,
3529,
3379,
3401,
3357,
3340,
3427,
3242,
3299,
3241,
3272,
3262,
3164,
3223,
3216,
3224,
3162,
3087,
3209,
3045,
3069,
3116,
3008,
3076,
3011,
3112,
3262,
3390,
3348,
3297,
3096,
2941,
2995,
2909,
2901,
2818,
2757,
2770,
2732,
2826,
2727,
2719,
2695,
2641,
2801,
2637,
2617,
2724,
2589,
2653,
2649,
2576,
2505,
2664,
2561,
2554,
2460,
2614,
2496,
2453,
2557,
2394,
2440,
2419,
2474,
2384,
2452,
2304,
2343,
2252,
2331,
2297,
2306,
2271,
2217,
2241,
2278,
2289,
2345,
2426,
2747,
4009,
7747,
17323,
33675,
52510,
64333,
60618,
43818,
25029,
11707,
5125,
2892,
2189,
2013,
1948,
2009,
1998,
1958,
1980,
2108,
2340,
2787,
3171,
4059,
5276,
7130,
9142,
9940,
8977,
6944,
4650,
3089,
2320,
1899,
1896,
2508,
4324,
9042,
17789,
30812,
43092,
47938,
42615,
30232,
17521,
8487,
4016,
2274,
1755,
1623,
1498,
1426,
1436,
1462,
1439,
1469,
1413,
1441,
1465,
1532,
1522,
1570,
1927,
2309,
3277,
4890,
6406,
7299,
7096,
5780,
4176,
2606,
1825,
1393,
1246,
1121,
1108,
1130,
1120,
1213,
1278,
1224,
1214,
1250,
1245,
1195,
1134,
1117,
1026,
1051,
1008,
1097,
1113,
1018,
1073,
1079,
1016,
1020,
1007,
1083,
1020,
1017,
1053,
1002,
1005,
1005,
996,
982,
969,
941,
953,
987,
983,
984,
966,
1022,
1042,
1008,
1010,
1009,
970,
927,
924,
875,
893,
907,
901,
836,
821,
879,
853,
836,
777,
834,
865,
814,
862,
811,
784,
804,
860,
818,
835,
769,
756,
787,
775,
753,
773,
725,
769,
751,
728,
738,
736,
720,
767,
692,
770,
686,
653,
660,
666,
683,
698,
652,
660,
639,
643,
634,
691,
599,
612,
619,
641,
573,
618,
604,
654,
596,
623,
563,
570,
572,
542,
559,
570,
562,
588,
557,
533,
574,
530,
508,
532,
480,
546,
517,
499,
536,
505,
504,
440,
493,
465,
512,
464,
453,
464,
488,
477,
438,
425,
475,
450,
438,
489,
464,
431,
480,
430,
451,
450,
401,
420,
416,
433,
378,
418,
414,
349,
392,
395,
369,
341,
333,
371,
338,
362,
374,
366,
341,
366,
340,
327,
315,
361,
307,
309,
347,
359,
356,
321,
319,
312,
294,
304,
328,
321,
282,
265,
300,
284,
278,
266,
253,
259,
268,
279,
256,
256,
243,
225,
269,
266,
259,
234,
218,
211,
224,
224,
245,
211,
233,
239,
214,
225,
213,
239,
194,
175,
184,
210,
211,
217,
189,
199,
207,
195,
193,
194,
186,
185,
168,
184,
166,
160,
164,
157,
174,
144,
161,
179,
162,
167,
132,
146,
173,
155,
165,
142,
112,
118,
145,
135,
127,
147,
139,
112,
126,
119,
120,
124,
139,
118,
125,
120,
119,
106,
89,
112,
118,
94,
115,
89,
102,
93,
98,
104,
88,
81,
106,
97,
104,
95,
99,
89,
86,
82,
91,
81,
74,
88,
84,
71,
63,
84,
89,
85,
82,
71,
72,
57,
73,
49,
68,
72,
49,
50,
54,
45,
57,
52,
55,
44,
55,
57,
50,
53,
46,
43,
37,
48,
29,
38,
50,
41,
47,
47,
48,
49,
29,
31,
26,
35,
43,
38,
28,
38,
30,
29,
30,
31,
21,
27,
30,
30,
24,
25,
23,
20,
25,
20,
22,
18,
20,
19,
16,
16,
18,
8,
15,
11,
15,
15,
20,
17,
13,
17,
11,
9,
10,
11,
7,
9,
7,
6,
7,
8,
6,
5,
5,
4,
2,
4,
1,
5,
2,
0,
2,
2,
1,
1,
2,
0,
3,
2,
2,
1,
1,
3,
3,
0,
0,
0,
0,
2,
2,
0,
1,
2,
2,
2,
2,
3,
2,
1,
1,
2,
2,
1,
0,
1,
1,
2,
0,
2,
0,
0,
2,
0,
1,
0,
0,
1,
0,
0,
3,
1,
1,
1,
1,
1,
0,
1,
0,
1,
1,
1,
0,
1,
1,
1,
1,
0,
0,
1,
1,
0,
0,
0,
0,
0,
2,
1,
0,
0,
0,
0,
0,
0,
0,
0,
0,
0,
1,
0,
0,
1,
2,
0,
0,
0,
0,
0,
0,
0,
1,
0,
1,
0,
0,
0,
0,
1,
0,
1,
0,
1,
0,
0,
0,
1,
0,
0,
0,
0,
0,
1,
1,
0,
1,
0,
1,
0,
0,
0,
1,
0,
0,
0,
0,
0,
0,
1,
0,
0,
0,
0,
0,
0,
0,
1,
0,
0,
0,
0,
0,
0,
0,
0,
0,
0,
1,
0,
1,
0,
0,
0,
0,
0,
0,
0,
0,
2,
1,
1,
0,
1,
0,
1,
0,
0,
0,
0,
1,
0,
0,
0,
0,
0,
0,
1,
0,
1,
0,
0,
0,
1,
0,
0,
0,
0,
0,
0,
0,
1,
0,
0,
0,
0,
0,
0,
0,
0,
0,
1,
0,
0,
0,
0,
0,
0,
0,
0,
0,
0,
0,
1,
0,
0,
0,
0,
0,
0,
0,
0,
0,
0,
0,
0,
0,
0,
0,
0,
0,
0,
0,
1,
0,
0,
0,
0,
0,
0,
0,
0,
0,
0,
0,
0,
0,
0,
0,
0,
1,
0,
0,
0,
0,
0,
0,
0,
0,
0,
0,
0,
0,
0,
0,
0,
0,
0,
0,
0,
0,
0,
0,
0,
0,
0,
0,
0,
0,
0,
0,
0,
0,
0,
0,
0,
0,
0,
0,
0,
0,
0,
0,
0,
0,
0,
0,
0,
0,
0,
1,
0,
0,
0,
0,
0,
0,
0,
0,
0,
0,
0,
0,
0,
0,
0,
0,
0,
0,
0,
0,
1,
0,
0,
0,
0,
0,
0,
0,
0,
0,
0,
0,
0,
0,
0,
0,
0,
0,
0,
0,
0,
0,
0,
0,
0,
0,
0,
0,
0,
0,
0,
0,
0,
0,
0,
0,
0,
0,
0,
0,
0,
0,
0,
0,
0,
0,
0,
0,
0,
0,
0,
0,
0,
0,
0,
0,
0,
0,
0,
0,
0,
0,
0,
0,
0,
0,
0,
0,
0,
0,
0,
0,
0,
0,
0,
0,
0,
0,
0,
0,
0,
0,
0,
0,
0,
0,
0,
0,
0,
0,
0,
0,
0,
0,
0,
0,
0,
0,
0,
0,
0,
0,
0,
0,
0,
0,
0,
0,
0,
0,
0,
0,
0,
0,
0,
0,
0,
0,
0,
0,
0,
0,
0,
0,
0,
0,
0,
0,
0,
0,
0,
0,
0,
0,
0,
0,
0,
0,
0,
0,
0,
0,
0,
0,
0,
0,
0,
0,
0,
0,
0,
0,
0,
0,
0,
0,
0,
0,
0,
0,
0,
0,
0,
0,
0,
0,
0,
0,
0,
0,
0,
0,
0,
0,
0,
0,
0,
0,
0,
0,
0,
0,
0,
0,
0,
0,
0,
0,
0,
0,
0,
0,
0,
0,
0,
0,
0,
0,
0,
0,
0,
0,
0,
0,
0,
0,
0,
0,
0,
0,
0,
0,
0,
0,
0,
0,
0,
0,
0,
0,
0,
0,
0,
0,
0,
0,
0,
0,
0,
0,
0,
0,
0,
0,
0,
0,
0,
0,
0,
0,
0,
0,
0,
0,
0,
0,
0,
0,
0,
0,
0,
0,
0,
0,
0,
0,
0,
0,
0,
0,
0,
0,
0,
0,
0,
0,
0,
0,
0,
0,
0,
0,
0,
0,
0,
0,
0,
0,
0,
0,
0,
0,
0,
0,
0,
0,
0,
0,
0,
0,
0,
0,
0,
0,
0,
0,
0,
0,
0,
0,
0,
0,
0,
0,
0,
0,
0,
0,
0,
0,
0,
0,
0,
0,
0,
0,
0,
0,
0,
0,
0,
0,
0,
0,
0,
0,
0,
0,
0,
0,
0,
0,
0,
0,
0,
0,
0,
0,
0,
0,
0,
0,
0,
0,
0,
0,
0,
0,
0,
0,
0,
0,
0,
0,
0,
0,
0,
0,
0,
0,
0,
0,
0,
0,
0,
0,
0,
0,
0,
0,
0,
0,
#ENDOFDATA   :