File: N132962/Quantification/20 keV/MMM2/SPI MM2 SPI Phlogpite[6][4].msa
#FORMAT      : EMSA/MAS Spectral Data File
#VERSION     : 1.0
#TITLE       : SPI MM2 SPI Phlogpite[6][all]
#DATE        : 13-MAR-2025
#TIME        : 10:48
#OWNER       : Unknown
#NPOINTS     : 4096
#NCOLUMNS    : 1
#XUNITS      : eV
#YUNITS      : counts
#DATATYPE    : Y
#XPERCHAN    : 9.99778
#OFFSET      : 1.69135
#BEAMKV      : 20
#SIGNALTYPE  : EDS
#ELEVANGLE   : 35
#AZIMANGLE   : 0
#LIVETIME    : 239.787
#REALTIME    : 254.641
#PROBECUR    : 1.02606
#TAUWIND     : 0
#TDEADLYR    : 0
#TACTLYR     : 0.045
#TALWIND     : 0.025
#CHOFFSET    : 0.0
#XLABEL      : Energy (eV)
#YLABEL      : Counts
#XPOSITION   : 1.44959
#YPOSITION   : -0.58126
#ZPOSITION   : 31.0351
#EDSDET      : SD
##SPECIMEN   : SPI MM2 SPI Phlogpite[6][all]
##D2STDCMP   : SPI Phlogpite,(H:0.48),(O:46.01),(Mg:17.47),(Al:6.47),(Si:20.19),(K:9.37)
##DET_HASH   : 12273538-fd48-a23f-0a19-f1e6fa85caef
##CALIB_HASH : 6abaa72c-aa41-8738-0be9-f592914732f3
##WORKING    : 15.0 mm
##DET_NAME   : EDAX All
##DET_MODE   : MediumLE
#SPECTRUM    :
20,
23,
8,
10,
59,
290,
938,
3229,
9140,
11660,
5670,
2494,
2524,
3038,
5403,
19261,
78171,
152644,
111984,
29911,
5000,
3212,
5045,
7027,
6313,
3745,
2713,
2602,
2746,
2847,
2854,
3022,
3456,
4488,
6575,
7118,
5512,
4543,
5208,
10577,
36418,
90388,
108953,
61425,
18887,
5930,
4535,
8489,
24122,
47040,
47758,
26056,
10612,
5828,
5093,
10932,
40495,
102711,
139249,
99127,
40659,
14563,
7159,
4048,
2882,
2516,
2520,
2479,
2449,
2367,
2542,
2489,
2472,
2506,
2677,
2802,
2833,
2729,
2545,
2507,
2532,
2539,
2617,
2509,
2530,
2532,
2473,
2507,
2537,
2554,
2503,
2446,
2494,
2363,
2400,
2432,
2445,
2355,
2506,
2499,
2543,
2330,
2277,
2274,
2436,
2590,
3246,
5121,
11584,
24326,
37256,
37273,
24533,
11494,
4648,
2721,
2604,
3210,
4395,
5971,
6163,
5064,
3454,
2582,
2103,
1883,
1838,
1883,
1827,
1855,
1858,
1786,
1738,
1708,
1697,
1676,
1695,
1692,
1603,
1623,
1580,
1653,
1667,
1653,
1584,
1670,
1752,
1995,
2359,
2583,
2638,
2386,
1961,
1764,
1597,
1541,
1555,
1524,
1574,
1618,
1762,
1797,
1744,
1729,
1635,
1554,
1483,
1445,
1449,
1418,
1436,
1419,
1425,
1365,
1284,
1323,
1319,
1315,
1240,
1277,
1297,
1296,
1294,
1294,
1249,
1195,
1203,
1160,
1245,
1126,
1127,
1201,
1100,
1213,
1207,
1309,
1331,
1351,
1302,
1177,
1127,
1085,
1050,
1064,
1094,
978,
1047,
997,
1262,
1805,
3104,
5473,
8083,
10046,
9304,
7063,
4317,
2327,
1324,
1033,
906,
1004,
904,
934,
959,
963,
916,
877,
888,
867,
987,
1067,
1149,
1530,
1878,
1887,
1873,
1540,
1253,
906,
858,
751,
811,
785,
815,
777,
801,
800,
796,
837,
839,
769,
777,
749,
736,
696,
681,
725,
721,
677,
671,
675,
659,
697,
651,
696,
656,
621,
639,
622,
665,
665,
597,
642,
616,
604,
649,
628,
590,
564,
594,
588,
579,
599,
596,
562,
550,
575,
588,
599,
531,
517,
559,
527,
562,
535,
555,
530,
524,
513,
529,
512,
511,
526,
502,
462,
481,
532,
453,
475,
461,
491,
441,
447,
454,
469,
488,
410,
426,
433,
456,
445,
441,
395,
416,
416,
441,
434,
390,
404,
441,
405,
390,
431,
383,
364,
421,
364,
368,
418,
381,
368,
406,
354,
404,
348,
357,
372,
368,
362,
370,
357,
350,
364,
364,
353,
321,
320,
315,
340,
320,
308,
294,
282,
298,
316,
340,
345,
299,
289,
251,
289,
279,
286,
310,
299,
326,
278,
292,
285,
240,
291,
298,
262,
249,
267,
272,
256,
228,
237,
240,
246,
232,
243,
230,
254,
225,
225,
232,
228,
228,
242,
241,
234,
239,
214,
204,
205,
222,
198,
230,
186,
220,
210,
196,
184,
212,
183,
176,
201,
186,
200,
182,
189,
179,
158,
157,
185,
176,
155,
181,
149,
194,
146,
167,
151,
162,
161,
166,
155,
140,
147,
151,
152,
141,
159,
154,
131,
133,
120,
135,
131,
140,
135,
135,
116,
133,
126,
129,
114,
146,
113,
112,
105,
110,
124,
117,
114,
124,
110,
116,
90,
110,
114,
106,
106,
101,
111,
101,
69,
93,
75,
90,
92,
97,
72,
95,
91,
76,
102,
72,
68,
91,
89,
90,
81,
89,
78,
90,
80,
79,
86,
85,
77,
70,
66,
72,
62,
67,
79,
59,
62,
57,
62,
62,
69,
68,
59,
53,
55,
52,
63,
59,
61,
65,
51,
62,
47,
50,
49,
68,
44,
43,
57,
39,
44,
57,
52,
44,
45,
48,
51,
34,
44,
36,
33,
34,
38,
53,
44,
38,
37,
34,
33,
38,
36,
28,
34,
40,
29,
38,
46,
24,
41,
50,
38,
31,
28,
24,
21,
33,
28,
19,
26,
27,
24,
26,
21,
18,
22,
18,
20,
23,
19,
19,
16,
32,
19,
22,
16,
15,
14,
22,
20,
15,
18,
22,
15,
14,
14,
12,
11,
17,
12,
13,
16,
12,
14,
10,
13,
14,
7,
12,
13,
7,
12,
9,
12,
13,
10,
5,
11,
9,
5,
7,
8,
11,
6,
6,
7,
6,
9,
7,
2,
2,
6,
5,
5,
2,
5,
6,
6,
2,
3,
5,
4,
5,
3,
1,
5,
6,
3,
0,
2,
4,
3,
4,
3,
0,
4,
0,
1,
3,
1,
2,
0,
1,
0,
1,
0,
0,
0,
0,
0,
0,
0,
0,
0,
0,
0,
0,
0,
0,
0,
0,
0,
0,
0,
0,
0,
0,
0,
0,
0,
0,
0,
0,
0,
0,
0,
0,
0,
0,
1,
0,
0,
1,
0,
1,
0,
0,
0,
1,
0,
0,
0,
0,
0,
0,
0,
0,
0,
1,
0,
0,
0,
0,
0,
0,
0,
0,
0,
0,
0,
0,
1,
0,
0,
1,
0,
0,
0,
0,
0,
0,
0,
0,
0,
0,
0,
0,
0,
1,
0,
0,
0,
0,
0,
0,
0,
0,
0,
0,
0,
0,
0,
0,
0,
0,
0,
0,
0,
0,
0,
0,
0,
0,
0,
0,
0,
0,
0,
0,
0,
0,
0,
0,
0,
0,
0,
0,
0,
0,
0,
0,
0,
0,
0,
0,
0,
0,
0,
0,
0,
0,
1,
0,
0,
0,
0,
0,
0,
0,
0,
0,
0,
0,
0,
0,
0,
0,
0,
0,
0,
0,
0,
0,
0,
0,
0,
0,
0,
0,
0,
0,
0,
1,
0,
0,
0,
0,
0,
0,
0,
0,
0,
0,
0,
0,
0,
0,
0,
0,
0,
0,
0,
0,
0,
0,
0,
0,
0,
0,
0,
0,
0,
0,
0,
0,
0,
0,
0,
0,
0,
0,
0,
0,
0,
0,
0,
0,
0,
0,
0,
0,
0,
0,
0,
0,
0,
0,
0,
0,
0,
0,
0,
0,
0,
0,
0,
0,
0,
0,
0,
0,
0,
0,
0,
0,
0,
0,
0,
0,
0,
0,
0,
0,
0,
0,
0,
0,
0,
0,
0,
0,
0,
0,
0,
0,
0,
0,
0,
0,
0,
0,
0,
0,
0,
0,
0,
0,
0,
0,
0,
0,
0,
0,
0,
0,
0,
0,
0,
0,
0,
0,
0,
0,
0,
0,
0,
0,
0,
0,
0,
0,
0,
0,
0,
0,
0,
0,
0,
0,
0,
0,
0,
0,
0,
0,
0,
0,
0,
0,
0,
0,
0,
0,
0,
0,
0,
0,
0,
0,
0,
0,
0,
0,
0,
0,
0,
0,
0,
0,
0,
0,
0,
0,
0,
0,
0,
0,
0,
0,
0,
0,
0,
0,
0,
0,
0,
0,
0,
0,
0,
0,
0,
0,
0,
0,
0,
0,
0,
0,
0,
0,
0,
0,
0,
0,
0,
0,
0,
0,
0,
0,
0,
0,
0,
0,
0,
0,
0,
0,
0,
0,
0,
0,
0,
0,
0,
0,
0,
0,
0,
0,
0,
0,
0,
0,
0,
0,
0,
0,
0,
0,
0,
0,
0,
0,
0,
0,
0,
0,
0,
0,
0,
0,
0,
0,
0,
0,
0,
0,
0,
0,
0,
0,
0,
0,
0,
0,
0,
0,
0,
0,
0,
0,
0,
0,
0,
0,
0,
0,
0,
0,
0,
0,
0,
0,
0,
0,
0,
0,
0,
0,
0,
0,
0,
0,
0,
0,
0,
0,
0,
0,
0,
0,
0,
0,
0,
0,
0,
0,
0,
0,
0,
0,
0,
0,
0,
0,
0,
0,
0,
0,
0,
0,
0,
0,
0,
0,
0,
0,
0,
0,
0,
0,
0,
0,
0,
0,
0,
0,
0,
0,
0,
0,
0,
0,
0,
0,
0,
0,
0,
0,
0,
0,
0,
0,
0,
0,
0,
0,
0,
0,
0,
0,
0,
0,
0,
0,
0,
0,
0,
0,
0,
0,
0,
0,
0,
0,
0,
0,
0,
0,
0,
0,
0,
0,
0,
0,
0,
0,
0,
0,
0,
0,
0,
0,
0,
0,
0,
0,
0,
0,
0,
0,
0,
0,
0,
0,
0,
0,
0,
0,
0,
0,
0,
0,
0,
0,
0,
0,
0,
0,
0,
0,
0,
0,
0,
0,
0,
0,
0,
0,
0,
0,
0,
0,
0,
0,
0,
0,
0,
0,
0,
0,
0,
0,
0,
0,
0,
0,
0,
0,
0,
0,
0,
0,
0,
0,
0,
0,
0,
0,
0,
0,
0,
0,
0,
0,
0,
0,
0,
0,
0,
0,
0,
0,
0,
0,
0,
0,
0,
0,
0,
0,
0,
0,
0,
0,
0,
0,
0,
0,
0,
0,
0,
0,
0,
0,
0,
0,
0,
0,
0,
0,
0,
0,
0,
0,
0,
0,
0,
0,
0,
0,
0,
0,
0,
0,
0,
0,
0,
0,
0,
0,
0,
0,
0,
0,
0,
0,
0,
0,
0,
#ENDOFDATA   :