File: N132962/Quantification/20 keV/MMM2/SPI MM2 Sphodumene[1][4].msa
#FORMAT      : EMSA/MAS Spectral Data File
#VERSION     : 1.0
#TITLE       : SPI MM2 Sphodumene[1][all]
#DATE        : 13-MAR-2025
#TIME        : 13:08
#OWNER       : Unknown
#NPOINTS     : 4096
#NCOLUMNS    : 1
#XUNITS      : eV
#YUNITS      : counts
#DATATYPE    : Y
#XPERCHAN    : 9.99778
#OFFSET      : 1.69135
#BEAMKV      : 20
#SIGNALTYPE  : EDS
#ELEVANGLE   : 35
#AZIMANGLE   : 0
#LIVETIME    : 239.8389
#REALTIME    : 255.792
#PROBECUR    : 1.0263
#TAUWIND     : 0
#TDEADLYR    : 0
#TACTLYR     : 0.045
#TALWIND     : 0.025
#CHOFFSET    : 0.0
#XLABEL      : Energy (eV)
#YLABEL      : Counts
#XPOSITION   : 3.39114
#YPOSITION   : 3.49687
#ZPOSITION   : 31.03511
#EDSDET      : SD
##SPECIMEN   : SPI MM2 Sphodumene[1][all]
##DET_HASH   : 12273538-fd48-a23f-0a19-f1e6fa85caef
##CALIB_HASH : 6abaa72c-aa41-8738-0be9-f592914732f3
##WORKING    : 15.0 mm
##DET_NAME   : EDAX All
##DET_MODE   : MediumLE
#SPECTRUM    :
31,
24,
9,
13,
80,
259,
788,
2474,
6991,
9486,
4991,
2401,
2467,
3352,
6618,
26258,
107686,
211180,
154375,
40127,
4911,
1626,
1657,
1843,
1956,
1971,
2068,
2274,
2343,
2575,
2707,
2808,
3056,
3425,
3983,
4302,
3913,
3680,
3760,
3739,
3948,
3926,
4211,
4523,
4812,
5267,
6848,
18519,
62961,
128184,
131834,
68179,
22236,
8363,
6504,
16940,
69223,
179702,
245178,
174118,
69252,
22928,
9859,
4656,
2615,
2115,
2358,
2364,
2214,
2088,
1996,
2007,
2104,
2230,
2559,
2822,
2672,
2327,
2285,
2080,
2111,
1992,
2004,
2017,
2074,
1975,
1998,
2116,
1968,
2068,
2003,
2033,
2071,
1985,
1969,
1991,
1958,
2012,
2146,
2084,
2010,
2052,
1969,
1914,
1895,
2028,
2150,
2232,
2200,
2056,
1906,
1888,
1887,
1940,
1976,
2167,
2162,
2092,
1860,
1848,
1782,
1790,
1716,
1762,
1683,
1650,
1650,
1610,
1556,
1616,
1541,
1633,
1552,
1560,
1490,
1518,
1589,
1510,
1466,
1482,
1416,
1493,
1483,
1362,
1460,
1437,
1423,
1401,
1304,
1358,
1363,
1398,
1380,
1391,
1367,
1315,
1286,
1353,
1305,
1305,
1286,
1281,
1328,
1177,
1236,
1206,
1194,
1159,
1217,
1170,
1173,
1158,
1135,
1129,
1188,
1095,
1106,
1127,
1074,
1103,
1113,
1082,
1075,
1082,
1021,
1094,
1028,
1046,
958,
1025,
993,
983,
989,
959,
1037,
1015,
960,
991,
986,
923,
934,
933,
889,
885,
924,
886,
852,
927,
904,
849,
878,
868,
944,
938,
885,
902,
823,
853,
814,
784,
763,
846,
824,
787,
819,
804,
785,
676,
740,
742,
740,
755,
753,
728,
706,
689,
711,
769,
720,
656,
629,
660,
707,
713,
708,
652,
636,
677,
674,
686,
654,
672,
650,
628,
658,
584,
598,
568,
597,
596,
648,
587,
588,
610,
553,
563,
527,
528,
552,
614,
571,
533,
570,
562,
574,
571,
528,
525,
512,
556,
520,
530,
494,
496,
499,
464,
488,
497,
489,
489,
476,
464,
458,
463,
467,
473,
444,
447,
454,
446,
425,
433,
424,
427,
408,
421,
447,
430,
422,
427,
404,
403,
385,
377,
413,
441,
410,
381,
403,
379,
376,
382,
359,
369,
393,
364,
376,
371,
339,
339,
381,
330,
346,
326,
332,
322,
330,
332,
333,
347,
348,
322,
316,
321,
327,
335,
325,
307,
283,
289,
339,
307,
295,
323,
288,
272,
286,
302,
294,
291,
283,
291,
299,
262,
262,
243,
265,
264,
263,
254,
279,
247,
228,
242,
232,
221,
262,
248,
243,
238,
262,
223,
231,
234,
233,
223,
217,
217,
228,
210,
233,
201,
201,
201,
198,
220,
222,
204,
194,
202,
185,
187,
167,
200,
185,
171,
170,
192,
193,
190,
177,
163,
173,
167,
181,
175,
199,
181,
166,
155,
168,
165,
160,
144,
159,
154,
172,
166,
158,
141,
144,
128,
164,
130,
127,
122,
124,
135,
143,
117,
127,
111,
116,
125,
149,
135,
125,
125,
111,
122,
126,
117,
110,
117,
111,
112,
96,
120,
106,
99,
97,
118,
108,
101,
96,
113,
101,
73,
76,
85,
99,
83,
96,
91,
97,
92,
81,
69,
70,
86,
83,
79,
72,
77,
85,
79,
72,
83,
91,
73,
79,
82,
59,
79,
88,
78,
63,
71,
63,
62,
61,
66,
57,
65,
63,
55,
69,
71,
62,
50,
73,
49,
54,
37,
57,
53,
49,
45,
47,
40,
48,
44,
48,
46,
37,
42,
52,
37,
51,
37,
47,
40,
46,
36,
38,
44,
28,
31,
37,
44,
40,
38,
39,
41,
36,
40,
35,
42,
37,
35,
34,
32,
26,
29,
33,
43,
32,
37,
24,
26,
24,
33,
27,
24,
21,
29,
21,
23,
23,
23,
21,
19,
23,
30,
24,
20,
23,
18,
25,
18,
12,
18,
19,
21,
22,
18,
11,
15,
23,
15,
12,
22,
17,
14,
18,
8,
20,
20,
12,
12,
15,
16,
9,
11,
11,
16,
8,
12,
13,
9,
12,
12,
9,
12,
9,
5,
12,
12,
10,
10,
6,
9,
1,
8,
5,
3,
10,
4,
2,
6,
5,
5,
6,
4,
8,
7,
4,
0,
6,
10,
2,
3,
4,
6,
3,
1,
1,
0,
1,
6,
2,
2,
3,
1,
1,
0,
0,
0,
4,
1,
2,
1,
0,
1,
0,
0,
1,
1,
2,
0,
0,
0,
0,
0,
0,
0,
0,
0,
0,
0,
0,
0,
0,
0,
1,
0,
0,
0,
0,
0,
0,
0,
0,
0,
0,
0,
0,
0,
0,
1,
0,
0,
0,
0,
0,
0,
0,
0,
0,
0,
0,
0,
0,
0,
0,
0,
0,
0,
0,
0,
0,
0,
0,
0,
0,
0,
0,
0,
0,
0,
0,
0,
0,
0,
0,
0,
0,
0,
0,
1,
0,
0,
0,
0,
0,
0,
1,
0,
0,
0,
0,
0,
0,
0,
0,
0,
0,
0,
0,
0,
0,
0,
0,
0,
0,
1,
0,
0,
0,
0,
0,
0,
0,
0,
0,
0,
0,
0,
0,
0,
0,
0,
0,
0,
0,
0,
0,
0,
0,
0,
0,
0,
0,
0,
0,
0,
0,
0,
0,
0,
0,
0,
0,
0,
0,
0,
0,
0,
0,
0,
0,
0,
0,
0,
0,
0,
0,
0,
0,
0,
0,
0,
0,
0,
0,
0,
0,
0,
0,
0,
0,
0,
0,
0,
0,
0,
0,
0,
0,
0,
0,
0,
0,
0,
1,
0,
0,
0,
0,
0,
0,
0,
0,
1,
0,
0,
0,
0,
0,
0,
0,
0,
0,
0,
0,
0,
0,
0,
0,
0,
0,
0,
0,
0,
0,
0,
0,
0,
0,
0,
0,
0,
0,
0,
0,
0,
0,
0,
0,
0,
0,
0,
0,
0,
0,
0,
0,
0,
0,
0,
0,
0,
0,
0,
0,
0,
1,
0,
0,
0,
0,
0,
0,
0,
0,
0,
0,
0,
0,
0,
0,
0,
0,
0,
0,
0,
0,
0,
0,
0,
0,
0,
0,
0,
0,
0,
0,
0,
0,
0,
0,
0,
0,
0,
0,
0,
0,
0,
0,
0,
0,
0,
0,
0,
0,
0,
0,
0,
0,
0,
0,
0,
0,
0,
0,
0,
0,
0,
0,
0,
0,
0,
0,
0,
0,
0,
0,
0,
0,
0,
0,
1,
0,
0,
0,
0,
0,
0,
0,
0,
0,
0,
0,
0,
0,
0,
0,
0,
0,
0,
0,
0,
0,
0,
0,
0,
0,
0,
0,
0,
0,
0,
0,
0,
0,
0,
0,
0,
0,
0,
0,
0,
0,
0,
0,
0,
0,
0,
0,
0,
0,
0,
0,
0,
0,
0,
0,
0,
0,
0,
0,
0,
0,
0,
0,
0,
0,
0,
0,
0,
0,
0,
0,
0,
0,
0,
0,
0,
0,
0,
0,
0,
0,
0,
0,
0,
0,
0,
0,
0,
0,
0,
0,
0,
0,
0,
0,
0,
0,
0,
0,
0,
0,
0,
0,
0,
0,
0,
0,
0,
0,
0,
0,
0,
0,
0,
0,
0,
0,
0,
0,
0,
0,
0,
0,
0,
0,
0,
0,
0,
0,
0,
0,
0,
0,
0,
0,
0,
0,
0,
0,
0,
0,
0,
0,
0,
0,
0,
0,
0,
0,
0,
0,
0,
0,
0,
0,
0,
0,
0,
0,
0,
0,
0,
0,
0,
0,
0,
0,
0,
0,
0,
0,
0,
0,
0,
0,
0,
0,
0,
0,
0,
0,
0,
0,
0,
0,
0,
0,
0,
0,
0,
0,
0,
0,
0,
0,
0,
0,
0,
0,
0,
0,
0,
0,
0,
0,
0,
0,
0,
0,
0,
0,
0,
0,
0,
0,
0,
0,
0,
0,
0,
0,
0,
0,
0,
0,
0,
0,
0,
0,
0,
0,
0,
0,
0,
0,
0,
0,
0,
0,
0,
0,
0,
0,
0,
0,
0,
0,
0,
0,
0,
0,
0,
0,
0,
0,
0,
0,
0,
0,
0,
0,
0,
0,
0,
0,
0,
0,
0,
0,
0,
0,
0,
0,
0,
0,
0,
0,
0,
0,
0,
0,
0,
0,
0,
0,
0,
0,
0,
0,
0,
0,
0,
0,
0,
0,
0,
0,
0,
0,
0,
0,
0,
0,
0,
0,
0,
0,
0,
0,
0,
0,
0,
0,
0,
0,
0,
0,
0,
0,
0,
0,
0,
0,
0,
0,
0,
0,
0,
0,
0,
0,
0,
0,
0,
0,
0,
0,
0,
0,
0,
0,
0,
0,
0,
0,
0,
0,
0,
0,
0,
0,
0,
0,
0,
0,
0,
0,
0,
0,
0,
0,
0,
0,
0,
0,
0,
0,
0,
0,
0,
0,
0,
0,
0,
0,
0,
0,
0,
0,
0,
0,
0,
0,
0,
#ENDOFDATA   :