File: N132962/Quantification/20 keV/MMM2/SPI MM2 SPI Magnetite[3][4].msa
#FORMAT      : EMSA/MAS Spectral Data File
#VERSION     : 1.0
#TITLE       : SPI MM2 SPI Magnetite[3][all]
#DATE        : 13-MAR-2025
#TIME        : 09:21
#OWNER       : Unknown
#NPOINTS     : 4096
#NCOLUMNS    : 1
#XUNITS      : eV
#YUNITS      : counts
#DATATYPE    : Y
#XPERCHAN    : 9.99778
#OFFSET      : 1.69135
#BEAMKV      : 20
#SIGNALTYPE  : EDS
#ELEVANGLE   : 35
#AZIMANGLE   : 0
#LIVETIME    : 239.844
#REALTIME    : 256.806
#PROBECUR    : 1.02582
#TAUWIND     : 0
#TDEADLYR    : 0
#TACTLYR     : 0.045
#TALWIND     : 0.025
#CHOFFSET    : 0.0
#XLABEL      : Energy (eV)
#YLABEL      : Counts
#XPOSITION   : 3.91513
#YPOSITION   : -4.1553
#ZPOSITION   : 31.03509
#EDSDET      : SD
##SPECIMEN   : SPI MM2 SPI Magnetite[3][all]
##D2STDCMP   : SPI Magnetite,(O:27.53),(Si:0.01),(Mn:0.18),(Fe:71.88)
##DET_HASH   : 12273538-fd48-a23f-0a19-f1e6fa85caef
##CALIB_HASH : 6abaa72c-aa41-8738-0be9-f592914732f3
##WORKING    : 15.0 mm
##DET_NAME   : EDAX All
##DET_MODE   : MediumLE
#SPECTRUM    :
27,
22,
9,
20,
107,
464,
1349,
3892,
10366,
13540,
7801,
4795,
5151,
6271,
9388,
27130,
95870,
181200,
133268,
43760,
23831,
23317,
30488,
49652,
42552,
16919,
4908,
2823,
2310,
2195,
2097,
2129,
2299,
2568,
2692,
2781,
2677,
2865,
2967,
3004,
3193,
3304,
3455,
3504,
3507,
3546,
3636,
3870,
4000,
4339,
4569,
4434,
4160,
4289,
4472,
4463,
4644,
4874,
5002,
5074,
5071,
4740,
4497,
4173,
4212,
4412,
4301,
4375,
4387,
4401,
4413,
4437,
4438,
4443,
4463,
4459,
4464,
4412,
4215,
4287,
4338,
4343,
4396,
4333,
4292,
4273,
4491,
4176,
4227,
4306,
4293,
4133,
4177,
4045,
4254,
4213,
4088,
4041,
4108,
4056,
4085,
4081,
3823,
3966,
3925,
3839,
3922,
3820,
3868,
3833,
3678,
3672,
3803,
3737,
3606,
3515,
3479,
3472,
3488,
3427,
3441,
3346,
3453,
3502,
3377,
3284,
3307,
3320,
3333,
3235,
3233,
3362,
3189,
3128,
3106,
3185,
3122,
3034,
3171,
3019,
3050,
3003,
3001,
2943,
3021,
2858,
2966,
3067,
2972,
2981,
3108,
3027,
3084,
3110,
3265,
3302,
3160,
3030,
2805,
2803,
2627,
2647,
2602,
2669,
2665,
2556,
2556,
2504,
2506,
2499,
2493,
2436,
2466,
2601,
2521,
2389,
2532,
2507,
2443,
2335,
2380,
2377,
2380,
2312,
2249,
2266,
2183,
2242,
2175,
2156,
2162,
2145,
2150,
2266,
2328,
2532,
2728,
2657,
2607,
2329,
2271,
2115,
2152,
2147,
2200,
2359,
2575,
3368,
6129,
14938,
35962,
73458,
115956,
141807,
133214,
95617,
52873,
23289,
8760,
3687,
2167,
1937,
1850,
1796,
1894,
1865,
1968,
1986,
2122,
2496,
3142,
4832,
7886,
12577,
17300,
19600,
17972,
12980,
7901,
4157,
2351,
1535,
1334,
1245,
1226,
1187,
1311,
1279,
1237,
1331,
1261,
1313,
1340,
1287,
1219,
1204,
1198,
1194,
1197,
1140,
1178,
1159,
1189,
1109,
1145,
1117,
1053,
1094,
1060,
1101,
1031,
1050,
1111,
1098,
1127,
1060,
1100,
1081,
1017,
1074,
1015,
946,
1026,
1025,
997,
995,
992,
1020,
1046,
989,
974,
1007,
937,
951,
956,
930,
970,
972,
945,
906,
959,
966,
920,
932,
934,
885,
844,
897,
874,
893,
893,
850,
846,
818,
785,
893,
846,
850,
837,
796,
782,
854,
810,
793,
755,
853,
779,
781,
800,
777,
821,
749,
716,
750,
765,
691,
714,
747,
772,
726,
731,
773,
675,
728,
674,
700,
757,
725,
680,
679,
666,
659,
702,
669,
688,
651,
660,
670,
622,
646,
656,
643,
614,
566,
625,
579,
614,
599,
586,
550,
574,
581,
573,
574,
571,
577,
593,
538,
510,
525,
536,
570,
525,
522,
519,
529,
514,
541,
474,
476,
504,
497,
482,
419,
499,
508,
433,
490,
461,
487,
453,
504,
501,
435,
467,
462,
436,
455,
425,
434,
451,
396,
383,
419,
429,
393,
373,
427,
415,
385,
377,
379,
408,
389,
462,
467,
462,
454,
444,
419,
362,
347,
331,
367,
339,
348,
393,
321,
334,
340,
347,
334,
295,
303,
336,
325,
308,
333,
309,
319,
317,
302,
276,
266,
294,
299,
307,
256,
264,
287,
264,
273,
246,
280,
255,
240,
254,
243,
251,
232,
237,
256,
213,
221,
219,
220,
237,
227,
224,
224,
227,
226,
199,
185,
194,
212,
181,
201,
201,
200,
181,
180,
206,
193,
187,
190,
163,
168,
156,
165,
184,
170,
155,
168,
183,
171,
154,
159,
150,
160,
162,
162,
135,
166,
141,
164,
144,
139,
142,
115,
128,
118,
107,
128,
124,
167,
132,
121,
131,
118,
122,
119,
125,
106,
104,
121,
118,
107,
108,
106,
98,
93,
93,
84,
98,
86,
84,
112,
96,
96,
113,
105,
94,
97,
73,
83,
77,
90,
77,
86,
70,
74,
73,
65,
89,
79,
76,
83,
67,
62,
65,
54,
53,
61,
64,
61,
66,
63,
66,
49,
74,
61,
49,
51,
71,
45,
53,
58,
46,
41,
41,
45,
51,
44,
51,
51,
45,
51,
30,
31,
29,
47,
36,
51,
33,
39,
37,
32,
35,
30,
34,
29,
32,
27,
41,
27,
26,
27,
27,
26,
28,
22,
25,
20,
19,
16,
25,
24,
23,
21,
16,
24,
12,
18,
15,
25,
16,
14,
25,
22,
20,
18,
12,
7,
9,
12,
12,
5,
8,
13,
7,
3,
7,
5,
7,
8,
5,
5,
5,
3,
4,
3,
2,
1,
1,
1,
0,
2,
2,
2,
0,
1,
1,
1,
0,
0,
0,
1,
1,
3,
0,
2,
2,
0,
0,
2,
1,
0,
1,
0,
1,
0,
1,
0,
0,
1,
1,
0,
0,
0,
1,
1,
1,
1,
0,
1,
0,
0,
1,
0,
1,
0,
0,
2,
1,
0,
0,
0,
0,
1,
0,
2,
1,
0,
0,
0,
0,
1,
1,
0,
1,
2,
0,
0,
1,
1,
2,
0,
0,
0,
0,
1,
1,
0,
2,
0,
0,
0,
0,
0,
0,
0,
1,
0,
1,
1,
1,
1,
0,
0,
0,
0,
1,
0,
1,
0,
0,
0,
1,
0,
0,
0,
1,
1,
1,
3,
0,
1,
0,
0,
0,
0,
0,
0,
0,
0,
1,
0,
0,
0,
0,
0,
0,
1,
0,
1,
0,
0,
1,
1,
2,
0,
2,
0,
0,
1,
0,
0,
0,
0,
0,
0,
1,
1,
1,
0,
0,
0,
0,
0,
1,
0,
0,
0,
0,
0,
0,
0,
0,
0,
0,
0,
0,
0,
0,
0,
0,
1,
0,
0,
0,
1,
0,
0,
0,
0,
1,
1,
0,
0,
0,
0,
0,
0,
1,
0,
0,
0,
1,
0,
0,
0,
0,
0,
0,
0,
1,
0,
0,
0,
0,
0,
1,
0,
0,
0,
0,
0,
0,
0,
0,
0,
0,
0,
0,
0,
0,
0,
0,
0,
0,
0,
0,
0,
0,
0,
0,
0,
0,
0,
0,
0,
0,
0,
0,
0,
0,
0,
1,
0,
0,
0,
0,
0,
0,
0,
0,
0,
0,
0,
0,
0,
0,
0,
0,
0,
0,
0,
0,
0,
0,
0,
0,
0,
0,
0,
0,
0,
1,
0,
0,
0,
0,
0,
0,
0,
0,
0,
0,
0,
0,
0,
0,
0,
0,
0,
0,
0,
0,
0,
0,
0,
0,
0,
0,
0,
0,
0,
0,
0,
0,
0,
0,
0,
0,
0,
0,
0,
0,
0,
0,
0,
0,
0,
0,
0,
0,
0,
0,
0,
0,
0,
0,
0,
0,
0,
0,
0,
1,
0,
0,
0,
0,
0,
0,
0,
0,
0,
0,
0,
0,
1,
0,
0,
0,
0,
0,
0,
0,
0,
0,
0,
0,
0,
0,
0,
0,
0,
0,
0,
0,
0,
0,
0,
0,
0,
0,
0,
0,
0,
0,
0,
0,
0,
0,
0,
0,
0,
0,
0,
0,
0,
0,
0,
0,
0,
0,
0,
0,
0,
0,
0,
0,
0,
0,
0,
0,
0,
0,
0,
0,
0,
0,
0,
0,
0,
0,
0,
0,
0,
0,
0,
0,
0,
0,
0,
0,
0,
0,
0,
0,
0,
0,
0,
0,
0,
0,
0,
0,
0,
0,
0,
0,
0,
0,
0,
0,
0,
0,
0,
0,
0,
0,
0,
0,
0,
0,
0,
0,
0,
0,
0,
0,
0,
0,
0,
0,
0,
0,
0,
0,
0,
0,
0,
0,
0,
0,
0,
0,
0,
0,
0,
0,
0,
0,
0,
0,
0,
0,
0,
0,
0,
0,
0,
0,
0,
0,
0,
0,
0,
0,
0,
1,
0,
0,
0,
0,
0,
0,
0,
0,
0,
0,
0,
0,
0,
0,
0,
0,
0,
0,
0,
0,
0,
0,
0,
0,
0,
0,
0,
0,
0,
0,
0,
0,
0,
0,
0,
0,
0,
0,
0,
0,
0,
0,
0,
0,
0,
0,
0,
0,
0,
0,
0,
0,
0,
0,
0,
0,
0,
0,
0,
0,
0,
0,
0,
0,
0,
0,
0,
0,
0,
0,
0,
0,
0,
0,
0,
0,
0,
0,
0,
0,
0,
0,
0,
0,
0,
0,
0,
0,
0,
0,
0,
0,
0,
0,
0,
0,
0,
0,
0,
0,
0,
0,
0,
0,
0,
0,
0,
0,
0,
0,
0,
0,
0,
0,
0,
0,
0,
0,
0,
0,
0,
0,
0,
0,
0,
0,
0,
0,
0,
0,
0,
0,
0,
0,
0,
0,
0,
0,
0,
0,
0,
0,
0,
0,
0,
0,
0,
0,
0,
0,
0,
0,
0,
0,
0,
0,
0,
0,
0,
0,
0,
0,
0,
0,
0,
0,
0,
0,
0,
0,
0,
0,
0,
0,
0,
0,
0,
0,
0,
0,
0,
0,
0,
0,
0,
0,
0,
0,
0,
0,
0,
0,
0,
0,
0,
0,
0,
0,
0,
0,
0,
0,
0,
#ENDOFDATA   :