File: N132962/Quantification/20 keV/MMM2/SPI MM2 SPI Pentlandite[2][4].msa
#FORMAT      : EMSA/MAS Spectral Data File
#VERSION     : 1.0
#TITLE       : SPI MM2 SPI Pentlandite[2][all]
#DATE        : 13-MAR-2025
#TIME        : 10:34
#OWNER       : Unknown
#NPOINTS     : 4096
#NCOLUMNS    : 1
#XUNITS      : eV
#YUNITS      : counts
#DATATYPE    : Y
#XPERCHAN    : 9.99778
#OFFSET      : 1.69135
#BEAMKV      : 20
#SIGNALTYPE  : EDS
#ELEVANGLE   : 35
#AZIMANGLE   : 0
#LIVETIME    : 239.953
#REALTIME    : 260.268
#PROBECUR    : 1.02606
#TAUWIND     : 0
#TDEADLYR    : 0
#TACTLYR     : 0.045
#TALWIND     : 0.025
#CHOFFSET    : 0.0
#XLABEL      : Energy (eV)
#YLABEL      : Counts
#XPOSITION   : 3.8895
#YPOSITION   : -0.3115
#ZPOSITION   : 31.0351
#EDSDET      : SD
##SPECIMEN   : SPI MM2 SPI Pentlandite[2][all]
##D2STDCMP   : SPI Pentlandite,(S:32.89),(Fe:30.88),(Co:0.43),(Ni:35.61)
##DET_HASH   : 12273538-fd48-a23f-0a19-f1e6fa85caef
##CALIB_HASH : 6abaa72c-aa41-8738-0be9-f592914732f3
##WORKING    : 15.0 mm
##DET_NAME   : EDAX All
##DET_MODE   : MediumLE
#SPECTRUM    :
35,
21,
6,
41,
215,
554,
1172,
3528,
10126,
13545,
6843,
2947,
2540,
2868,
3288,
3978,
5264,
7436,
10900,
14762,
18257,
18947,
27858,
47149,
44349,
24005,
17554,
35564,
63398,
52957,
20890,
6521,
3891,
3335,
3195,
3272,
3304,
3501,
3625,
3689,
3744,
4041,
4087,
4273,
4274,
4599,
4635,
4842,
4919,
5211,
5192,
5133,
5196,
5354,
5340,
5338,
5534,
5995,
6288,
6331,
6062,
5603,
5488,
5323,
5330,
5380,
5476,
5601,
5562,
5649,
5639,
6329,
8224,
13666,
31838,
86527,
175648,
219444,
160514,
70511,
25081,
18078,
20235,
17114,
10311,
5867,
4153,
3965,
3806,
3856,
3832,
3708,
3761,
3803,
3866,
3765,
3757,
3855,
3938,
3926,
3832,
3881,
3985,
3966,
3898,
3896,
3857,
3817,
3782,
3710,
3678,
3715,
3596,
3672,
3579,
3669,
3664,
3571,
3435,
3515,
3591,
3561,
3523,
3493,
3441,
3539,
3356,
3408,
3360,
3384,
3294,
3338,
3454,
3295,
3342,
3310,
3315,
3245,
3232,
3185,
3076,
3165,
3183,
3170,
3097,
3073,
3136,
3055,
3050,
3029,
3119,
3067,
3096,
3397,
3382,
3483,
3302,
3209,
3036,
2946,
2889,
2850,
2891,
2862,
2758,
2867,
2740,
2670,
2715,
2741,
2655,
2667,
2630,
2655,
2639,
2574,
2552,
2699,
2596,
2550,
2534,
2562,
2563,
2621,
2462,
2486,
2463,
2512,
2418,
2500,
2550,
2480,
2360,
2365,
2375,
2337,
2361,
2267,
2281,
2248,
2185,
2234,
2236,
2318,
2322,
2311,
2443,
2730,
4012,
8082,
17315,
33767,
52668,
64505,
60583,
43983,
25200,
11695,
5188,
2804,
2164,
2041,
2105,
1986,
1953,
1935,
1971,
2152,
2291,
2663,
3262,
3951,
5148,
7196,
9151,
10020,
8984,
7026,
4577,
3090,
2145,
1876,
2086,
2527,
4303,
8856,
17780,
30867,
42789,
47991,
42499,
30467,
17578,
8527,
4027,
2291,
1771,
1588,
1559,
1504,
1464,
1482,
1442,
1504,
1445,
1483,
1501,
1407,
1489,
1569,
1758,
2377,
3402,
4739,
6203,
7400,
7092,
5882,
4170,
2695,
1795,
1443,
1247,
1156,
1164,
1168,
1124,
1173,
1141,
1250,
1178,
1228,
1225,
1201,
1130,
1146,
1076,
1080,
1084,
1113,
1099,
1050,
1013,
1016,
1021,
1021,
983,
1012,
1015,
1002,
948,
1012,
993,
1005,
977,
1023,
959,
957,
974,
929,
960,
926,
980,
1031,
1036,
967,
1036,
1024,
987,
999,
898,
947,
853,
883,
838,
871,
831,
839,
870,
829,
850,
829,
848,
824,
842,
834,
791,
789,
739,
831,
799,
799,
816,
801,
773,
800,
766,
716,
722,
755,
766,
731,
744,
706,
674,
762,
707,
719,
673,
661,
677,
698,
697,
669,
662,
625,
657,
635,
616,
661,
627,
635,
601,
652,
612,
605,
616,
601,
593,
577,
560,
546,
541,
536,
566,
553,
505,
593,
549,
538,
575,
480,
540,
472,
508,
514,
508,
493,
508,
507,
504,
489,
478,
457,
508,
439,
477,
478,
488,
426,
431,
483,
462,
433,
445,
461,
455,
478,
459,
446,
373,
432,
415,
378,
409,
413,
403,
386,
375,
381,
365,
354,
367,
345,
364,
345,
351,
371,
378,
345,
334,
320,
345,
338,
313,
328,
331,
311,
315,
321,
353,
320,
354,
327,
355,
326,
319,
259,
310,
263,
288,
263,
255,
284,
235,
278,
262,
242,
261,
241,
258,
243,
244,
209,
247,
206,
251,
248,
228,
207,
243,
242,
229,
212,
221,
208,
239,
217,
202,
235,
220,
213,
204,
206,
203,
218,
154,
197,
162,
166,
199,
173,
186,
178,
163,
160,
165,
180,
169,
182,
163,
147,
169,
149,
151,
150,
154,
139,
150,
137,
155,
149,
142,
149,
134,
124,
136,
124,
131,
129,
120,
122,
109,
137,
121,
90,
123,
103,
101,
103,
95,
101,
93,
87,
119,
89,
94,
117,
103,
112,
107,
93,
95,
89,
97,
97,
90,
91,
83,
75,
98,
83,
88,
75,
76,
74,
69,
69,
70,
69,
71,
69,
70,
69,
69,
61,
58,
60,
67,
63,
56,
50,
56,
49,
49,
49,
51,
46,
53,
47,
56,
51,
54,
46,
36,
43,
36,
44,
48,
35,
38,
33,
33,
32,
25,
40,
25,
32,
29,
34,
35,
35,
26,
32,
21,
31,
23,
24,
20,
23,
26,
20,
15,
17,
15,
17,
23,
25,
8,
18,
17,
15,
21,
11,
9,
9,
8,
11,
10,
10,
8,
9,
10,
14,
12,
4,
2,
9,
4,
4,
3,
5,
2,
4,
4,
1,
2,
1,
2,
0,
0,
2,
0,
2,
5,
0,
0,
1,
1,
1,
1,
2,
3,
2,
0,
1,
1,
0,
0,
4,
0,
1,
0,
2,
0,
0,
2,
2,
0,
0,
1,
0,
3,
0,
0,
0,
0,
1,
1,
1,
3,
0,
2,
0,
0,
2,
2,
1,
1,
1,
0,
0,
1,
1,
2,
0,
2,
1,
3,
2,
3,
0,
1,
1,
1,
0,
1,
0,
0,
0,
1,
2,
0,
1,
0,
0,
1,
0,
0,
0,
0,
1,
0,
0,
0,
1,
0,
0,
1,
1,
1,
0,
0,
1,
1,
0,
0,
0,
0,
0,
0,
0,
0,
0,
0,
0,
0,
0,
2,
0,
1,
0,
0,
1,
0,
0,
0,
0,
2,
2,
0,
0,
0,
0,
0,
0,
1,
1,
1,
0,
0,
0,
0,
0,
0,
0,
0,
0,
0,
0,
0,
0,
0,
0,
0,
0,
0,
0,
0,
1,
0,
0,
1,
0,
0,
0,
0,
0,
0,
0,
0,
0,
1,
0,
0,
1,
0,
0,
0,
0,
0,
0,
0,
0,
0,
1,
0,
0,
0,
0,
0,
0,
0,
0,
0,
0,
1,
0,
1,
0,
0,
1,
0,
0,
0,
0,
0,
0,
0,
0,
0,
0,
0,
0,
0,
0,
1,
0,
0,
0,
0,
0,
0,
0,
0,
0,
0,
0,
0,
0,
0,
0,
0,
1,
0,
0,
0,
0,
0,
0,
0,
0,
0,
0,
0,
0,
0,
0,
0,
0,
0,
0,
1,
0,
0,
0,
0,
0,
0,
0,
0,
0,
0,
0,
0,
0,
0,
0,
0,
0,
0,
0,
0,
0,
0,
1,
0,
0,
0,
0,
0,
0,
0,
0,
0,
0,
0,
0,
0,
0,
0,
0,
0,
0,
0,
0,
0,
0,
0,
0,
0,
0,
0,
0,
0,
0,
0,
0,
0,
0,
0,
1,
0,
1,
0,
0,
0,
0,
0,
0,
0,
0,
0,
0,
0,
0,
0,
0,
0,
0,
0,
0,
0,
0,
0,
0,
0,
0,
0,
0,
0,
0,
0,
0,
0,
0,
0,
0,
0,
0,
0,
0,
0,
0,
0,
0,
0,
0,
0,
1,
0,
0,
0,
0,
0,
0,
0,
0,
0,
0,
0,
0,
0,
0,
0,
0,
0,
0,
0,
0,
0,
0,
0,
0,
0,
0,
0,
0,
0,
0,
0,
0,
0,
0,
0,
0,
0,
0,
0,
0,
0,
0,
0,
0,
0,
0,
0,
0,
0,
1,
0,
0,
0,
0,
0,
0,
0,
0,
0,
0,
0,
0,
0,
0,
0,
0,
0,
0,
0,
0,
0,
0,
0,
0,
0,
0,
0,
0,
0,
0,
0,
0,
0,
0,
0,
0,
0,
0,
0,
0,
0,
0,
0,
0,
0,
0,
0,
0,
0,
0,
0,
0,
0,
0,
0,
0,
0,
0,
0,
0,
1,
0,
0,
0,
0,
0,
0,
0,
0,
0,
0,
0,
0,
0,
0,
0,
0,
0,
0,
0,
0,
0,
0,
0,
0,
0,
0,
0,
0,
0,
0,
0,
0,
0,
0,
0,
0,
0,
0,
0,
0,
0,
0,
0,
0,
0,
0,
0,
0,
0,
0,
0,
0,
0,
0,
0,
0,
0,
0,
0,
0,
0,
0,
0,
0,
0,
0,
0,
0,
0,
0,
0,
0,
0,
0,
0,
0,
0,
0,
0,
0,
0,
0,
0,
0,
0,
0,
0,
0,
0,
0,
0,
0,
0,
0,
0,
0,
0,
0,
0,
0,
0,
0,
0,
0,
0,
0,
0,
0,
0,
0,
0,
0,
0,
0,
0,
0,
0,
0,
0,
0,
0,
0,
0,
0,
0,
0,
0,
0,
0,
0,
0,
0,
0,
0,
0,
0,
0,
0,
0,
0,
0,
0,
0,
0,
0,
0,
0,
0,
0,
0,
0,
0,
0,
0,
0,
0,
0,
0,
0,
0,
0,
0,
0,
0,
0,
0,
0,
0,
0,
0,
0,
0,
0,
0,
0,
0,
0,
0,
0,
0,
0,
0,
0,
0,
0,
0,
0,
0,
0,
0,
0,
0,
0,
0,
0,
0,
0,
0,
0,
0,
0,
0,
0,
0,
0,
0,
0,
0,
0,
0,
0,
0,
0,
0,
0,
0,
0,
0,
0,
0,
0,
0,
0,
0,
0,
0,
0,
0,
0,
0,
0,
0,
0,
0,
0,
#ENDOFDATA   :