File: N132962/Quantification/20 keV/MMM2/SPI MM2 SPI Mangotantalite[4][4].msa
#FORMAT      : EMSA/MAS Spectral Data File
#VERSION     : 1.0
#TITLE       : SPI MM2 SPI Mangotantalite[4][all]
#DATE        : 13-MAR-2025
#TIME        : 09:41
#OWNER       : Unknown
#NPOINTS     : 4096
#NCOLUMNS    : 1
#XUNITS      : eV
#YUNITS      : counts
#DATATYPE    : Y
#XPERCHAN    : 9.99778
#OFFSET      : 1.69135
#BEAMKV      : 20
#SIGNALTYPE  : EDS
#ELEVANGLE   : 35
#AZIMANGLE   : 0
#LIVETIME    : 239.804
#REALTIME    : 261.7453
#PROBECUR    : 1.02582
#TAUWIND     : 0
#TDEADLYR    : 0
#TACTLYR     : 0.045
#TALWIND     : 0.025
#CHOFFSET    : 0.0
#XLABEL      : Energy (eV)
#YLABEL      : Counts
#XPOSITION   : -1.63124
#YPOSITION   : -4.5713
#ZPOSITION   : 31.03509
#EDSDET      : SD
##SPECIMEN   : SPI MM2 SPI Mangotantalite[4][all]
##DET_HASH   : 12273538-fd48-a23f-0a19-f1e6fa85caef
##CALIB_HASH : 6abaa72c-aa41-8738-0be9-f592914732f3
##WORKING    : 15.0 mm
##DET_NAME   : EDAX All
##DET_MODE   : MediumLE
#SPECTRUM    :
20,
32,
13,
38,
245,
1180,
2955,
6128,
13223,
16652,
9039,
4645,
4263,
4822,
6041,
11872,
34369,
63486,
48014,
16923,
9035,
10686,
9724,
7991,
7140,
5685,
5216,
5302,
5754,
5858,
5875,
5934,
6192,
6365,
6657,
6821,
7070,
7262,
7496,
7689,
7772,
8179,
10142,
14447,
19457,
17831,
13139,
10331,
9744,
9736,
9602,
9968,
10422,
12197,
21348,
56999,
134219,
192953,
172621,
110185,
54844,
20635,
9114,
7873,
8944,
9914,
9588,
7902,
7089,
8163,
13151,
24043,
32804,
31012,
23379,
19866,
15930,
11787,
8640,
6970,
5937,
5366,
4988,
4902,
4650,
4567,
4558,
4715,
5038,
5055,
5061,
4757,
4539,
4770,
4707,
4708,
4574,
4787,
4642,
4623,
4698,
4794,
4774,
4791,
4683,
4824,
4599,
4862,
4796,
4820,
4880,
4788,
4970,
5033,
4831,
5050,
4971,
4938,
4918,
4835,
4806,
4664,
4695,
4826,
4721,
4724,
4654,
4558,
4818,
4689,
4855,
4700,
4709,
4656,
4547,
4542,
4614,
4654,
4616,
4753,
4545,
4476,
4462,
4377,
4491,
4505,
4470,
4560,
4952,
5146,
5465,
5480,
5092,
4663,
4369,
4315,
4357,
4307,
4268,
4155,
4263,
4143,
4206,
4351,
4228,
4378,
4242,
4147,
4093,
3992,
4126,
4041,
3985,
3948,
3999,
3875,
3868,
3984,
3872,
3894,
3979,
4015,
3784,
3896,
3776,
3690,
3791,
3787,
3797,
3910,
3749,
4195,
5321,
8263,
14232,
22076,
27894,
27502,
21205,
13500,
7566,
4844,
3808,
3535,
3418,
3420,
3476,
3513,
3605,
3733,
4592,
5861,
7524,
8784,
9569,
9040,
8190,
6883,
5564,
4240,
3738,
3234,
3107,
3075,
3016,
2944,
2997,
2991,
2865,
2989,
2962,
3040,
3075,
3261,
3468,
3722,
3749,
3928,
4057,
3881,
3736,
3511,
3187,
3003,
2754,
2773,
2769,
2874,
2942,
2982,
2860,
2812,
2703,
2737,
2734,
2686,
2563,
2536,
2561,
2505,
2533,
2513,
2532,
2635,
2722,
3038,
4166,
6410,
10731,
16558,
22812,
26479,
25090,
19757,
13337,
8084,
4845,
3306,
2760,
2535,
2610,
2502,
2532,
2408,
2283,
2302,
2222,
2161,
2294,
2223,
2216,
2122,
2087,
2159,
2071,
2119,
2156,
2049,
2021,
2086,
2000,
2086,
2096,
2281,
2432,
2964,
3552,
4469,
6036,
7996,
9710,
10704,
10305,
8692,
6893,
5414,
4325,
4074,
4218,
4744,
5609,
5928,
5897,
5212,
4079,
3222,
2456,
2131,
1997,
1924,
1860,
1677,
1632,
1668,
1569,
1572,
1522,
1537,
1557,
1473,
1505,
1507,
1505,
1476,
1485,
1501,
1455,
1416,
1464,
1471,
1426,
1475,
1447,
1414,
1411,
1420,
1424,
1497,
1510,
1693,
2062,
2301,
2723,
2738,
2722,
2339,
1976,
1659,
1491,
1489,
1426,
1451,
1503,
1615,
1658,
1770,
1657,
1569,
1347,
1382,
1167,
1133,
1158,
1145,
1094,
1140,
1160,
1174,
1166,
1113,
1118,
1088,
1080,
1039,
1081,
1033,
982,
1028,
1003,
977,
940,
1007,
964,
928,
951,
964,
867,
970,
907,
919,
949,
864,
874,
908,
885,
849,
893,
885,
874,
848,
851,
814,
838,
833,
829,
758,
845,
825,
797,
761,
789,
786,
771,
781,
762,
774,
765,
741,
750,
770,
722,
689,
729,
727,
716,
676,
632,
660,
715,
690,
670,
635,
600,
636,
631,
645,
648,
606,
617,
627,
603,
638,
571,
586,
589,
560,
575,
552,
602,
598,
555,
545,
549,
560,
529,
532,
521,
504,
467,
502,
501,
486,
477,
502,
501,
491,
493,
472,
471,
430,
473,
442,
451,
441,
443,
413,
442,
403,
408,
423,
394,
435,
375,
387,
374,
407,
361,
374,
386,
370,
371,
362,
375,
363,
377,
343,
317,
344,
332,
346,
317,
321,
333,
324,
280,
310,
300,
303,
306,
278,
330,
297,
299,
289,
294,
277,
291,
240,
238,
257,
267,
273,
245,
279,
242,
230,
221,
237,
276,
218,
255,
228,
268,
271,
258,
234,
224,
251,
230,
197,
204,
218,
195,
178,
222,
180,
191,
168,
162,
177,
166,
186,
174,
156,
160,
180,
163,
165,
160,
156,
163,
163,
146,
152,
135,
129,
145,
139,
140,
116,
125,
141,
119,
134,
113,
119,
115,
123,
113,
105,
93,
100,
120,
100,
103,
105,
82,
91,
99,
91,
84,
84,
89,
81,
80,
83,
85,
80,
68,
72,
83,
86,
63,
55,
61,
70,
60,
58,
62,
59,
70,
53,
53,
51,
50,
39,
45,
46,
39,
40,
44,
46,
36,
32,
30,
33,
29,
40,
28,
28,
19,
27,
25,
18,
23,
16,
19,
13,
10,
11,
8,
5,
11,
3,
5,
6,
4,
3,
1,
5,
3,
4,
1,
3,
4,
3,
3,
2,
6,
2,
3,
3,
4,
6,
2,
5,
5,
1,
4,
3,
4,
5,
2,
1,
2,
3,
1,
1,
3,
1,
1,
2,
2,
4,
1,
1,
6,
2,
4,
2,
3,
2,
1,
2,
1,
1,
3,
2,
0,
2,
3,
0,
3,
2,
4,
1,
0,
0,
2,
4,
5,
2,
0,
0,
2,
1,
3,
0,
2,
2,
2,
4,
0,
4,
0,
2,
0,
0,
0,
0,
1,
1,
1,
1,
2,
0,
1,
0,
3,
2,
0,
3,
2,
4,
1,
0,
1,
0,
0,
1,
1,
1,
0,
0,
0,
1,
0,
3,
2,
1,
0,
1,
1,
1,
0,
1,
2,
3,
2,
0,
0,
2,
4,
0,
0,
1,
0,
1,
2,
1,
1,
0,
1,
0,
1,
0,
1,
1,
1,
0,
1,
1,
0,
0,
0,
0,
0,
0,
1,
0,
1,
0,
0,
0,
2,
1,
2,
0,
3,
3,
1,
2,
1,
1,
0,
1,
0,
1,
1,
0,
1,
0,
0,
1,
0,
0,
2,
1,
0,
0,
0,
0,
0,
0,
1,
0,
1,
0,
1,
0,
0,
1,
0,
0,
0,
0,
0,
0,
0,
0,
0,
1,
1,
0,
0,
0,
1,
0,
0,
2,
0,
0,
0,
2,
0,
0,
0,
0,
0,
0,
0,
0,
0,
0,
0,
0,
0,
1,
1,
0,
1,
0,
0,
0,
1,
0,
0,
0,
0,
0,
0,
2,
0,
0,
0,
0,
0,
0,
0,
0,
0,
0,
0,
0,
0,
0,
0,
0,
0,
2,
1,
0,
1,
0,
0,
0,
0,
0,
0,
1,
0,
0,
0,
0,
0,
0,
0,
0,
0,
0,
1,
0,
0,
1,
0,
0,
0,
1,
0,
0,
0,
0,
0,
1,
0,
0,
0,
0,
0,
0,
1,
0,
0,
0,
0,
0,
0,
0,
0,
0,
1,
0,
0,
0,
0,
0,
0,
0,
0,
0,
0,
0,
0,
0,
0,
0,
0,
0,
0,
0,
0,
0,
0,
0,
0,
0,
0,
0,
0,
0,
0,
0,
0,
0,
0,
0,
0,
0,
0,
0,
0,
1,
0,
0,
0,
0,
0,
0,
0,
0,
0,
0,
0,
0,
0,
0,
0,
0,
0,
0,
0,
0,
0,
0,
0,
0,
0,
0,
0,
0,
0,
0,
0,
0,
0,
0,
0,
0,
0,
0,
0,
0,
0,
0,
0,
2,
0,
0,
0,
0,
0,
0,
0,
0,
0,
0,
0,
0,
0,
0,
0,
0,
0,
0,
0,
0,
0,
0,
0,
0,
0,
0,
0,
0,
0,
0,
0,
0,
0,
0,
0,
0,
0,
0,
0,
0,
0,
0,
0,
0,
0,
0,
0,
0,
0,
0,
0,
0,
0,
0,
0,
0,
0,
0,
0,
0,
0,
0,
0,
0,
0,
0,
0,
0,
0,
0,
1,
0,
0,
0,
0,
0,
0,
0,
0,
0,
0,
0,
0,
0,
0,
0,
0,
0,
0,
0,
0,
0,
0,
0,
0,
0,
0,
0,
0,
0,
0,
0,
0,
0,
0,
0,
0,
0,
0,
0,
0,
0,
0,
0,
0,
0,
0,
0,
0,
0,
0,
0,
0,
0,
0,
0,
0,
0,
0,
0,
0,
0,
0,
0,
0,
0,
0,
0,
0,
0,
0,
0,
0,
0,
0,
0,
0,
0,
0,
0,
0,
0,
0,
0,
0,
0,
0,
0,
0,
0,
0,
0,
0,
0,
0,
0,
0,
0,
0,
0,
0,
0,
0,
0,
0,
0,
0,
0,
0,
0,
0,
0,
0,
0,
0,
0,
0,
0,
0,
0,
0,
0,
0,
0,
0,
0,
0,
0,
0,
0,
0,
0,
0,
0,
0,
0,
0,
0,
0,
0,
0,
0,
0,
0,
0,
0,
0,
0,
0,
0,
0,
0,
0,
0,
0,
0,
0,
0,
0,
0,
0,
0,
0,
0,
0,
0,
0,
0,
0,
0,
0,
0,
0,
0,
0,
0,
0,
0,
0,
0,
0,
0,
0,
0,
0,
0,
0,
0,
0,
0,
0,
0,
0,
0,
0,
0,
0,
0,
0,
0,
0,
0,
0,
0,
0,
0,
0,
0,
0,
0,
0,
0,
0,
0,
0,
0,
0,
0,
0,
0,
0,
0,
0,
0,
0,
0,
0,
0,
0,
0,
#ENDOFDATA   :