File: N132962/Quantification/20 keV/MMM2/SPI MM2 SPI Phlogpite[3][4].msa
#FORMAT      : EMSA/MAS Spectral Data File
#VERSION     : 1.0
#TITLE       : SPI MM2 SPI Phlogpite[3][all]
#DATE        : 13-MAR-2025
#TIME        : 10:44
#OWNER       : Unknown
#NPOINTS     : 4096
#NCOLUMNS    : 1
#XUNITS      : eV
#YUNITS      : counts
#DATATYPE    : Y
#XPERCHAN    : 9.99778
#OFFSET      : 1.69135
#BEAMKV      : 20
#SIGNALTYPE  : EDS
#ELEVANGLE   : 35
#AZIMANGLE   : 0
#LIVETIME    : 239.8628
#REALTIME    : 254.6976
#PROBECUR    : 1.02606
#TAUWIND     : 0
#TDEADLYR    : 0
#TACTLYR     : 0.045
#TALWIND     : 0.025
#CHOFFSET    : 0.0
#XLABEL      : Energy (eV)
#YLABEL      : Counts
#XPOSITION   : 1.48094
#YPOSITION   : -0.4581
#ZPOSITION   : 31.0351
#EDSDET      : SD
##SPECIMEN   : SPI MM2 SPI Phlogpite[3][all]
##D2STDCMP   : SPI Phlogpite,(H:0.48),(O:46.01),(Mg:17.47),(Al:6.47),(Si:20.19),(K:9.37)
##DET_HASH   : 12273538-fd48-a23f-0a19-f1e6fa85caef
##CALIB_HASH : 6abaa72c-aa41-8738-0be9-f592914732f3
##WORKING    : 15.0 mm
##DET_NAME   : EDAX All
##DET_MODE   : MediumLE
#SPECTRUM    :
22,
21,
12,
14,
70,
289,
986,
3096,
8895,
11449,
5819,
2439,
2519,
3103,
5383,
19438,
77288,
151436,
110501,
29557,
5026,
3284,
5055,
7099,
6224,
3915,
2753,
2680,
2787,
2862,
2942,
2967,
3382,
4527,
6324,
7096,
5600,
4634,
5124,
10378,
36903,
90330,
109167,
61314,
19082,
5895,
4557,
8500,
23953,
47649,
48078,
26407,
10597,
5709,
4970,
10778,
40653,
102864,
139217,
99122,
40499,
14338,
7052,
4096,
2811,
2531,
2612,
2603,
2458,
2428,
2386,
2511,
2522,
2559,
2678,
2797,
2690,
2615,
2623,
2582,
2439,
2467,
2545,
2510,
2553,
2578,
2563,
2490,
2434,
2413,
2434,
2504,
2560,
2441,
2397,
2382,
2328,
2345,
2360,
2546,
2459,
2504,
2409,
2379,
2382,
2686,
3117,
5051,
11379,
24125,
36613,
37106,
24548,
11288,
4597,
2796,
2682,
3130,
4285,
5826,
6106,
4987,
3522,
2529,
2145,
2016,
1810,
1916,
1794,
1767,
1801,
1777,
1816,
1755,
1664,
1788,
1783,
1704,
1696,
1702,
1699,
1576,
1655,
1642,
1594,
1556,
1789,
2084,
2525,
2678,
2683,
2377,
2033,
1721,
1634,
1603,
1598,
1493,
1517,
1602,
1717,
1840,
1779,
1725,
1639,
1575,
1498,
1456,
1381,
1443,
1384,
1450,
1400,
1429,
1253,
1245,
1306,
1343,
1253,
1297,
1237,
1275,
1303,
1252,
1216,
1233,
1231,
1210,
1166,
1145,
1147,
1152,
1188,
1166,
1153,
1267,
1385,
1347,
1284,
1179,
1148,
1010,
1097,
1113,
1044,
997,
1049,
1123,
1274,
1803,
3118,
5336,
8257,
9831,
9366,
6889,
4272,
2299,
1377,
1037,
943,
941,
871,
922,
876,
924,
852,
887,
859,
937,
942,
1042,
1236,
1495,
1777,
1962,
1851,
1540,
1228,
965,
829,
830,
776,
779,
756,
768,
780,
819,
777,
804,
745,
773,
732,
720,
699,
723,
680,
697,
706,
721,
674,
664,
661,
651,
657,
670,
651,
605,
629,
662,
635,
610,
639,
606,
621,
645,
598,
621,
617,
598,
590,
619,
614,
570,
575,
562,
635,
567,
593,
588,
586,
565,
561,
546,
541,
531,
531,
537,
521,
515,
513,
526,
495,
496,
496,
500,
523,
464,
510,
468,
459,
500,
448,
421,
470,
446,
498,
402,
458,
437,
471,
451,
435,
486,
435,
432,
413,
397,
369,
402,
391,
449,
376,
395,
408,
423,
420,
410,
379,
378,
389,
371,
393,
354,
335,
351,
355,
345,
352,
341,
350,
352,
362,
296,
377,
351,
336,
317,
309,
286,
328,
321,
312,
317,
326,
300,
311,
299,
303,
316,
271,
286,
272,
270,
279,
279,
327,
271,
225,
287,
260,
280,
291,
270,
250,
266,
302,
276,
233,
289,
241,
255,
236,
234,
237,
258,
235,
252,
250,
230,
212,
257,
221,
208,
222,
230,
226,
212,
226,
207,
226,
217,
205,
209,
195,
219,
182,
180,
178,
204,
211,
182,
180,
182,
170,
182,
170,
173,
175,
186,
187,
152,
168,
158,
158,
168,
185,
143,
165,
149,
136,
147,
151,
155,
124,
149,
144,
155,
133,
150,
161,
137,
107,
124,
150,
135,
141,
119,
125,
116,
116,
118,
108,
107,
117,
147,
106,
121,
122,
114,
108,
108,
104,
112,
109,
100,
105,
102,
85,
117,
106,
118,
93,
85,
86,
93,
92,
81,
97,
82,
98,
96,
113,
82,
80,
95,
76,
77,
90,
82,
82,
81,
71,
63,
82,
73,
76,
87,
73,
67,
59,
70,
65,
49,
66,
73,
59,
57,
63,
77,
51,
54,
66,
59,
52,
52,
51,
57,
42,
50,
45,
56,
40,
50,
48,
35,
45,
54,
46,
49,
35,
47,
40,
43,
41,
48,
60,
38,
38,
38,
39,
42,
43,
26,
31,
45,
37,
34,
20,
29,
26,
45,
33,
39,
37,
22,
39,
33,
20,
19,
19,
27,
26,
38,
36,
25,
34,
30,
20,
23,
23,
29,
24,
24,
20,
15,
23,
24,
23,
15,
9,
22,
14,
23,
24,
16,
15,
16,
15,
15,
16,
12,
21,
14,
12,
12,
11,
17,
15,
11,
18,
13,
9,
12,
16,
27,
6,
12,
8,
13,
6,
15,
5,
8,
9,
9,
7,
4,
10,
10,
9,
4,
8,
13,
8,
8,
8,
5,
4,
3,
3,
2,
3,
8,
4,
3,
1,
5,
4,
3,
4,
3,
4,
1,
3,
1,
0,
0,
1,
0,
1,
2,
4,
0,
0,
1,
0,
0,
1,
0,
0,
0,
0,
1,
0,
0,
0,
0,
1,
2,
0,
0,
0,
0,
0,
0,
0,
0,
0,
0,
0,
1,
0,
0,
1,
0,
0,
0,
0,
0,
0,
0,
0,
0,
0,
0,
0,
0,
0,
0,
0,
0,
0,
0,
0,
1,
0,
0,
0,
0,
0,
0,
0,
0,
0,
0,
0,
0,
0,
0,
0,
0,
0,
0,
0,
0,
0,
0,
0,
0,
0,
0,
0,
0,
0,
0,
0,
0,
0,
0,
0,
0,
0,
1,
0,
0,
0,
0,
0,
0,
0,
0,
0,
0,
0,
0,
0,
0,
0,
0,
0,
0,
0,
0,
0,
0,
0,
1,
0,
0,
0,
0,
0,
0,
0,
0,
0,
0,
0,
0,
0,
0,
0,
0,
0,
0,
0,
0,
0,
0,
0,
0,
0,
0,
0,
0,
0,
0,
0,
0,
0,
0,
0,
0,
0,
0,
0,
0,
0,
0,
0,
0,
0,
0,
0,
0,
0,
0,
0,
0,
0,
0,
0,
0,
0,
0,
1,
1,
0,
0,
0,
0,
0,
0,
0,
0,
0,
0,
0,
0,
0,
0,
0,
0,
0,
0,
0,
0,
0,
0,
0,
0,
0,
0,
0,
0,
0,
0,
0,
0,
0,
0,
0,
0,
0,
0,
0,
0,
0,
0,
0,
0,
0,
0,
0,
0,
0,
0,
0,
0,
0,
0,
0,
0,
0,
0,
0,
0,
0,
0,
0,
0,
0,
0,
0,
0,
0,
0,
0,
0,
0,
0,
0,
0,
0,
0,
0,
0,
0,
0,
0,
0,
0,
0,
0,
0,
0,
0,
0,
0,
0,
0,
0,
0,
0,
0,
0,
0,
0,
0,
0,
0,
0,
0,
0,
0,
0,
0,
0,
0,
0,
0,
0,
0,
0,
0,
0,
0,
0,
0,
0,
0,
0,
0,
0,
0,
0,
0,
0,
0,
0,
0,
0,
0,
0,
0,
0,
0,
0,
0,
0,
0,
0,
0,
0,
0,
0,
0,
0,
0,
0,
0,
0,
0,
0,
0,
0,
0,
0,
0,
0,
0,
0,
0,
0,
0,
0,
0,
0,
0,
0,
0,
0,
0,
0,
0,
0,
0,
0,
0,
0,
0,
0,
0,
0,
0,
0,
0,
0,
0,
0,
0,
0,
0,
0,
0,
0,
0,
0,
0,
0,
0,
0,
0,
0,
0,
0,
0,
0,
0,
0,
0,
0,
0,
0,
0,
0,
0,
0,
0,
0,
0,
0,
0,
0,
0,
0,
0,
0,
0,
0,
0,
0,
0,
0,
0,
0,
0,
0,
0,
0,
0,
0,
0,
0,
0,
0,
0,
0,
0,
0,
0,
0,
0,
0,
0,
0,
0,
0,
0,
0,
0,
0,
0,
0,
0,
0,
0,
0,
0,
0,
0,
0,
0,
0,
0,
0,
0,
0,
0,
0,
0,
0,
0,
0,
0,
0,
0,
0,
0,
0,
0,
0,
0,
0,
0,
0,
0,
0,
0,
0,
0,
0,
0,
0,
0,
0,
0,
0,
0,
0,
0,
0,
0,
0,
0,
0,
0,
0,
0,
0,
0,
0,
0,
0,
0,
0,
0,
0,
0,
0,
0,
0,
0,
0,
0,
0,
0,
0,
0,
0,
0,
0,
0,
0,
0,
0,
0,
0,
0,
0,
0,
0,
0,
0,
0,
0,
0,
0,
0,
0,
0,
0,
0,
0,
0,
0,
0,
0,
0,
0,
0,
0,
0,
0,
0,
0,
0,
0,
0,
0,
0,
0,
0,
0,
0,
0,
0,
0,
0,
0,
0,
0,
0,
0,
0,
0,
0,
0,
0,
0,
0,
0,
0,
0,
0,
0,
0,
0,
0,
0,
0,
0,
0,
0,
0,
0,
0,
0,
0,
0,
0,
0,
0,
0,
0,
0,
0,
0,
0,
0,
0,
0,
0,
0,
0,
0,
0,
0,
0,
0,
0,
0,
0,
0,
0,
0,
0,
0,
0,
0,
0,
0,
0,
0,
0,
0,
0,
0,
0,
0,
0,
0,
0,
0,
0,
0,
0,
0,
0,
0,
0,
0,
0,
0,
0,
0,
0,
0,
0,
0,
0,
0,
0,
0,
0,
0,
0,
0,
0,
0,
0,
0,
0,
0,
0,
0,
0,
0,
0,
0,
0,
0,
0,
0,
0,
0,
0,
0,
0,
0,
0,
0,
0,
0,
0,
0,
0,
0,
0,
0,
0,
0,
0,
0,
0,
#ENDOFDATA   :