File: N132962/Quantification/20 keV/MMM2/SPI MM2 Scheelite[4][4].msa
#FORMAT      : EMSA/MAS Spectral Data File
#VERSION     : 1.0
#TITLE       : SPI MM2 Scheelite[4][all]
#DATE        : 13-MAR-2025
#TIME        : 12:16
#OWNER       : Unknown
#NPOINTS     : 4096
#NCOLUMNS    : 1
#XUNITS      : eV
#YUNITS      : counts
#DATATYPE    : Y
#XPERCHAN    : 9.99778
#OFFSET      : 1.69135
#BEAMKV      : 20
#SIGNALTYPE  : EDS
#ELEVANGLE   : 35
#AZIMANGLE   : 0
#LIVETIME    : 239.94
#REALTIME    : 263.084
#PROBECUR    : 1.02616
#TAUWIND     : 0
#TDEADLYR    : 0
#TACTLYR     : 0.045
#TALWIND     : 0.025
#CHOFFSET    : 0.0
#XLABEL      : Energy (eV)
#YLABEL      : Counts
#XPOSITION   : -2.80104
#YPOSITION   : 1.94187
#ZPOSITION   : 31.03511
#EDSDET      : SD
##SPECIMEN   : SPI MM2 Scheelite[4][all]
##DET_HASH   : 12273538-fd48-a23f-0a19-f1e6fa85caef
##CALIB_HASH : 6abaa72c-aa41-8738-0be9-f592914732f3
##WORKING    : 15.0 mm
##DET_NAME   : EDAX All
##DET_MODE   : MediumLE
#SPECTRUM    :
39,
24,
17,
29,
178,
822,
2627,
6567,
14880,
19526,
11755,
5847,
4220,
4049,
4823,
9542,
28798,
53011,
40196,
13164,
4620,
4087,
4375,
4946,
5203,
5099,
5343,
5653,
6376,
6279,
6422,
6523,
6693,
6890,
7031,
7225,
7456,
7735,
7858,
8009,
8379,
8438,
8723,
9350,
12339,
18749,
22648,
19448,
13853,
11253,
10354,
9995,
9947,
10194,
11011,
13434,
21427,
57414,
143246,
226789,
222338,
156701,
86016,
34981,
12189,
7361,
7960,
9501,
9714,
7794,
6081,
5257,
5023,
5256,
5239,
5622,
6004,
6408,
6182,
5800,
5253,
5006,
4889,
4868,
4812,
4895,
4702,
4822,
4810,
4678,
4778,
4797,
4867,
4958,
4898,
4930,
4800,
4697,
4861,
4855,
4878,
4906,
4709,
4860,
4956,
4874,
4875,
5002,
4936,
4795,
4890,
4812,
4858,
4828,
4857,
4989,
5012,
5523,
6011,
7880,
14387,
29645,
52144,
65289,
55049,
32696,
15020,
7316,
5354,
5105,
5458,
6489,
8945,
11380,
12194,
10377,
7610,
5584,
4672,
4327,
4333,
4323,
4249,
4332,
4246,
4242,
4333,
4317,
4258,
4306,
4210,
4301,
4112,
4176,
4203,
3995,
4004,
4127,
4165,
4012,
4034,
3946,
4048,
4193,
4093,
4074,
3998,
3974,
4052,
3911,
3954,
3972,
3953,
3921,
3815,
4055,
3771,
3789,
3824,
3950,
3817,
3953,
3905,
3869,
3842,
3917,
3733,
3687,
3639,
3698,
3576,
3634,
3647,
3537,
3469,
3616,
3460,
3459,
3429,
3470,
3488,
3548,
3336,
3434,
3426,
3322,
3266,
3329,
3248,
3321,
3298,
3495,
3738,
3594,
3591,
3491,
3417,
3269,
3154,
3129,
3125,
3112,
3157,
3074,
3093,
3138,
2984,
2991,
2920,
2982,
2899,
2968,
2938,
3009,
3017,
2929,
2962,
2866,
2871,
2831,
2793,
2921,
2859,
3112,
3543,
3831,
3978,
4015,
3788,
3500,
3247,
2881,
2737,
2707,
2637,
2678,
2629,
2597,
2594,
2523,
2518,
2606,
2568,
2513,
2553,
2568,
2457,
2539,
2385,
2469,
2463,
2598,
2631,
3024,
3874,
5892,
9657,
15298,
22189,
26654,
27671,
23361,
16566,
10410,
6006,
3725,
2799,
2499,
2397,
2468,
2425,
2373,
2330,
2231,
2207,
2160,
2115,
2076,
1994,
2027,
2076,
2037,
2070,
2005,
1974,
1910,
1968,
2011,
1947,
1973,
1936,
2042,
2057,
2163,
2303,
2607,
3028,
3650,
4661,
6125,
8212,
9962,
10801,
10449,
8666,
6856,
5220,
4826,
4433,
5073,
5693,
6354,
6313,
5768,
4691,
3620,
2789,
2217,
2003,
1891,
1892,
1742,
1630,
1571,
1525,
1478,
1411,
1510,
1415,
1383,
1392,
1393,
1341,
1464,
1410,
1317,
1378,
1442,
1380,
1348,
1414,
1315,
1325,
1376,
1356,
1355,
1329,
1367,
1300,
1376,
1375,
1501,
1691,
1964,
2327,
2550,
2714,
2555,
2230,
1873,
1526,
1421,
1324,
1369,
1366,
1464,
1525,
1498,
1538,
1444,
1445,
1374,
1253,
1196,
1061,
1103,
1059,
1050,
1023,
1091,
1127,
1094,
1088,
1103,
988,
980,
962,
928,
990,
914,
963,
917,
898,
901,
856,
868,
897,
813,
834,
845,
857,
821,
812,
864,
848,
829,
843,
757,
810,
734,
764,
793,
754,
762,
809,
765,
766,
775,
734,
718,
695,
697,
681,
696,
698,
712,
709,
682,
712,
645,
661,
663,
681,
667,
672,
626,
585,
617,
637,
640,
620,
661,
606,
590,
592,
572,
611,
539,
527,
536,
548,
545,
512,
615,
553,
532,
514,
518,
475,
521,
503,
494,
551,
484,
469,
489,
490,
516,
451,
463,
428,
467,
464,
428,
419,
460,
437,
450,
445,
444,
399,
421,
410,
352,
398,
400,
382,
370,
368,
415,
383,
393,
375,
360,
365,
370,
341,
336,
332,
366,
336,
318,
330,
334,
320,
318,
312,
277,
315,
291,
315,
301,
285,
291,
264,
258,
270,
266,
266,
281,
244,
266,
273,
268,
275,
227,
233,
232,
224,
242,
229,
232,
253,
202,
192,
216,
205,
211,
221,
200,
219,
198,
194,
182,
178,
207,
192,
216,
180,
179,
188,
187,
179,
179,
176,
185,
161,
160,
159,
160,
164,
159,
172,
143,
133,
144,
135,
122,
122,
129,
139,
119,
124,
132,
113,
122,
111,
118,
129,
128,
106,
98,
107,
118,
127,
83,
125,
101,
99,
96,
97,
86,
89,
84,
85,
68,
90,
67,
75,
74,
65,
72,
63,
66,
57,
60,
54,
54,
57,
53,
47,
46,
44,
50,
52,
54,
41,
49,
39,
38,
31,
28,
33,
27,
32,
29,
32,
28,
34,
25,
30,
24,
32,
12,
16,
17,
18,
14,
20,
20,
8,
12,
9,
6,
7,
5,
6,
5,
7,
3,
8,
9,
4,
4,
1,
2,
4,
5,
1,
3,
1,
3,
3,
5,
3,
3,
4,
2,
4,
6,
0,
3,
2,
4,
3,
3,
4,
0,
4,
0,
2,
3,
0,
3,
3,
3,
3,
2,
2,
0,
0,
1,
0,
2,
1,
3,
2,
2,
2,
1,
1,
2,
3,
3,
4,
2,
2,
1,
2,
1,
2,
1,
0,
1,
0,
1,
1,
3,
0,
0,
2,
1,
3,
1,
3,
2,
2,
2,
1,
2,
3,
2,
3,
1,
1,
1,
3,
2,
3,
3,
1,
4,
1,
4,
0,
2,
0,
0,
2,
0,
0,
1,
1,
1,
2,
2,
2,
2,
2,
1,
1,
0,
1,
1,
1,
0,
3,
0,
1,
0,
0,
0,
1,
1,
2,
0,
0,
0,
0,
1,
0,
0,
1,
1,
1,
2,
1,
0,
2,
2,
0,
0,
0,
2,
1,
2,
0,
2,
0,
0,
1,
2,
1,
0,
0,
0,
1,
1,
1,
2,
0,
0,
0,
1,
1,
1,
0,
0,
0,
1,
0,
1,
0,
1,
1,
0,
1,
0,
2,
1,
0,
2,
2,
0,
0,
1,
0,
0,
0,
1,
2,
2,
2,
1,
1,
2,
3,
0,
1,
0,
0,
0,
0,
1,
0,
3,
0,
0,
0,
0,
0,
1,
0,
0,
1,
0,
1,
1,
1,
0,
1,
0,
0,
1,
0,
0,
0,
0,
0,
0,
0,
1,
0,
0,
0,
1,
0,
0,
0,
0,
0,
0,
2,
0,
0,
0,
0,
0,
0,
1,
0,
0,
0,
0,
0,
1,
0,
0,
1,
0,
0,
0,
0,
0,
0,
1,
0,
0,
0,
0,
0,
0,
1,
0,
0,
0,
1,
1,
0,
0,
0,
0,
0,
0,
0,
0,
0,
0,
1,
0,
0,
1,
0,
0,
0,
0,
1,
0,
0,
0,
0,
0,
0,
0,
0,
1,
0,
0,
0,
0,
0,
0,
0,
0,
0,
0,
0,
0,
0,
0,
0,
0,
0,
0,
0,
0,
0,
0,
0,
1,
0,
0,
0,
0,
0,
0,
1,
0,
0,
1,
0,
0,
0,
1,
0,
0,
0,
0,
0,
0,
0,
0,
0,
0,
0,
0,
0,
0,
0,
0,
0,
0,
0,
0,
0,
0,
0,
0,
0,
0,
0,
0,
0,
0,
0,
0,
0,
0,
0,
0,
0,
0,
0,
0,
0,
0,
0,
0,
0,
0,
0,
0,
0,
0,
0,
0,
0,
0,
0,
0,
0,
0,
0,
0,
0,
0,
0,
0,
0,
0,
0,
0,
0,
0,
0,
0,
0,
0,
0,
0,
0,
0,
0,
0,
0,
0,
0,
0,
0,
0,
0,
0,
0,
0,
0,
0,
0,
0,
0,
0,
0,
0,
0,
0,
0,
0,
0,
0,
0,
0,
0,
1,
0,
0,
0,
0,
0,
0,
0,
0,
0,
0,
0,
0,
0,
0,
0,
0,
0,
0,
0,
0,
0,
0,
0,
0,
0,
0,
0,
0,
0,
0,
0,
0,
0,
0,
0,
0,
0,
0,
0,
0,
0,
0,
0,
0,
0,
0,
0,
0,
0,
0,
0,
0,
0,
0,
0,
0,
0,
0,
0,
0,
0,
0,
0,
0,
0,
0,
0,
0,
0,
0,
0,
0,
0,
0,
0,
0,
0,
0,
0,
0,
0,
0,
0,
0,
0,
0,
0,
0,
0,
0,
0,
0,
0,
0,
0,
0,
0,
0,
0,
0,
0,
0,
0,
0,
0,
0,
0,
0,
0,
0,
0,
0,
0,
0,
0,
0,
0,
0,
0,
0,
0,
0,
0,
0,
0,
0,
0,
0,
0,
0,
0,
0,
0,
0,
0,
0,
0,
0,
0,
0,
0,
0,
0,
0,
0,
0,
0,
0,
0,
0,
0,
0,
0,
0,
0,
0,
0,
0,
0,
0,
0,
0,
0,
0,
0,
0,
0,
0,
0,
0,
0,
0,
0,
0,
0,
0,
0,
0,
0,
0,
0,
0,
0,
0,
0,
0,
0,
0,
0,
0,
0,
0,
0,
0,
0,
0,
0,
0,
0,
0,
0,
0,
0,
0,
0,
0,
0,
0,
0,
0,
0,
0,
0,
0,
0,
0,
0,
0,
0,
0,
0,
0,
0,
0,
0,
0,
0,
0,
0,
0,
0,
0,
0,
0,
0,
0,
0,
0,
0,
0,
0,
0,
0,
0,
#ENDOFDATA   :