File: N132962/Quantification/20 keV/MMM2/SPI MM2 SPI Mangotantalite[2][4].msa
#FORMAT      : EMSA/MAS Spectral Data File
#VERSION     : 1.0
#TITLE       : SPI MM2 SPI Mangotantalite[2][all]
#DATE        : 13-MAR-2025
#TIME        : 09:38
#OWNER       : Unknown
#NPOINTS     : 4096
#NCOLUMNS    : 1
#XUNITS      : eV
#YUNITS      : counts
#DATATYPE    : Y
#XPERCHAN    : 9.99778
#OFFSET      : 1.69135
#BEAMKV      : 20
#SIGNALTYPE  : EDS
#ELEVANGLE   : 35
#AZIMANGLE   : 0
#LIVETIME    : 239.87
#REALTIME    : 261.98
#PROBECUR    : 1.02582
#TAUWIND     : 0
#TDEADLYR    : 0
#TACTLYR     : 0.045
#TALWIND     : 0.025
#CHOFFSET    : 0.0
#XLABEL      : Energy (eV)
#YLABEL      : Counts
#XPOSITION   : -1.70302
#YPOSITION   : -4.59263
#ZPOSITION   : 31.03509
#EDSDET      : SD
##SPECIMEN   : SPI MM2 SPI Mangotantalite[2][all]
##DET_HASH   : 12273538-fd48-a23f-0a19-f1e6fa85caef
##CALIB_HASH : 6abaa72c-aa41-8738-0be9-f592914732f3
##WORKING    : 15.0 mm
##DET_NAME   : EDAX All
##DET_MODE   : MediumLE
#SPECTRUM    :
22,
29,
11,
35,
246,
1172,
3019,
6303,
13384,
16688,
9118,
4595,
4348,
4917,
6156,
11759,
34166,
63333,
47906,
16832,
9065,
10773,
9860,
8061,
6994,
5813,
5327,
5348,
5756,
5966,
5862,
6078,
6157,
6501,
6863,
6936,
7168,
7353,
7361,
7723,
8068,
8518,
10117,
14974,
19449,
18007,
13442,
10532,
9746,
9837,
9840,
9959,
10592,
12516,
21566,
58607,
138167,
197434,
175229,
113019,
55396,
21124,
9254,
7688,
8907,
10010,
9494,
7869,
6902,
7877,
12466,
22053,
30320,
28501,
22029,
18459,
15448,
11454,
8414,
6715,
6004,
5315,
5033,
4878,
4806,
4635,
4736,
4827,
4955,
5116,
4883,
4763,
4709,
4772,
4804,
4718,
4698,
4730,
4752,
4823,
4660,
4814,
4797,
4705,
4842,
4855,
4948,
4890,
4840,
4754,
4844,
4878,
4854,
4892,
5018,
5044,
5033,
4879,
4989,
4754,
4803,
4834,
4724,
4713,
4836,
4724,
4751,
4691,
4852,
4741,
4684,
4656,
4528,
4805,
4695,
4720,
4668,
4809,
4833,
4757,
4699,
4638,
4481,
4590,
4515,
4539,
4505,
4698,
4993,
5149,
5634,
5469,
5058,
4707,
4548,
4434,
4332,
4329,
4361,
4210,
4235,
4403,
4375,
4347,
4304,
4281,
4318,
4016,
4258,
4132,
4066,
4046,
4090,
4093,
4095,
3951,
4008,
3941,
3996,
3967,
4050,
3971,
3830,
3903,
3858,
3816,
3871,
3799,
3779,
3814,
3898,
4167,
5237,
8034,
14138,
21772,
27802,
27869,
21397,
13496,
7564,
4741,
3928,
3518,
3563,
3478,
3502,
3459,
3675,
3836,
4539,
5869,
7433,
8944,
9362,
9067,
7963,
6891,
5432,
4410,
3608,
3252,
3119,
3014,
2974,
3041,
3019,
3051,
2957,
2974,
2970,
3067,
3128,
3311,
3480,
3663,
3852,
3902,
4066,
4088,
3959,
3400,
3202,
3033,
2814,
2734,
2837,
2976,
2897,
2904,
2902,
2754,
2765,
2806,
2688,
2699,
2586,
2610,
2541,
2498,
2614,
2611,
2458,
2568,
2739,
3187,
4240,
6601,
10924,
17032,
22961,
26853,
25706,
20389,
13527,
8248,
4889,
3269,
2806,
2614,
2671,
2549,
2429,
2406,
2313,
2286,
2262,
2191,
2247,
2237,
2186,
2058,
2092,
2083,
2046,
2116,
2076,
2112,
2077,
2119,
2021,
2072,
2131,
2310,
2409,
2998,
3549,
4704,
6153,
8199,
10043,
11084,
10747,
9060,
7113,
5429,
4588,
4094,
4237,
4837,
5608,
5989,
5942,
5327,
4123,
3239,
2556,
2065,
2038,
1925,
1814,
1797,
1733,
1555,
1540,
1530,
1546,
1541,
1521,
1494,
1513,
1473,
1501,
1436,
1438,
1436,
1503,
1479,
1469,
1423,
1474,
1486,
1478,
1402,
1407,
1420,
1495,
1450,
1575,
1664,
2067,
2399,
2686,
2738,
2712,
2342,
2013,
1755,
1512,
1457,
1460,
1459,
1519,
1592,
1674,
1706,
1682,
1541,
1442,
1264,
1237,
1237,
1205,
1166,
1187,
1184,
1134,
1186,
1146,
1087,
1145,
1089,
1116,
1110,
1032,
982,
1085,
986,
1052,
1005,
993,
986,
997,
1022,
954,
972,
936,
905,
919,
876,
968,
921,
928,
924,
910,
901,
895,
897,
857,
874,
821,
881,
916,
828,
806,
815,
806,
808,
785,
745,
812,
744,
837,
795,
729,
808,
758,
753,
748,
691,
767,
759,
680,
753,
701,
703,
702,
702,
682,
676,
643,
685,
660,
647,
658,
591,
641,
616,
619,
615,
575,
606,
627,
632,
584,
599,
585,
606,
559,
566,
575,
552,
549,
534,
582,
538,
480,
520,
522,
520,
453,
496,
488,
506,
432,
443,
485,
468,
489,
477,
471,
438,
473,
434,
415,
449,
417,
435,
419,
406,
381,
405,
414,
394,
388,
399,
412,
402,
375,
393,
377,
365,
351,
344,
347,
363,
336,
359,
322,
368,
317,
317,
304,
301,
322,
322,
312,
311,
321,
315,
306,
319,
296,
278,
286,
297,
275,
276,
239,
253,
257,
255,
257,
261,
247,
256,
223,
240,
222,
250,
223,
217,
232,
253,
239,
200,
238,
197,
215,
197,
225,
218,
211,
165,
238,
189,
200,
165,
190,
160,
180,
203,
150,
163,
179,
164,
174,
162,
178,
150,
151,
151,
133,
154,
144,
153,
156,
138,
129,
147,
114,
125,
113,
128,
112,
123,
139,
109,
104,
109,
141,
103,
119,
101,
101,
90,
85,
80,
99,
100,
89,
105,
79,
83,
78,
83,
82,
108,
78,
85,
78,
83,
63,
83,
52,
71,
54,
52,
60,
57,
56,
58,
61,
36,
56,
54,
48,
46,
46,
24,
43,
45,
37,
32,
27,
39,
25,
28,
20,
32,
37,
21,
22,
18,
23,
20,
16,
18,
12,
16,
7,
6,
8,
8,
10,
4,
4,
8,
4,
6,
3,
2,
4,
1,
6,
5,
1,
5,
2,
3,
9,
6,
2,
1,
3,
2,
2,
1,
1,
3,
3,
3,
5,
5,
4,
3,
1,
0,
5,
2,
2,
3,
3,
4,
2,
2,
4,
2,
1,
2,
2,
1,
3,
5,
0,
0,
2,
2,
1,
2,
2,
2,
1,
2,
1,
2,
3,
5,
1,
1,
1,
1,
1,
2,
0,
3,
1,
1,
1,
4,
0,
0,
1,
3,
1,
1,
2,
2,
4,
5,
1,
1,
2,
3,
1,
0,
1,
1,
0,
5,
2,
2,
1,
0,
0,
0,
1,
0,
2,
0,
1,
1,
2,
0,
2,
2,
3,
4,
2,
1,
1,
0,
1,
1,
0,
2,
2,
1,
0,
1,
1,
1,
0,
1,
0,
2,
1,
0,
0,
0,
1,
0,
0,
0,
2,
2,
0,
0,
4,
1,
0,
0,
1,
0,
0,
0,
0,
0,
0,
0,
2,
1,
0,
1,
0,
1,
1,
1,
0,
3,
2,
0,
0,
0,
0,
1,
0,
1,
1,
0,
1,
0,
2,
0,
0,
2,
1,
0,
1,
1,
1,
0,
0,
0,
1,
1,
0,
0,
0,
1,
0,
0,
1,
1,
0,
0,
0,
0,
0,
0,
1,
2,
1,
0,
0,
0,
0,
2,
0,
0,
0,
0,
0,
1,
1,
0,
1,
0,
0,
0,
0,
0,
0,
0,
0,
0,
0,
1,
1,
1,
0,
0,
1,
0,
0,
0,
0,
0,
0,
1,
1,
0,
1,
0,
0,
1,
0,
0,
0,
0,
1,
0,
0,
0,
0,
0,
0,
1,
0,
0,
0,
0,
0,
0,
0,
1,
0,
0,
2,
1,
0,
0,
0,
0,
0,
0,
0,
0,
0,
0,
0,
0,
0,
0,
0,
0,
1,
0,
0,
0,
0,
0,
0,
1,
1,
0,
0,
0,
0,
0,
0,
0,
0,
2,
2,
0,
0,
0,
0,
1,
0,
0,
0,
0,
0,
0,
0,
0,
0,
0,
0,
0,
0,
0,
0,
0,
0,
0,
0,
0,
0,
0,
1,
0,
0,
0,
0,
0,
0,
0,
0,
1,
0,
0,
0,
0,
0,
0,
0,
0,
0,
0,
0,
0,
0,
0,
1,
0,
0,
0,
0,
0,
0,
0,
0,
0,
0,
0,
0,
0,
0,
0,
1,
0,
0,
0,
0,
0,
0,
0,
0,
0,
0,
0,
0,
0,
0,
0,
0,
0,
0,
0,
0,
0,
0,
0,
0,
0,
0,
0,
0,
0,
0,
0,
0,
0,
0,
0,
0,
0,
0,
0,
0,
0,
0,
0,
0,
0,
0,
0,
0,
0,
0,
1,
0,
0,
0,
0,
0,
0,
0,
0,
0,
0,
0,
0,
0,
0,
0,
0,
0,
0,
0,
0,
0,
0,
0,
0,
0,
0,
0,
0,
0,
0,
0,
0,
0,
0,
0,
0,
0,
0,
0,
0,
0,
0,
0,
0,
0,
0,
0,
0,
0,
0,
0,
0,
0,
0,
0,
0,
0,
0,
0,
0,
0,
0,
0,
0,
0,
1,
0,
0,
0,
0,
0,
0,
0,
0,
0,
0,
0,
0,
0,
0,
0,
0,
0,
0,
0,
0,
0,
0,
0,
0,
0,
0,
0,
0,
0,
0,
0,
0,
0,
0,
0,
0,
0,
0,
0,
0,
0,
0,
0,
0,
0,
0,
0,
0,
0,
0,
0,
0,
0,
0,
0,
0,
0,
0,
0,
0,
0,
0,
0,
0,
0,
0,
0,
0,
0,
0,
0,
0,
0,
0,
0,
0,
0,
0,
0,
0,
0,
0,
0,
0,
0,
0,
0,
0,
0,
0,
0,
0,
0,
0,
0,
0,
0,
0,
0,
0,
0,
0,
0,
0,
0,
0,
0,
0,
0,
0,
0,
0,
0,
0,
0,
0,
0,
0,
0,
0,
0,
0,
0,
0,
0,
0,
0,
0,
0,
0,
0,
0,
0,
0,
0,
0,
0,
0,
0,
0,
0,
0,
0,
0,
0,
0,
0,
0,
0,
0,
0,
0,
0,
0,
0,
0,
0,
0,
0,
0,
0,
0,
0,
0,
0,
0,
0,
0,
0,
0,
0,
0,
0,
0,
0,
0,
0,
0,
0,
0,
0,
0,
0,
0,
0,
0,
0,
0,
0,
0,
0,
0,
0,
0,
0,
0,
0,
0,
0,
0,
0,
0,
0,
0,
0,
0,
#ENDOFDATA   :