File: N132962/Quantification/20 keV/MMM2/SPI MM2 Rhodonite[6][4].msa
#FORMAT      : EMSA/MAS Spectral Data File
#VERSION     : 1.0
#TITLE       : SPI MM2 Rhodonite[6][all]
#DATE        : 13-MAR-2025
#TIME        : 12:28
#OWNER       : Unknown
#NPOINTS     : 4096
#NCOLUMNS    : 1
#XUNITS      : eV
#YUNITS      : counts
#DATATYPE    : Y
#XPERCHAN    : 9.99778
#OFFSET      : 1.69135
#BEAMKV      : 20
#SIGNALTYPE  : EDS
#ELEVANGLE   : 35
#AZIMANGLE   : 0
#LIVETIME    : 239.855
#REALTIME    : 255.716
#PROBECUR    : 1.02616
#TAUWIND     : 0
#TDEADLYR    : 0
#TACTLYR     : 0.045
#TALWIND     : 0.025
#CHOFFSET    : 0.0
#XLABEL      : Energy (eV)
#YLABEL      : Counts
#XPOSITION   : 0.046
#YPOSITION   : 1.14224
#ZPOSITION   : 31.03511
#EDSDET      : SD
##SPECIMEN   : SPI MM2 Rhodonite[6][all]
##DET_HASH   : 12273538-fd48-a23f-0a19-f1e6fa85caef
##CALIB_HASH : 6abaa72c-aa41-8738-0be9-f592914732f3
##WORKING    : 15.0 mm
##DET_NAME   : EDAX All
##DET_MODE   : MediumLE
#SPECTRUM    :
23,
16,
8,
16,
91,
341,
933,
3182,
9368,
12744,
7002,
3589,
3335,
3972,
6442,
21754,
84968,
165965,
122974,
35929,
12748,
15347,
12390,
6612,
4436,
2892,
2102,
2086,
2259,
2231,
2282,
2387,
2600,
2740,
2920,
3084,
3057,
3140,
3299,
3685,
5274,
8351,
9705,
6956,
4613,
3810,
3937,
4152,
4633,
5350,
5496,
5294,
5018,
5153,
5892,
13780,
50675,
128793,
175514,
124315,
50567,
18002,
8709,
5153,
3539,
3173,
3080,
3033,
3089,
3046,
3065,
3079,
3065,
3237,
3323,
3542,
3406,
3303,
3288,
3204,
3220,
3201,
3218,
3102,
3072,
3005,
3106,
3061,
2959,
3017,
3048,
3070,
3005,
3042,
3122,
3020,
2991,
2956,
2970,
3041,
2899,
2943,
2795,
2832,
2848,
2740,
2876,
2745,
2713,
2862,
2808,
2704,
2713,
2706,
2692,
2756,
2834,
2814,
3002,
3329,
4986,
8990,
14794,
18166,
15656,
9721,
5092,
3165,
2583,
2511,
2529,
2805,
3385,
4061,
4219,
3781,
3188,
2726,
2653,
2564,
2396,
2391,
2130,
2117,
2106,
2086,
2140,
2115,
2120,
2074,
2004,
2129,
1957,
2015,
2051,
2028,
2015,
2055,
1984,
1949,
1894,
1984,
1920,
1906,
1883,
1932,
1878,
1888,
1816,
1752,
1817,
1826,
1813,
1754,
1760,
1736,
1767,
1752,
1658,
1722,
1745,
1635,
1748,
1712,
1655,
1664,
1734,
1688,
1757,
1787,
2003,
2858,
5945,
13966,
30446,
52326,
69385,
69383,
51488,
29219,
13043,
5072,
2325,
1695,
1518,
1462,
1431,
1471,
1616,
2066,
3129,
5054,
7574,
10330,
12202,
13094,
12456,
10476,
7478,
4449,
2585,
1605,
1211,
1103,
1089,
1086,
1082,
1074,
1092,
1122,
1149,
1230,
1284,
1540,
1660,
1794,
1732,
1488,
1317,
1182,
1037,
978,
1006,
1000,
986,
969,
1002,
951,
1022,
1063,
984,
996,
993,
1055,
1041,
1042,
1010,
995,
1007,
874,
893,
910,
852,
867,
886,
828,
849,
886,
876,
813,
826,
840,
839,
807,
859,
805,
816,
832,
840,
846,
798,
761,
742,
763,
769,
795,
794,
740,
800,
732,
758,
712,
715,
719,
671,
704,
662,
707,
690,
674,
673,
671,
718,
678,
682,
709,
651,
640,
627,
633,
697,
667,
616,
635,
637,
639,
614,
661,
588,
618,
620,
629,
640,
591,
617,
556,
536,
588,
557,
587,
571,
594,
591,
559,
539,
542,
540,
540,
470,
517,
542,
500,
521,
506,
485,
504,
502,
529,
480,
512,
489,
477,
456,
488,
487,
483,
500,
449,
461,
460,
465,
440,
411,
462,
463,
433,
418,
431,
406,
407,
407,
436,
394,
376,
400,
387,
432,
404,
387,
393,
362,
361,
365,
378,
371,
360,
375,
355,
339,
363,
365,
387,
364,
339,
396,
367,
318,
337,
351,
322,
313,
336,
296,
313,
280,
333,
296,
301,
316,
286,
301,
322,
336,
298,
291,
313,
271,
294,
242,
252,
275,
231,
282,
280,
249,
253,
236,
259,
233,
249,
254,
233,
229,
232,
251,
240,
253,
237,
248,
233,
219,
221,
240,
242,
231,
190,
199,
209,
225,
212,
199,
207,
235,
185,
180,
194,
197,
167,
194,
161,
164,
170,
175,
199,
175,
180,
168,
175,
161,
171,
131,
165,
156,
176,
159,
130,
152,
161,
155,
159,
129,
138,
166,
138,
136,
154,
151,
116,
136,
141,
129,
114,
118,
133,
112,
132,
117,
116,
129,
119,
112,
120,
95,
115,
133,
102,
100,
119,
99,
101,
97,
113,
97,
102,
112,
85,
92,
92,
93,
80,
86,
95,
88,
80,
84,
103,
78,
70,
62,
83,
70,
97,
65,
75,
78,
65,
69,
71,
71,
64,
53,
61,
72,
61,
68,
56,
56,
66,
69,
60,
46,
56,
70,
66,
49,
49,
58,
56,
66,
56,
50,
37,
49,
35,
53,
54,
48,
55,
50,
39,
42,
29,
41,
55,
37,
42,
34,
38,
29,
34,
34,
43,
37,
36,
37,
29,
30,
22,
23,
31,
48,
33,
28,
48,
26,
25,
25,
20,
29,
18,
21,
23,
25,
26,
22,
13,
17,
19,
15,
20,
21,
17,
16,
23,
13,
20,
10,
23,
21,
18,
22,
16,
16,
18,
10,
10,
11,
17,
13,
8,
7,
12,
10,
13,
10,
7,
5,
8,
5,
5,
6,
7,
9,
8,
4,
4,
8,
8,
6,
3,
8,
7,
6,
3,
1,
2,
1,
3,
1,
1,
2,
1,
2,
1,
4,
1,
1,
1,
1,
0,
0,
1,
0,
1,
0,
0,
2,
1,
0,
0,
0,
0,
1,
1,
0,
0,
0,
2,
2,
0,
0,
0,
0,
0,
0,
0,
0,
0,
1,
0,
0,
0,
0,
1,
0,
0,
0,
0,
2,
0,
0,
1,
0,
1,
0,
0,
0,
0,
1,
0,
0,
0,
1,
1,
0,
1,
0,
1,
0,
0,
0,
1,
1,
0,
1,
1,
0,
0,
0,
0,
0,
0,
0,
0,
0,
0,
0,
0,
1,
0,
0,
0,
0,
0,
0,
1,
0,
0,
0,
0,
0,
0,
0,
0,
0,
1,
0,
0,
0,
0,
1,
0,
0,
0,
0,
0,
0,
0,
0,
0,
0,
0,
0,
1,
0,
0,
1,
0,
0,
0,
0,
0,
0,
0,
0,
0,
0,
0,
0,
0,
0,
0,
0,
0,
0,
0,
0,
0,
0,
0,
0,
0,
0,
0,
0,
0,
0,
0,
0,
0,
0,
1,
0,
0,
1,
0,
0,
0,
0,
0,
0,
0,
0,
0,
0,
0,
0,
0,
0,
0,
0,
0,
0,
0,
0,
0,
0,
0,
0,
0,
0,
0,
0,
0,
0,
0,
0,
0,
0,
0,
0,
0,
0,
0,
0,
0,
0,
0,
0,
0,
0,
0,
0,
0,
0,
0,
0,
0,
0,
0,
0,
0,
0,
0,
0,
0,
0,
0,
0,
1,
0,
0,
0,
0,
0,
0,
0,
0,
0,
0,
0,
0,
0,
0,
0,
0,
0,
0,
0,
0,
0,
0,
0,
0,
0,
0,
0,
0,
0,
0,
0,
0,
0,
0,
0,
0,
0,
0,
0,
0,
0,
0,
0,
0,
0,
0,
0,
0,
0,
0,
0,
0,
0,
0,
0,
0,
0,
0,
0,
0,
0,
0,
0,
0,
0,
0,
0,
0,
0,
0,
0,
0,
0,
0,
0,
0,
0,
0,
0,
0,
0,
0,
0,
0,
0,
0,
0,
0,
0,
0,
0,
0,
0,
0,
0,
0,
0,
0,
0,
0,
0,
0,
0,
0,
0,
0,
0,
0,
0,
0,
0,
0,
0,
0,
0,
0,
0,
0,
0,
0,
0,
0,
0,
0,
0,
0,
0,
0,
0,
0,
0,
0,
0,
0,
0,
0,
0,
0,
0,
0,
0,
0,
0,
0,
0,
0,
0,
0,
0,
0,
0,
0,
0,
0,
0,
0,
0,
0,
0,
0,
0,
0,
0,
0,
0,
0,
0,
0,
0,
0,
0,
0,
0,
0,
0,
0,
0,
0,
0,
0,
0,
0,
0,
0,
0,
0,
0,
0,
0,
0,
0,
0,
0,
0,
0,
0,
0,
0,
0,
0,
0,
0,
0,
0,
0,
0,
0,
0,
0,
0,
0,
0,
0,
0,
0,
0,
0,
0,
0,
0,
0,
0,
0,
0,
0,
0,
0,
0,
0,
0,
0,
0,
0,
0,
0,
0,
0,
0,
0,
0,
0,
0,
0,
0,
0,
0,
0,
0,
0,
0,
0,
0,
0,
0,
0,
0,
0,
0,
0,
0,
0,
0,
0,
0,
0,
0,
0,
0,
0,
0,
0,
0,
0,
0,
0,
0,
0,
0,
0,
0,
0,
0,
0,
0,
0,
0,
0,
0,
0,
0,
0,
0,
0,
0,
0,
0,
0,
0,
0,
0,
0,
0,
0,
0,
0,
0,
0,
0,
0,
0,
0,
0,
0,
0,
0,
0,
0,
0,
0,
0,
0,
0,
0,
0,
0,
0,
0,
0,
0,
0,
0,
0,
0,
0,
0,
0,
0,
0,
0,
0,
0,
0,
0,
0,
0,
0,
0,
0,
0,
0,
0,
0,
0,
0,
0,
0,
0,
0,
0,
0,
0,
0,
0,
0,
0,
0,
0,
0,
0,
0,
0,
0,
0,
0,
0,
0,
0,
0,
0,
0,
0,
0,
0,
0,
0,
0,
0,
0,
0,
0,
0,
0,
0,
0,
0,
0,
0,
0,
0,
0,
0,
0,
0,
0,
0,
0,
0,
0,
0,
0,
0,
0,
0,
0,
0,
0,
0,
0,
0,
0,
0,
0,
0,
0,
0,
0,
0,
0,
0,
0,
0,
0,
0,
0,
0,
0,
0,
0,
0,
0,
0,
0,
0,
0,
0,
0,
0,
0,
0,
0,
0,
0,
0,
0,
0,
0,
0,
0,
0,
0,
0,
0,
0,
0,
0,
0,
0,
0,
0,
0,
0,
0,
0,
0,
0,
0,
#ENDOFDATA   :