File: N132962/Quantification/20 keV/MMM2/SPI MM2 SPI Phlogpite[2][4].msa
#FORMAT      : EMSA/MAS Spectral Data File
#VERSION     : 1.0
#TITLE       : SPI MM2 SPI Phlogpite[2][all]
#DATE        : 13-MAR-2025
#TIME        : 10:43
#OWNER       : Unknown
#NPOINTS     : 4096
#NCOLUMNS    : 1
#XUNITS      : eV
#YUNITS      : counts
#DATATYPE    : Y
#XPERCHAN    : 9.99778
#OFFSET      : 1.69135
#BEAMKV      : 20
#SIGNALTYPE  : EDS
#ELEVANGLE   : 35
#AZIMANGLE   : 0
#LIVETIME    : 239.905
#REALTIME    : 254.765
#PROBECUR    : 1.02606
#TAUWIND     : 0
#TDEADLYR    : 0
#TACTLYR     : 0.045
#TALWIND     : 0.025
#CHOFFSET    : 0.0
#XLABEL      : Energy (eV)
#YLABEL      : Counts
#XPOSITION   : 1.48318
#YPOSITION   : -0.41863
#ZPOSITION   : 31.0351
#EDSDET      : SD
##SPECIMEN   : SPI MM2 SPI Phlogpite[2][all]
##D2STDCMP   : SPI Phlogpite,(H:0.48),(O:46.01),(Mg:17.47),(Al:6.47),(Si:20.19),(K:9.37)
##DET_HASH   : 12273538-fd48-a23f-0a19-f1e6fa85caef
##CALIB_HASH : 6abaa72c-aa41-8738-0be9-f592914732f3
##WORKING    : 15.0 mm
##DET_NAME   : EDAX All
##DET_MODE   : MediumLE
#SPECTRUM    :
19,
28,
16,
12,
62,
297,
956,
3411,
9468,
11939,
6091,
2552,
2461,
3093,
5405,
19435,
77400,
151914,
111057,
29211,
4975,
3265,
5034,
7097,
6295,
3818,
2752,
2666,
2724,
2790,
2960,
2816,
3403,
4435,
6489,
6915,
5512,
4671,
5170,
10471,
36772,
90077,
108929,
61598,
18880,
5812,
4656,
8523,
24255,
47584,
48016,
25951,
10681,
5637,
5044,
11068,
40180,
102897,
139373,
98703,
40933,
14302,
6960,
3914,
2741,
2501,
2427,
2551,
2540,
2498,
2487,
2493,
2428,
2497,
2734,
2809,
2759,
2644,
2557,
2530,
2553,
2454,
2525,
2553,
2483,
2531,
2458,
2374,
2457,
2462,
2490,
2442,
2593,
2517,
2360,
2364,
2328,
2415,
2372,
2486,
2512,
2365,
2397,
2353,
2431,
2611,
3170,
5057,
11590,
24314,
36609,
37186,
24612,
11263,
4599,
2746,
2702,
3311,
4376,
5834,
6102,
5046,
3576,
2590,
2136,
1939,
1872,
1879,
1814,
1800,
1773,
1741,
1805,
1812,
1813,
1710,
1682,
1661,
1655,
1641,
1616,
1602,
1621,
1604,
1618,
1662,
1737,
2023,
2383,
2637,
2710,
2282,
1941,
1726,
1525,
1524,
1556,
1485,
1555,
1556,
1763,
1731,
1733,
1666,
1634,
1566,
1536,
1433,
1376,
1398,
1405,
1454,
1440,
1435,
1354,
1308,
1273,
1225,
1283,
1227,
1213,
1219,
1245,
1265,
1259,
1266,
1189,
1158,
1166,
1110,
1138,
1128,
1183,
1209,
1228,
1308,
1356,
1343,
1280,
1174,
1129,
1094,
1058,
1045,
1084,
982,
1024,
1038,
1253,
1796,
3112,
5451,
8330,
9747,
9315,
6988,
4150,
2359,
1382,
1065,
929,
901,
915,
917,
895,
865,
897,
901,
887,
918,
967,
1094,
1223,
1461,
1828,
1985,
1843,
1583,
1307,
974,
907,
829,
812,
757,
768,
786,
752,
809,
850,
829,
803,
757,
761,
743,
740,
706,
722,
705,
680,
641,
670,
709,
655,
642,
686,
665,
638,
647,
625,
656,
646,
670,
625,
609,
607,
636,
621,
626,
574,
602,
577,
562,
627,
616,
578,
577,
583,
572,
565,
567,
552,
566,
557,
535,
541,
577,
525,
494,
550,
509,
531,
461,
471,
493,
498,
512,
500,
469,
446,
450,
467,
466,
458,
471,
459,
420,
423,
446,
486,
457,
450,
428,
441,
445,
409,
443,
405,
402,
409,
437,
417,
396,
393,
433,
397,
388,
428,
365,
374,
358,
363,
378,
418,
367,
345,
366,
392,
363,
343,
368,
360,
351,
351,
337,
353,
326,
346,
324,
327,
344,
278,
328,
318,
321,
311,
307,
310,
295,
295,
321,
308,
303,
328,
283,
287,
297,
285,
273,
285,
270,
253,
281,
262,
282,
260,
263,
282,
243,
248,
286,
262,
243,
224,
247,
276,
243,
261,
246,
246,
215,
218,
234,
213,
227,
200,
216,
214,
212,
200,
221,
199,
191,
185,
218,
194,
194,
174,
219,
190,
224,
186,
163,
168,
168,
178,
188,
194,
172,
189,
179,
168,
165,
162,
158,
133,
157,
160,
170,
140,
162,
143,
159,
140,
130,
141,
166,
157,
148,
143,
123,
144,
137,
130,
168,
129,
136,
128,
118,
135,
133,
115,
125,
118,
122,
118,
108,
136,
88,
126,
120,
94,
105,
97,
127,
99,
106,
106,
102,
101,
82,
94,
82,
89,
87,
90,
90,
77,
82,
77,
88,
94,
80,
80,
93,
85,
88,
112,
81,
97,
95,
82,
63,
79,
83,
73,
80,
81,
63,
56,
57,
65,
69,
61,
67,
66,
58,
51,
56,
66,
53,
61,
57,
77,
63,
53,
36,
59,
51,
46,
52,
48,
47,
53,
52,
43,
47,
49,
38,
43,
47,
38,
37,
50,
52,
40,
35,
46,
43,
48,
40,
46,
40,
31,
32,
37,
37,
37,
31,
32,
21,
42,
29,
43,
38,
34,
36,
28,
25,
33,
20,
42,
24,
27,
29,
29,
23,
24,
26,
30,
21,
18,
21,
22,
26,
20,
23,
22,
19,
16,
25,
27,
20,
15,
21,
18,
19,
20,
19,
13,
15,
15,
16,
14,
17,
17,
11,
18,
10,
16,
9,
13,
17,
14,
17,
5,
10,
17,
15,
14,
12,
8,
14,
7,
8,
6,
7,
7,
9,
4,
8,
8,
4,
8,
7,
4,
8,
6,
8,
1,
4,
7,
3,
5,
5,
4,
1,
1,
1,
4,
3,
4,
1,
2,
2,
1,
1,
1,
1,
0,
3,
4,
0,
1,
2,
0,
1,
0,
0,
1,
0,
0,
1,
0,
0,
0,
2,
0,
1,
0,
0,
0,
0,
0,
0,
1,
0,
0,
0,
1,
0,
0,
0,
0,
0,
0,
1,
0,
0,
0,
0,
0,
0,
0,
0,
0,
0,
0,
0,
0,
0,
0,
0,
0,
1,
0,
0,
0,
0,
0,
0,
0,
1,
0,
0,
0,
0,
0,
0,
0,
0,
1,
0,
1,
0,
0,
0,
0,
0,
0,
2,
0,
0,
0,
0,
0,
0,
0,
0,
0,
0,
0,
0,
0,
0,
0,
0,
0,
0,
0,
0,
0,
0,
0,
0,
0,
0,
0,
0,
0,
0,
0,
0,
0,
0,
0,
0,
0,
0,
0,
0,
0,
0,
0,
0,
0,
0,
0,
0,
0,
0,
0,
0,
0,
0,
0,
0,
0,
0,
0,
0,
0,
0,
0,
0,
0,
0,
0,
0,
0,
0,
0,
0,
0,
0,
0,
0,
0,
0,
0,
0,
0,
0,
0,
0,
0,
0,
0,
0,
0,
0,
0,
0,
0,
0,
0,
0,
0,
0,
0,
0,
0,
0,
0,
0,
0,
1,
0,
0,
0,
0,
0,
0,
0,
0,
0,
0,
0,
0,
0,
0,
0,
0,
0,
0,
0,
0,
0,
0,
0,
0,
1,
0,
0,
0,
0,
0,
0,
0,
0,
0,
0,
0,
0,
0,
0,
0,
0,
0,
0,
0,
0,
0,
0,
0,
0,
0,
0,
0,
0,
0,
0,
0,
0,
0,
0,
0,
0,
0,
0,
0,
0,
0,
0,
0,
0,
0,
0,
0,
0,
0,
0,
0,
0,
0,
0,
0,
0,
0,
0,
0,
0,
0,
0,
0,
0,
0,
0,
0,
0,
0,
0,
0,
0,
0,
0,
0,
0,
0,
0,
0,
0,
0,
0,
0,
0,
0,
0,
0,
0,
0,
0,
0,
0,
0,
0,
0,
0,
0,
0,
0,
0,
0,
0,
0,
0,
0,
0,
0,
0,
0,
0,
1,
0,
0,
0,
0,
0,
0,
0,
0,
0,
0,
0,
0,
0,
0,
0,
0,
0,
0,
0,
0,
0,
0,
0,
0,
0,
0,
0,
0,
0,
0,
0,
0,
0,
0,
0,
0,
0,
0,
0,
0,
0,
0,
0,
0,
0,
0,
0,
0,
0,
0,
0,
0,
0,
0,
0,
0,
0,
0,
0,
0,
0,
0,
0,
0,
0,
0,
0,
0,
0,
0,
0,
0,
0,
0,
0,
0,
0,
0,
0,
0,
0,
0,
0,
0,
0,
0,
0,
0,
0,
0,
0,
0,
0,
0,
0,
0,
0,
0,
0,
0,
0,
0,
0,
0,
0,
0,
0,
0,
0,
0,
0,
0,
0,
0,
0,
0,
0,
0,
0,
0,
0,
0,
0,
0,
0,
0,
0,
0,
0,
0,
0,
0,
0,
0,
0,
0,
0,
0,
0,
0,
0,
0,
0,
0,
0,
0,
0,
0,
0,
0,
0,
0,
0,
0,
0,
0,
0,
0,
0,
0,
0,
0,
0,
0,
0,
0,
0,
0,
0,
0,
0,
0,
0,
0,
0,
0,
0,
0,
0,
0,
0,
0,
0,
0,
0,
0,
0,
0,
0,
0,
0,
0,
0,
0,
0,
0,
0,
0,
0,
0,
0,
0,
0,
0,
0,
0,
0,
0,
0,
0,
0,
0,
0,
0,
0,
0,
0,
0,
0,
0,
0,
0,
0,
0,
0,
0,
0,
0,
0,
0,
0,
0,
0,
0,
0,
0,
0,
0,
0,
0,
0,
0,
0,
0,
0,
0,
0,
0,
0,
0,
0,
0,
0,
0,
0,
0,
0,
0,
0,
0,
0,
0,
0,
0,
0,
0,
0,
0,
0,
0,
0,
0,
0,
0,
0,
0,
0,
0,
0,
0,
0,
0,
0,
0,
0,
0,
0,
0,
0,
0,
0,
0,
0,
0,
0,
0,
0,
0,
0,
0,
0,
0,
0,
0,
0,
0,
0,
0,
0,
0,
0,
0,
0,
0,
0,
0,
0,
0,
0,
0,
0,
0,
0,
0,
0,
0,
0,
0,
0,
0,
0,
0,
0,
0,
0,
0,
0,
0,
0,
0,
0,
0,
0,
0,
0,
0,
0,
0,
0,
0,
0,
0,
0,
0,
0,
0,
0,
0,
0,
0,
0,
0,
0,
0,
0,
0,
0,
0,
0,
0,
0,
0,
0,
0,
0,
0,
0,
0,
0,
0,
0,
0,
0,
0,
#ENDOFDATA   :