File: N132962/Quantification/20 keV/MMM2/SPI MM2 Stibnite[0][4].msa
#FORMAT      : EMSA/MAS Spectral Data File
#VERSION     : 1.0
#TITLE       : SPI MM2 Stibnite[0][all]
#DATE        : 13-MAR-2025
#TIME        : 13:16
#OWNER       : Unknown
#NPOINTS     : 4096
#NCOLUMNS    : 1
#XUNITS      : eV
#YUNITS      : counts
#DATATYPE    : Y
#XPERCHAN    : 9.99778
#OFFSET      : 1.69135
#BEAMKV      : 20
#SIGNALTYPE  : EDS
#ELEVANGLE   : 35
#AZIMANGLE   : 0
#LIVETIME    : 239.812
#REALTIME    : 263.259
#PROBECUR    : 1.0263
#TAUWIND     : 0
#TDEADLYR    : 0
#TACTLYR     : 0.045
#TALWIND     : 0.025
#CHOFFSET    : 0.0
#XLABEL      : Energy (eV)
#YLABEL      : Counts
#XPOSITION   : 1.56473
#YPOSITION   : 4.35401
#ZPOSITION   : 31.03511
#EDSDET      : SD
##SPECIMEN   : SPI MM2 Stibnite[0][all]
##DET_HASH   : 12273538-fd48-a23f-0a19-f1e6fa85caef
##CALIB_HASH : 6abaa72c-aa41-8738-0be9-f592914732f3
##WORKING    : 15.0 mm
##DET_NAME   : EDAX All
##DET_MODE   : MediumLE
#SPECTRUM    :
33,
26,
24,
157,
1113,
2315,
2483,
4990,
13037,
16673,
8952,
4435,
6187,
12207,
16772,
12124,
8516,
9009,
10102,
8703,
5755,
4219,
4184,
5183,
6090,
5944,
5378,
4837,
4854,
4633,
4568,
4450,
4372,
4711,
4636,
4920,
5023,
5170,
5339,
5489,
5723,
5748,
5821,
6262,
6330,
6401,
6671,
6754,
7028,
7043,
7368,
7405,
7244,
7374,
7402,
7456,
7999,
8277,
8909,
9077,
8852,
9142,
9168,
8439,
7798,
7675,
7467,
7547,
7723,
8294,
8527,
8974,
10264,
14959,
32237,
82619,
164852,
206039,
150936,
67999,
25676,
19476,
21175,
18135,
11972,
7649,
6003,
5718,
5727,
5616,
5608,
5694,
5551,
5645,
5671,
5699,
5615,
5494,
5534,
5634,
5504,
5604,
5533,
6007,
6877,
8469,
10098,
9694,
8255,
6642,
5878,
5756,
5948,
6825,
7643,
8790,
11490,
22704,
53745,
102259,
134534,
119868,
71849,
32100,
14810,
14528,
28227,
50159,
67183,
66053,
50602,
34534,
22682,
15279,
12971,
15734,
20934,
22708,
18180,
11745,
7390,
5393,
5593,
7135,
9208,
10443,
9147,
6738,
4895,
4063,
4188,
5075,
6198,
6683,
6368,
5361,
4328,
3782,
3534,
3277,
3221,
3110,
3060,
3124,
3248,
3154,
3265,
3227,
3089,
3176,
3191,
3133,
3122,
3125,
3095,
3143,
3188,
3084,
3107,
3086,
3295,
3174,
3097,
3075,
3115,
3098,
3055,
3031,
2975,
3027,
3008,
3129,
3031,
3061,
3053,
3097,
3110,
3220,
3186,
3186,
3001,
3100,
2901,
2905,
2940,
3062,
2901,
2909,
2923,
2949,
2883,
3044,
3246,
3250,
3224,
2954,
2948,
2835,
2746,
2719,
2655,
2622,
2776,
2607,
2691,
2590,
2650,
2609,
2628,
2490,
2530,
2569,
2539,
2555,
2439,
2596,
2515,
2521,
2499,
2597,
2511,
2531,
2469,
2474,
2500,
2457,
2476,
2467,
2606,
2657,
2555,
2511,
2425,
2276,
2314,
2327,
2257,
2288,
2336,
2225,
2246,
2193,
2169,
2231,
2250,
2107,
2110,
2149,
2087,
2164,
2129,
2112,
2153,
2013,
2013,
2121,
2043,
2072,
2018,
1939,
1987,
2010,
1937,
1929,
1971,
1915,
1894,
1842,
1962,
1815,
1972,
1893,
1814,
1925,
1846,
1808,
1922,
1837,
1870,
1749,
1758,
1750,
1732,
1724,
1722,
1717,
1740,
1699,
1747,
1715,
1677,
1635,
1625,
1641,
1571,
1668,
1601,
1617,
1634,
1598,
1611,
1593,
1569,
1572,
1642,
1549,
1524,
1546,
1533,
1518,
1421,
1484,
1462,
1510,
1471,
1464,
1463,
1454,
1400,
1471,
1406,
1412,
1424,
1412,
1397,
1350,
1406,
1374,
1335,
1305,
1254,
1339,
1324,
1276,
1249,
1280,
1240,
1306,
1342,
1246,
1204,
1293,
1275,
1216,
1207,
1164,
1181,
1170,
1195,
1200,
1137,
1106,
1195,
1121,
1172,
1126,
1067,
1078,
1086,
1041,
1040,
1052,
1075,
1052,
1086,
1062,
1015,
983,
953,
977,
993,
1021,
1022,
978,
994,
986,
945,
932,
964,
985,
933,
920,
900,
919,
905,
836,
908,
915,
870,
842,
873,
830,
910,
844,
816,
774,
797,
778,
818,
795,
786,
763,
767,
772,
822,
743,
733,
760,
760,
753,
725,
690,
736,
711,
696,
680,
692,
651,
685,
676,
615,
675,
669,
620,
646,
635,
595,
608,
608,
606,
600,
570,
630,
571,
601,
590,
573,
624,
570,
548,
538,
536,
506,
553,
534,
539,
526,
531,
500,
508,
524,
507,
486,
484,
486,
441,
467,
464,
455,
496,
439,
497,
453,
445,
430,
419,
455,
395,
395,
425,
400,
372,
408,
385,
362,
397,
371,
380,
368,
418,
370,
388,
330,
325,
351,
385,
317,
312,
298,
312,
325,
314,
309,
322,
312,
301,
281,
304,
298,
306,
283,
304,
260,
273,
271,
243,
276,
259,
285,
248,
263,
270,
245,
265,
252,
223,
231,
272,
223,
241,
234,
234,
212,
213,
238,
193,
208,
254,
209,
209,
179,
210,
192,
204,
196,
177,
204,
189,
167,
206,
211,
183,
170,
186,
156,
167,
161,
173,
182,
148,
149,
161,
152,
145,
142,
142,
136,
144,
156,
114,
138,
119,
128,
124,
132,
130,
126,
114,
119,
102,
109,
116,
106,
96,
114,
107,
89,
91,
101,
97,
86,
101,
112,
101,
83,
84,
83,
79,
71,
67,
75,
78,
75,
89,
78,
64,
77,
76,
63,
68,
81,
49,
60,
64,
42,
55,
51,
49,
51,
52,
41,
44,
37,
42,
46,
35,
40,
39,
36,
31,
24,
31,
28,
21,
25,
24,
22,
24,
19,
20,
21,
21,
18,
17,
19,
10,
6,
9,
18,
15,
11,
14,
4,
6,
4,
6,
3,
7,
4,
2,
3,
7,
3,
4,
2,
0,
3,
3,
1,
2,
2,
2,
0,
1,
5,
2,
1,
5,
2,
0,
3,
2,
4,
4,
4,
1,
0,
1,
4,
1,
0,
3,
1,
1,
2,
1,
1,
3,
1,
3,
0,
4,
0,
5,
0,
0,
3,
2,
0,
2,
4,
1,
2,
2,
0,
1,
1,
2,
1,
1,
2,
0,
2,
1,
2,
1,
1,
3,
0,
0,
0,
0,
0,
1,
1,
1,
1,
0,
1,
0,
0,
0,
0,
0,
2,
0,
2,
0,
0,
2,
0,
0,
0,
0,
0,
0,
2,
1,
1,
0,
0,
0,
1,
1,
0,
0,
0,
1,
0,
0,
0,
1,
1,
0,
0,
0,
0,
1,
0,
0,
0,
0,
0,
1,
0,
1,
1,
0,
0,
1,
0,
0,
1,
1,
0,
0,
1,
2,
0,
0,
1,
0,
0,
1,
1,
0,
0,
0,
0,
0,
0,
0,
0,
1,
0,
0,
0,
1,
1,
0,
1,
2,
0,
0,
0,
0,
1,
1,
0,
1,
0,
0,
2,
0,
0,
0,
0,
1,
0,
0,
0,
0,
1,
0,
1,
0,
0,
0,
1,
1,
0,
1,
0,
0,
1,
0,
1,
0,
0,
0,
0,
0,
0,
0,
0,
0,
0,
0,
0,
0,
0,
0,
0,
1,
1,
0,
0,
0,
1,
0,
1,
0,
0,
0,
0,
0,
1,
0,
1,
0,
0,
0,
0,
0,
1,
0,
0,
0,
0,
0,
0,
0,
0,
0,
0,
0,
0,
0,
0,
0,
0,
0,
0,
0,
1,
0,
0,
0,
0,
0,
0,
1,
0,
0,
0,
0,
0,
0,
0,
0,
0,
0,
0,
0,
0,
0,
0,
0,
1,
0,
0,
0,
0,
0,
0,
0,
0,
0,
0,
0,
0,
0,
0,
0,
0,
0,
0,
0,
0,
0,
0,
0,
0,
0,
0,
1,
0,
0,
0,
0,
0,
0,
0,
0,
0,
0,
0,
0,
0,
0,
0,
0,
0,
0,
0,
0,
0,
0,
0,
0,
0,
0,
0,
0,
0,
0,
0,
0,
0,
0,
0,
0,
0,
0,
0,
0,
0,
0,
0,
0,
0,
0,
0,
0,
0,
1,
1,
0,
0,
0,
0,
0,
0,
0,
0,
1,
0,
0,
0,
0,
0,
0,
0,
0,
0,
0,
0,
0,
0,
0,
0,
0,
0,
1,
0,
0,
0,
0,
0,
0,
0,
0,
0,
0,
0,
1,
0,
0,
0,
0,
0,
0,
0,
0,
0,
0,
0,
0,
0,
0,
0,
0,
0,
0,
0,
0,
0,
0,
0,
0,
0,
0,
0,
0,
0,
0,
0,
0,
0,
0,
0,
0,
0,
0,
0,
0,
0,
0,
0,
0,
0,
0,
0,
0,
0,
1,
0,
0,
0,
0,
0,
0,
0,
0,
0,
0,
0,
0,
0,
0,
0,
0,
0,
0,
0,
0,
0,
0,
0,
0,
0,
0,
0,
0,
0,
0,
0,
0,
0,
0,
0,
0,
0,
0,
0,
0,
0,
0,
0,
0,
0,
0,
0,
0,
0,
0,
0,
0,
0,
0,
0,
0,
0,
0,
0,
0,
0,
0,
0,
0,
0,
0,
0,
0,
0,
0,
0,
0,
0,
0,
0,
0,
0,
0,
0,
0,
0,
0,
0,
0,
0,
0,
0,
0,
0,
0,
0,
0,
0,
0,
0,
0,
0,
0,
0,
0,
0,
0,
0,
0,
0,
0,
0,
0,
0,
0,
0,
0,
0,
0,
0,
0,
0,
0,
0,
0,
0,
0,
0,
0,
0,
0,
0,
0,
0,
0,
0,
0,
0,
0,
0,
0,
0,
0,
0,
0,
0,
0,
0,
0,
0,
0,
0,
0,
0,
0,
0,
0,
0,
0,
0,
0,
0,
0,
0,
0,
0,
0,
0,
0,
0,
0,
0,
0,
0,
0,
0,
0,
0,
0,
0,
0,
0,
0,
0,
0,
0,
0,
0,
0,
0,
0,
0,
0,
0,
0,
0,
0,
0,
0,
0,
0,
0,
0,
0,
0,
0,
0,
0,
0,
0,
0,
0,
0,
0,
0,
0,
0,
0,
0,
0,
0,
0,
0,
0,
0,
0,
0,
0,
0,
0,
0,
0,
0,
0,
0,
0,
0,
0,
0,
0,
0,
0,
0,
0,
0,
0,
0,
0,
0,
0,
0,
0,
0,
0,
0,
#ENDOFDATA   :