File: N132962/Quantification/20 keV/MMM2/SPI MM2 Pyrope[2][4].msa
#FORMAT      : EMSA/MAS Spectral Data File
#VERSION     : 1.0
#TITLE       : SPI MM2 Pyrope[2][all]
#DATE        : 13-MAR-2025
#TIME        : 12:42
#OWNER       : Unknown
#NPOINTS     : 4096
#NCOLUMNS    : 1
#XUNITS      : eV
#YUNITS      : counts
#DATATYPE    : Y
#XPERCHAN    : 9.99778
#OFFSET      : 1.69135
#BEAMKV      : 20
#SIGNALTYPE  : EDS
#ELEVANGLE   : 35
#AZIMANGLE   : 0
#LIVETIME    : 239.5837
#REALTIME    : 254.76
#PROBECUR    : 1.02627
#TAUWIND     : 0
#TDEADLYR    : 0
#TACTLYR     : 0.045
#TALWIND     : 0.025
#CHOFFSET    : 0.0
#XLABEL      : Energy (eV)
#YLABEL      : Counts
#XPOSITION   : 4.57538
#YPOSITION   : 1.55069
#ZPOSITION   : 31.03511
#EDSDET      : SD
##SPECIMEN   : SPI MM2 Pyrope[2][all]
##D2STDCMP   : Pyrope,(O:47.6258),(Mg:18.0873),(Al:13.3861),(Si:20.9007),5.0
##DET_HASH   : 12273538-fd48-a23f-0a19-f1e6fa85caef
##CALIB_HASH : 6abaa72c-aa41-8738-0be9-f592914732f3
##WORKING    : 15.0 mm
##DET_NAME   : EDAX All
##DET_MODE   : MediumLE
#SPECTRUM    :
29,
28,
9,
16,
71,
293,
891,
2650,
7873,
10802,
5735,
2837,
2637,
3350,
5849,
22008,
89138,
173431,
126952,
33926,
5494,
3084,
4118,
6734,
6773,
4082,
2658,
2476,
2490,
2659,
2724,
2811,
3094,
3348,
3772,
4159,
4105,
4281,
4925,
9604,
31843,
77687,
94248,
53626,
17011,
6031,
5252,
12185,
39559,
79160,
80816,
42131,
14366,
5937,
4961,
10973,
40820,
104825,
141386,
99986,
40759,
14417,
7140,
4076,
2837,
2589,
2644,
2613,
2538,
2286,
2343,
2455,
2322,
2493,
2631,
2697,
2746,
2578,
2540,
2411,
2453,
2450,
2437,
2454,
2490,
2395,
2420,
2321,
2377,
2450,
2414,
2507,
2419,
2422,
2288,
2354,
2301,
2308,
2417,
2440,
2457,
2459,
2237,
2253,
2226,
2292,
2287,
2386,
2270,
2216,
2185,
2190,
2066,
2121,
2169,
2161,
2157,
2238,
2331,
2708,
3791,
7513,
12756,
15507,
13384,
8416,
4239,
2508,
2029,
1977,
2063,
2216,
2747,
3353,
3527,
3053,
2445,
2039,
1832,
1740,
1701,
1691,
1646,
1665,
1729,
1732,
1683,
1762,
1960,
2355,
2673,
2614,
2248,
1820,
1667,
1580,
1537,
1461,
1475,
1482,
1480,
1463,
1566,
1561,
1606,
1625,
1586,
1447,
1402,
1398,
1440,
1362,
1361,
1387,
1338,
1345,
1439,
1645,
2087,
2809,
3232,
3291,
2549,
1979,
1447,
1271,
1220,
1229,
1199,
1174,
1163,
1149,
1230,
1225,
1392,
1560,
1762,
1781,
1686,
1590,
1340,
1199,
1084,
1114,
1094,
1063,
1105,
1147,
1330,
2057,
3820,
7025,
10595,
12957,
12157,
9156,
5416,
2900,
1587,
1153,
1010,
933,
916,
935,
957,
900,
929,
1004,
944,
937,
960,
1115,
1411,
1819,
2164,
2431,
2240,
1799,
1351,
1042,
875,
845,
801,
795,
794,
775,
834,
824,
786,
802,
753,
765,
710,
767,
746,
734,
676,
721,
684,
651,
639,
718,
674,
675,
690,
708,
682,
638,
625,
654,
645,
711,
640,
647,
631,
630,
627,
657,
613,
638,
631,
602,
561,
573,
581,
540,
560,
591,
585,
507,
533,
550,
528,
599,
563,
511,
553,
498,
503,
522,
536,
513,
536,
499,
476,
485,
489,
514,
470,
472,
478,
514,
470,
446,
472,
447,
476,
455,
452,
447,
449,
449,
445,
467,
449,
450,
386,
395,
442,
417,
428,
409,
412,
424,
434,
404,
415,
402,
392,
392,
408,
415,
367,
381,
407,
368,
391,
354,
375,
360,
352,
349,
383,
337,
324,
349,
369,
369,
300,
333,
292,
305,
323,
307,
317,
316,
319,
305,
312,
262,
286,
306,
291,
280,
277,
272,
287,
276,
275,
248,
266,
278,
264,
253,
237,
268,
292,
254,
248,
245,
242,
241,
251,
249,
229,
244,
245,
220,
251,
280,
220,
217,
228,
223,
236,
220,
227,
239,
224,
187,
216,
223,
200,
224,
185,
218,
208,
225,
198,
188,
197,
175,
213,
169,
205,
178,
185,
205,
177,
187,
156,
184,
183,
176,
168,
167,
169,
151,
152,
171,
173,
165,
153,
147,
151,
152,
158,
144,
140,
145,
157,
128,
150,
135,
139,
142,
132,
141,
124,
118,
131,
133,
136,
143,
113,
105,
121,
98,
135,
113,
110,
109,
115,
105,
110,
124,
111,
104,
102,
95,
90,
102,
76,
86,
87,
87,
91,
97,
80,
89,
90,
96,
84,
93,
73,
78,
63,
65,
84,
77,
75,
78,
78,
83,
86,
99,
76,
71,
72,
60,
72,
71,
66,
62,
57,
71,
60,
60,
56,
63,
55,
58,
85,
60,
62,
49,
63,
51,
58,
48,
64,
39,
52,
59,
35,
46,
55,
44,
53,
53,
44,
57,
47,
51,
42,
47,
39,
26,
41,
48,
37,
52,
39,
41,
29,
36,
27,
29,
21,
26,
31,
30,
35,
41,
28,
28,
36,
29,
31,
31,
28,
27,
28,
27,
31,
25,
26,
22,
32,
31,
21,
24,
27,
22,
37,
27,
23,
22,
24,
20,
17,
22,
20,
15,
20,
19,
17,
14,
26,
22,
23,
13,
21,
17,
15,
26,
12,
16,
14,
8,
13,
15,
5,
13,
13,
9,
13,
9,
16,
11,
11,
13,
5,
9,
7,
19,
4,
4,
10,
9,
10,
5,
14,
7,
5,
7,
5,
3,
6,
8,
10,
4,
3,
7,
5,
4,
2,
3,
7,
6,
2,
5,
2,
3,
2,
3,
4,
4,
1,
2,
0,
1,
1,
0,
0,
0,
1,
1,
1,
0,
0,
0,
1,
1,
1,
0,
0,
0,
0,
0,
0,
0,
0,
0,
0,
0,
0,
0,
0,
0,
0,
0,
0,
0,
0,
0,
0,
1,
0,
0,
0,
0,
0,
0,
0,
0,
0,
0,
0,
0,
0,
0,
0,
0,
0,
0,
0,
0,
0,
0,
0,
0,
0,
0,
0,
0,
0,
0,
0,
0,
0,
0,
1,
0,
0,
0,
0,
0,
0,
0,
0,
0,
0,
0,
0,
0,
0,
0,
0,
0,
0,
0,
0,
0,
0,
0,
0,
0,
0,
1,
0,
0,
1,
0,
0,
0,
0,
1,
0,
0,
0,
0,
0,
0,
1,
0,
0,
0,
0,
0,
0,
0,
0,
0,
0,
0,
0,
0,
0,
0,
0,
0,
0,
0,
0,
0,
1,
0,
0,
0,
0,
0,
0,
0,
0,
0,
0,
0,
0,
0,
0,
0,
0,
0,
0,
0,
0,
0,
0,
0,
0,
0,
0,
0,
0,
0,
0,
0,
0,
0,
0,
0,
0,
0,
0,
0,
0,
0,
0,
0,
0,
1,
0,
0,
0,
0,
0,
0,
0,
0,
0,
0,
0,
0,
0,
0,
0,
0,
0,
0,
0,
1,
0,
0,
0,
0,
0,
0,
0,
0,
0,
0,
0,
0,
1,
0,
0,
0,
0,
0,
0,
0,
0,
0,
0,
0,
0,
0,
0,
0,
0,
0,
0,
0,
0,
0,
0,
0,
0,
0,
0,
0,
0,
0,
0,
0,
0,
0,
0,
0,
0,
0,
0,
0,
0,
0,
0,
0,
0,
0,
0,
1,
0,
0,
0,
0,
0,
0,
0,
0,
0,
0,
0,
0,
0,
0,
0,
0,
0,
0,
0,
0,
0,
0,
0,
0,
0,
0,
0,
0,
0,
0,
0,
0,
0,
0,
0,
0,
0,
0,
0,
0,
0,
0,
0,
0,
0,
0,
0,
0,
0,
0,
0,
0,
0,
0,
0,
0,
0,
0,
0,
0,
0,
0,
0,
0,
0,
0,
0,
0,
0,
0,
0,
0,
0,
0,
0,
0,
0,
0,
0,
0,
0,
0,
0,
0,
0,
0,
0,
0,
0,
0,
0,
0,
0,
0,
0,
0,
0,
0,
0,
0,
0,
0,
0,
0,
0,
0,
0,
0,
0,
0,
0,
0,
0,
0,
0,
0,
0,
0,
0,
0,
0,
0,
0,
0,
0,
0,
0,
0,
0,
0,
0,
0,
0,
0,
0,
0,
0,
0,
0,
0,
0,
0,
0,
0,
0,
0,
0,
0,
0,
0,
0,
0,
0,
0,
0,
0,
0,
0,
0,
0,
0,
0,
0,
0,
0,
0,
0,
0,
0,
0,
0,
0,
0,
0,
0,
0,
0,
0,
0,
0,
0,
0,
0,
0,
0,
0,
0,
0,
0,
0,
0,
0,
0,
0,
0,
0,
0,
0,
0,
0,
0,
0,
0,
0,
0,
0,
0,
0,
0,
0,
0,
0,
0,
0,
0,
0,
0,
0,
0,
0,
0,
0,
0,
0,
0,
0,
0,
0,
0,
0,
0,
0,
0,
0,
0,
0,
0,
0,
0,
0,
0,
0,
0,
0,
0,
0,
0,
0,
0,
0,
0,
0,
0,
0,
0,
0,
0,
0,
0,
0,
0,
0,
0,
0,
0,
0,
0,
0,
0,
0,
0,
0,
0,
0,
0,
0,
0,
0,
0,
0,
0,
0,
0,
0,
0,
0,
0,
0,
0,
0,
0,
0,
0,
0,
0,
0,
0,
0,
0,
0,
0,
0,
0,
0,
0,
0,
0,
0,
0,
0,
0,
0,
0,
0,
0,
0,
0,
0,
0,
0,
0,
0,
0,
0,
0,
0,
0,
0,
0,
0,
0,
0,
0,
0,
0,
0,
0,
0,
0,
0,
0,
0,
0,
0,
0,
0,
0,
0,
0,
0,
0,
0,
0,
0,
0,
0,
0,
0,
0,
0,
0,
0,
0,
0,
0,
0,
0,
0,
0,
0,
0,
0,
0,
0,
0,
0,
0,
0,
0,
0,
0,
0,
0,
0,
0,
0,
0,
0,
0,
0,
0,
0,
0,
0,
0,
0,
0,
0,
0,
0,
0,
0,
0,
0,
0,
0,
0,
0,
0,
0,
0,
0,
0,
0,
0,
0,
0,
0,
0,
0,
0,
0,
0,
0,
0,
0,
0,
0,
0,
0,
0,
0,
0,
0,
0,
0,
0,
0,
0,
0,
0,
0,
0,
0,
#ENDOFDATA   :