File: N132962/Quantification/20 keV/MMM2/SPI MM2 SPI Obsidian[1][4].msa
#FORMAT      : EMSA/MAS Spectral Data File
#VERSION     : 1.0
#TITLE       : SPI MM2 SPI Obsidian[1][all]
#DATE        : 13-MAR-2025
#TIME        : 09:56
#OWNER       : Unknown
#NPOINTS     : 4096
#NCOLUMNS    : 1
#XUNITS      : eV
#YUNITS      : counts
#DATATYPE    : Y
#XPERCHAN    : 9.99778
#OFFSET      : 1.69135
#BEAMKV      : 20
#SIGNALTYPE  : EDS
#ELEVANGLE   : 35
#AZIMANGLE   : 0
#LIVETIME    : 239.811
#REALTIME    : 256.239
#PROBECUR    : 1.02627
#TAUWIND     : 0
#TDEADLYR    : 0
#TACTLYR     : 0.045
#TALWIND     : 0.025
#CHOFFSET    : 0.0
#XLABEL      : Energy (eV)
#YLABEL      : Counts
#XPOSITION   : 0.09595
#YPOSITION   : -2.97747
#ZPOSITION   : 31.03509
#EDSDET      : SD
##SPECIMEN   : SPI MM2 SPI Obsidian[1][all]
##D2STDCMP   : SPI Obsidian,(O:49.01),(Na:2.77),(Mg:0.06),(Al:6.9),(Si:35.66),(K:3.58),(Ca:0.63),(Ti:0.06),(Mn:0.04),(Fe:0.59),5.0
##DET_HASH   : 12273538-fd48-a23f-0a19-f1e6fa85caef
##CALIB_HASH : 6abaa72c-aa41-8738-0be9-f592914732f3
##WORKING    : 15.0 mm
##DET_NAME   : EDAX All
##DET_MODE   : MediumLE
#SPECTRUM    :
26,
26,
13,
21,
72,
259,
790,
2635,
7369,
9932,
5175,
2400,
2406,
3093,
5699,
21659,
88635,
173829,
126611,
33263,
4525,
1945,
2177,
2582,
2577,
2453,
2344,
2461,
2587,
2778,
2805,
3123,
4192,
8481,
16997,
18942,
10752,
4997,
3736,
3778,
3914,
4385,
4605,
4582,
4551,
4776,
5592,
11332,
31124,
60751,
61999,
33880,
13278,
7266,
7293,
21349,
88437,
230425,
315034,
222066,
88326,
28461,
12232,
5467,
2866,
2361,
2292,
2363,
2265,
2173,
2250,
2231,
2242,
2416,
2808,
3067,
2866,
2545,
2309,
2269,
2228,
2262,
2203,
2188,
2166,
2211,
2285,
2290,
2211,
2323,
2193,
2273,
2222,
2284,
2236,
2101,
2208,
2187,
2126,
2085,
2148,
2173,
2113,
2064,
2213,
2243,
2566,
3484,
6545,
12035,
17724,
17842,
12125,
6195,
3332,
2645,
2717,
2911,
3224,
3936,
4090,
4349,
4500,
4534,
3982,
2884,
2183,
1851,
1735,
1729,
1717,
1590,
1842,
1970,
2017,
1904,
1691,
1605,
1596,
1610,
1484,
1540,
1576,
1501,
1435,
1519,
1561,
1548,
1606,
1728,
1754,
1668,
1558,
1466,
1497,
1440,
1462,
1484,
1441,
1481,
1396,
1422,
1388,
1432,
1365,
1374,
1341,
1344,
1322,
1374,
1229,
1287,
1323,
1192,
1275,
1259,
1153,
1233,
1207,
1207,
1165,
1187,
1170,
1140,
1125,
1203,
1049,
1107,
1083,
1115,
1090,
1129,
1030,
1048,
1012,
1093,
1036,
1074,
1090,
1024,
1037,
1017,
973,
1001,
985,
1034,
972,
985,
948,
991,
1213,
1554,
1903,
2114,
2038,
1624,
1356,
1089,
909,
883,
871,
863,
835,
862,
862,
838,
833,
847,
842,
754,
790,
866,
789,
877,
944,
958,
869,
907,
855,
751,
801,
753,
693,
745,
720,
701,
747,
752,
755,
772,
716,
732,
712,
666,
687,
656,
656,
652,
631,
603,
671,
620,
648,
630,
650,
624,
602,
633,
571,
621,
559,
566,
614,
621,
618,
606,
542,
600,
551,
583,
521,
522,
555,
587,
617,
559,
513,
523,
533,
537,
482,
510,
507,
532,
525,
524,
462,
478,
506,
468,
516,
476,
465,
456,
479,
447,
497,
478,
466,
434,
444,
446,
429,
411,
402,
458,
418,
421,
442,
437,
404,
402,
427,
403,
391,
418,
421,
410,
393,
420,
369,
391,
362,
374,
386,
367,
394,
389,
352,
352,
349,
337,
374,
332,
351,
343,
314,
343,
364,
312,
333,
316,
337,
341,
286,
290,
295,
340,
293,
300,
283,
320,
284,
323,
296,
288,
306,
257,
303,
255,
257,
293,
310,
235,
259,
281,
284,
251,
235,
253,
256,
267,
245,
275,
235,
273,
236,
244,
216,
226,
214,
228,
229,
209,
219,
226,
212,
219,
230,
220,
199,
212,
187,
181,
201,
218,
184,
211,
235,
204,
181,
187,
189,
196,
175,
188,
212,
177,
182,
196,
153,
145,
159,
186,
166,
185,
181,
171,
150,
171,
167,
134,
154,
161,
155,
144,
155,
146,
162,
127,
147,
133,
145,
153,
125,
150,
144,
113,
132,
132,
145,
134,
112,
130,
140,
126,
120,
106,
143,
104,
123,
108,
130,
110,
112,
113,
113,
140,
115,
99,
79,
99,
104,
100,
103,
108,
105,
89,
94,
92,
77,
89,
99,
82,
93,
95,
70,
80,
92,
83,
81,
77,
83,
93,
87,
84,
80,
82,
91,
70,
59,
66,
65,
67,
50,
58,
70,
60,
63,
71,
69,
67,
67,
63,
40,
57,
67,
57,
50,
52,
54,
42,
58,
53,
55,
50,
54,
53,
51,
68,
41,
41,
59,
51,
44,
36,
36,
37,
41,
43,
36,
36,
37,
41,
41,
46,
32,
33,
39,
41,
37,
42,
45,
30,
39,
31,
32,
34,
37,
36,
32,
37,
28,
25,
25,
39,
24,
20,
27,
32,
24,
23,
25,
35,
28,
21,
20,
21,
23,
17,
17,
14,
18,
15,
22,
18,
18,
23,
14,
20,
16,
19,
13,
12,
15,
25,
12,
12,
15,
16,
12,
12,
13,
14,
14,
8,
10,
9,
13,
21,
15,
16,
18,
8,
6,
17,
6,
12,
11,
8,
10,
7,
12,
3,
7,
12,
8,
6,
4,
8,
8,
4,
8,
8,
4,
3,
6,
3,
7,
3,
3,
3,
1,
3,
5,
4,
5,
8,
0,
5,
2,
3,
1,
4,
1,
5,
1,
1,
2,
2,
1,
3,
1,
1,
0,
0,
0,
0,
0,
0,
0,
1,
0,
0,
0,
0,
0,
0,
0,
0,
0,
0,
0,
0,
0,
0,
0,
1,
0,
1,
0,
0,
0,
0,
0,
0,
0,
0,
0,
0,
0,
0,
0,
0,
0,
0,
0,
0,
0,
0,
0,
0,
0,
0,
0,
0,
0,
0,
0,
0,
0,
0,
0,
0,
1,
0,
0,
0,
0,
0,
0,
0,
0,
0,
0,
0,
0,
0,
0,
0,
0,
0,
1,
0,
0,
0,
0,
0,
0,
0,
0,
0,
0,
1,
0,
0,
0,
0,
0,
0,
0,
0,
0,
0,
0,
0,
0,
0,
0,
0,
0,
0,
0,
0,
0,
0,
0,
0,
0,
0,
0,
0,
0,
0,
0,
0,
0,
0,
0,
0,
0,
0,
0,
0,
0,
0,
0,
0,
0,
0,
0,
0,
0,
0,
0,
0,
0,
0,
0,
0,
0,
0,
0,
0,
0,
0,
0,
0,
0,
0,
0,
0,
0,
0,
0,
0,
0,
0,
0,
1,
0,
0,
0,
0,
0,
0,
1,
0,
0,
0,
0,
0,
0,
0,
0,
0,
0,
0,
0,
0,
0,
0,
0,
0,
0,
0,
0,
0,
0,
0,
0,
0,
0,
0,
0,
0,
0,
0,
0,
0,
0,
0,
0,
0,
0,
0,
0,
0,
0,
0,
0,
0,
0,
0,
0,
0,
1,
0,
0,
0,
0,
0,
0,
0,
0,
0,
0,
0,
0,
0,
0,
0,
0,
0,
0,
0,
0,
0,
0,
0,
0,
0,
0,
0,
0,
0,
0,
0,
0,
0,
0,
0,
0,
0,
0,
0,
0,
0,
0,
0,
0,
0,
0,
0,
0,
0,
0,
0,
0,
0,
0,
0,
0,
0,
0,
0,
0,
0,
0,
0,
0,
0,
0,
0,
0,
0,
0,
0,
0,
0,
0,
0,
0,
0,
0,
0,
0,
0,
0,
0,
0,
0,
0,
0,
0,
0,
0,
0,
0,
0,
0,
0,
0,
0,
0,
0,
0,
0,
0,
0,
0,
0,
0,
0,
0,
0,
0,
0,
0,
0,
0,
0,
0,
0,
0,
0,
0,
0,
0,
0,
0,
0,
0,
0,
0,
0,
0,
0,
0,
0,
0,
0,
0,
1,
0,
0,
0,
0,
0,
0,
0,
0,
0,
0,
0,
0,
0,
0,
0,
0,
0,
0,
0,
0,
0,
0,
0,
0,
0,
0,
0,
0,
0,
0,
0,
0,
0,
0,
0,
0,
0,
0,
0,
0,
0,
0,
0,
0,
0,
0,
0,
0,
0,
0,
0,
0,
0,
0,
0,
0,
0,
0,
0,
0,
0,
0,
0,
0,
0,
0,
0,
0,
0,
0,
0,
0,
0,
0,
0,
0,
0,
0,
0,
0,
0,
0,
0,
0,
0,
0,
0,
0,
0,
0,
0,
0,
0,
0,
0,
0,
0,
0,
0,
0,
0,
0,
0,
0,
0,
0,
0,
0,
0,
0,
0,
0,
0,
0,
0,
0,
0,
0,
0,
0,
0,
0,
0,
0,
0,
0,
0,
0,
0,
0,
0,
0,
0,
0,
0,
0,
0,
0,
0,
0,
0,
0,
0,
0,
0,
0,
0,
0,
0,
0,
0,
0,
0,
0,
0,
0,
0,
0,
0,
0,
0,
0,
0,
0,
0,
0,
0,
0,
0,
0,
0,
0,
0,
0,
0,
0,
0,
0,
0,
0,
0,
0,
0,
0,
0,
0,
0,
0,
0,
0,
0,
0,
0,
0,
0,
0,
0,
0,
0,
0,
0,
0,
0,
0,
0,
0,
0,
0,
0,
0,
0,
0,
0,
0,
0,
0,
0,
0,
0,
0,
0,
0,
0,
0,
0,
0,
0,
0,
0,
0,
0,
0,
0,
0,
0,
0,
0,
0,
0,
0,
0,
0,
0,
0,
0,
0,
0,
0,
0,
0,
0,
0,
0,
0,
0,
0,
0,
0,
0,
0,
0,
0,
0,
0,
0,
0,
0,
0,
0,
0,
0,
0,
0,
0,
0,
0,
0,
0,
0,
0,
0,
0,
0,
0,
0,
0,
0,
0,
0,
0,
0,
0,
0,
0,
0,
0,
0,
0,
0,
0,
0,
0,
0,
0,
0,
0,
0,
0,
0,
0,
0,
0,
0,
0,
0,
0,
0,
0,
0,
0,
0,
0,
0,
0,
0,
0,
0,
0,
0,
0,
0,
0,
0,
0,
0,
0,
0,
0,
0,
0,
0,
0,
#ENDOFDATA   :