File: N132962/Quantification/20 keV/MMM2/SPI MM2 Spessartine[7][4].msa
#FORMAT      : EMSA/MAS Spectral Data File
#VERSION     : 1.0
#TITLE       : SPI MM2 Spessartine[7][all]
#DATE        : 13-MAR-2025
#TIME        : 12:10
#OWNER       : Unknown
#NPOINTS     : 4096
#NCOLUMNS    : 1
#XUNITS      : eV
#YUNITS      : counts
#DATATYPE    : Y
#XPERCHAN    : 9.99778
#OFFSET      : 1.69135
#BEAMKV      : 20
#SIGNALTYPE  : EDS
#ELEVANGLE   : 35
#AZIMANGLE   : 0
#LIVETIME    : 239.907
#REALTIME    : 256.2922
#PROBECUR    : 1.02616
#TAUWIND     : 0
#TDEADLYR    : 0
#TACTLYR     : 0.045
#TALWIND     : 0.025
#CHOFFSET    : 0.0
#XLABEL      : Energy (eV)
#YLABEL      : Counts
#XPOSITION   : -5.73199
#YPOSITION   : 1.58477
#ZPOSITION   : 31.03511
#EDSDET      : SD
##SPECIMEN   : SPI MM2 Spessartine[7][all]
##DET_HASH   : 12273538-fd48-a23f-0a19-f1e6fa85caef
##CALIB_HASH : 6abaa72c-aa41-8738-0be9-f592914732f3
##WORKING    : 15.0 mm
##DET_NAME   : EDAX All
##DET_MODE   : MediumLE
#SPECTRUM    :
21,
29,
8,
13,
82,
328,
957,
3005,
8355,
10887,
6025,
3294,
3337,
4414,
7720,
26349,
104241,
202858,
151102,
42958,
14040,
17346,
13792,
6721,
3577,
2347,
2012,
2151,
2248,
2418,
2419,
2405,
2669,
2742,
3113,
3359,
3263,
3240,
3376,
3500,
3714,
3875,
3885,
4108,
4266,
4615,
5772,
12496,
38955,
77296,
78368,
41616,
14828,
6663,
5577,
10766,
37270,
92816,
125854,
89173,
37227,
13628,
7187,
4541,
3322,
3317,
3412,
3386,
3375,
3106,
3097,
3180,
3072,
3231,
3300,
3510,
3510,
3196,
3191,
3092,
2996,
3066,
3233,
3093,
3113,
3105,
3004,
3136,
3036,
2989,
2998,
2887,
3059,
2942,
2999,
2898,
2856,
2977,
2959,
2958,
3027,
2936,
2842,
2761,
2845,
2805,
2800,
2937,
2832,
2721,
2815,
2790,
2696,
2721,
2740,
2693,
2805,
2783,
2603,
2578,
2891,
3107,
3672,
3791,
3566,
3087,
2690,
2391,
2364,
2419,
2311,
2352,
2439,
2446,
2475,
2378,
2514,
2369,
2556,
2499,
2403,
2273,
2118,
2111,
2061,
2158,
2044,
2054,
2108,
2150,
2154,
2037,
2069,
1930,
2040,
2016,
2059,
1972,
1987,
1905,
1837,
1921,
1790,
1866,
1850,
1839,
1903,
1880,
1820,
1800,
1769,
1740,
1817,
1791,
1738,
1704,
1664,
1687,
1640,
1684,
1554,
1643,
1679,
1542,
1663,
1580,
1609,
1617,
1736,
1798,
1974,
2826,
5851,
14184,
31127,
53163,
70009,
70093,
51907,
30007,
13324,
5058,
2348,
1632,
1504,
1447,
1426,
1446,
1412,
1670,
2083,
2780,
4219,
5945,
8380,
10126,
10948,
9636,
7174,
4460,
2561,
1571,
1257,
1110,
1144,
1081,
1077,
1090,
1113,
1022,
1059,
1091,
1122,
1227,
1264,
1254,
1230,
1161,
1101,
991,
1019,
990,
951,
980,
935,
1019,
1034,
1046,
1040,
1035,
948,
1014,
982,
988,
949,
948,
1007,
964,
881,
849,
838,
890,
882,
875,
873,
869,
912,
857,
868,
790,
843,
798,
799,
847,
837,
800,
829,
786,
801,
765,
752,
815,
743,
746,
801,
698,
745,
713,
751,
760,
766,
674,
733,
734,
743,
683,
697,
700,
611,
626,
688,
671,
644,
669,
632,
617,
574,
600,
637,
623,
660,
608,
602,
620,
597,
577,
617,
603,
545,
580,
569,
591,
552,
577,
591,
541,
570,
543,
506,
592,
557,
523,
491,
551,
558,
517,
578,
504,
496,
493,
509,
505,
535,
509,
478,
484,
500,
498,
448,
448,
470,
471,
506,
473,
472,
409,
465,
483,
416,
418,
399,
436,
425,
404,
405,
437,
442,
470,
412,
423,
394,
362,
398,
371,
392,
389,
392,
376,
334,
354,
356,
394,
363,
367,
393,
350,
332,
339,
350,
359,
340,
338,
376,
368,
362,
323,
357,
326,
359,
328,
308,
301,
283,
312,
305,
333,
304,
280,
245,
292,
293,
286,
270,
262,
277,
259,
277,
240,
258,
243,
222,
262,
245,
240,
211,
232,
243,
220,
254,
268,
246,
237,
232,
231,
226,
225,
200,
210,
221,
219,
216,
207,
212,
208,
219,
194,
211,
200,
179,
183,
200,
216,
189,
198,
170,
173,
172,
189,
164,
160,
160,
180,
154,
178,
166,
150,
177,
168,
155,
155,
153,
125,
173,
134,
158,
145,
127,
138,
151,
153,
139,
142,
156,
142,
139,
125,
133,
130,
139,
132,
128,
137,
119,
116,
131,
113,
139,
118,
95,
129,
150,
100,
116,
102,
101,
111,
90,
104,
105,
103,
114,
89,
83,
95,
88,
86,
79,
75,
78,
88,
104,
91,
76,
75,
98,
75,
96,
83,
70,
77,
65,
60,
61,
78,
78,
72,
72,
90,
64,
55,
59,
60,
64,
66,
45,
45,
56,
51,
64,
43,
58,
57,
53,
40,
65,
57,
52,
53,
38,
58,
45,
55,
51,
32,
45,
50,
42,
41,
34,
41,
43,
37,
39,
43,
39,
48,
40,
31,
40,
41,
27,
36,
36,
27,
26,
35,
34,
42,
30,
33,
32,
24,
31,
27,
24,
28,
23,
18,
21,
38,
19,
18,
26,
23,
25,
18,
23,
22,
22,
18,
18,
19,
16,
5,
18,
17,
17,
11,
9,
15,
12,
14,
16,
10,
13,
10,
11,
10,
15,
10,
15,
13,
8,
15,
8,
11,
7,
9,
5,
10,
9,
8,
10,
7,
9,
6,
7,
10,
5,
4,
7,
2,
7,
2,
4,
2,
3,
5,
2,
4,
3,
0,
4,
0,
1,
2,
2,
2,
0,
2,
1,
0,
0,
0,
0,
1,
1,
2,
0,
0,
0,
1,
0,
1,
0,
0,
0,
1,
0,
0,
0,
0,
1,
0,
0,
0,
0,
0,
1,
0,
0,
0,
0,
0,
0,
0,
0,
0,
0,
0,
1,
0,
0,
0,
0,
0,
0,
0,
1,
0,
0,
0,
0,
2,
0,
0,
0,
1,
0,
0,
0,
0,
0,
0,
0,
0,
0,
1,
1,
0,
0,
0,
0,
0,
1,
1,
0,
0,
0,
0,
0,
0,
0,
0,
0,
0,
0,
0,
0,
0,
0,
0,
0,
0,
0,
0,
0,
0,
0,
0,
0,
0,
0,
0,
1,
0,
0,
1,
0,
0,
0,
0,
0,
0,
0,
0,
0,
0,
0,
0,
1,
0,
0,
1,
0,
0,
0,
0,
0,
0,
0,
0,
0,
1,
0,
0,
0,
0,
0,
0,
0,
0,
0,
0,
0,
0,
0,
0,
0,
0,
0,
0,
0,
0,
0,
1,
0,
0,
0,
0,
1,
0,
0,
0,
0,
0,
0,
0,
0,
0,
0,
0,
0,
0,
0,
0,
0,
1,
0,
1,
0,
0,
0,
0,
0,
0,
0,
0,
0,
0,
0,
0,
0,
0,
0,
0,
0,
0,
0,
0,
0,
0,
1,
0,
0,
0,
0,
0,
0,
0,
0,
0,
0,
1,
0,
0,
1,
0,
0,
0,
0,
0,
0,
0,
0,
0,
0,
0,
0,
0,
0,
0,
0,
0,
0,
0,
0,
0,
0,
0,
0,
0,
0,
0,
0,
0,
0,
0,
0,
0,
0,
0,
0,
0,
0,
0,
0,
0,
0,
0,
0,
0,
0,
0,
0,
0,
0,
0,
0,
0,
0,
0,
0,
0,
0,
0,
0,
0,
0,
0,
0,
0,
0,
0,
0,
0,
0,
0,
0,
0,
0,
0,
0,
0,
0,
0,
0,
0,
0,
0,
0,
0,
0,
0,
0,
0,
0,
0,
0,
0,
0,
0,
0,
0,
0,
0,
0,
0,
0,
0,
0,
0,
0,
0,
0,
0,
0,
0,
0,
0,
0,
0,
0,
0,
0,
0,
0,
0,
0,
0,
0,
0,
0,
0,
0,
0,
0,
0,
0,
0,
0,
0,
0,
0,
0,
0,
0,
0,
0,
0,
0,
0,
0,
0,
0,
0,
0,
0,
0,
0,
0,
0,
0,
0,
0,
0,
0,
0,
0,
0,
0,
0,
0,
0,
0,
0,
0,
0,
0,
0,
0,
0,
0,
0,
0,
0,
0,
0,
0,
0,
0,
0,
0,
0,
0,
0,
0,
0,
0,
0,
0,
0,
0,
0,
0,
0,
0,
0,
0,
0,
0,
0,
0,
0,
0,
0,
0,
0,
0,
0,
0,
0,
0,
0,
0,
0,
0,
0,
0,
0,
0,
0,
0,
0,
0,
0,
0,
0,
0,
0,
0,
0,
0,
0,
0,
0,
0,
0,
0,
0,
0,
0,
0,
0,
0,
0,
0,
0,
0,
0,
0,
0,
0,
0,
0,
0,
0,
0,
0,
0,
0,
0,
0,
0,
0,
0,
0,
0,
0,
0,
0,
0,
0,
0,
0,
0,
0,
0,
0,
0,
0,
0,
0,
0,
0,
0,
0,
0,
0,
0,
0,
0,
0,
0,
0,
0,
0,
0,
0,
0,
0,
0,
0,
0,
0,
0,
0,
0,
0,
0,
0,
0,
0,
0,
0,
0,
0,
0,
0,
0,
0,
0,
0,
0,
0,
0,
0,
0,
0,
0,
0,
0,
0,
0,
0,
0,
0,
0,
0,
0,
0,
0,
0,
0,
0,
0,
0,
0,
0,
0,
0,
0,
0,
0,
0,
0,
0,
0,
0,
0,
0,
0,
0,
0,
0,
0,
0,
0,
0,
0,
0,
0,
0,
0,
0,
0,
0,
0,
0,
0,
0,
0,
0,
0,
0,
0,
0,
0,
0,
0,
0,
0,
0,
0,
0,
0,
0,
0,
0,
0,
0,
0,
0,
0,
0,
0,
0,
0,
0,
0,
0,
0,
0,
0,
0,
0,
0,
0,
0,
0,
0,
0,
0,
0,
0,
0,
0,
0,
0,
0,
0,
0,
0,
0,
0,
0,
0,
0,
0,
0,
0,
0,
0,
0,
0,
0,
0,
0,
0,
0,
0,
0,
0,
0,
0,
0,
0,
0,
0,
0,
0,
0,
0,
0,
0,
0,
0,
0,
0,
0,
0,
0,
0,
0,
0,
0,
#ENDOFDATA   :