File: N132962/Quantification/20 keV/MMM2/SPI MM2 SPI Obsidian[6][4].msa
#FORMAT      : EMSA/MAS Spectral Data File
#VERSION     : 1.0
#TITLE       : SPI MM2 SPI Obsidian[6][all]
#DATE        : 13-MAR-2025
#TIME        : 10:01
#OWNER       : Unknown
#NPOINTS     : 4096
#NCOLUMNS    : 1
#XUNITS      : eV
#YUNITS      : counts
#DATATYPE    : Y
#XPERCHAN    : 9.99778
#OFFSET      : 1.69135
#BEAMKV      : 20
#SIGNALTYPE  : EDS
#ELEVANGLE   : 35
#AZIMANGLE   : 0
#LIVETIME    : 239.906
#REALTIME    : 256.361
#PROBECUR    : 1.02627
#TAUWIND     : 0
#TDEADLYR    : 0
#TACTLYR     : 0.045
#TALWIND     : 0.025
#CHOFFSET    : 0.0
#XLABEL      : Energy (eV)
#YLABEL      : Counts
#XPOSITION   : 0.02671
#YPOSITION   : -3.01571
#ZPOSITION   : 31.03509
#EDSDET      : SD
##SPECIMEN   : SPI MM2 SPI Obsidian[6][all]
##D2STDCMP   : SPI Obsidian,(O:49.01),(Na:2.77),(Mg:0.06),(Al:6.9),(Si:35.66),(K:3.58),(Ca:0.63),(Ti:0.06),(Mn:0.04),(Fe:0.59),5.0
##DET_HASH   : 12273538-fd48-a23f-0a19-f1e6fa85caef
##CALIB_HASH : 6abaa72c-aa41-8738-0be9-f592914732f3
##WORKING    : 15.0 mm
##DET_NAME   : EDAX All
##DET_MODE   : MediumLE
#SPECTRUM    :
23,
17,
8,
22,
62,
251,
871,
2670,
7529,
9680,
5211,
2455,
2424,
3197,
5640,
21539,
88745,
174299,
127087,
32975,
4486,
1815,
2112,
2575,
2619,
2337,
2452,
2478,
2673,
2800,
2835,
3155,
4092,
8665,
16969,
18580,
10557,
5073,
3670,
3722,
3942,
4266,
4523,
4580,
4373,
4754,
5511,
11078,
31260,
60717,
61931,
34403,
13806,
7382,
7598,
21442,
88644,
231708,
314172,
221558,
88138,
28764,
11969,
5496,
2919,
2236,
2348,
2385,
2369,
2124,
2204,
2242,
2235,
2399,
2735,
2866,
2933,
2543,
2396,
2288,
2241,
2185,
2231,
2269,
2255,
2182,
2316,
2294,
2223,
2213,
2243,
2214,
2244,
2223,
2211,
2191,
2214,
2125,
2148,
2212,
2072,
2101,
2107,
2106,
2143,
2251,
2673,
3589,
6471,
12129,
17691,
17731,
12150,
6102,
3399,
2757,
2745,
2942,
3344,
3816,
4109,
4279,
4583,
4595,
3986,
2835,
2232,
1795,
1834,
1735,
1650,
1730,
1860,
1888,
1972,
1865,
1770,
1630,
1583,
1603,
1570,
1534,
1511,
1568,
1529,
1503,
1522,
1595,
1799,
1723,
1790,
1784,
1548,
1446,
1500,
1364,
1371,
1361,
1392,
1347,
1404,
1437,
1434,
1429,
1357,
1359,
1315,
1370,
1433,
1322,
1337,
1273,
1293,
1274,
1265,
1263,
1211,
1219,
1191,
1200,
1231,
1224,
1143,
1170,
1200,
1164,
1114,
1083,
1136,
1052,
1083,
1075,
1048,
1072,
1026,
1131,
1105,
1139,
1065,
1110,
1039,
1056,
981,
966,
1013,
953,
999,
986,
951,
1044,
1191,
1543,
1831,
1998,
2103,
1674,
1293,
1098,
941,
895,
863,
854,
883,
842,
892,
899,
844,
820,
851,
847,
800,
840,
843,
878,
908,
892,
908,
854,
785,
736,
746,
719,
782,
707,
738,
768,
756,
744,
709,
738,
706,
656,
684,
717,
741,
634,
677,
652,
632,
606,
658,
641,
636,
621,
596,
566,
594,
584,
619,
606,
595,
585,
604,
627,
563,
597,
569,
564,
605,
565,
609,
534,
558,
594,
566,
519,
540,
536,
524,
526,
520,
534,
500,
462,
496,
502,
497,
500,
511,
499,
503,
481,
473,
507,
461,
478,
416,
468,
477,
447,
463,
437,
440,
441,
441,
423,
424,
415,
418,
421,
446,
427,
395,
393,
423,
372,
417,
411,
406,
388,
428,
391,
380,
365,
333,
361,
367,
357,
357,
370,
349,
351,
367,
339,
328,
349,
355,
334,
359,
299,
365,
338,
311,
316,
348,
329,
314,
313,
278,
331,
304,
293,
300,
307,
318,
254,
308,
287,
267,
258,
286,
280,
287,
274,
269,
289,
254,
280,
293,
255,
285,
270,
231,
259,
253,
257,
230,
249,
255,
234,
248,
273,
263,
223,
233,
211,
248,
242,
183,
211,
221,
194,
217,
225,
208,
207,
206,
210,
214,
177,
186,
191,
183,
198,
148,
174,
164,
183,
179,
196,
190,
173,
167,
160,
166,
182,
184,
171,
163,
152,
153,
151,
152,
157,
169,
156,
145,
143,
136,
146,
144,
143,
138,
137,
124,
143,
121,
137,
134,
123,
125,
135,
133,
128,
130,
121,
123,
129,
122,
121,
99,
121,
112,
100,
101,
103,
110,
117,
83,
102,
106,
107,
119,
93,
105,
94,
103,
106,
95,
100,
81,
87,
86,
88,
86,
85,
88,
84,
83,
88,
99,
79,
86,
71,
86,
76,
78,
63,
78,
69,
72,
85,
67,
79,
53,
71,
71,
71,
66,
52,
60,
57,
72,
60,
68,
54,
57,
51,
49,
58,
54,
58,
57,
54,
63,
51,
64,
50,
55,
39,
68,
55,
45,
40,
40,
51,
53,
40,
56,
26,
25,
40,
48,
44,
37,
37,
32,
48,
34,
35,
40,
33,
45,
31,
36,
25,
27,
45,
21,
36,
25,
34,
28,
27,
34,
36,
25,
26,
33,
20,
36,
23,
28,
27,
26,
27,
22,
26,
21,
13,
28,
31,
27,
21,
16,
19,
22,
20,
24,
19,
22,
16,
20,
20,
15,
9,
15,
15,
16,
11,
13,
12,
25,
13,
15,
16,
12,
10,
13,
11,
14,
16,
12,
10,
4,
7,
11,
6,
7,
12,
7,
12,
8,
8,
9,
8,
7,
7,
8,
8,
5,
3,
3,
3,
6,
7,
11,
7,
4,
4,
2,
6,
3,
11,
1,
5,
6,
2,
6,
3,
5,
1,
1,
0,
2,
3,
0,
1,
5,
0,
1,
2,
1,
1,
2,
2,
0,
0,
0,
1,
0,
0,
0,
0,
0,
0,
1,
0,
0,
1,
0,
0,
0,
0,
0,
0,
0,
0,
0,
0,
0,
1,
0,
0,
0,
0,
0,
0,
0,
0,
0,
0,
0,
0,
0,
0,
0,
0,
0,
0,
0,
0,
0,
0,
0,
0,
0,
0,
0,
0,
0,
0,
0,
0,
0,
0,
0,
0,
1,
0,
0,
0,
0,
0,
0,
0,
0,
0,
0,
0,
0,
0,
0,
0,
0,
0,
0,
0,
0,
0,
0,
0,
0,
0,
0,
0,
0,
0,
0,
0,
0,
0,
0,
0,
0,
0,
0,
0,
1,
0,
0,
0,
0,
0,
0,
1,
0,
0,
0,
0,
0,
0,
0,
0,
0,
0,
0,
0,
0,
0,
0,
1,
0,
0,
0,
0,
0,
0,
0,
0,
0,
0,
0,
0,
0,
0,
0,
0,
0,
0,
0,
0,
0,
0,
0,
0,
0,
0,
0,
0,
0,
0,
0,
0,
1,
0,
0,
0,
0,
0,
0,
0,
0,
0,
0,
0,
0,
0,
1,
0,
0,
0,
0,
0,
0,
0,
0,
0,
0,
0,
0,
0,
0,
0,
0,
0,
0,
0,
0,
0,
0,
0,
0,
0,
0,
0,
0,
0,
0,
0,
0,
0,
0,
0,
0,
0,
0,
0,
0,
0,
0,
0,
0,
0,
0,
0,
0,
0,
0,
0,
0,
0,
0,
0,
0,
0,
0,
0,
0,
0,
0,
0,
0,
0,
0,
0,
0,
0,
0,
0,
0,
0,
0,
0,
0,
0,
0,
0,
0,
0,
0,
0,
0,
0,
0,
0,
0,
0,
0,
0,
0,
0,
0,
0,
0,
0,
0,
0,
0,
0,
0,
0,
0,
0,
0,
0,
0,
0,
0,
0,
0,
0,
0,
0,
0,
0,
0,
0,
0,
0,
0,
0,
0,
0,
0,
0,
0,
0,
0,
0,
0,
0,
0,
0,
0,
0,
0,
0,
0,
0,
0,
0,
0,
0,
0,
0,
0,
0,
0,
0,
0,
0,
0,
0,
0,
0,
0,
0,
0,
0,
0,
0,
0,
0,
0,
0,
0,
0,
0,
0,
0,
0,
0,
0,
0,
0,
0,
0,
0,
0,
0,
0,
0,
0,
0,
0,
0,
0,
0,
0,
0,
0,
0,
0,
0,
0,
0,
0,
0,
0,
0,
0,
0,
0,
0,
0,
0,
0,
0,
0,
0,
0,
0,
0,
0,
0,
0,
0,
0,
0,
0,
0,
0,
0,
0,
0,
0,
0,
0,
0,
0,
0,
0,
0,
0,
0,
0,
0,
0,
0,
0,
0,
0,
0,
0,
0,
0,
0,
0,
0,
0,
0,
0,
0,
0,
0,
0,
0,
0,
0,
0,
0,
0,
0,
0,
0,
0,
0,
0,
0,
0,
0,
0,
0,
0,
0,
0,
0,
0,
0,
0,
0,
0,
0,
0,
0,
0,
0,
0,
0,
0,
0,
0,
0,
0,
0,
0,
0,
0,
0,
0,
0,
0,
0,
0,
0,
0,
0,
0,
0,
0,
0,
0,
0,
0,
0,
0,
0,
0,
0,
0,
0,
0,
0,
0,
0,
0,
0,
0,
0,
0,
0,
0,
0,
0,
0,
0,
0,
0,
0,
0,
0,
0,
0,
0,
0,
0,
0,
0,
0,
0,
0,
0,
0,
0,
0,
0,
0,
0,
0,
0,
0,
0,
0,
0,
0,
0,
0,
0,
0,
0,
0,
0,
0,
0,
0,
0,
0,
0,
0,
0,
0,
0,
0,
0,
0,
0,
0,
0,
0,
0,
0,
0,
0,
0,
0,
0,
0,
0,
0,
0,
0,
0,
0,
0,
0,
0,
0,
0,
0,
0,
0,
0,
0,
0,
0,
0,
0,
0,
0,
0,
0,
0,
0,
0,
0,
0,
0,
0,
0,
0,
0,
0,
0,
0,
0,
0,
0,
0,
0,
0,
0,
0,
0,
0,
0,
0,
0,
0,
0,
0,
0,
0,
0,
0,
0,
0,
0,
0,
0,
0,
0,
0,
0,
0,
0,
0,
0,
0,
0,
0,
0,
0,
0,
0,
0,
0,
0,
0,
0,
0,
0,
0,
0,
0,
0,
0,
0,
0,
0,
0,
0,
0,
0,
0,
0,
0,
0,
0,
0,
0,
0,
0,
0,
0,
0,
0,
0,
0,
0,
0,
0,
0,
0,
0,
0,
0,
0,
0,
0,
0,
0,
0,
0,
0,
0,
#ENDOFDATA   :