File: N132962/Quantification/20 keV/MMM2/SPI MM2 SPI Monazite[4][4].msa
#FORMAT      : EMSA/MAS Spectral Data File
#VERSION     : 1.0
#TITLE       : SPI MM2 SPI Monazite[4][all]
#DATE        : 13-MAR-2025
#TIME        : 10:08
#OWNER       : Unknown
#NPOINTS     : 4096
#NCOLUMNS    : 1
#XUNITS      : eV
#YUNITS      : counts
#DATATYPE    : Y
#XPERCHAN    : 9.99778
#OFFSET      : 1.69135
#BEAMKV      : 20
#SIGNALTYPE  : EDS
#ELEVANGLE   : 35
#AZIMANGLE   : 0
#LIVETIME    : 240.007
#REALTIME    : 258.4679
#PROBECUR    : 1.02627
#TAUWIND     : 0
#TDEADLYR    : 0
#TACTLYR     : 0.045
#TALWIND     : 0.025
#CHOFFSET    : 0.0
#XLABEL      : Energy (eV)
#YLABEL      : Counts
#XPOSITION   : 2.35645
#YPOSITION   : -2.77951
#ZPOSITION   : 31.03509
#EDSDET      : SD
##SPECIMEN   : SPI MM2 SPI Monazite[4][all]
##D2STDCMP   : SPI Monazite,(O:26.45),(Si:0.83),(P:11.85),(Ca:0.65),(Y:1.59),(La:7.84),(Ce:19.96),(Pr:2.47),(Nd:9.68),(Sm:3.7),(Eu:0.38),(Gd:2.89),(Tb:0.35),(Dy:1.21),(Pb:0.25),(Th:9.7),(U:0.16),5.0
##DET_HASH   : 12273538-fd48-a23f-0a19-f1e6fa85caef
##CALIB_HASH : 6abaa72c-aa41-8738-0be9-f592914732f3
##WORKING    : 15.0 mm
##DET_NAME   : EDAX All
##DET_MODE   : MediumLE
#SPECTRUM    :
15,
24,
17,
21,
159,
668,
2233,
6192,
16032,
20332,
11139,
6133,
5718,
6219,
7832,
18644,
61459,
116086,
85333,
24729,
7596,
7942,
9960,
9657,
8594,
7996,
7571,
8746,
10964,
11866,
11103,
9458,
9068,
8816,
8003,
7713,
7989,
7503,
7194,
7383,
7166,
6679,
6502,
6355,
6165,
5870,
5895,
5721,
5518,
5469,
5726,
5572,
5578,
5458,
5631,
6030,
7456,
10190,
11957,
10583,
7882,
7051,
7386,
10059,
15137,
28490,
54827,
72261,
57112,
28324,
12806,
8956,
7698,
6343,
5285,
5100,
5448,
5877,
6186,
6046,
5723,
5458,
5417,
5278,
5310,
5173,
5176,
5103,
5123,
5307,
5410,
5405,
5344,
5237,
5289,
5288,
5685,
7277,
11346,
17556,
20716,
17598,
12357,
11236,
13386,
15019,
12494,
8767,
6293,
5471,
5397,
5876,
6157,
5843,
5407,
4913,
4843,
4736,
4656,
4789,
4964,
5564,
6592,
7189,
6719,
5695,
4852,
4455,
4340,
4447,
4436,
4507,
4669,
4834,
4905,
4686,
4686,
4715,
4623,
4556,
4427,
4634,
4932,
4935,
4827,
4451,
4361,
4224,
4102,
4155,
4337,
4851,
6357,
9397,
13007,
14738,
13485,
10957,
10683,
15636,
23259,
28676,
27512,
20005,
12038,
8436,
8866,
10825,
12160,
11061,
9466,
9204,
12015,
17319,
23209,
25421,
22992,
17462,
12501,
9493,
8241,
6991,
6411,
5816,
6194,
7557,
9623,
11515,
12051,
11742,
10747,
9618,
8247,
6932,
5940,
4988,
4325,
3900,
3867,
4613,
5944,
7267,
8350,
7834,
6755,
5705,
5115,
4644,
4567,
4338,
4215,
4156,
3933,
3768,
3701,
3518,
3696,
3758,
3939,
4017,
4030,
3937,
3599,
3515,
3352,
3089,
2961,
2825,
2799,
2754,
2855,
2750,
2669,
2605,
2560,
2581,
2759,
2709,
2712,
2723,
2651,
2614,
2607,
2457,
2337,
2378,
2334,
2398,
2282,
2348,
2414,
2325,
2120,
2163,
2192,
2198,
2122,
2143,
2158,
2186,
2096,
2114,
2005,
1980,
1976,
1918,
1931,
1916,
1964,
1954,
1896,
1967,
2002,
1773,
1852,
1847,
1827,
1912,
1807,
1871,
1829,
1863,
1816,
1702,
1793,
1712,
1665,
1682,
1704,
1641,
1669,
1704,
1736,
1687,
1641,
1620,
1615,
1558,
1551,
1628,
1537,
1587,
1531,
1580,
1512,
1534,
1521,
1524,
1459,
1494,
1496,
1523,
1548,
1520,
1486,
1439,
1435,
1446,
1381,
1413,
1406,
1444,
1338,
1410,
1469,
1369,
1438,
1353,
1338,
1290,
1323,
1339,
1292,
1356,
1323,
1284,
1260,
1277,
1223,
1304,
1224,
1269,
1245,
1183,
1292,
1160,
1218,
1217,
1226,
1255,
1234,
1183,
1191,
1176,
1204,
1139,
1124,
1113,
1137,
1125,
1161,
1090,
1113,
1018,
1128,
1100,
1046,
1036,
1073,
1049,
1030,
995,
1039,
1030,
1028,
997,
1007,
986,
1000,
865,
978,
929,
957,
958,
959,
875,
937,
892,
933,
882,
930,
919,
868,
849,
889,
831,
876,
804,
823,
855,
844,
842,
841,
822,
837,
785,
766,
767,
760,
814,
745,
755,
794,
759,
710,
744,
736,
763,
719,
740,
750,
729,
727,
678,
702,
693,
740,
683,
725,
766,
882,
823,
907,
838,
800,
804,
665,
651,
598,
628,
584,
616,
595,
582,
584,
585,
533,
559,
553,
561,
557,
509,
606,
531,
555,
548,
520,
513,
508,
492,
453,
451,
481,
450,
496,
463,
474,
425,
456,
487,
444,
443,
433,
446,
413,
447,
432,
429,
421,
397,
413,
381,
375,
386,
385,
370,
370,
353,
381,
349,
359,
385,
329,
365,
395,
376,
386,
353,
395,
359,
397,
341,
326,
337,
317,
301,
278,
285,
299,
291,
289,
280,
283,
261,
285,
270,
287,
303,
277,
317,
262,
291,
253,
292,
275,
256,
249,
209,
251,
251,
212,
226,
210,
225,
215,
217,
227,
203,
209,
219,
201,
211,
186,
158,
196,
166,
176,
172,
172,
196,
186,
153,
158,
171,
152,
164,
170,
153,
165,
150,
139,
166,
157,
155,
131,
164,
142,
124,
154,
111,
145,
133,
131,
138,
129,
116,
124,
117,
116,
115,
119,
113,
100,
115,
109,
103,
114,
101,
97,
109,
103,
85,
99,
102,
70,
91,
97,
81,
90,
74,
78,
74,
75,
68,
73,
71,
68,
80,
63,
87,
67,
53,
62,
53,
59,
47,
65,
65,
44,
40,
52,
54,
48,
43,
48,
44,
45,
52,
36,
41,
44,
28,
31,
26,
24,
30,
28,
35,
39,
37,
31,
39,
28,
26,
21,
28,
20,
24,
24,
14,
17,
22,
17,
16,
14,
9,
12,
7,
13,
12,
9,
9,
3,
2,
1,
4,
4,
2,
1,
2,
3,
3,
5,
3,
0,
2,
1,
0,
1,
2,
0,
2,
0,
1,
2,
2,
2,
4,
2,
3,
0,
1,
0,
2,
0,
0,
3,
3,
0,
1,
0,
0,
1,
2,
3,
3,
2,
0,
2,
1,
3,
2,
0,
0,
0,
1,
1,
0,
1,
0,
1,
0,
1,
1,
1,
2,
0,
1,
3,
0,
0,
1,
0,
0,
0,
2,
1,
0,
1,
2,
1,
1,
1,
1,
1,
0,
2,
3,
0,
1,
1,
2,
2,
0,
1,
1,
0,
1,
0,
0,
1,
1,
0,
1,
1,
0,
1,
1,
1,
2,
0,
1,
1,
2,
0,
1,
0,
1,
0,
1,
0,
2,
1,
0,
0,
1,
0,
0,
2,
0,
0,
0,
1,
0,
0,
1,
0,
0,
0,
2,
1,
0,
0,
0,
1,
1,
0,
0,
1,
0,
0,
0,
1,
1,
0,
0,
0,
1,
1,
1,
0,
0,
0,
0,
0,
3,
1,
0,
0,
2,
0,
2,
0,
0,
1,
0,
0,
1,
0,
0,
0,
0,
0,
0,
0,
0,
0,
0,
0,
0,
2,
0,
1,
0,
0,
0,
0,
1,
3,
0,
0,
0,
1,
0,
0,
0,
0,
0,
0,
0,
0,
0,
0,
0,
0,
1,
0,
0,
0,
1,
0,
0,
0,
0,
0,
0,
0,
0,
0,
0,
0,
0,
0,
0,
0,
1,
0,
0,
0,
1,
1,
0,
0,
0,
0,
0,
0,
0,
0,
0,
0,
0,
1,
0,
0,
1,
1,
0,
0,
0,
0,
0,
0,
1,
0,
0,
0,
0,
1,
0,
0,
0,
0,
0,
0,
0,
0,
0,
0,
0,
1,
0,
0,
1,
0,
0,
1,
0,
1,
0,
0,
0,
0,
0,
0,
0,
1,
0,
0,
0,
0,
0,
0,
0,
0,
0,
0,
0,
0,
0,
0,
0,
0,
0,
0,
0,
0,
0,
0,
0,
0,
0,
1,
0,
0,
0,
0,
0,
0,
0,
0,
0,
1,
0,
0,
0,
1,
0,
0,
0,
0,
0,
0,
0,
0,
0,
0,
1,
0,
0,
0,
0,
1,
0,
0,
0,
0,
0,
0,
0,
0,
0,
0,
0,
0,
0,
0,
0,
0,
0,
0,
0,
0,
0,
0,
0,
0,
0,
0,
0,
0,
0,
0,
0,
0,
0,
0,
0,
0,
1,
0,
0,
0,
0,
0,
0,
0,
0,
0,
0,
0,
0,
0,
0,
0,
0,
0,
0,
0,
0,
0,
0,
0,
0,
0,
0,
0,
0,
0,
0,
0,
0,
0,
0,
0,
0,
0,
0,
0,
0,
0,
0,
0,
0,
0,
0,
0,
0,
0,
0,
0,
0,
0,
0,
0,
0,
0,
0,
0,
0,
0,
0,
0,
0,
0,
0,
0,
0,
0,
0,
0,
0,
0,
0,
0,
0,
0,
0,
0,
0,
0,
0,
0,
0,
0,
1,
0,
0,
0,
0,
0,
0,
0,
0,
0,
0,
0,
0,
0,
0,
0,
0,
0,
0,
0,
0,
0,
0,
0,
0,
0,
0,
0,
0,
0,
0,
0,
0,
0,
0,
0,
0,
0,
0,
0,
0,
0,
0,
0,
0,
0,
0,
0,
0,
0,
0,
0,
0,
0,
0,
0,
0,
0,
0,
0,
0,
0,
0,
0,
0,
0,
0,
0,
0,
0,
0,
0,
0,
0,
0,
0,
0,
0,
0,
0,
0,
0,
0,
0,
0,
0,
0,
0,
0,
0,
0,
0,
0,
0,
0,
0,
0,
0,
0,
0,
0,
0,
0,
0,
0,
0,
0,
0,
0,
0,
0,
0,
0,
0,
0,
0,
0,
0,
0,
0,
0,
0,
0,
0,
0,
0,
0,
0,
0,
0,
0,
0,
0,
0,
0,
0,
0,
0,
0,
0,
0,
0,
0,
0,
0,
0,
0,
0,
0,
0,
0,
0,
0,
0,
0,
0,
0,
0,
0,
0,
0,
0,
0,
0,
0,
0,
0,
0,
0,
0,
0,
0,
0,
0,
0,
0,
0,
0,
0,
0,
0,
0,
0,
0,
0,
0,
0,
0,
0,
0,
0,
0,
0,
0,
0,
0,
0,
0,
0,
0,
0,
0,
0,
0,
0,
0,
0,
0,
0,
0,
0,
0,
0,
0,
0,
0,
0,
0,
0,
0,
0,
0,
0,
0,
0,
0,
0,
0,
0,
0,
0,
#ENDOFDATA   :