File: N132962/Quantification/20 keV/MMM2/SPI MM2 SPI Pollucite[5][4].msa
#FORMAT      : EMSA/MAS Spectral Data File
#VERSION     : 1.0
#TITLE       : SPI MM2 SPI Pollucite[5][all]
#DATE        : 13-MAR-2025
#TIME        : 11:05
#OWNER       : Unknown
#NPOINTS     : 4096
#NCOLUMNS    : 1
#XUNITS      : eV
#YUNITS      : counts
#DATATYPE    : Y
#XPERCHAN    : 9.99778
#OFFSET      : 1.69135
#BEAMKV      : 20
#SIGNALTYPE  : EDS
#ELEVANGLE   : 35
#AZIMANGLE   : 0
#LIVETIME    : 239.835
#REALTIME    : 257
#PROBECUR    : 1.02609
#TAUWIND     : 0
#TDEADLYR    : 0
#TACTLYR     : 0.045
#TALWIND     : 0.025
#CHOFFSET    : 0.0
#XLABEL      : Energy (eV)
#YLABEL      : Counts
#XPOSITION   : -4.14169
#YPOSITION   : -1.2004
#ZPOSITION   : 31.0351
#EDSDET      : SD
##SPECIMEN   : SPI MM2 SPI Pollucite[5][all]
##D2STDCMP   : SPI Pollucite,(Li:0.05),(O:35.94),(Na:1.5),(Al:9.06),(Si:22.2),(K:0.05),(Rb:0.17),(Cs:32.3)
##DET_HASH   : 12273538-fd48-a23f-0a19-f1e6fa85caef
##CALIB_HASH : 6abaa72c-aa41-8738-0be9-f592914732f3
##WORKING    : 15.0 mm
##DET_NAME   : EDAX All
##DET_MODE   : MediumLE
#SPECTRUM    :
21,
30,
12,
19,
111,
375,
1214,
3533,
9676,
12768,
7194,
3692,
3916,
4836,
7659,
24841,
93294,
181810,
135430,
38676,
7107,
3258,
3577,
4529,
5097,
4404,
3565,
3337,
3436,
3719,
4445,
4764,
4971,
6394,
8925,
9238,
6469,
4145,
3847,
3992,
3995,
4305,
4249,
4352,
4699,
4899,
5617,
10704,
29058,
55433,
56387,
30811,
12600,
6847,
6377,
13071,
45292,
112686,
151950,
107899,
45056,
16704,
8485,
5112,
3874,
3719,
3966,
4157,
3964,
3674,
3632,
3641,
3728,
3843,
3912,
4135,
4076,
3810,
3784,
3856,
3527,
3828,
3823,
3910,
4008,
4095,
3942,
3802,
3621,
3685,
3779,
3692,
3704,
3632,
3720,
3720,
3779,
3779,
3710,
3594,
3609,
3587,
3541,
3594,
3504,
3543,
3406,
3617,
3652,
3709,
3643,
3713,
3476,
3436,
3350,
3419,
3396,
3342,
3274,
3290,
3290,
3162,
3268,
3330,
3684,
4330,
4706,
4826,
4406,
3608,
3263,
3113,
3010,
3147,
3101,
3220,
3344,
3685,
4445,
6712,
13363,
26859,
42464,
48819,
39201,
23335,
10819,
5163,
3385,
3333,
4108,
6964,
12385,
19829,
24527,
22954,
17491,
12071,
8648,
5880,
4461,
4184,
5214,
7555,
9161,
9498,
7587,
5257,
3556,
2595,
2363,
2424,
2567,
2829,
3638,
4551,
4965,
4658,
3659,
2762,
2391,
2342,
2418,
2785,
3019,
3048,
2899,
2539,
2344,
2199,
2170,
2135,
1953,
1909,
1809,
1812,
1767,
1745,
1764,
1775,
1848,
1733,
1819,
1734,
1741,
1780,
1736,
1703,
1681,
1673,
1794,
1862,
1863,
1853,
1865,
1782,
1693,
1709,
1622,
1668,
1605,
1516,
1624,
1570,
1502,
1503,
1511,
1474,
1559,
1509,
1451,
1524,
1530,
1469,
1440,
1523,
1560,
1450,
1381,
1381,
1368,
1394,
1352,
1447,
1418,
1334,
1407,
1425,
1425,
1405,
1348,
1377,
1338,
1322,
1273,
1297,
1250,
1274,
1315,
1223,
1181,
1186,
1246,
1279,
1264,
1232,
1302,
1232,
1195,
1132,
1097,
1129,
1228,
1185,
1135,
1233,
1106,
1144,
1171,
1147,
1141,
1098,
1088,
1107,
1065,
1058,
1111,
1090,
1067,
1124,
1076,
1069,
1058,
1069,
1013,
1019,
1030,
979,
1013,
1020,
1031,
1018,
935,
1025,
970,
941,
999,
927,
935,
933,
902,
880,
920,
890,
937,
899,
916,
873,
868,
894,
921,
884,
869,
839,
814,
819,
821,
853,
838,
809,
800,
791,
793,
762,
770,
818,
709,
763,
743,
754,
760,
731,
745,
751,
707,
734,
735,
716,
713,
738,
726,
684,
683,
712,
690,
661,
689,
681,
698,
699,
649,
661,
627,
630,
638,
676,
623,
647,
618,
641,
598,
637,
615,
603,
600,
573,
593,
608,
572,
624,
592,
551,
579,
526,
521,
523,
540,
519,
500,
576,
484,
517,
519,
497,
510,
534,
499,
509,
520,
449,
462,
463,
477,
460,
455,
449,
446,
393,
492,
407,
434,
450,
444,
453,
414,
415,
413,
419,
414,
396,
395,
377,
414,
412,
399,
372,
388,
393,
373,
403,
353,
381,
356,
325,
373,
342,
330,
330,
330,
360,
331,
331,
348,
311,
357,
308,
313,
320,
290,
278,
330,
286,
293,
275,
280,
304,
275,
305,
305,
276,
274,
278,
266,
258,
272,
280,
266,
260,
264,
243,
256,
216,
245,
238,
237,
248,
247,
230,
220,
209,
224,
184,
229,
215,
228,
227,
248,
201,
243,
189,
176,
207,
199,
171,
178,
187,
193,
175,
185,
185,
172,
185,
184,
199,
152,
175,
151,
172,
169,
160,
148,
146,
154,
173,
167,
158,
146,
138,
166,
145,
123,
136,
147,
129,
127,
138,
122,
125,
127,
113,
142,
115,
154,
113,
113,
111,
99,
123,
102,
103,
103,
104,
81,
102,
100,
96,
125,
111,
111,
96,
98,
95,
107,
83,
97,
72,
88,
81,
79,
79,
84,
83,
80,
102,
73,
73,
73,
61,
68,
63,
72,
56,
74,
61,
71,
57,
55,
61,
57,
44,
61,
67,
59,
56,
46,
57,
54,
68,
51,
49,
53,
37,
44,
49,
47,
50,
44,
41,
31,
35,
35,
53,
24,
41,
39,
26,
42,
39,
27,
27,
35,
38,
41,
43,
34,
31,
28,
33,
25,
36,
12,
21,
31,
21,
30,
19,
19,
23,
19,
28,
19,
19,
20,
24,
16,
20,
15,
13,
14,
18,
14,
11,
12,
11,
7,
12,
9,
5,
9,
5,
6,
8,
9,
5,
3,
1,
7,
0,
2,
1,
3,
2,
5,
4,
2,
0,
0,
1,
0,
1,
0,
2,
1,
0,
0,
0,
1,
0,
1,
2,
0,
0,
1,
2,
1,
0,
0,
1,
0,
0,
1,
0,
1,
0,
0,
0,
0,
1,
0,
0,
2,
0,
0,
0,
1,
1,
1,
0,
1,
0,
1,
0,
0,
1,
1,
0,
0,
0,
0,
0,
0,
1,
0,
0,
0,
1,
1,
0,
1,
0,
0,
0,
0,
0,
0,
3,
0,
0,
0,
1,
3,
0,
0,
0,
0,
0,
0,
0,
0,
0,
0,
0,
0,
0,
0,
0,
0,
0,
0,
1,
0,
0,
1,
0,
0,
1,
0,
0,
0,
0,
0,
0,
0,
1,
0,
0,
0,
0,
0,
0,
0,
0,
0,
0,
0,
0,
0,
0,
0,
0,
0,
0,
0,
0,
0,
1,
0,
0,
0,
1,
0,
0,
0,
0,
0,
0,
0,
0,
1,
0,
0,
0,
0,
0,
0,
0,
0,
0,
0,
0,
0,
0,
0,
0,
0,
0,
0,
0,
0,
0,
0,
0,
0,
0,
0,
0,
0,
0,
0,
0,
0,
0,
0,
0,
0,
0,
0,
0,
0,
0,
0,
0,
0,
0,
0,
0,
0,
0,
0,
0,
0,
0,
1,
0,
0,
0,
0,
0,
0,
0,
0,
0,
0,
0,
0,
0,
0,
0,
0,
0,
0,
0,
0,
0,
0,
0,
0,
0,
0,
0,
0,
0,
0,
0,
0,
0,
0,
0,
0,
1,
0,
0,
0,
0,
1,
0,
0,
1,
0,
0,
0,
0,
0,
0,
0,
0,
0,
0,
0,
0,
0,
0,
0,
0,
0,
0,
0,
0,
0,
0,
0,
0,
0,
0,
0,
0,
1,
0,
0,
0,
0,
0,
0,
0,
0,
0,
0,
0,
0,
0,
0,
0,
0,
0,
0,
0,
0,
0,
0,
0,
0,
0,
0,
0,
0,
0,
0,
0,
0,
0,
0,
0,
0,
0,
0,
0,
0,
0,
0,
0,
0,
0,
0,
0,
0,
0,
0,
0,
0,
0,
0,
0,
0,
0,
0,
0,
0,
0,
0,
0,
0,
0,
0,
0,
0,
0,
0,
0,
0,
0,
0,
0,
0,
0,
0,
0,
0,
0,
0,
0,
0,
0,
0,
1,
0,
0,
0,
0,
0,
0,
0,
0,
0,
0,
0,
0,
0,
0,
0,
0,
0,
0,
0,
0,
0,
0,
0,
0,
0,
0,
0,
0,
0,
0,
0,
0,
0,
0,
0,
0,
0,
0,
0,
0,
0,
0,
0,
0,
0,
0,
0,
0,
0,
0,
0,
0,
0,
0,
0,
0,
0,
0,
0,
0,
0,
0,
0,
0,
0,
0,
0,
0,
0,
0,
0,
0,
0,
0,
0,
0,
0,
0,
0,
0,
0,
0,
0,
0,
0,
0,
0,
0,
0,
0,
0,
0,
0,
0,
0,
0,
0,
0,
0,
0,
0,
0,
0,
0,
0,
0,
0,
0,
0,
0,
0,
0,
0,
0,
0,
0,
0,
0,
0,
0,
0,
0,
0,
0,
0,
0,
0,
0,
0,
0,
0,
0,
0,
0,
0,
0,
0,
0,
0,
0,
0,
0,
0,
0,
0,
0,
0,
0,
0,
0,
0,
0,
0,
0,
0,
0,
0,
0,
0,
0,
0,
0,
0,
0,
0,
0,
0,
0,
0,
0,
0,
0,
0,
0,
0,
0,
0,
0,
0,
0,
0,
0,
0,
0,
0,
0,
0,
0,
0,
0,
0,
0,
0,
0,
0,
0,
0,
0,
0,
0,
0,
0,
0,
0,
0,
0,
0,
0,
0,
0,
0,
0,
0,
0,
0,
0,
0,
0,
0,
0,
0,
0,
0,
0,
0,
0,
0,
0,
0,
0,
0,
0,
0,
0,
0,
0,
0,
0,
0,
0,
0,
0,
0,
0,
0,
0,
0,
0,
0,
0,
0,
0,
0,
0,
0,
0,
0,
0,
0,
0,
0,
0,
0,
0,
0,
0,
0,
0,
0,
0,
0,
0,
0,
0,
0,
0,
0,
0,
0,
0,
0,
0,
0,
0,
0,
0,
0,
0,
0,
0,
0,
0,
0,
0,
0,
0,
0,
0,
0,
0,
0,
0,
0,
0,
0,
0,
0,
0,
0,
0,
0,
0,
0,
0,
0,
0,
0,
0,
0,
0,
0,
0,
0,
0,
0,
0,
0,
0,
0,
0,
0,
0,
0,
0,
0,
0,
0,
0,
0,
0,
0,
0,
#ENDOFDATA   :