File: N132962/Quantification/20 keV/MMM2/SPI MM2 SPI Orthoclaise[5][4].msa
#FORMAT      : EMSA/MAS Spectral Data File
#VERSION     : 1.0
#TITLE       : SPI MM2 SPI Orthoclaise[5][all]
#DATE        : 13-MAR-2025
#TIME        : 10:28
#OWNER       : Unknown
#NPOINTS     : 4096
#NCOLUMNS    : 1
#XUNITS      : eV
#YUNITS      : counts
#DATATYPE    : Y
#XPERCHAN    : 9.99778
#OFFSET      : 1.69135
#BEAMKV      : 20
#SIGNALTYPE  : EDS
#ELEVANGLE   : 35
#AZIMANGLE   : 0
#LIVETIME    : 239.858
#REALTIME    : 255.973
#PROBECUR    : 1.02606
#TAUWIND     : 0
#TDEADLYR    : 0
#TACTLYR     : 0.045
#TALWIND     : 0.025
#CHOFFSET    : 0.0
#XLABEL      : Energy (eV)
#YLABEL      : Counts
#XPOSITION   : 6.12979
#YPOSITION   : 0.17989
#ZPOSITION   : 31.0351
#EDSDET      : SD
##SPECIMEN   : SPI MM2 SPI Orthoclaise[5][all]
##D2STDCMP   : SPI Orthoclaise,(O:45.86),(Na:0.67),(Al:8.85),(Si:30.29),(K:12.85),(Fe:1.4),(Ba:0.04),5.0
##DET_HASH   : 12273538-fd48-a23f-0a19-f1e6fa85caef
##CALIB_HASH : 6abaa72c-aa41-8738-0be9-f592914732f3
##WORKING    : 15.0 mm
##DET_NAME   : EDAX All
##DET_MODE   : MediumLE
#SPECTRUM    :
22,
13,
13,
16,
65,
282,
934,
3181,
8747,
10755,
5303,
2295,
2026,
2574,
4390,
15998,
64285,
125512,
92269,
24558,
3786,
2064,
2549,
3407,
3451,
2719,
2419,
2618,
2580,
2755,
2801,
2838,
3121,
3546,
4348,
4511,
4061,
3748,
3792,
3906,
4093,
4252,
4365,
4600,
4714,
5056,
6106,
12858,
38255,
74591,
76824,
40659,
16184,
8059,
7287,
18776,
74127,
191948,
261824,
184804,
73700,
24318,
10771,
5189,
3070,
2490,
2593,
2565,
2502,
2430,
2362,
2406,
2452,
2554,
2676,
2854,
2911,
2664,
2548,
2550,
2489,
2533,
2435,
2444,
2479,
2501,
2537,
2485,
2539,
2449,
2398,
2398,
2412,
2514,
2464,
2308,
2488,
2446,
2437,
2410,
2346,
2306,
2368,
2304,
2538,
2888,
3939,
7506,
18578,
40744,
63170,
63321,
41020,
18004,
6602,
3397,
3247,
4237,
6507,
8770,
9258,
7219,
4339,
2696,
1963,
1901,
1832,
1865,
1848,
1818,
1664,
1719,
1682,
1685,
1695,
1707,
1610,
1670,
1684,
1596,
1597,
1628,
1583,
1538,
1595,
1590,
1573,
1568,
1583,
1659,
1617,
1602,
1599,
1487,
1549,
1522,
1429,
1421,
1491,
1482,
1393,
1491,
1421,
1451,
1412,
1441,
1407,
1524,
1501,
1555,
1553,
1375,
1327,
1297,
1282,
1319,
1273,
1240,
1314,
1275,
1269,
1298,
1200,
1228,
1180,
1152,
1172,
1211,
1204,
1147,
1132,
1118,
1133,
1172,
1079,
1102,
1156,
1097,
1067,
1046,
1068,
1079,
1044,
1056,
1100,
1070,
1114,
1086,
1105,
1289,
1813,
2847,
3812,
4337,
4270,
3252,
2233,
1449,
1170,
1006,
980,
958,
1006,
904,
936,
947,
927,
956,
843,
934,
901,
955,
1060,
1095,
1178,
1274,
1213,
1107,
959,
901,
816,
802,
738,
795,
813,
772,
742,
815,
743,
766,
829,
755,
773,
716,
788,
701,
675,
698,
680,
708,
731,
649,
696,
665,
666,
691,
680,
637,
675,
661,
655,
646,
645,
664,
645,
620,
614,
644,
598,
590,
604,
637,
566,
571,
552,
616,
604,
554,
577,
556,
575,
533,
538,
527,
563,
525,
548,
523,
516,
483,
550,
546,
523,
527,
532,
486,
506,
472,
462,
460,
475,
459,
496,
511,
446,
469,
492,
481,
491,
484,
486,
486,
456,
420,
443,
438,
415,
446,
459,
458,
406,
406,
430,
416,
406,
408,
445,
392,
401,
370,
366,
400,
389,
362,
362,
356,
378,
388,
359,
373,
384,
358,
385,
355,
379,
370,
361,
338,
336,
355,
366,
330,
324,
306,
335,
294,
326,
341,
321,
319,
310,
300,
310,
307,
244,
281,
277,
305,
292,
283,
302,
263,
269,
291,
264,
271,
271,
289,
235,
271,
260,
260,
252,
258,
275,
251,
210,
241,
232,
261,
247,
219,
214,
226,
213,
233,
242,
237,
251,
220,
229,
227,
193,
193,
200,
187,
209,
197,
192,
177,
203,
195,
204,
199,
174,
206,
189,
185,
194,
178,
180,
144,
170,
161,
166,
151,
156,
146,
146,
144,
172,
153,
147,
151,
138,
163,
136,
138,
152,
166,
128,
146,
140,
121,
144,
130,
123,
150,
124,
132,
131,
116,
137,
136,
112,
118,
131,
118,
111,
118,
94,
110,
92,
123,
122,
108,
110,
121,
97,
105,
103,
112,
110,
115,
111,
108,
100,
89,
104,
80,
78,
77,
98,
83,
82,
86,
64,
70,
97,
81,
94,
90,
85,
66,
79,
70,
66,
71,
75,
73,
74,
71,
65,
67,
70,
57,
72,
67,
71,
63,
70,
65,
59,
52,
58,
60,
73,
51,
44,
55,
58,
68,
45,
39,
51,
67,
48,
53,
52,
30,
48,
49,
48,
43,
49,
48,
45,
38,
46,
39,
38,
31,
42,
36,
48,
40,
41,
43,
38,
32,
39,
37,
24,
23,
41,
29,
36,
19,
30,
26,
27,
27,
26,
34,
27,
30,
19,
19,
29,
23,
34,
28,
31,
29,
24,
27,
28,
28,
16,
11,
15,
18,
19,
19,
27,
21,
16,
22,
14,
15,
21,
14,
18,
14,
18,
17,
13,
19,
16,
13,
13,
11,
8,
15,
16,
11,
4,
8,
13,
1,
8,
9,
11,
10,
5,
6,
12,
10,
11,
7,
6,
5,
9,
9,
11,
6,
10,
3,
4,
7,
10,
4,
6,
7,
3,
3,
3,
5,
3,
3,
3,
2,
5,
3,
5,
2,
4,
0,
1,
0,
4,
0,
0,
0,
0,
1,
0,
0,
0,
1,
0,
1,
0,
0,
0,
0,
0,
1,
0,
0,
0,
0,
0,
0,
1,
0,
0,
0,
0,
0,
0,
0,
0,
0,
0,
0,
0,
0,
0,
0,
1,
0,
0,
1,
0,
0,
0,
0,
0,
1,
0,
0,
0,
0,
0,
0,
0,
0,
1,
0,
0,
0,
1,
1,
0,
0,
0,
0,
0,
0,
0,
1,
0,
0,
0,
0,
1,
0,
0,
0,
0,
0,
0,
0,
0,
0,
0,
0,
0,
1,
0,
0,
0,
0,
0,
0,
0,
1,
0,
0,
0,
0,
0,
0,
0,
0,
0,
0,
1,
0,
0,
0,
0,
0,
1,
0,
0,
0,
0,
0,
0,
0,
0,
0,
0,
0,
0,
0,
0,
0,
0,
0,
0,
0,
0,
0,
0,
0,
0,
0,
0,
0,
0,
0,
0,
0,
0,
0,
0,
0,
0,
0,
0,
0,
0,
0,
0,
0,
0,
0,
0,
1,
0,
0,
0,
0,
0,
0,
0,
0,
1,
0,
0,
0,
0,
0,
0,
0,
0,
0,
0,
0,
0,
0,
0,
0,
0,
0,
0,
0,
0,
0,
0,
0,
0,
0,
0,
0,
0,
0,
0,
0,
0,
0,
0,
0,
0,
0,
0,
0,
0,
0,
0,
0,
0,
0,
0,
0,
0,
0,
0,
0,
0,
0,
0,
0,
0,
0,
0,
0,
0,
0,
0,
0,
0,
0,
0,
0,
0,
0,
0,
0,
0,
0,
0,
0,
0,
0,
0,
0,
0,
0,
0,
0,
0,
0,
0,
0,
0,
0,
0,
0,
0,
0,
0,
0,
0,
0,
0,
0,
0,
0,
0,
0,
0,
0,
0,
0,
0,
0,
0,
0,
0,
0,
0,
0,
0,
0,
0,
0,
0,
0,
0,
0,
0,
0,
0,
0,
0,
0,
0,
0,
0,
0,
0,
0,
0,
0,
0,
0,
0,
0,
0,
0,
0,
0,
0,
0,
0,
0,
0,
0,
0,
0,
0,
0,
0,
0,
0,
0,
0,
0,
0,
0,
0,
0,
0,
0,
0,
0,
0,
0,
0,
0,
0,
0,
0,
0,
0,
0,
0,
0,
0,
0,
0,
0,
0,
0,
0,
0,
0,
0,
0,
0,
0,
0,
0,
0,
0,
0,
0,
0,
0,
0,
0,
0,
0,
0,
0,
0,
0,
0,
0,
0,
0,
0,
0,
0,
0,
0,
0,
0,
0,
0,
0,
0,
0,
0,
0,
0,
0,
0,
0,
0,
0,
0,
0,
0,
0,
0,
0,
0,
0,
0,
0,
0,
0,
0,
0,
0,
0,
0,
0,
0,
0,
0,
0,
0,
0,
0,
0,
0,
0,
0,
0,
0,
0,
0,
0,
0,
0,
0,
0,
0,
0,
0,
0,
0,
0,
0,
0,
0,
0,
0,
0,
0,
0,
0,
0,
0,
0,
0,
0,
0,
0,
0,
0,
0,
0,
0,
0,
0,
0,
0,
0,
0,
0,
0,
0,
0,
0,
0,
0,
0,
0,
0,
0,
0,
0,
0,
0,
0,
0,
0,
0,
0,
0,
0,
0,
0,
0,
0,
0,
0,
0,
0,
0,
0,
0,
0,
0,
0,
0,
0,
0,
0,
0,
0,
0,
0,
0,
0,
0,
0,
0,
0,
0,
0,
0,
0,
0,
0,
0,
0,
0,
0,
0,
0,
0,
0,
0,
0,
0,
0,
0,
0,
0,
0,
0,
0,
0,
0,
0,
0,
0,
0,
0,
0,
0,
0,
0,
0,
0,
0,
0,
0,
0,
0,
0,
0,
0,
0,
0,
0,
0,
0,
0,
0,
0,
0,
0,
0,
0,
0,
0,
0,
0,
0,
0,
0,
0,
0,
0,
0,
0,
0,
0,
0,
0,
0,
0,
0,
0,
0,
0,
0,
0,
0,
0,
0,
0,
0,
0,
0,
0,
0,
0,
0,
0,
0,
0,
0,
0,
0,
0,
0,
0,
0,
0,
0,
0,
0,
0,
0,
0,
0,
0,
0,
0,
0,
0,
0,
0,
0,
0,
0,
0,
0,
0,
0,
0,
0,
0,
0,
0,
0,
0,
0,
0,
0,
0,
0,
0,
0,
0,
0,
0,
0,
0,
0,
0,
0,
0,
0,
0,
0,
0,
0,
0,
0,
0,
0,
0,
0,
0,
0,
0,
0,
0,
0,
0,
0,
0,
0,
0,
0,
0,
0,
0,
0,
0,
0,
0,
0,
0,
0,
#ENDOFDATA   :