File: N132962/Quantification/20 keV/MMM2/SPI MM2 Wollastonite[5][4].msa
#FORMAT      : EMSA/MAS Spectral Data File
#VERSION     : 1.0
#TITLE       : SPI MM2 Wollastonite[5][all]
#DATE        : 13-MAR-2025
#TIME        : 13:59
#OWNER       : Unknown
#NPOINTS     : 4096
#NCOLUMNS    : 1
#XUNITS      : eV
#YUNITS      : counts
#DATATYPE    : Y
#XPERCHAN    : 9.99778
#OFFSET      : 1.69135
#BEAMKV      : 20
#SIGNALTYPE  : EDS
#ELEVANGLE   : 35
#AZIMANGLE   : 0
#LIVETIME    : 239.908
#REALTIME    : 256.243
#PROBECUR    : 1.0264
#TAUWIND     : 0
#TDEADLYR    : 0
#TACTLYR     : 0.045
#TALWIND     : 0.025
#CHOFFSET    : 0.0
#XLABEL      : Energy (eV)
#YLABEL      : Counts
#XPOSITION   : 0.04219
#YPOSITION   : 6.24099
#ZPOSITION   : 31.03511
#EDSDET      : SD
##SPECIMEN   : SPI MM2 Wollastonite[5][all]
##DET_HASH   : 12273538-fd48-a23f-0a19-f1e6fa85caef
##CALIB_HASH : 6abaa72c-aa41-8738-0be9-f592914732f3
##WORKING    : 15.0 mm
##DET_NAME   : EDAX All
##DET_MODE   : MediumLE
#SPECTRUM    :
24,
27,
7,
16,
65,
278,
941,
2990,
9306,
14783,
10395,
5592,
3076,
2300,
3068,
9224,
36129,
70524,
52545,
14208,
2787,
1736,
1795,
2037,
2214,
2122,
2260,
2473,
2661,
2779,
2819,
2997,
3060,
3262,
3361,
3590,
3648,
3737,
3894,
3903,
4074,
4176,
4295,
4562,
4489,
4654,
4750,
4888,
5137,
5374,
5618,
5498,
5744,
5895,
7026,
17459,
66281,
169330,
229498,
162490,
65139,
22757,
10832,
6235,
4938,
4948,
4313,
3584,
3155,
3096,
3084,
3125,
3172,
3220,
3313,
3550,
3568,
3367,
3250,
3094,
3088,
2919,
3010,
3070,
3068,
3000,
3019,
2975,
3054,
2992,
2969,
2897,
2909,
3025,
2932,
2857,
2897,
2821,
2854,
2802,
2824,
2842,
2872,
2708,
2805,
2795,
2830,
2821,
2774,
2814,
2645,
2540,
2582,
2640,
2683,
2880,
3238,
3852,
4876,
9555,
26031,
68429,
127663,
161016,
135463,
76250,
29262,
9135,
3795,
3186,
4163,
7015,
12796,
19285,
21202,
17076,
9742,
4768,
2542,
1845,
1770,
1783,
1730,
1700,
1688,
1668,
1575,
1659,
1546,
1583,
1682,
1622,
1560,
1536,
1553,
1580,
1555,
1546,
1483,
1498,
1559,
1536,
1450,
1527,
1470,
1502,
1436,
1529,
1448,
1436,
1443,
1393,
1461,
1414,
1337,
1396,
1395,
1417,
1478,
1477,
1709,
1797,
1744,
1530,
1476,
1376,
1313,
1306,
1274,
1314,
1243,
1295,
1296,
1269,
1362,
1310,
1321,
1299,
1210,
1284,
1184,
1233,
1125,
1109,
1152,
1188,
1105,
1137,
1205,
1084,
1221,
1258,
1264,
1256,
1141,
1183,
1181,
1096,
1083,
1085,
1100,
1032,
1035,
1010,
987,
1022,
963,
1016,
979,
1048,
966,
937,
922,
963,
911,
923,
1001,
964,
916,
959,
943,
915,
924,
925,
923,
1034,
1069,
988,
961,
961,
963,
901,
864,
875,
883,
849,
844,
838,
833,
814,
801,
782,
796,
766,
814,
776,
821,
731,
811,
681,
759,
706,
719,
742,
700,
728,
735,
702,
703,
739,
656,
686,
711,
685,
682,
712,
686,
705,
649,
634,
631,
647,
620,
666,
635,
611,
603,
620,
623,
566,
598,
607,
603,
562,
559,
623,
582,
605,
549,
550,
599,
573,
586,
559,
574,
552,
512,
536,
509,
524,
576,
501,
567,
514,
487,
518,
474,
499,
519,
491,
472,
489,
473,
483,
454,
456,
469,
491,
448,
512,
472,
449,
463,
474,
427,
453,
387,
423,
420,
393,
420,
425,
444,
407,
426,
384,
422,
365,
393,
373,
383,
396,
374,
329,
413,
400,
333,
397,
374,
366,
350,
378,
342,
313,
330,
358,
349,
306,
344,
333,
305,
349,
288,
339,
333,
326,
310,
285,
310,
315,
303,
315,
301,
279,
258,
283,
290,
311,
279,
246,
264,
278,
268,
280,
267,
270,
269,
247,
265,
245,
261,
245,
252,
265,
254,
220,
238,
217,
230,
220,
240,
240,
230,
254,
216,
223,
220,
234,
210,
207,
209,
204,
190,
176,
214,
234,
203,
173,
182,
196,
187,
179,
190,
202,
187,
186,
181,
169,
165,
170,
168,
153,
190,
160,
158,
155,
157,
141,
162,
175,
145,
144,
160,
164,
170,
147,
143,
126,
129,
134,
122,
157,
136,
123,
151,
136,
123,
96,
115,
123,
151,
102,
118,
135,
124,
112,
115,
100,
123,
111,
118,
96,
114,
105,
122,
81,
101,
102,
99,
94,
75,
83,
105,
77,
101,
76,
94,
92,
90,
71,
73,
93,
96,
88,
68,
102,
86,
83,
76,
85,
80,
87,
70,
79,
70,
68,
52,
83,
74,
57,
61,
80,
55,
62,
56,
63,
62,
50,
64,
64,
42,
71,
60,
48,
60,
54,
47,
44,
73,
44,
54,
39,
34,
42,
48,
38,
36,
42,
51,
38,
45,
43,
37,
39,
41,
36,
32,
40,
33,
40,
32,
35,
40,
35,
35,
35,
37,
29,
27,
27,
27,
26,
28,
19,
24,
30,
24,
16,
24,
27,
32,
28,
33,
30,
22,
24,
24,
19,
18,
22,
20,
14,
21,
25,
22,
18,
22,
21,
15,
9,
21,
13,
10,
15,
14,
12,
11,
12,
9,
7,
4,
5,
6,
18,
13,
6,
14,
10,
9,
9,
5,
12,
8,
6,
5,
10,
6,
7,
9,
7,
6,
7,
1,
4,
2,
4,
4,
5,
2,
7,
1,
3,
3,
6,
3,
5,
2,
2,
2,
2,
0,
0,
0,
0,
1,
0,
0,
2,
0,
0,
0,
0,
0,
0,
0,
0,
0,
0,
0,
2,
0,
0,
1,
1,
1,
0,
0,
0,
0,
0,
1,
0,
0,
1,
0,
1,
0,
0,
0,
0,
1,
0,
0,
1,
0,
0,
0,
0,
0,
0,
0,
0,
0,
1,
0,
0,
0,
1,
1,
0,
0,
0,
0,
1,
0,
0,
0,
0,
0,
0,
0,
0,
0,
0,
0,
0,
0,
0,
0,
0,
0,
0,
0,
0,
1,
0,
0,
0,
0,
0,
0,
0,
0,
0,
0,
0,
0,
0,
0,
0,
0,
0,
0,
1,
0,
0,
0,
1,
1,
0,
0,
0,
0,
0,
0,
0,
0,
0,
0,
0,
0,
0,
0,
0,
0,
0,
0,
0,
0,
0,
0,
0,
0,
0,
0,
0,
0,
0,
0,
0,
0,
0,
0,
0,
0,
0,
0,
0,
0,
0,
0,
0,
0,
0,
0,
0,
0,
0,
0,
0,
0,
0,
1,
0,
0,
0,
0,
0,
0,
0,
0,
0,
0,
0,
0,
0,
0,
1,
0,
0,
0,
0,
0,
0,
0,
0,
0,
0,
0,
0,
0,
0,
0,
0,
1,
0,
0,
0,
0,
0,
0,
0,
0,
0,
0,
0,
0,
0,
0,
0,
0,
0,
0,
0,
0,
0,
0,
0,
0,
0,
0,
0,
0,
0,
0,
0,
0,
0,
0,
0,
0,
0,
0,
0,
0,
0,
0,
0,
0,
0,
0,
0,
0,
0,
0,
0,
0,
0,
0,
0,
0,
0,
0,
0,
0,
0,
0,
0,
0,
0,
0,
0,
0,
0,
0,
0,
0,
0,
0,
0,
0,
0,
0,
0,
0,
0,
0,
0,
0,
0,
0,
0,
0,
0,
0,
0,
0,
0,
0,
0,
0,
0,
0,
0,
0,
0,
0,
0,
0,
0,
0,
0,
0,
0,
0,
0,
0,
0,
0,
0,
0,
0,
0,
0,
0,
0,
0,
0,
0,
0,
0,
0,
0,
0,
0,
0,
0,
0,
0,
0,
0,
0,
0,
0,
1,
0,
0,
0,
0,
0,
0,
0,
0,
0,
0,
0,
0,
0,
0,
0,
0,
0,
0,
0,
0,
0,
0,
0,
0,
0,
0,
0,
0,
0,
0,
0,
0,
0,
0,
0,
0,
0,
0,
0,
0,
0,
0,
0,
0,
0,
0,
0,
0,
0,
0,
0,
0,
0,
0,
0,
0,
0,
0,
0,
0,
0,
0,
0,
0,
0,
0,
0,
0,
0,
0,
0,
0,
0,
0,
0,
0,
0,
0,
0,
0,
0,
0,
0,
0,
0,
0,
0,
0,
0,
0,
0,
0,
0,
0,
0,
0,
0,
0,
0,
0,
0,
0,
0,
0,
0,
0,
0,
0,
0,
0,
0,
0,
0,
0,
0,
0,
0,
0,
1,
0,
0,
0,
0,
0,
0,
0,
0,
0,
0,
0,
0,
0,
0,
0,
0,
0,
0,
0,
0,
0,
0,
0,
0,
0,
0,
0,
0,
0,
0,
0,
0,
0,
0,
0,
0,
0,
0,
0,
0,
0,
0,
0,
0,
0,
0,
0,
0,
0,
0,
0,
0,
0,
0,
0,
0,
0,
0,
0,
0,
0,
0,
0,
0,
0,
0,
0,
0,
0,
0,
0,
0,
0,
0,
0,
0,
0,
0,
0,
0,
0,
0,
0,
0,
0,
0,
0,
0,
0,
0,
0,
0,
0,
0,
0,
0,
0,
0,
0,
0,
0,
0,
0,
0,
0,
0,
0,
0,
0,
0,
0,
0,
0,
0,
0,
0,
0,
0,
0,
0,
0,
0,
0,
0,
0,
0,
0,
0,
0,
0,
0,
0,
0,
0,
0,
0,
0,
0,
0,
0,
0,
0,
0,
0,
0,
0,
0,
0,
0,
0,
0,
0,
0,
0,
0,
0,
0,
0,
0,
0,
0,
0,
0,
0,
0,
0,
0,
0,
0,
0,
0,
0,
0,
0,
0,
0,
0,
0,
0,
0,
0,
0,
0,
0,
0,
0,
0,
0,
0,
0,
0,
0,
0,
0,
0,
0,
0,
0,
0,
0,
0,
0,
0,
0,
0,
0,
0,
0,
0,
0,
0,
0,
0,
0,
0,
0,
0,
0,
0,
0,
0,
0,
0,
0,
0,
0,
0,
0,
0,
0,
0,
0,
0,
0,
0,
0,
0,
0,
0,
0,
0,
0,
0,
0,
0,
0,
0,
0,
0,
0,
0,
0,
#ENDOFDATA   :