File: N132962/Quantification/20 keV/MMM2/SPI MM2 SPI Magnetite[0][4].msa
#FORMAT      : EMSA/MAS Spectral Data File
#VERSION     : 1.0
#TITLE       : SPI MM2 SPI Magnetite[0][all]
#DATE        : 13-MAR-2025
#TIME        : 09:17
#OWNER       : Unknown
#NPOINTS     : 4096
#NCOLUMNS    : 1
#XUNITS      : eV
#YUNITS      : counts
#DATATYPE    : Y
#XPERCHAN    : 9.99778
#OFFSET      : 1.69135
#BEAMKV      : 20
#SIGNALTYPE  : EDS
#ELEVANGLE   : 35
#AZIMANGLE   : 0
#LIVETIME    : 239.903
#REALTIME    : 256.872
#PROBECUR    : 1.02582
#TAUWIND     : 0
#TDEADLYR    : 0
#TACTLYR     : 0.045
#TALWIND     : 0.025
#CHOFFSET    : 0.0
#XLABEL      : Energy (eV)
#YLABEL      : Counts
#XPOSITION   : 3.902
#YPOSITION   : -4.178
#ZPOSITION   : 31.03509
#EDSDET      : SD
##SPECIMEN   : SPI MM2 SPI Magnetite[0][all]
##D2STDCMP   : SPI Magnetite,(O:27.53),(Si:0.01),(Mn:0.18),(Fe:71.88)
##DET_HASH   : 12273538-fd48-a23f-0a19-f1e6fa85caef
##CALIB_HASH : 6abaa72c-aa41-8738-0be9-f592914732f3
##WORKING    : 15.0 mm
##DET_NAME   : EDAX All
##DET_MODE   : MediumLE
#SPECTRUM    :
18,
43,
14,
22,
96,
452,
1336,
3914,
10251,
13631,
7953,
4629,
4965,
6262,
9433,
27268,
95439,
181271,
133826,
44356,
24012,
23015,
30434,
49491,
42728,
16864,
5069,
2739,
2419,
2190,
2149,
2127,
2320,
2651,
2940,
2864,
2748,
2858,
2931,
3004,
3158,
3329,
3434,
3452,
3540,
3673,
3850,
3941,
4209,
4667,
4772,
4491,
4241,
4234,
4302,
4396,
4697,
4788,
5100,
5019,
5007,
4817,
4467,
4103,
4274,
4271,
4270,
4290,
4312,
4322,
4358,
4406,
4352,
4493,
4493,
4390,
4462,
4366,
4413,
4433,
4435,
4423,
4259,
4317,
4418,
4297,
4274,
4300,
4259,
4120,
4237,
4188,
4108,
4152,
3997,
4150,
4102,
4072,
3993,
3935,
3957,
4011,
3906,
3970,
3844,
3948,
3772,
3810,
3948,
3673,
3809,
3724,
3638,
3670,
3566,
3540,
3418,
3418,
3485,
3557,
3526,
3497,
3441,
3543,
3340,
3365,
3325,
3352,
3241,
3239,
3181,
3230,
3158,
3159,
3203,
3214,
3138,
3077,
3063,
3004,
3026,
2945,
3010,
2823,
2894,
2860,
2880,
2896,
2806,
2989,
2923,
2919,
2968,
3179,
3167,
3335,
3151,
3004,
2860,
2683,
2627,
2586,
2654,
2680,
2615,
2641,
2637,
2621,
2589,
2512,
2502,
2500,
2441,
2377,
2469,
2415,
2431,
2445,
2442,
2471,
2378,
2430,
2405,
2295,
2294,
2258,
2292,
2146,
2178,
2115,
2166,
2154,
2190,
2242,
2377,
2576,
2568,
2627,
2440,
2354,
2186,
2154,
2156,
2215,
2162,
2309,
2626,
3411,
6235,
14926,
36425,
73004,
116280,
141606,
132773,
95620,
53250,
23332,
8825,
3846,
2217,
1936,
1853,
1884,
1855,
1854,
1922,
2037,
2212,
2561,
3131,
4842,
7834,
12524,
17298,
19722,
17739,
13137,
7794,
4220,
2376,
1541,
1304,
1242,
1219,
1219,
1277,
1272,
1335,
1329,
1327,
1307,
1273,
1277,
1149,
1260,
1241,
1178,
1149,
1168,
1120,
1166,
1156,
1125,
1083,
1071,
1068,
1142,
1139,
1072,
1137,
1090,
1133,
1046,
1103,
1037,
1025,
1105,
1037,
1036,
1016,
1012,
1017,
1041,
1070,
1042,
1040,
1049,
1062,
1058,
1010,
1043,
989,
949,
903,
942,
896,
928,
912,
918,
930,
899,
879,
925,
958,
911,
912,
944,
849,
877,
890,
940,
892,
903,
869,
799,
886,
864,
849,
847,
828,
836,
833,
816,
789,
807,
789,
786,
751,
779,
701,
814,
782,
761,
801,
804,
749,
720,
724,
754,
715,
685,
706,
682,
701,
716,
640,
634,
684,
674,
655,
661,
653,
664,
643,
662,
676,
619,
624,
629,
641,
604,
592,
593,
596,
624,
625,
651,
585,
554,
569,
572,
594,
550,
540,
565,
550,
569,
501,
535,
534,
552,
513,
529,
521,
495,
460,
535,
496,
496,
478,
507,
508,
466,
527,
493,
484,
504,
451,
483,
436,
456,
457,
451,
444,
428,
461,
404,
414,
446,
412,
416,
358,
443,
424,
427,
378,
423,
360,
390,
367,
403,
383,
406,
449,
464,
436,
483,
437,
442,
378,
378,
357,
354,
359,
331,
363,
335,
306,
333,
297,
344,
349,
305,
318,
310,
296,
294,
327,
296,
336,
290,
305,
311,
266,
274,
264,
286,
256,
270,
265,
254,
251,
264,
266,
243,
253,
244,
260,
234,
257,
238,
253,
244,
227,
271,
213,
248,
211,
197,
209,
204,
198,
198,
162,
190,
198,
212,
203,
192,
165,
194,
165,
157,
173,
159,
198,
179,
148,
158,
180,
154,
179,
159,
158,
139,
179,
148,
162,
166,
141,
158,
161,
151,
139,
158,
145,
144,
125,
116,
153,
132,
144,
139,
111,
117,
130,
122,
133,
126,
113,
116,
117,
112,
122,
86,
99,
102,
95,
117,
88,
87,
104,
116,
96,
86,
93,
94,
96,
91,
91,
86,
95,
89,
81,
68,
84,
95,
84,
76,
90,
87,
69,
80,
72,
74,
72,
89,
75,
52,
71,
78,
63,
69,
75,
64,
66,
66,
55,
51,
55,
54,
54,
62,
55,
56,
44,
40,
60,
46,
48,
37,
51,
44,
41,
40,
33,
41,
39,
43,
34,
34,
37,
46,
46,
21,
34,
31,
35,
31,
33,
41,
30,
33,
27,
21,
25,
28,
27,
25,
16,
28,
25,
24,
24,
12,
23,
24,
17,
16,
20,
20,
19,
25,
16,
11,
18,
18,
12,
13,
12,
11,
11,
13,
11,
12,
16,
10,
4,
9,
7,
5,
8,
7,
7,
5,
6,
3,
6,
3,
6,
2,
4,
2,
2,
2,
0,
0,
0,
0,
0,
1,
2,
1,
0,
1,
0,
0,
1,
1,
0,
4,
1,
2,
1,
0,
4,
3,
0,
3,
0,
1,
0,
0,
2,
0,
2,
5,
0,
0,
1,
3,
2,
0,
1,
0,
0,
1,
1,
1,
1,
0,
0,
1,
3,
0,
1,
1,
0,
4,
1,
1,
0,
0,
0,
0,
1,
0,
1,
0,
0,
0,
0,
2,
0,
0,
0,
0,
0,
0,
1,
2,
0,
1,
1,
0,
0,
0,
0,
0,
0,
3,
1,
0,
0,
2,
0,
0,
0,
1,
1,
0,
0,
1,
1,
1,
1,
0,
1,
0,
0,
0,
0,
0,
1,
2,
0,
0,
0,
0,
2,
0,
0,
0,
0,
0,
1,
1,
0,
0,
0,
0,
0,
1,
0,
0,
0,
0,
0,
2,
0,
0,
0,
0,
1,
0,
0,
1,
0,
0,
0,
1,
0,
0,
0,
0,
0,
0,
0,
0,
1,
0,
0,
0,
2,
0,
0,
0,
0,
0,
0,
0,
0,
0,
0,
0,
0,
0,
1,
0,
0,
1,
0,
0,
0,
0,
0,
0,
0,
0,
0,
0,
0,
2,
0,
0,
0,
0,
0,
0,
0,
0,
0,
0,
0,
0,
0,
0,
0,
1,
0,
0,
0,
0,
0,
0,
0,
0,
0,
0,
0,
0,
0,
0,
0,
0,
0,
0,
0,
0,
0,
0,
0,
0,
0,
0,
0,
0,
0,
0,
0,
0,
0,
0,
1,
0,
0,
0,
0,
0,
0,
0,
0,
0,
0,
0,
1,
0,
0,
0,
0,
0,
0,
0,
0,
0,
0,
0,
0,
0,
0,
0,
0,
0,
0,
0,
0,
0,
0,
0,
0,
0,
0,
0,
0,
1,
0,
0,
0,
0,
0,
0,
0,
0,
0,
0,
0,
0,
0,
0,
0,
0,
0,
0,
0,
0,
0,
0,
0,
0,
0,
0,
0,
0,
0,
0,
0,
0,
0,
0,
0,
0,
0,
0,
0,
0,
0,
0,
0,
0,
0,
0,
0,
0,
0,
0,
0,
0,
0,
0,
0,
0,
0,
0,
0,
0,
0,
0,
0,
0,
0,
0,
0,
0,
0,
0,
0,
0,
0,
0,
0,
0,
0,
0,
0,
0,
0,
0,
0,
0,
0,
0,
0,
0,
0,
0,
0,
0,
0,
0,
0,
0,
0,
0,
0,
0,
0,
0,
0,
0,
0,
0,
0,
0,
0,
0,
0,
0,
0,
0,
0,
0,
0,
0,
0,
0,
0,
0,
0,
0,
0,
0,
0,
0,
0,
0,
0,
0,
0,
0,
0,
0,
0,
0,
0,
0,
0,
0,
0,
0,
0,
0,
0,
0,
0,
0,
0,
0,
0,
0,
0,
0,
0,
0,
0,
0,
0,
0,
0,
0,
0,
0,
0,
0,
0,
0,
0,
0,
0,
0,
0,
0,
0,
0,
0,
0,
0,
0,
0,
0,
0,
0,
0,
0,
0,
0,
0,
0,
0,
0,
0,
0,
0,
0,
0,
0,
0,
0,
0,
0,
0,
0,
0,
0,
0,
0,
0,
0,
0,
0,
0,
0,
0,
0,
0,
0,
0,
0,
0,
0,
0,
0,
0,
0,
0,
0,
0,
0,
0,
0,
0,
0,
0,
0,
0,
0,
0,
0,
0,
0,
0,
0,
0,
0,
0,
0,
0,
0,
0,
0,
0,
0,
0,
0,
0,
0,
0,
0,
0,
0,
0,
0,
0,
0,
0,
0,
0,
0,
0,
0,
0,
0,
0,
0,
0,
0,
0,
0,
0,
0,
0,
0,
0,
0,
0,
0,
0,
0,
0,
0,
0,
0,
0,
0,
0,
0,
0,
0,
0,
0,
0,
0,
0,
0,
0,
0,
0,
0,
0,
0,
0,
0,
0,
0,
0,
0,
0,
0,
0,
0,
0,
0,
0,
0,
0,
0,
0,
0,
0,
0,
0,
0,
0,
0,
0,
0,
0,
0,
0,
0,
0,
0,
0,
0,
0,
0,
0,
0,
0,
0,
0,
0,
0,
0,
0,
0,
0,
0,
0,
0,
0,
0,
0,
0,
0,
0,
0,
0,
0,
0,
0,
0,
0,
0,
0,
0,
0,
0,
0,
0,
0,
0,
0,
0,
0,
0,
0,
0,
0,
0,
0,
0,
0,
0,
0,
0,
0,
0,
0,
0,
0,
0,
0,
0,
0,
0,
0,
0,
0,
0,
0,
0,
0,
0,
0,
0,
#ENDOFDATA   :