File: N132962/Quantification/20 keV/MMM2/SPI MM2 MgAl2O4[0][4].msa
#FORMAT      : EMSA/MAS Spectral Data File
#VERSION     : 1.0
#TITLE       : SPI MM2 MgAl2O4[0][all]
#DATE        : 13-MAR-2025
#TIME        : 09:27
#OWNER       : Unknown
#NPOINTS     : 4096
#NCOLUMNS    : 1
#XUNITS      : eV
#YUNITS      : counts
#DATATYPE    : Y
#XPERCHAN    : 9.99778
#OFFSET      : 1.69135
#BEAMKV      : 20
#SIGNALTYPE  : EDS
#ELEVANGLE   : 35
#AZIMANGLE   : 0
#LIVETIME    : 239.861
#REALTIME    : 256.42
#PROBECUR    : 1.02582
#TAUWIND     : 0
#TDEADLYR    : 0
#TACTLYR     : 0.045
#TALWIND     : 0.025
#CHOFFSET    : 0.0
#XLABEL      : Energy (eV)
#YLABEL      : Counts
#XPOSITION   : 0.8218
#YPOSITION   : -5.36128
#ZPOSITION   : 31.03509
#EDSDET      : SD
##SPECIMEN   : SPI MM2 MgAl2O4[0][all]
##D2STDCMP   : MgAl2O4,(O:44.9839),(Mg:17.0844),(Al:37.9316)
##DET_HASH   : 12273538-fd48-a23f-0a19-f1e6fa85caef
##CALIB_HASH : 6abaa72c-aa41-8738-0be9-f592914732f3
##WORKING    : 15.0 mm
##DET_NAME   : EDAX All
##DET_MODE   : MediumLE
#SPECTRUM    :
16,
21,
14,
11,
66,
295,
822,
2534,
6977,
9324,
5079,
2581,
2630,
3471,
6614,
26181,
105704,
207441,
152653,
39990,
5109,
1792,
1846,
2103,
2169,
2299,
2383,
2478,
2912,
3011,
3178,
3236,
3442,
3903,
4152,
4539,
4758,
5218,
6563,
14303,
52357,
127699,
152510,
86803,
26801,
8283,
8932,
32707,
122668,
254282,
259214,
131433,
38608,
9595,
3675,
2308,
2252,
2376,
2557,
2696,
2579,
2137,
2111,
2087,
2149,
2322,
2670,
2797,
2616,
2277,
2074,
2152,
2105,
2107,
2110,
2215,
2071,
2175,
2107,
2187,
2121,
2233,
2210,
2316,
2314,
2229,
2157,
2170,
2251,
2220,
2448,
2675,
2617,
2373,
2221,
2104,
2106,
2265,
2361,
2503,
2513,
2324,
2061,
2083,
1992,
1927,
1926,
1897,
1910,
1920,
1986,
1839,
1880,
1879,
1861,
1826,
1755,
1744,
1725,
1765,
1765,
1786,
1774,
1747,
1791,
1743,
1679,
1685,
1692,
1667,
1718,
1671,
1653,
1666,
1552,
1616,
1530,
1610,
1609,
1488,
1536,
1505,
1556,
1508,
1466,
1499,
1480,
1470,
1385,
1386,
1503,
1420,
1441,
1362,
1335,
1377,
1347,
1358,
1312,
1315,
1337,
1251,
1322,
1293,
1277,
1275,
1272,
1253,
1204,
1169,
1246,
1196,
1159,
1216,
1204,
1192,
1135,
1206,
1198,
1160,
1115,
1168,
1114,
1103,
1042,
1120,
1082,
1032,
1094,
1014,
1045,
1040,
1027,
1014,
998,
989,
1036,
1032,
964,
1028,
980,
945,
942,
947,
982,
951,
903,
911,
968,
879,
899,
921,
922,
970,
1018,
925,
921,
869,
844,
824,
852,
835,
809,
772,
821,
820,
830,
827,
782,
796,
739,
765,
796,
736,
733,
758,
711,
731,
743,
734,
682,
714,
710,
679,
677,
717,
716,
678,
749,
757,
709,
666,
630,
653,
641,
632,
660,
616,
641,
623,
585,
634,
572,
623,
604,
598,
602,
577,
556,
571,
594,
519,
576,
546,
549,
553,
531,
579,
588,
562,
518,
521,
547,
502,
528,
508,
490,
475,
478,
427,
515,
487,
484,
482,
507,
474,
439,
463,
417,
473,
465,
406,
481,
442,
432,
459,
446,
453,
426,
479,
441,
420,
449,
447,
368,
372,
438,
378,
394,
396,
397,
390,
373,
360,
389,
386,
376,
361,
385,
339,
377,
370,
385,
375,
332,
376,
361,
342,
330,
336,
342,
347,
343,
362,
306,
313,
316,
340,
338,
334,
308,
309,
300,
274,
305,
309,
295,
281,
318,
316,
302,
301,
257,
277,
277,
247,
281,
279,
278,
263,
281,
236,
284,
248,
232,
284,
253,
256,
274,
224,
233,
242,
240,
206,
237,
217,
195,
185,
231,
235,
215,
206,
218,
226,
212,
208,
220,
233,
217,
216,
212,
194,
171,
195,
208,
198,
216,
170,
196,
174,
186,
198,
179,
178,
176,
175,
175,
147,
179,
152,
161,
174,
165,
171,
168,
151,
152,
170,
189,
141,
147,
127,
167,
151,
145,
136,
141,
134,
124,
147,
138,
124,
147,
145,
138,
115,
102,
129,
114,
127,
121,
104,
114,
89,
123,
105,
133,
98,
123,
123,
102,
97,
90,
102,
114,
101,
107,
104,
93,
92,
84,
99,
98,
90,
106,
93,
98,
93,
91,
81,
94,
93,
86,
85,
92,
79,
84,
89,
79,
78,
72,
60,
73,
71,
76,
83,
82,
68,
55,
63,
75,
71,
84,
60,
65,
80,
59,
55,
71,
61,
71,
39,
69,
63,
54,
68,
57,
56,
66,
45,
55,
48,
44,
49,
42,
51,
32,
47,
35,
51,
37,
43,
43,
34,
35,
50,
45,
46,
42,
30,
39,
38,
33,
33,
48,
45,
28,
34,
35,
31,
35,
34,
30,
23,
32,
26,
34,
34,
36,
22,
23,
33,
31,
29,
26,
24,
25,
29,
27,
22,
26,
25,
24,
17,
19,
24,
16,
31,
18,
21,
20,
20,
17,
26,
18,
23,
18,
8,
14,
19,
18,
18,
19,
12,
15,
11,
13,
18,
14,
22,
10,
9,
17,
11,
16,
16,
17,
12,
13,
7,
13,
9,
14,
11,
16,
9,
8,
9,
10,
5,
6,
5,
7,
7,
9,
13,
4,
4,
6,
7,
10,
6,
3,
5,
10,
9,
5,
2,
9,
8,
6,
6,
4,
6,
2,
1,
4,
3,
4,
3,
3,
4,
2,
2,
2,
1,
2,
2,
3,
0,
1,
1,
0,
1,
0,
2,
0,
0,
0,
0,
0,
0,
0,
0,
0,
1,
0,
0,
0,
0,
0,
0,
1,
0,
0,
0,
0,
1,
0,
0,
0,
0,
0,
0,
0,
0,
0,
0,
0,
0,
0,
0,
0,
0,
0,
0,
0,
0,
0,
0,
0,
0,
1,
0,
0,
0,
0,
0,
0,
0,
0,
0,
0,
0,
0,
0,
0,
0,
0,
0,
0,
0,
1,
0,
0,
0,
0,
0,
0,
0,
0,
0,
0,
0,
0,
0,
0,
0,
0,
0,
0,
0,
0,
0,
0,
0,
0,
0,
0,
0,
0,
0,
0,
0,
0,
0,
0,
0,
0,
0,
0,
0,
0,
0,
0,
0,
0,
0,
0,
0,
0,
0,
0,
0,
0,
0,
0,
0,
0,
0,
0,
0,
0,
0,
0,
0,
0,
0,
0,
0,
0,
0,
0,
0,
0,
0,
0,
0,
0,
0,
0,
0,
0,
0,
0,
0,
0,
0,
0,
0,
0,
0,
0,
0,
0,
0,
0,
1,
0,
0,
0,
0,
0,
0,
0,
0,
0,
0,
0,
0,
0,
0,
0,
0,
0,
0,
0,
0,
0,
0,
0,
0,
0,
1,
0,
0,
0,
0,
0,
0,
0,
0,
0,
0,
0,
0,
0,
0,
0,
0,
0,
0,
0,
0,
0,
0,
0,
1,
0,
0,
0,
0,
0,
0,
0,
0,
0,
1,
0,
0,
0,
0,
0,
0,
0,
0,
0,
0,
0,
0,
0,
0,
0,
0,
0,
0,
0,
0,
0,
0,
0,
0,
0,
0,
0,
0,
0,
0,
0,
0,
0,
0,
0,
0,
0,
0,
0,
0,
0,
0,
0,
0,
0,
0,
0,
0,
0,
0,
0,
0,
0,
0,
0,
0,
0,
0,
0,
0,
0,
0,
0,
0,
0,
0,
0,
0,
0,
0,
0,
0,
0,
0,
0,
0,
0,
0,
0,
0,
0,
0,
0,
0,
0,
0,
0,
0,
0,
0,
0,
0,
0,
0,
0,
0,
0,
0,
0,
0,
0,
0,
0,
0,
0,
0,
0,
0,
0,
0,
0,
0,
0,
0,
0,
0,
0,
0,
0,
0,
0,
0,
0,
0,
0,
0,
0,
0,
0,
0,
0,
0,
0,
0,
0,
0,
0,
0,
0,
0,
0,
0,
0,
0,
0,
0,
0,
0,
0,
0,
0,
0,
0,
0,
0,
0,
0,
0,
0,
0,
0,
0,
0,
0,
0,
0,
0,
0,
0,
0,
0,
0,
0,
0,
0,
0,
0,
0,
0,
0,
0,
0,
0,
0,
0,
0,
0,
0,
0,
0,
0,
0,
0,
0,
0,
0,
0,
0,
0,
0,
0,
0,
0,
0,
0,
0,
0,
0,
0,
0,
0,
0,
0,
0,
0,
0,
0,
0,
0,
0,
0,
0,
0,
0,
0,
0,
0,
0,
0,
0,
0,
0,
0,
0,
0,
0,
0,
0,
0,
0,
0,
0,
0,
0,
1,
0,
0,
0,
0,
0,
0,
0,
0,
0,
0,
0,
0,
0,
0,
0,
0,
0,
0,
0,
0,
0,
0,
0,
0,
0,
0,
0,
0,
0,
0,
0,
0,
0,
0,
0,
0,
0,
0,
0,
0,
0,
0,
0,
0,
0,
0,
0,
0,
0,
0,
0,
0,
0,
0,
0,
0,
0,
0,
0,
0,
0,
0,
0,
0,
0,
0,
0,
0,
0,
0,
0,
0,
0,
0,
0,
0,
0,
0,
0,
0,
0,
0,
0,
0,
0,
0,
0,
0,
0,
0,
0,
0,
0,
0,
0,
0,
0,
0,
0,
0,
0,
0,
0,
0,
0,
0,
0,
0,
0,
0,
0,
0,
0,
0,
0,
0,
0,
0,
0,
0,
0,
0,
0,
0,
0,
0,
0,
0,
0,
0,
0,
0,
0,
0,
0,
0,
0,
0,
0,
0,
0,
0,
0,
0,
0,
0,
0,
0,
0,
0,
0,
0,
0,
0,
0,
0,
0,
0,
0,
0,
0,
0,
0,
0,
0,
0,
0,
0,
0,
0,
0,
0,
0,
0,
0,
0,
0,
0,
0,
0,
0,
0,
0,
0,
0,
0,
0,
0,
0,
0,
0,
0,
0,
0,
0,
0,
0,
0,
0,
0,
0,
0,
0,
0,
0,
0,
0,
0,
0,
0,
0,
0,
0,
0,
0,
0,
0,
0,
0,
0,
0,
0,
0,
0,
0,
0,
0,
0,
0,
0,
0,
0,
0,
#ENDOFDATA   :