File: N132962/Quantification/20 keV/MMM2/SPI MM2 Zircon[7][4].msa
#FORMAT      : EMSA/MAS Spectral Data File
#VERSION     : 1.0
#TITLE       : SPI MM2 Zircon[7][all]
#DATE        : 13-MAR-2025
#TIME        : 13:52
#OWNER       : Unknown
#NPOINTS     : 4096
#NCOLUMNS    : 1
#XUNITS      : eV
#YUNITS      : counts
#DATATYPE    : Y
#XPERCHAN    : 9.99778
#OFFSET      : 1.69135
#BEAMKV      : 20
#SIGNALTYPE  : EDS
#ELEVANGLE   : 35
#AZIMANGLE   : 0
#LIVETIME    : 239.472
#REALTIME    : 257.0025
#PROBECUR    : 1.0264
#TAUWIND     : 0
#TDEADLYR    : 0
#TACTLYR     : 0.045
#TALWIND     : 0.025
#CHOFFSET    : 0.0
#XLABEL      : Energy (eV)
#YLABEL      : Counts
#XPOSITION   : -2.68994
#YPOSITION   : 6.62533
#ZPOSITION   : 31.03511
#EDSDET      : SD
##SPECIMEN   : SPI MM2 Zircon[7][all]
##DET_HASH   : 12273538-fd48-a23f-0a19-f1e6fa85caef
##CALIB_HASH : 6abaa72c-aa41-8738-0be9-f592914732f3
##WORKING    : 15.0 mm
##DET_NAME   : EDAX All
##DET_MODE   : MediumLE
#SPECTRUM    :
23,
28,
11,
50,
316,
931,
1641,
3912,
10778,
15352,
10334,
4717,
3854,
4115,
4407,
10894,
38181,
72095,
53806,
15316,
3704,
2737,
2921,
3419,
3625,
3477,
3701,
3975,
4393,
4415,
4405,
4494,
4589,
4794,
5199,
5341,
5425,
5431,
5596,
5871,
5934,
6170,
6475,
6569,
6787,
6573,
7029,
7121,
7352,
7537,
7665,
7897,
7875,
8554,
10441,
18272,
50807,
119818,
162384,
120013,
56126,
25381,
14829,
11149,
11788,
21058,
51114,
109847,
152687,
136780,
102042,
79379,
53796,
30925,
17628,
10280,
6267,
4637,
3841,
3293,
3187,
3476,
3714,
4048,
4119,
3731,
3380,
3195,
3138,
3136,
3065,
2950,
2977,
3063,
3084,
3141,
3077,
3134,
3186,
3072,
3100,
3134,
3133,
3141,
3150,
3065,
3073,
3234,
3203,
3177,
3195,
3137,
3153,
3118,
3095,
3155,
3271,
3101,
3116,
3155,
3144,
3048,
3077,
3187,
3113,
3264,
3265,
3318,
3169,
3061,
3011,
3011,
3034,
3007,
3046,
3048,
3082,
3060,
3010,
2979,
2947,
2905,
2861,
2792,
2760,
2688,
2797,
2594,
2721,
2632,
2683,
2627,
2760,
2581,
2615,
2656,
2571,
2659,
2648,
2570,
2654,
2556,
2638,
2561,
2467,
2495,
2503,
2438,
2435,
2485,
2526,
2414,
2397,
2280,
2340,
2450,
2359,
2250,
2342,
2374,
2375,
2262,
2343,
2274,
2332,
2194,
2233,
2237,
2150,
2166,
2159,
2217,
2184,
2159,
2167,
2044,
2128,
2197,
2080,
2032,
2016,
2084,
1974,
2031,
1999,
2041,
1910,
1962,
1948,
1965,
2019,
2116,
2252,
2228,
2232,
2132,
2018,
1932,
1887,
1833,
1848,
1769,
1821,
1846,
1858,
1733,
1726,
1677,
1816,
1690,
1757,
1729,
1744,
1708,
1728,
1674,
1713,
1654,
1689,
1607,
1582,
1574,
1582,
1550,
1559,
1551,
1634,
1586,
1642,
1638,
1570,
1484,
1521,
1471,
1483,
1484,
1388,
1469,
1447,
1436,
1515,
1600,
1671,
1680,
1656,
1564,
1493,
1406,
1318,
1352,
1285,
1343,
1354,
1332,
1323,
1352,
1309,
1340,
1362,
1275,
1240,
1236,
1253,
1273,
1245,
1188,
1219,
1190,
1165,
1121,
1166,
1153,
1072,
1134,
1102,
1162,
1119,
1120,
1217,
1160,
1177,
1203,
1173,
1135,
1098,
1121,
1048,
1036,
1083,
1071,
1069,
1075,
1023,
1055,
977,
1035,
999,
941,
913,
931,
982,
935,
975,
903,
880,
897,
973,
933,
880,
960,
914,
878,
899,
908,
863,
912,
858,
884,
889,
849,
867,
823,
823,
809,
798,
842,
811,
884,
825,
794,
851,
819,
830,
827,
761,
754,
764,
798,
746,
679,
779,
746,
720,
714,
719,
664,
683,
713,
669,
698,
736,
692,
692,
673,
643,
600,
622,
673,
621,
599,
613,
640,
611,
623,
603,
591,
603,
607,
577,
574,
541,
556,
519,
577,
547,
520,
564,
554,
544,
540,
508,
500,
539,
511,
508,
520,
501,
492,
513,
483,
451,
485,
486,
482,
452,
444,
445,
460,
446,
432,
412,
430,
423,
453,
421,
388,
428,
445,
376,
413,
401,
380,
403,
388,
402,
408,
376,
387,
377,
368,
337,
372,
380,
371,
382,
348,
344,
361,
356,
369,
334,
367,
313,
319,
331,
305,
321,
270,
321,
285,
285,
310,
283,
291,
287,
301,
286,
284,
267,
247,
244,
245,
259,
249,
254,
245,
247,
248,
229,
254,
247,
247,
252,
241,
233,
260,
221,
208,
244,
234,
225,
208,
213,
200,
205,
225,
195,
217,
199,
195,
200,
193,
182,
160,
173,
199,
182,
191,
150,
183,
180,
157,
172,
173,
169,
164,
148,
190,
179,
243,
313,
369,
486,
463,
509,
502,
505,
392,
351,
267,
189,
158,
173,
126,
148,
134,
121,
133,
137,
110,
119,
110,
118,
133,
107,
110,
87,
114,
114,
85,
97,
89,
82,
102,
91,
95,
92,
97,
97,
92,
87,
101,
97,
82,
113,
82,
75,
76,
73,
68,
74,
85,
82,
84,
56,
78,
64,
72,
68,
60,
62,
66,
70,
72,
91,
80,
99,
97,
103,
113,
117,
80,
72,
67,
70,
58,
54,
58,
61,
39,
49,
55,
52,
46,
45,
40,
34,
37,
33,
34,
39,
34,
28,
32,
37,
23,
27,
26,
22,
28,
34,
26,
21,
30,
26,
30,
25,
18,
25,
22,
26,
18,
25,
11,
25,
6,
19,
13,
26,
13,
6,
17,
14,
15,
12,
16,
18,
5,
13,
14,
7,
8,
5,
13,
7,
8,
6,
4,
6,
4,
6,
2,
5,
2,
1,
2,
1,
1,
1,
1,
1,
1,
1,
0,
1,
1,
1,
0,
0,
0,
0,
0,
2,
0,
1,
1,
0,
0,
0,
0,
1,
0,
1,
1,
1,
2,
1,
1,
0,
0,
1,
0,
1,
1,
0,
0,
0,
0,
0,
1,
0,
0,
1,
0,
0,
0,
1,
0,
0,
2,
0,
0,
0,
1,
0,
0,
1,
0,
0,
1,
0,
0,
0,
0,
0,
0,
2,
2,
0,
0,
0,
0,
0,
0,
0,
1,
0,
1,
0,
1,
0,
0,
0,
1,
1,
0,
0,
0,
0,
0,
0,
0,
0,
1,
0,
0,
1,
0,
0,
0,
0,
1,
0,
0,
0,
0,
1,
0,
1,
0,
0,
0,
0,
0,
0,
0,
2,
0,
0,
0,
0,
0,
0,
0,
0,
1,
0,
0,
0,
0,
0,
0,
0,
0,
0,
0,
0,
0,
0,
0,
0,
0,
0,
0,
0,
0,
0,
0,
0,
0,
0,
0,
0,
1,
0,
0,
0,
0,
0,
0,
1,
0,
0,
0,
0,
0,
0,
0,
0,
0,
0,
0,
1,
0,
0,
0,
0,
0,
0,
0,
0,
0,
0,
0,
0,
0,
0,
0,
1,
0,
0,
0,
0,
0,
0,
0,
0,
0,
0,
0,
0,
0,
1,
0,
0,
0,
0,
0,
0,
0,
0,
0,
0,
0,
0,
0,
0,
0,
0,
0,
0,
0,
0,
0,
0,
0,
0,
0,
0,
0,
0,
0,
0,
0,
0,
0,
0,
0,
0,
0,
0,
0,
0,
1,
0,
0,
0,
0,
0,
0,
0,
0,
0,
0,
0,
0,
0,
1,
0,
0,
0,
0,
0,
0,
0,
0,
0,
1,
0,
0,
0,
0,
0,
0,
0,
0,
0,
0,
0,
0,
0,
0,
0,
0,
0,
0,
0,
0,
0,
0,
0,
0,
0,
0,
0,
0,
0,
0,
0,
0,
0,
0,
0,
0,
0,
0,
0,
0,
0,
0,
0,
0,
0,
0,
0,
1,
0,
0,
0,
0,
0,
0,
0,
0,
0,
0,
0,
0,
0,
0,
0,
0,
0,
0,
0,
0,
0,
0,
0,
0,
0,
0,
0,
0,
0,
0,
0,
0,
0,
0,
0,
0,
0,
0,
0,
0,
0,
0,
0,
0,
0,
0,
0,
0,
0,
0,
0,
0,
0,
0,
0,
0,
0,
0,
0,
0,
0,
0,
0,
0,
0,
0,
0,
0,
0,
0,
0,
0,
0,
0,
0,
0,
0,
0,
0,
0,
0,
0,
0,
0,
0,
0,
0,
0,
0,
0,
0,
0,
0,
0,
0,
0,
0,
0,
0,
0,
0,
0,
0,
0,
0,
0,
0,
0,
0,
0,
0,
0,
0,
0,
0,
0,
0,
0,
0,
0,
0,
0,
0,
0,
0,
0,
0,
0,
0,
0,
0,
0,
0,
0,
0,
0,
0,
0,
0,
0,
0,
0,
0,
0,
0,
0,
0,
0,
0,
0,
0,
0,
0,
0,
0,
0,
0,
0,
0,
0,
0,
0,
0,
0,
0,
0,
0,
0,
0,
0,
0,
0,
0,
0,
0,
0,
0,
0,
0,
0,
0,
0,
0,
0,
0,
0,
0,
0,
0,
0,
0,
0,
0,
0,
0,
0,
0,
0,
0,
0,
0,
0,
0,
0,
0,
0,
0,
0,
0,
0,
0,
0,
0,
0,
0,
0,
0,
0,
0,
0,
0,
0,
0,
0,
0,
0,
0,
0,
0,
0,
0,
0,
0,
0,
0,
0,
0,
0,
0,
0,
0,
0,
0,
0,
0,
0,
0,
0,
0,
0,
0,
0,
0,
0,
0,
0,
0,
0,
0,
0,
0,
0,
0,
0,
0,
0,
0,
0,
0,
0,
0,
0,
0,
0,
0,
0,
0,
0,
0,
0,
0,
0,
0,
0,
0,
0,
0,
0,
0,
0,
0,
0,
0,
0,
0,
0,
0,
0,
0,
0,
0,
0,
0,
0,
0,
0,
0,
0,
0,
0,
0,
0,
0,
0,
0,
0,
0,
0,
0,
0,
0,
0,
0,
0,
0,
0,
0,
0,
0,
0,
0,
0,
0,
0,
0,
0,
0,
0,
0,
0,
0,
0,
0,
0,
0,
0,
0,
0,
0,
0,
0,
0,
0,
0,
0,
0,
0,
0,
0,
0,
0,
0,
0,
0,
0,
0,
0,
0,
0,
0,
0,
0,
0,
0,
0,
0,
0,
0,
0,
0,
#ENDOFDATA   :