File: N132962/Quantification/20 keV/MMM2/SPI MM2 Sphene[0][4].msa
#FORMAT      : EMSA/MAS Spectral Data File
#VERSION     : 1.0
#TITLE       : SPI MM2 Sphene[0][all]
#DATE        : 13-MAR-2025
#TIME        : 12:58
#OWNER       : Unknown
#NPOINTS     : 4096
#NCOLUMNS    : 1
#XUNITS      : eV
#YUNITS      : counts
#DATATYPE    : Y
#XPERCHAN    : 9.99778
#OFFSET      : 1.69135
#BEAMKV      : 20
#SIGNALTYPE  : EDS
#ELEVANGLE   : 35
#AZIMANGLE   : 0
#LIVETIME    : 239.86
#REALTIME    : 254.821
#PROBECUR    : 1.02627
#TAUWIND     : 0
#TDEADLYR    : 0
#TACTLYR     : 0.045
#TALWIND     : 0.025
#CHOFFSET    : 0.0
#XLABEL      : Energy (eV)
#YLABEL      : Counts
#XPOSITION   : 6.10773
#YPOSITION   : 3.74563
#ZPOSITION   : 31.03511
#EDSDET      : SD
##SPECIMEN   : SPI MM2 Sphene[0][all]
##DET_HASH   : 12273538-fd48-a23f-0a19-f1e6fa85caef
##CALIB_HASH : 6abaa72c-aa41-8738-0be9-f592914732f3
##WORKING    : 15.0 mm
##DET_NAME   : EDAX All
##DET_MODE   : MediumLE
#SPECTRUM    :
25,
30,
11,
8,
64,
308,
962,
3244,
9650,
14177,
10005,
6078,
5986,
6956,
7685,
12439,
33402,
63192,
46385,
12596,
2563,
1764,
2000,
2375,
2288,
2080,
2088,
2158,
2464,
2548,
2624,
2590,
2822,
2962,
3052,
3144,
3327,
3368,
3634,
3833,
3776,
3749,
4225,
4091,
4173,
4313,
4638,
5137,
7021,
10010,
10170,
7820,
5772,
5277,
5888,
11663,
38324,
95041,
129002,
92100,
38689,
14733,
8106,
5395,
4665,
4662,
4324,
3897,
3535,
3479,
3644,
3707,
3853,
3777,
3896,
3887,
3683,
3636,
3558,
3485,
3414,
3371,
3355,
3362,
3265,
3340,
3277,
3312,
3262,
3228,
3480,
3540,
3696,
3619,
3361,
3163,
3098,
3015,
3046,
2990,
3006,
2903,
2921,
2984,
2996,
2931,
2981,
2938,
2858,
2799,
2809,
2775,
2764,
2814,
2745,
2870,
2981,
3372,
4243,
7028,
17368,
43533,
80562,
102289,
86051,
48869,
19478,
6750,
3441,
3029,
3606,
5300,
8954,
13224,
14358,
11535,
7147,
3926,
2544,
2225,
1991,
2113,
2001,
2149,
2370,
2871,
5025,
12401,
29183,
54077,
71679,
67791,
44647,
21527,
8345,
3169,
2093,
1941,
2010,
2024,
2368,
3379,
5545,
8757,
10911,
10587,
7981,
4913,
2749,
1965,
1534,
1404,
1486,
1408,
1437,
1467,
1431,
1430,
1467,
1476,
1543,
1542,
1593,
1539,
1406,
1427,
1417,
1316,
1325,
1319,
1306,
1286,
1367,
1348,
1287,
1301,
1377,
1303,
1312,
1302,
1237,
1239,
1256,
1247,
1212,
1214,
1239,
1278,
1310,
1345,
1450,
1592,
1947,
2056,
1943,
1723,
1460,
1304,
1207,
1147,
1101,
1084,
1057,
1086,
1080,
1056,
1049,
1112,
1046,
1049,
1053,
1085,
985,
1025,
1074,
1138,
1089,
1062,
997,
969,
1003,
989,
921,
913,
985,
954,
969,
1054,
1046,
974,
995,
929,
923,
853,
907,
946,
890,
883,
858,
856,
813,
846,
835,
806,
804,
816,
809,
818,
771,
795,
803,
828,
788,
820,
827,
835,
803,
797,
797,
769,
715,
733,
749,
734,
733,
727,
710,
715,
729,
651,
662,
709,
698,
730,
699,
649,
647,
645,
695,
637,
632,
654,
622,
619,
665,
605,
594,
611,
595,
613,
583,
609,
570,
590,
559,
575,
572,
606,
523,
596,
570,
538,
543,
573,
529,
578,
549,
533,
550,
532,
524,
527,
529,
518,
536,
510,
474,
508,
489,
476,
467,
497,
483,
482,
480,
478,
474,
465,
446,
427,
437,
438,
451,
421,
408,
423,
444,
392,
458,
372,
407,
421,
389,
413,
389,
375,
354,
436,
374,
418,
375,
353,
314,
391,
378,
332,
378,
350,
376,
347,
357,
387,
338,
379,
346,
358,
338,
348,
322,
335,
324,
320,
337,
332,
301,
294,
281,
337,
304,
309,
315,
259,
302,
299,
275,
287,
275,
280,
259,
280,
243,
243,
240,
262,
257,
273,
280,
303,
267,
229,
261,
249,
237,
219,
229,
247,
219,
253,
248,
239,
209,
204,
212,
247,
236,
214,
203,
218,
208,
195,
201,
176,
193,
186,
186,
190,
204,
199,
181,
162,
199,
189,
152,
141,
173,
174,
184,
184,
160,
161,
157,
159,
166,
174,
148,
166,
122,
139,
147,
144,
144,
144,
135,
145,
150,
143,
133,
139,
130,
122,
154,
120,
142,
133,
103,
106,
117,
113,
134,
104,
101,
115,
111,
110,
112,
109,
117,
123,
104,
116,
106,
98,
86,
83,
119,
80,
99,
107,
110,
83,
87,
83,
103,
84,
100,
83,
102,
100,
72,
67,
61,
77,
88,
92,
58,
55,
75,
61,
81,
74,
55,
66,
71,
58,
85,
63,
49,
62,
62,
66,
63,
70,
63,
59,
61,
69,
53,
54,
54,
49,
58,
42,
50,
40,
56,
49,
40,
55,
53,
39,
57,
36,
50,
42,
41,
41,
43,
39,
39,
28,
39,
54,
37,
35,
44,
43,
22,
23,
36,
44,
25,
29,
31,
30,
25,
32,
35,
29,
37,
24,
28,
34,
19,
21,
24,
24,
29,
27,
25,
22,
19,
14,
27,
23,
22,
17,
22,
14,
14,
18,
18,
23,
17,
13,
19,
12,
17,
17,
8,
12,
11,
14,
9,
10,
17,
12,
12,
11,
11,
10,
11,
7,
13,
6,
12,
6,
7,
8,
8,
3,
8,
8,
6,
6,
4,
4,
6,
1,
5,
8,
5,
10,
1,
4,
1,
5,
3,
5,
2,
5,
2,
3,
3,
3,
0,
1,
0,
0,
1,
0,
1,
0,
0,
1,
1,
0,
0,
1,
1,
0,
0,
0,
0,
0,
0,
0,
0,
0,
0,
0,
0,
2,
1,
1,
0,
0,
0,
1,
0,
0,
0,
0,
0,
0,
0,
1,
1,
0,
0,
0,
0,
0,
0,
0,
0,
0,
0,
0,
1,
0,
0,
0,
0,
0,
1,
0,
0,
0,
0,
1,
0,
0,
0,
0,
0,
0,
0,
0,
1,
0,
0,
0,
0,
0,
0,
1,
1,
0,
1,
0,
0,
0,
0,
1,
1,
0,
0,
0,
0,
0,
0,
0,
0,
1,
0,
0,
0,
0,
0,
0,
0,
0,
0,
0,
0,
0,
0,
0,
0,
0,
0,
0,
0,
0,
0,
0,
0,
0,
0,
0,
0,
0,
0,
0,
0,
0,
0,
0,
0,
0,
0,
0,
0,
0,
0,
0,
0,
0,
0,
0,
0,
0,
0,
0,
0,
0,
0,
0,
0,
0,
0,
0,
0,
0,
0,
0,
0,
0,
0,
0,
1,
0,
0,
0,
0,
0,
1,
0,
0,
0,
0,
0,
0,
0,
0,
0,
0,
0,
0,
0,
0,
0,
0,
0,
0,
0,
0,
0,
0,
1,
0,
0,
0,
0,
0,
0,
0,
0,
0,
0,
0,
0,
0,
0,
1,
0,
0,
0,
0,
0,
0,
0,
0,
0,
0,
0,
0,
0,
0,
0,
0,
0,
0,
0,
0,
0,
0,
0,
0,
0,
0,
0,
0,
0,
0,
0,
0,
0,
0,
0,
0,
0,
0,
0,
0,
0,
0,
0,
0,
0,
0,
0,
0,
0,
0,
0,
0,
0,
0,
0,
0,
0,
0,
0,
0,
0,
0,
0,
0,
0,
0,
0,
0,
0,
0,
0,
0,
0,
0,
0,
0,
0,
0,
0,
0,
0,
0,
0,
0,
0,
0,
0,
0,
0,
0,
0,
0,
0,
0,
0,
0,
0,
0,
0,
0,
0,
0,
0,
0,
0,
0,
0,
0,
0,
0,
0,
0,
0,
0,
0,
0,
0,
0,
0,
0,
0,
0,
0,
0,
0,
0,
0,
0,
0,
0,
0,
0,
0,
0,
0,
0,
0,
0,
0,
0,
0,
0,
0,
0,
0,
0,
0,
0,
0,
0,
0,
0,
0,
0,
0,
0,
0,
0,
0,
0,
0,
0,
0,
0,
0,
0,
0,
0,
0,
0,
0,
0,
0,
0,
0,
0,
0,
0,
0,
0,
0,
0,
0,
0,
0,
0,
0,
0,
0,
0,
0,
0,
0,
0,
0,
0,
0,
0,
0,
0,
0,
0,
0,
0,
0,
0,
0,
0,
0,
0,
0,
0,
0,
0,
0,
0,
0,
0,
0,
0,
0,
0,
0,
0,
0,
0,
0,
0,
0,
0,
0,
0,
0,
0,
0,
0,
0,
0,
0,
0,
0,
0,
0,
0,
0,
0,
0,
0,
0,
0,
0,
0,
0,
0,
0,
0,
0,
0,
0,
0,
0,
0,
0,
0,
0,
0,
0,
0,
0,
0,
0,
0,
0,
0,
0,
0,
0,
0,
0,
0,
0,
0,
0,
0,
0,
0,
0,
0,
0,
0,
0,
0,
0,
0,
0,
0,
0,
0,
0,
0,
0,
0,
0,
0,
0,
0,
0,
0,
0,
0,
0,
0,
0,
0,
0,
0,
0,
0,
0,
0,
0,
0,
0,
0,
0,
0,
0,
0,
0,
0,
0,
0,
0,
0,
0,
0,
0,
0,
0,
0,
0,
0,
0,
0,
0,
0,
0,
0,
0,
0,
0,
0,
0,
0,
0,
0,
0,
0,
0,
0,
0,
0,
0,
0,
0,
0,
0,
0,
0,
0,
0,
0,
0,
0,
0,
0,
0,
0,
0,
0,
0,
0,
0,
0,
0,
0,
0,
0,
0,
0,
0,
0,
0,
0,
0,
0,
0,
0,
0,
0,
0,
0,
0,
0,
0,
0,
0,
0,
0,
0,
0,
0,
0,
0,
0,
0,
0,
0,
0,
0,
0,
0,
0,
0,
0,
0,
0,
0,
0,
0,
0,
0,
0,
0,
0,
0,
0,
0,
0,
0,
0,
0,
0,
0,
0,
0,
0,
0,
0,
0,
0,
0,
0,
0,
0,
0,
0,
0,
0,
0,
0,
0,
0,
0,
0,
0,
0,
0,
0,
0,
0,
0,
0,
0,
0,
0,
0,
0,
0,
0,
0,
0,
0,
0,
0,
0,
0,
0,
0,
0,
0,
#ENDOFDATA   :