File: N132962/Quantification/20 keV/MMM2/SPI MM2 Spessartine[1][4].msa
#FORMAT      : EMSA/MAS Spectral Data File
#VERSION     : 1.0
#TITLE       : SPI MM2 Spessartine[1][all]
#DATE        : 13-MAR-2025
#TIME        : 12:04
#OWNER       : Unknown
#NPOINTS     : 4096
#NCOLUMNS    : 1
#XUNITS      : eV
#YUNITS      : counts
#DATATYPE    : Y
#XPERCHAN    : 9.99778
#OFFSET      : 1.69135
#BEAMKV      : 20
#SIGNALTYPE  : EDS
#ELEVANGLE   : 35
#AZIMANGLE   : 0
#LIVETIME    : 239.862
#REALTIME    : 256.243
#PROBECUR    : 1.02616
#TAUWIND     : 0
#TDEADLYR    : 0
#TACTLYR     : 0.045
#TALWIND     : 0.025
#CHOFFSET    : 0.0
#XLABEL      : Energy (eV)
#YLABEL      : Counts
#XPOSITION   : -5.83328
#YPOSITION   : 1.52392
#ZPOSITION   : 31.03511
#EDSDET      : SD
##SPECIMEN   : SPI MM2 Spessartine[1][all]
##DET_HASH   : 12273538-fd48-a23f-0a19-f1e6fa85caef
##CALIB_HASH : 6abaa72c-aa41-8738-0be9-f592914732f3
##WORKING    : 15.0 mm
##DET_NAME   : EDAX All
##DET_MODE   : MediumLE
#SPECTRUM    :
17,
16,
9,
17,
66,
346,
927,
3008,
8265,
10894,
6203,
3299,
3440,
4414,
7747,
26747,
104181,
202844,
150585,
43466,
13954,
16775,
13761,
6809,
3684,
2491,
2028,
2046,
2266,
2327,
2466,
2529,
2717,
2807,
3085,
3245,
3213,
3240,
3343,
3496,
3763,
3879,
3909,
4103,
4324,
4579,
5697,
12519,
38832,
77352,
78762,
41770,
14983,
6550,
5618,
11066,
37192,
92462,
125892,
89631,
36847,
13812,
7377,
4395,
3317,
3231,
3298,
3439,
3291,
3066,
3108,
3107,
3124,
3229,
3367,
3387,
3310,
3398,
3171,
3045,
3133,
3105,
3149,
3018,
3047,
3110,
3023,
3012,
3130,
2978,
3018,
2888,
2999,
2854,
2964,
3083,
2936,
2972,
2999,
2947,
2871,
2911,
2807,
2846,
2817,
2839,
2842,
2933,
2895,
2758,
2669,
2675,
2691,
2711,
2774,
2772,
2771,
2642,
2584,
2590,
2844,
3172,
3544,
3847,
3596,
3168,
2709,
2474,
2426,
2391,
2531,
2404,
2438,
2431,
2474,
2450,
2387,
2546,
2571,
2470,
2442,
2192,
2194,
2198,
2212,
2142,
2080,
2141,
2034,
2084,
2133,
2171,
2105,
2064,
2080,
1959,
1916,
1957,
1994,
2003,
1992,
1905,
1892,
1883,
1869,
1795,
1861,
1859,
1761,
1823,
1804,
1778,
1746,
1752,
1712,
1700,
1672,
1641,
1727,
1710,
1750,
1655,
1630,
1590,
1681,
1676,
1632,
1685,
1747,
1819,
1973,
2841,
5827,
14255,
30824,
53080,
69868,
69550,
51897,
29373,
13163,
5167,
2384,
1651,
1481,
1508,
1476,
1454,
1541,
1671,
2097,
2832,
4321,
5955,
8123,
10353,
10753,
10054,
7115,
4444,
2526,
1563,
1206,
1111,
1103,
1131,
1044,
1041,
1097,
1049,
1101,
1139,
1084,
1217,
1280,
1306,
1212,
1142,
1067,
1106,
944,
958,
929,
1006,
1014,
997,
1034,
991,
1026,
1013,
976,
929,
997,
945,
969,
1012,
978,
894,
942,
873,
858,
852,
907,
900,
845,
841,
838,
825,
872,
812,
818,
837,
835,
779,
842,
821,
874,
798,
772,
753,
737,
759,
780,
727,
748,
716,
700,
763,
724,
689,
702,
679,
684,
617,
690,
714,
673,
671,
659,
697,
678,
662,
692,
598,
682,
657,
668,
611,
631,
647,
651,
658,
574,
640,
608,
617,
641,
577,
539,
575,
605,
567,
610,
585,
580,
619,
586,
564,
560,
549,
581,
538,
563,
519,
516,
528,
491,
528,
504,
536,
512,
516,
492,
479,
479,
486,
492,
443,
442,
472,
481,
453,
416,
457,
459,
486,
448,
459,
468,
422,
426,
475,
437,
426,
386,
444,
373,
400,
392,
415,
375,
429,
388,
373,
362,
367,
381,
375,
389,
358,
381,
363,
373,
324,
372,
345,
339,
369,
368,
353,
355,
344,
372,
349,
363,
315,
330,
342,
340,
292,
307,
318,
303,
301,
290,
306,
284,
301,
287,
275,
290,
289,
311,
310,
273,
264,
263,
255,
261,
258,
269,
271,
253,
233,
237,
254,
228,
245,
226,
232,
256,
208,
230,
198,
218,
214,
209,
234,
237,
222,
235,
210,
201,
228,
219,
176,
205,
211,
209,
198,
195,
188,
198,
171,
174,
208,
161,
168,
187,
162,
181,
164,
183,
168,
157,
170,
169,
164,
161,
158,
168,
141,
151,
164,
154,
161,
143,
149,
120,
137,
128,
155,
133,
136,
130,
131,
117,
132,
140,
146,
122,
130,
124,
116,
133,
107,
104,
104,
124,
110,
99,
109,
120,
99,
109,
104,
124,
114,
90,
90,
118,
103,
79,
93,
100,
95,
83,
85,
81,
83,
91,
100,
76,
76,
71,
74,
73,
74,
72,
78,
72,
84,
71,
77,
74,
76,
82,
85,
60,
76,
52,
71,
81,
57,
50,
55,
62,
49,
50,
58,
49,
62,
56,
46,
57,
45,
45,
45,
52,
49,
49,
45,
51,
44,
58,
51,
44,
44,
32,
46,
49,
43,
37,
48,
41,
28,
36,
39,
38,
37,
28,
33,
29,
41,
30,
26,
42,
29,
39,
34,
32,
42,
14,
31,
28,
25,
16,
26,
24,
26,
23,
21,
28,
19,
26,
14,
17,
22,
23,
20,
13,
21,
25,
17,
17,
21,
24,
15,
17,
20,
12,
15,
16,
14,
16,
12,
16,
12,
18,
6,
13,
7,
7,
6,
12,
11,
8,
10,
7,
11,
6,
4,
11,
8,
8,
8,
8,
8,
8,
3,
8,
4,
0,
1,
4,
4,
1,
5,
4,
4,
0,
0,
1,
2,
2,
0,
1,
0,
1,
0,
1,
1,
0,
2,
2,
0,
0,
0,
0,
0,
0,
0,
0,
0,
0,
1,
0,
0,
0,
0,
0,
1,
0,
0,
0,
0,
0,
0,
0,
0,
0,
0,
0,
0,
0,
0,
0,
0,
0,
0,
1,
0,
0,
0,
0,
0,
0,
1,
0,
0,
0,
0,
0,
0,
0,
0,
0,
0,
0,
0,
0,
0,
0,
0,
1,
0,
0,
0,
0,
0,
1,
0,
0,
0,
1,
1,
0,
1,
0,
1,
2,
0,
1,
0,
0,
0,
0,
0,
0,
0,
0,
0,
0,
0,
0,
1,
0,
0,
0,
0,
0,
0,
0,
0,
0,
0,
0,
1,
0,
0,
0,
0,
0,
1,
0,
0,
0,
0,
0,
0,
0,
0,
0,
0,
0,
0,
0,
0,
0,
0,
0,
0,
0,
0,
0,
0,
0,
0,
0,
0,
0,
0,
0,
0,
0,
0,
0,
0,
0,
0,
0,
0,
0,
0,
0,
0,
0,
2,
0,
1,
1,
0,
0,
0,
0,
0,
0,
0,
0,
1,
0,
0,
0,
0,
0,
0,
0,
0,
0,
0,
0,
0,
0,
0,
0,
0,
0,
0,
0,
0,
0,
0,
0,
0,
0,
0,
0,
0,
0,
0,
0,
1,
0,
0,
0,
0,
0,
0,
0,
0,
0,
0,
0,
0,
0,
0,
0,
0,
0,
0,
0,
0,
0,
0,
0,
0,
0,
0,
0,
0,
0,
0,
0,
0,
0,
0,
0,
0,
0,
0,
0,
0,
0,
0,
0,
0,
0,
0,
0,
0,
0,
0,
0,
0,
0,
0,
0,
0,
0,
0,
0,
0,
0,
0,
0,
0,
0,
0,
0,
0,
0,
0,
0,
0,
0,
0,
0,
0,
0,
0,
0,
0,
0,
0,
0,
0,
0,
0,
0,
0,
0,
0,
0,
0,
0,
0,
0,
0,
0,
0,
0,
0,
0,
0,
0,
0,
0,
0,
0,
0,
0,
0,
0,
0,
0,
0,
0,
0,
0,
0,
0,
0,
0,
0,
0,
0,
0,
0,
0,
0,
0,
0,
0,
0,
0,
0,
0,
0,
0,
0,
0,
0,
0,
0,
0,
0,
0,
0,
0,
0,
0,
0,
0,
0,
0,
0,
0,
0,
0,
0,
0,
0,
0,
0,
0,
0,
0,
0,
0,
0,
0,
0,
0,
0,
0,
0,
0,
0,
0,
0,
0,
0,
0,
0,
0,
0,
0,
0,
0,
0,
0,
0,
0,
0,
0,
0,
0,
0,
0,
0,
0,
0,
0,
0,
0,
0,
0,
0,
0,
0,
0,
0,
0,
0,
0,
0,
0,
0,
0,
0,
0,
0,
0,
0,
0,
0,
0,
0,
0,
0,
0,
0,
0,
0,
0,
0,
0,
0,
0,
0,
0,
0,
0,
0,
0,
0,
0,
0,
0,
0,
0,
0,
0,
0,
0,
0,
0,
0,
0,
0,
0,
0,
0,
0,
0,
0,
0,
0,
0,
0,
0,
0,
0,
0,
0,
0,
0,
0,
0,
0,
0,
0,
0,
0,
0,
0,
0,
0,
0,
0,
0,
0,
0,
0,
0,
0,
0,
0,
0,
0,
0,
0,
0,
0,
0,
0,
0,
0,
0,
0,
0,
0,
0,
0,
0,
0,
0,
0,
0,
0,
0,
0,
0,
0,
0,
0,
0,
0,
0,
0,
0,
0,
0,
0,
0,
0,
0,
0,
0,
0,
0,
0,
0,
0,
0,
0,
0,
0,
0,
0,
0,
0,
0,
0,
0,
0,
0,
0,
0,
0,
0,
0,
0,
0,
0,
0,
0,
0,
0,
0,
0,
0,
0,
0,
0,
0,
0,
0,
0,
0,
0,
0,
0,
0,
0,
0,
0,
0,
0,
0,
0,
0,
0,
0,
0,
0,
0,
0,
0,
0,
0,
0,
0,
0,
0,
0,
0,
0,
0,
0,
0,
0,
0,
0,
0,
0,
0,
0,
0,
0,
0,
0,
0,
0,
0,
0,
0,
0,
0,
0,
0,
0,
0,
0,
0,
0,
0,
0,
0,
0,
0,
0,
0,
0,
0,
0,
0,
0,
0,
0,
0,
0,
0,
0,
0,
0,
0,
0,
0,
0,
0,
0,
0,
0,
0,
0,
0,
0,
0,
0,
0,
0,
0,
0,
0,
0,
0,
0,
0,
0,
0,
0,
0,
0,
0,
0,
0,
0,
0,
0,
0,
0,
0,
0,
0,
0,
#ENDOFDATA   :