File: N132962/Quantification/20 keV/MMM2/SPI MM2 SPI Pentlandite[1][4].msa
#FORMAT      : EMSA/MAS Spectral Data File
#VERSION     : 1.0
#TITLE       : SPI MM2 SPI Pentlandite[1][all]
#DATE        : 13-MAR-2025
#TIME        : 10:33
#OWNER       : Unknown
#NPOINTS     : 4096
#NCOLUMNS    : 1
#XUNITS      : eV
#YUNITS      : counts
#DATATYPE    : Y
#XPERCHAN    : 9.99778
#OFFSET      : 1.69135
#BEAMKV      : 20
#SIGNALTYPE  : EDS
#ELEVANGLE   : 35
#AZIMANGLE   : 0
#LIVETIME    : 239.895
#REALTIME    : 260.204
#PROBECUR    : 1.02606
#TAUWIND     : 0
#TDEADLYR    : 0
#TACTLYR     : 0.045
#TALWIND     : 0.025
#CHOFFSET    : 0.0
#XLABEL      : Energy (eV)
#YLABEL      : Counts
#XPOSITION   : 3.92462
#YPOSITION   : -0.26056
#ZPOSITION   : 31.0351
#EDSDET      : SD
##SPECIMEN   : SPI MM2 SPI Pentlandite[1][all]
##D2STDCMP   : SPI Pentlandite,(S:32.89),(Fe:30.88),(Co:0.43),(Ni:35.61)
##DET_HASH   : 12273538-fd48-a23f-0a19-f1e6fa85caef
##CALIB_HASH : 6abaa72c-aa41-8738-0be9-f592914732f3
##WORKING    : 15.0 mm
##DET_NAME   : EDAX All
##DET_MODE   : MediumLE
#SPECTRUM    :
15,
29,
12,
40,
217,
653,
1195,
3463,
10040,
13352,
6859,
2809,
2652,
2945,
3249,
4018,
5194,
6979,
10584,
14900,
18277,
18986,
28318,
48083,
44596,
23882,
17423,
35524,
63379,
52846,
21287,
6458,
3842,
3311,
3229,
3229,
3226,
3511,
3567,
3696,
3863,
3957,
3939,
4226,
4379,
4516,
4713,
4769,
4940,
5083,
5220,
5070,
5339,
5215,
5253,
5304,
5472,
6085,
6237,
6134,
6107,
5695,
5375,
5315,
5232,
5371,
5492,
5589,
5677,
5776,
5823,
6233,
8167,
13536,
31890,
85235,
176373,
219914,
160416,
70109,
24883,
18116,
20245,
16948,
10351,
5784,
4276,
3818,
3711,
3836,
3791,
3802,
3676,
3766,
3803,
3881,
3765,
3835,
3740,
3882,
3912,
3925,
3939,
3911,
3880,
3747,
3888,
3770,
3625,
3589,
3699,
3679,
3554,
3686,
3601,
3592,
3609,
3594,
3592,
3513,
3581,
3574,
3553,
3613,
3514,
3440,
3429,
3459,
3455,
3343,
3371,
3295,
3349,
3273,
3334,
3277,
3286,
3229,
3181,
3107,
3302,
3022,
3064,
3141,
3227,
3245,
3213,
3111,
3046,
3037,
3040,
3135,
3098,
3315,
3401,
3255,
3275,
3031,
2973,
2972,
2891,
2920,
2753,
2764,
2776,
2719,
2647,
2630,
2727,
2668,
2697,
2672,
2652,
2597,
2540,
2697,
2718,
2590,
2685,
2623,
2616,
2625,
2523,
2570,
2425,
2585,
2494,
2442,
2515,
2464,
2399,
2534,
2451,
2409,
2388,
2354,
2252,
2336,
2337,
2315,
2280,
2284,
2285,
2330,
2389,
2294,
2494,
2796,
3965,
7840,
17208,
33738,
53317,
65117,
60914,
43956,
24952,
11683,
4979,
2755,
2225,
1971,
1915,
1853,
2074,
1914,
1995,
2133,
2422,
2723,
3221,
3891,
5124,
7152,
9150,
10007,
8988,
6917,
4743,
3031,
2354,
1962,
1957,
2486,
4318,
8811,
17594,
30665,
42793,
47873,
42165,
30125,
17486,
8634,
4146,
2271,
1789,
1577,
1549,
1556,
1479,
1439,
1427,
1425,
1423,
1499,
1473,
1504,
1519,
1597,
1787,
2289,
3299,
4838,
6359,
7308,
7059,
5759,
4053,
2673,
1864,
1341,
1231,
1221,
1146,
1139,
1137,
1170,
1278,
1179,
1258,
1168,
1156,
1094,
1153,
1113,
1096,
1047,
1119,
1060,
1073,
1092,
1005,
1098,
1011,
1066,
1013,
1018,
1034,
1018,
1034,
952,
1035,
984,
923,
953,
977,
985,
964,
1022,
923,
979,
1038,
948,
1033,
1014,
1067,
1004,
988,
944,
919,
913,
900,
878,
897,
917,
853,
838,
843,
810,
794,
828,
789,
777,
806,
843,
800,
848,
840,
755,
788,
748,
806,
726,
775,
789,
780,
783,
735,
741,
765,
755,
705,
716,
702,
688,
711,
672,
638,
657,
660,
617,
666,
638,
646,
650,
650,
603,
636,
635,
641,
598,
622,
603,
595,
591,
576,
623,
602,
610,
542,
613,
628,
526,
605,
582,
578,
599,
544,
560,
504,
520,
517,
496,
584,
496,
517,
484,
504,
490,
507,
499,
492,
504,
440,
453,
432,
463,
477,
478,
494,
449,
460,
437,
445,
438,
453,
446,
447,
404,
449,
372,
433,
415,
419,
402,
405,
404,
370,
369,
380,
388,
351,
380,
394,
410,
398,
379,
407,
374,
338,
295,
349,
327,
341,
310,
316,
346,
329,
319,
348,
338,
356,
281,
344,
356,
335,
326,
292,
278,
296,
280,
261,
295,
253,
291,
258,
264,
282,
241,
278,
237,
234,
255,
252,
225,
216,
236,
237,
234,
232,
203,
222,
234,
221,
202,
215,
222,
201,
223,
205,
189,
194,
220,
181,
172,
191,
203,
197,
169,
183,
176,
173,
161,
184,
163,
173,
176,
153,
159,
155,
147,
152,
148,
140,
135,
133,
151,
142,
126,
138,
141,
135,
134,
144,
160,
103,
123,
118,
110,
112,
140,
120,
101,
125,
101,
126,
96,
108,
116,
96,
97,
115,
93,
116,
99,
106,
99,
109,
78,
91,
82,
87,
97,
75,
79,
73,
99,
79,
78,
89,
80,
83,
78,
71,
73,
83,
64,
64,
71,
65,
71,
59,
69,
54,
64,
61,
62,
63,
63,
45,
52,
61,
52,
65,
45,
51,
41,
53,
39,
45,
50,
46,
45,
33,
46,
38,
35,
43,
29,
47,
33,
38,
38,
46,
40,
44,
32,
28,
26,
30,
25,
22,
28,
27,
21,
30,
35,
30,
28,
20,
20,
19,
22,
16,
22,
21,
21,
20,
21,
16,
15,
17,
15,
12,
18,
12,
11,
9,
15,
7,
10,
8,
10,
3,
11,
8,
9,
8,
5,
3,
5,
4,
9,
4,
3,
1,
2,
1,
1,
2,
4,
2,
0,
5,
4,
3,
1,
4,
4,
3,
4,
0,
1,
0,
3,
2,
0,
1,
3,
1,
1,
1,
3,
0,
2,
2,
0,
1,
1,
2,
0,
1,
0,
0,
3,
1,
0,
1,
0,
1,
3,
2,
1,
1,
0,
0,
0,
0,
0,
2,
0,
4,
0,
0,
0,
0,
1,
1,
3,
2,
1,
3,
0,
0,
0,
0,
2,
1,
2,
1,
1,
0,
1,
0,
2,
0,
1,
0,
0,
1,
0,
2,
1,
1,
1,
0,
0,
1,
0,
1,
0,
0,
0,
0,
1,
1,
0,
0,
1,
0,
1,
0,
0,
0,
0,
0,
0,
3,
0,
1,
0,
0,
1,
0,
0,
0,
1,
0,
1,
0,
0,
0,
1,
0,
1,
0,
2,
0,
0,
0,
0,
0,
0,
0,
0,
0,
0,
0,
0,
0,
0,
1,
0,
0,
0,
0,
0,
0,
0,
0,
1,
0,
1,
0,
0,
0,
0,
1,
0,
0,
1,
0,
0,
0,
0,
1,
0,
0,
0,
0,
0,
0,
0,
0,
1,
1,
0,
0,
0,
0,
0,
0,
0,
0,
0,
1,
0,
0,
0,
1,
0,
0,
0,
0,
1,
0,
0,
0,
0,
0,
0,
0,
0,
0,
0,
0,
0,
0,
1,
1,
0,
0,
0,
0,
0,
0,
0,
0,
0,
0,
0,
0,
0,
0,
0,
0,
0,
0,
0,
0,
0,
0,
0,
0,
1,
1,
0,
0,
0,
0,
0,
0,
0,
0,
0,
0,
0,
0,
0,
0,
0,
0,
0,
0,
0,
0,
0,
0,
0,
0,
0,
0,
0,
0,
0,
0,
0,
0,
0,
0,
0,
0,
0,
0,
0,
0,
0,
0,
0,
0,
0,
0,
0,
0,
0,
0,
0,
0,
0,
0,
0,
0,
0,
0,
0,
1,
0,
0,
0,
0,
0,
0,
0,
0,
0,
0,
1,
0,
0,
0,
0,
0,
0,
0,
0,
0,
0,
0,
0,
0,
0,
0,
0,
0,
0,
0,
0,
0,
0,
0,
0,
0,
0,
0,
0,
0,
0,
0,
0,
0,
0,
0,
0,
0,
0,
0,
0,
0,
0,
0,
0,
0,
0,
0,
0,
0,
0,
0,
0,
0,
0,
0,
0,
0,
0,
0,
0,
0,
0,
0,
0,
0,
0,
0,
0,
1,
0,
0,
0,
0,
0,
0,
0,
0,
0,
0,
0,
0,
0,
0,
0,
0,
0,
0,
0,
0,
0,
0,
0,
0,
0,
0,
0,
0,
0,
0,
0,
0,
0,
0,
0,
0,
0,
0,
0,
0,
0,
0,
0,
0,
0,
0,
0,
0,
0,
0,
0,
0,
0,
0,
0,
0,
0,
0,
0,
0,
0,
0,
0,
0,
0,
0,
0,
0,
0,
0,
0,
0,
0,
0,
0,
0,
0,
0,
0,
0,
0,
0,
0,
0,
0,
0,
0,
0,
0,
0,
0,
0,
0,
0,
0,
0,
0,
0,
0,
0,
0,
0,
0,
0,
0,
0,
0,
0,
0,
0,
0,
0,
0,
0,
0,
0,
0,
0,
0,
0,
0,
0,
0,
0,
0,
0,
0,
0,
0,
0,
0,
0,
0,
0,
0,
0,
0,
0,
0,
0,
0,
0,
0,
0,
0,
0,
0,
0,
0,
0,
0,
0,
0,
0,
0,
0,
0,
0,
0,
0,
0,
0,
0,
0,
0,
0,
0,
0,
0,
0,
0,
0,
0,
0,
0,
0,
0,
0,
0,
0,
0,
0,
0,
0,
0,
0,
0,
0,
0,
0,
0,
0,
0,
0,
0,
0,
0,
0,
0,
0,
0,
0,
0,
0,
0,
0,
0,
0,
0,
0,
0,
0,
0,
0,
0,
0,
0,
0,
0,
0,
0,
0,
0,
0,
0,
0,
0,
0,
0,
0,
0,
0,
0,
0,
0,
0,
0,
0,
0,
0,
0,
0,
0,
0,
0,
0,
0,
0,
0,
0,
0,
0,
0,
0,
0,
0,
0,
0,
0,
0,
0,
0,
0,
0,
0,
0,
0,
0,
0,
0,
0,
0,
0,
0,
0,
0,
0,
0,
0,
0,
0,
0,
0,
0,
0,
0,
0,
0,
0,
0,
0,
0,
0,
0,
0,
0,
0,
0,
0,
0,
0,
0,
0,
0,
0,
0,
0,
0,
0,
0,
0,
0,
0,
0,
0,
0,
0,
0,
0,
#ENDOFDATA   :