File: N132962/Quantification/20 keV/MMM2/SPI MM2 Scheelite[0][4].msa
#FORMAT      : EMSA/MAS Spectral Data File
#VERSION     : 1.0
#TITLE       : SPI MM2 Scheelite[0][all]
#DATE        : 13-MAR-2025
#TIME        : 12:12
#OWNER       : Unknown
#NPOINTS     : 4096
#NCOLUMNS    : 1
#XUNITS      : eV
#YUNITS      : counts
#DATATYPE    : Y
#XPERCHAN    : 9.99778
#OFFSET      : 1.69135
#BEAMKV      : 20
#SIGNALTYPE  : EDS
#ELEVANGLE   : 35
#AZIMANGLE   : 0
#LIVETIME    : 239.966
#REALTIME    : 263.0887
#PROBECUR    : 1.02616
#TAUWIND     : 0
#TDEADLYR    : 0
#TACTLYR     : 0.045
#TALWIND     : 0.025
#CHOFFSET    : 0.0
#XLABEL      : Energy (eV)
#YLABEL      : Counts
#XPOSITION   : -2.79232
#YPOSITION   : 1.98449
#ZPOSITION   : 31.03511
#EDSDET      : SD
##SPECIMEN   : SPI MM2 Scheelite[0][all]
##DET_HASH   : 12273538-fd48-a23f-0a19-f1e6fa85caef
##CALIB_HASH : 6abaa72c-aa41-8738-0be9-f592914732f3
##WORKING    : 15.0 mm
##DET_NAME   : EDAX All
##DET_MODE   : MediumLE
#SPECTRUM    :
28,
34,
13,
30,
178,
831,
2493,
6521,
14935,
19491,
11894,
6003,
4470,
3949,
4591,
9341,
28767,
53022,
39946,
12998,
4729,
4053,
4376,
4988,
5080,
5022,
5219,
5762,
6186,
6360,
6431,
6537,
6510,
6744,
7035,
7158,
7214,
7599,
7815,
7993,
8199,
8329,
8763,
9409,
12293,
18644,
22787,
19228,
13863,
11167,
10280,
10126,
9963,
10077,
11042,
13235,
21631,
57139,
144437,
227402,
222706,
157801,
87176,
34523,
12238,
7392,
7871,
9246,
9589,
7976,
6133,
5098,
5072,
5317,
5330,
5558,
6096,
6500,
6165,
5547,
5327,
5173,
4895,
4863,
4804,
4811,
4812,
4796,
4838,
4756,
4738,
4794,
4959,
4862,
4856,
4794,
4851,
4847,
4813,
4772,
4751,
4813,
4773,
4836,
4812,
4942,
4767,
4859,
4880,
4848,
4889,
4919,
4781,
4878,
4961,
4977,
5095,
5386,
6160,
7895,
14420,
30087,
52340,
64991,
55072,
32692,
15178,
7357,
5245,
5009,
5462,
6604,
8920,
11462,
12168,
10494,
7531,
5421,
4665,
4425,
4368,
4263,
4323,
4302,
4371,
4109,
4310,
4107,
4131,
4195,
4092,
4241,
4057,
4198,
4257,
4194,
4081,
4060,
4049,
4130,
4075,
3976,
4062,
3981,
4001,
4023,
3940,
4012,
4050,
3968,
3983,
3970,
3893,
3756,
3754,
3792,
3822,
3886,
3939,
3951,
3893,
3972,
4034,
3878,
3847,
3839,
3746,
3583,
3669,
3555,
3565,
3610,
3670,
3458,
3559,
3604,
3485,
3536,
3634,
3365,
3450,
3463,
3349,
3356,
3287,
3415,
3261,
3334,
3369,
3255,
3341,
3398,
3499,
3682,
3586,
3522,
3269,
3285,
3102,
3113,
3156,
3252,
3093,
3125,
3007,
3045,
3103,
3060,
3055,
2904,
3005,
2920,
2952,
2919,
3094,
2914,
2865,
2883,
2792,
2892,
2839,
2862,
2965,
3114,
3605,
3976,
4110,
3942,
3674,
3483,
3119,
2868,
2754,
2647,
2611,
2691,
2618,
2533,
2535,
2564,
2551,
2563,
2418,
2479,
2530,
2471,
2473,
2509,
2473,
2428,
2473,
2502,
2609,
2989,
3876,
5894,
9530,
15525,
21730,
26715,
27520,
23344,
16637,
10248,
5992,
3757,
2790,
2471,
2337,
2385,
2458,
2353,
2465,
2302,
2160,
2226,
2084,
2089,
2077,
2030,
2009,
2076,
1989,
2022,
2009,
1948,
1983,
1976,
1907,
1918,
1965,
1902,
2008,
2107,
2218,
2597,
2941,
3724,
4593,
6108,
8005,
9964,
10782,
10379,
8727,
6919,
5393,
4632,
4519,
5027,
5666,
6248,
6233,
5629,
4698,
3413,
2665,
2266,
1906,
1800,
1851,
1717,
1697,
1621,
1525,
1513,
1513,
1461,
1442,
1524,
1479,
1395,
1468,
1401,
1419,
1355,
1361,
1377,
1321,
1348,
1354,
1398,
1372,
1338,
1356,
1333,
1350,
1245,
1277,
1305,
1385,
1461,
1672,
1907,
2368,
2605,
2624,
2508,
2137,
1880,
1644,
1330,
1288,
1322,
1402,
1434,
1525,
1511,
1475,
1526,
1421,
1277,
1179,
1110,
1126,
1054,
1072,
1043,
1085,
1103,
1028,
1118,
1059,
1062,
1003,
1032,
1006,
925,
959,
943,
917,
955,
939,
931,
916,
887,
837,
889,
873,
844,
845,
831,
816,
811,
839,
828,
787,
814,
796,
787,
775,
766,
813,
813,
727,
724,
787,
760,
739,
801,
719,
735,
661,
763,
754,
712,
702,
679,
687,
656,
684,
684,
676,
663,
653,
615,
664,
624,
611,
648,
595,
613,
561,
594,
570,
540,
582,
572,
594,
545,
544,
546,
533,
533,
576,
548,
528,
516,
524,
493,
535,
527,
483,
484,
498,
497,
467,
460,
484,
424,
504,
435,
457,
462,
421,
410,
435,
432,
391,
408,
394,
406,
398,
417,
384,
397,
394,
394,
390,
372,
373,
359,
348,
354,
374,
332,
360,
298,
368,
348,
306,
321,
316,
316,
328,
312,
337,
298,
311,
305,
326,
288,
304,
295,
292,
282,
258,
272,
264,
272,
275,
288,
245,
243,
259,
224,
262,
214,
238,
232,
216,
229,
245,
227,
223,
224,
258,
195,
241,
217,
226,
220,
212,
193,
190,
193,
185,
180,
172,
184,
185,
154,
167,
182,
177,
155,
148,
175,
158,
149,
142,
143,
143,
148,
136,
128,
128,
134,
148,
127,
124,
96,
122,
110,
114,
119,
117,
109,
133,
126,
104,
124,
111,
89,
113,
90,
101,
107,
98,
95,
115,
94,
99,
79,
90,
79,
98,
77,
85,
60,
65,
70,
61,
73,
75,
67,
66,
57,
66,
59,
52,
51,
46,
56,
50,
48,
46,
36,
40,
38,
44,
29,
38,
27,
35,
19,
32,
34,
35,
30,
14,
27,
28,
23,
26,
23,
18,
16,
20,
10,
14,
11,
10,
12,
4,
7,
6,
3,
1,
6,
3,
2,
5,
2,
4,
2,
6,
0,
5,
1,
1,
6,
3,
2,
2,
3,
1,
1,
2,
6,
1,
5,
3,
2,
2,
4,
4,
2,
0,
0,
1,
3,
3,
3,
1,
0,
1,
1,
4,
3,
1,
2,
6,
1,
1,
1,
2,
0,
3,
3,
3,
3,
3,
1,
0,
0,
2,
3,
2,
0,
0,
1,
1,
5,
0,
0,
0,
1,
2,
1,
1,
1,
2,
1,
1,
5,
1,
2,
0,
1,
1,
4,
0,
0,
1,
3,
1,
3,
0,
2,
2,
0,
0,
3,
1,
0,
2,
2,
3,
2,
1,
1,
2,
0,
2,
2,
0,
0,
0,
0,
0,
1,
2,
1,
0,
0,
1,
1,
0,
2,
3,
1,
1,
0,
0,
3,
0,
0,
1,
0,
1,
0,
3,
6,
0,
0,
1,
2,
1,
0,
1,
1,
1,
0,
0,
0,
0,
1,
0,
1,
0,
1,
2,
1,
2,
1,
1,
0,
2,
1,
0,
0,
1,
1,
0,
2,
0,
2,
0,
0,
0,
0,
2,
0,
1,
3,
0,
2,
1,
0,
2,
3,
1,
0,
1,
0,
0,
0,
0,
0,
0,
0,
2,
2,
1,
0,
1,
0,
1,
2,
0,
0,
0,
0,
0,
1,
1,
0,
0,
1,
0,
0,
2,
0,
0,
0,
1,
0,
0,
1,
0,
0,
1,
1,
0,
0,
1,
0,
0,
0,
0,
0,
0,
0,
0,
0,
1,
0,
0,
1,
0,
0,
0,
0,
1,
0,
0,
0,
0,
1,
2,
0,
0,
0,
0,
0,
0,
0,
0,
0,
0,
1,
1,
0,
0,
0,
0,
1,
0,
0,
0,
0,
0,
1,
0,
0,
0,
0,
0,
0,
0,
0,
0,
0,
0,
0,
0,
0,
0,
0,
1,
0,
0,
0,
1,
0,
0,
1,
0,
0,
0,
0,
0,
0,
0,
0,
0,
0,
0,
0,
0,
0,
0,
0,
0,
0,
1,
0,
0,
0,
0,
0,
0,
0,
0,
1,
0,
0,
0,
0,
0,
0,
0,
0,
0,
0,
0,
0,
0,
0,
0,
0,
1,
0,
0,
0,
0,
0,
0,
1,
0,
0,
0,
0,
0,
0,
0,
0,
0,
0,
0,
0,
0,
1,
0,
0,
0,
0,
0,
0,
0,
0,
0,
0,
0,
0,
0,
0,
0,
0,
1,
0,
0,
0,
0,
0,
0,
0,
0,
0,
0,
0,
0,
0,
0,
0,
0,
0,
0,
0,
0,
0,
0,
0,
0,
0,
0,
0,
0,
0,
0,
0,
0,
0,
0,
0,
0,
0,
0,
0,
0,
0,
0,
0,
0,
0,
0,
0,
0,
0,
0,
0,
0,
0,
0,
0,
0,
0,
0,
0,
0,
0,
0,
0,
0,
0,
0,
0,
0,
0,
0,
0,
0,
0,
0,
0,
0,
0,
0,
0,
0,
0,
0,
0,
0,
0,
0,
0,
0,
0,
0,
0,
0,
0,
0,
0,
0,
0,
0,
0,
0,
0,
0,
0,
0,
0,
0,
0,
0,
0,
0,
0,
0,
0,
0,
0,
0,
0,
0,
0,
0,
0,
0,
0,
0,
0,
0,
0,
0,
0,
0,
0,
0,
0,
0,
0,
0,
0,
0,
0,
0,
0,
0,
0,
0,
0,
0,
0,
0,
0,
0,
0,
0,
0,
0,
0,
0,
0,
0,
0,
0,
0,
0,
0,
0,
0,
0,
0,
0,
0,
0,
0,
0,
0,
0,
0,
0,
0,
0,
0,
0,
0,
0,
0,
0,
0,
0,
0,
0,
0,
0,
0,
0,
0,
0,
0,
0,
0,
0,
0,
0,
0,
0,
0,
0,
0,
0,
0,
0,
0,
0,
0,
0,
0,
0,
0,
0,
0,
0,
0,
0,
0,
0,
0,
0,
0,
0,
0,
0,
0,
0,
0,
0,
0,
0,
0,
0,
0,
0,
0,
0,
0,
0,
0,
0,
0,
0,
0,
0,
0,
0,
0,
0,
0,
0,
0,
0,
0,
0,
0,
0,
0,
0,
0,
0,
0,
0,
0,
0,
0,
0,
0,
0,
0,
0,
0,
0,
0,
0,
0,
0,
0,
0,
0,
0,
0,
0,
0,
0,
0,
0,
0,
0,
0,
0,
0,
0,
0,
0,
0,
0,
0,
0,
0,
0,
0,
0,
0,
0,
0,
0,
0,
0,
0,
0,
0,
#ENDOFDATA   :