File: N132962/Quantification/20 keV/MMM2/SPI MM2 Stibnite[7][4].msa
#FORMAT      : EMSA/MAS Spectral Data File
#VERSION     : 1.0
#TITLE       : SPI MM2 Stibnite[7][all]
#DATE        : 13-MAR-2025
#TIME        : 13:24
#OWNER       : Unknown
#NPOINTS     : 4096
#NCOLUMNS    : 1
#XUNITS      : eV
#YUNITS      : counts
#DATATYPE    : Y
#XPERCHAN    : 9.99778
#OFFSET      : 1.69135
#BEAMKV      : 20
#SIGNALTYPE  : EDS
#ELEVANGLE   : 35
#AZIMANGLE   : 0
#LIVETIME    : 239.942
#REALTIME    : 263.273
#PROBECUR    : 1.0263
#TAUWIND     : 0
#TDEADLYR    : 0
#TACTLYR     : 0.045
#TALWIND     : 0.025
#CHOFFSET    : 0.0
#XLABEL      : Energy (eV)
#YLABEL      : Counts
#XPOSITION   : 1.54233
#YPOSITION   : 4.43003
#ZPOSITION   : 31.03511
#EDSDET      : SD
##SPECIMEN   : SPI MM2 Stibnite[7][all]
##DET_HASH   : 12273538-fd48-a23f-0a19-f1e6fa85caef
##CALIB_HASH : 6abaa72c-aa41-8738-0be9-f592914732f3
##WORKING    : 15.0 mm
##DET_NAME   : EDAX All
##DET_MODE   : MediumLE
#SPECTRUM    :
27,
29,
18,
148,
1075,
2226,
2554,
4891,
13303,
17170,
8772,
4492,
6325,
12479,
16550,
12376,
8718,
9666,
10196,
8735,
5667,
4215,
4210,
5031,
6099,
5813,
5247,
4869,
4741,
4557,
4485,
4394,
4528,
4645,
4891,
4990,
5019,
5238,
5291,
5442,
5592,
5732,
5848,
5991,
6316,
6357,
6565,
6778,
7016,
7304,
7430,
7408,
7199,
7340,
7317,
7508,
7965,
8603,
9151,
8903,
8927,
9098,
8961,
8353,
7680,
7409,
7478,
7599,
7677,
8051,
8392,
8765,
10180,
15103,
31456,
81619,
163562,
204384,
149761,
66835,
25788,
19200,
21033,
18315,
11769,
7403,
6072,
5668,
5537,
5725,
5539,
5557,
5536,
5574,
5639,
5528,
5719,
5460,
5524,
5623,
5605,
5543,
5503,
5968,
6828,
8429,
10019,
9838,
8095,
6612,
5946,
5790,
5953,
6668,
7641,
8585,
11537,
23026,
53615,
101573,
134103,
119033,
72156,
31576,
14661,
14732,
28053,
49790,
66424,
65293,
50390,
34328,
22393,
15226,
12894,
15652,
20931,
22397,
18213,
11866,
7221,
5288,
5476,
7097,
9215,
10247,
9122,
6861,
4824,
3926,
4082,
5134,
6010,
6678,
6386,
5216,
4375,
3798,
3400,
3344,
3195,
3175,
3141,
3166,
3074,
3101,
3189,
3119,
3230,
3189,
3160,
3094,
3031,
3200,
3012,
3074,
3110,
3183,
3116,
3183,
3176,
3185,
3124,
3016,
2983,
3012,
3029,
3075,
2992,
2955,
2985,
3038,
2955,
3084,
2998,
3062,
3167,
3159,
3222,
3107,
2978,
2915,
2959,
2893,
2917,
3040,
3010,
3001,
2946,
2869,
2887,
3057,
3168,
3132,
3264,
3028,
2883,
2827,
2691,
2608,
2613,
2675,
2667,
2714,
2562,
2592,
2613,
2576,
2622,
2481,
2519,
2478,
2604,
2589,
2605,
2469,
2512,
2558,
2494,
2503,
2519,
2452,
2511,
2420,
2344,
2419,
2417,
2545,
2598,
2691,
2622,
2472,
2400,
2399,
2366,
2205,
2262,
2271,
2267,
2218,
2201,
2198,
2205,
2188,
2191,
2150,
2106,
2117,
2006,
2135,
2155,
2078,
2002,
2116,
2041,
1971,
1985,
1951,
2109,
1907,
1952,
1973,
1957,
1952,
1923,
1963,
1852,
1960,
1873,
1826,
1822,
1788,
1815,
1877,
1881,
1788,
1925,
1850,
1772,
1804,
1790,
1791,
1699,
1791,
1677,
1748,
1694,
1737,
1677,
1655,
1619,
1651,
1562,
1591,
1666,
1641,
1610,
1605,
1552,
1583,
1570,
1629,
1539,
1568,
1610,
1523,
1585,
1458,
1500,
1524,
1435,
1463,
1453,
1435,
1452,
1464,
1486,
1403,
1472,
1447,
1445,
1399,
1421,
1343,
1399,
1350,
1333,
1334,
1297,
1331,
1343,
1291,
1326,
1334,
1350,
1295,
1260,
1227,
1238,
1267,
1241,
1217,
1245,
1205,
1241,
1186,
1216,
1186,
1134,
1145,
1161,
1123,
1193,
1135,
1073,
1123,
1062,
1123,
1067,
1082,
1031,
1049,
1058,
1036,
1018,
1011,
970,
1032,
1024,
1009,
983,
961,
1053,
982,
948,
939,
935,
943,
900,
902,
919,
878,
881,
874,
896,
915,
794,
864,
886,
819,
799,
765,
819,
830,
838,
782,
819,
796,
766,
788,
762,
776,
736,
787,
779,
747,
765,
698,
716,
711,
695,
693,
735,
701,
676,
700,
663,
666,
671,
689,
652,
690,
633,
652,
616,
622,
624,
621,
640,
607,
629,
577,
613,
593,
589,
550,
591,
572,
568,
548,
540,
540,
585,
490,
522,
523,
507,
484,
526,
501,
478,
481,
512,
477,
496,
477,
473,
478,
434,
464,
450,
457,
429,
435,
459,
427,
414,
431,
411,
385,
393,
401,
402,
412,
361,
391,
384,
399,
366,
360,
362,
356,
342,
365,
344,
395,
341,
335,
335,
359,
341,
326,
341,
320,
337,
306,
289,
320,
310,
287,
268,
289,
311,
294,
281,
232,
278,
267,
284,
263,
270,
262,
264,
246,
247,
235,
266,
249,
265,
209,
253,
219,
199,
221,
222,
200,
191,
233,
194,
185,
203,
180,
200,
208,
209,
222,
186,
173,
157,
153,
163,
180,
153,
171,
173,
163,
134,
158,
145,
138,
139,
143,
143,
135,
183,
138,
148,
136,
119,
140,
142,
115,
136,
127,
119,
135,
115,
124,
103,
116,
115,
101,
85,
116,
102,
100,
117,
108,
100,
90,
82,
90,
95,
98,
94,
90,
83,
89,
72,
67,
69,
78,
70,
65,
65,
67,
62,
56,
58,
63,
63,
60,
50,
54,
53,
54,
51,
43,
45,
57,
46,
34,
46,
44,
29,
46,
43,
33,
29,
25,
33,
22,
28,
28,
33,
32,
16,
20,
19,
20,
13,
17,
12,
12,
18,
10,
12,
12,
10,
9,
6,
9,
9,
5,
4,
6,
3,
2,
3,
2,
1,
2,
5,
2,
3,
3,
3,
3,
2,
2,
0,
3,
2,
3,
1,
5,
1,
3,
1,
4,
5,
1,
3,
2,
1,
1,
3,
2,
1,
0,
0,
0,
1,
4,
4,
3,
3,
2,
2,
1,
1,
1,
4,
2,
0,
0,
3,
2,
1,
2,
2,
0,
1,
1,
3,
4,
3,
0,
1,
1,
2,
0,
2,
2,
0,
1,
0,
2,
0,
4,
2,
3,
0,
2,
0,
0,
2,
1,
1,
0,
1,
2,
0,
1,
0,
0,
1,
0,
0,
1,
2,
1,
0,
1,
1,
1,
0,
0,
1,
0,
2,
1,
0,
0,
0,
0,
0,
0,
0,
0,
0,
0,
0,
1,
0,
0,
0,
0,
1,
0,
0,
0,
0,
0,
0,
0,
0,
1,
1,
0,
0,
0,
0,
0,
1,
1,
0,
0,
1,
0,
0,
1,
0,
0,
0,
0,
2,
0,
0,
0,
0,
0,
0,
0,
1,
2,
0,
0,
1,
0,
0,
0,
0,
0,
0,
0,
0,
0,
1,
0,
1,
0,
3,
0,
0,
0,
0,
1,
1,
0,
0,
0,
0,
1,
0,
0,
2,
1,
1,
2,
1,
0,
0,
1,
0,
0,
1,
1,
1,
0,
0,
0,
0,
1,
0,
0,
0,
0,
0,
0,
0,
1,
0,
0,
1,
1,
0,
1,
0,
0,
0,
1,
0,
0,
0,
0,
2,
0,
0,
0,
0,
0,
1,
1,
0,
0,
0,
0,
0,
1,
0,
0,
1,
1,
0,
1,
0,
0,
0,
0,
2,
0,
0,
0,
0,
0,
0,
0,
0,
0,
0,
0,
0,
0,
0,
1,
0,
0,
0,
0,
0,
0,
0,
0,
0,
0,
0,
0,
0,
0,
0,
0,
0,
0,
0,
0,
0,
0,
0,
0,
0,
0,
0,
0,
0,
0,
0,
0,
0,
1,
0,
0,
0,
0,
0,
0,
0,
0,
0,
0,
0,
0,
0,
0,
0,
0,
0,
0,
1,
0,
0,
0,
0,
0,
0,
0,
0,
0,
0,
1,
0,
0,
1,
1,
1,
0,
0,
1,
0,
0,
0,
0,
0,
0,
0,
0,
0,
0,
0,
0,
0,
0,
0,
0,
0,
0,
0,
0,
0,
0,
0,
0,
0,
0,
0,
0,
0,
0,
0,
0,
0,
0,
0,
0,
0,
0,
0,
1,
0,
0,
0,
0,
0,
0,
0,
0,
0,
0,
0,
0,
0,
0,
0,
0,
0,
0,
0,
0,
0,
0,
0,
0,
0,
0,
0,
0,
0,
0,
0,
0,
0,
0,
0,
0,
0,
0,
0,
0,
0,
0,
0,
0,
0,
0,
0,
0,
0,
0,
0,
0,
0,
0,
0,
0,
0,
0,
0,
0,
0,
0,
0,
0,
0,
0,
0,
0,
0,
0,
0,
0,
0,
0,
0,
0,
0,
0,
0,
0,
0,
0,
0,
0,
0,
0,
0,
0,
0,
0,
0,
0,
0,
0,
0,
0,
0,
0,
0,
0,
0,
0,
0,
0,
0,
0,
0,
0,
0,
0,
0,
0,
0,
0,
0,
0,
0,
0,
0,
0,
0,
0,
0,
0,
0,
0,
0,
0,
0,
0,
0,
0,
0,
0,
0,
0,
0,
0,
0,
0,
0,
0,
0,
0,
0,
0,
0,
0,
0,
0,
0,
0,
0,
0,
0,
0,
0,
0,
0,
0,
0,
0,
0,
0,
0,
0,
0,
0,
0,
0,
0,
0,
0,
0,
0,
0,
0,
0,
0,
0,
0,
0,
0,
0,
0,
0,
0,
0,
0,
0,
0,
0,
0,
0,
0,
0,
0,
0,
0,
0,
0,
0,
0,
0,
0,
0,
0,
0,
0,
0,
0,
0,
0,
0,
0,
0,
0,
0,
0,
0,
0,
0,
0,
0,
0,
0,
0,
0,
0,
0,
0,
0,
0,
0,
0,
0,
0,
0,
0,
0,
0,
0,
0,
0,
0,
0,
0,
0,
0,
0,
0,
0,
0,
0,
0,
0,
0,
0,
0,
0,
0,
0,
0,
0,
0,
0,
0,
0,
0,
0,
0,
0,
0,
0,
0,
0,
0,
0,
0,
0,
0,
0,
0,
0,
0,
0,
0,
0,
0,
0,
0,
0,
0,
0,
0,
0,
0,
0,
0,
0,
0,
0,
0,
0,
0,
0,
0,
0,
0,
0,
0,
0,
0,
0,
0,
0,
0,
0,
#ENDOFDATA   :