File: N132962/Quantification/20 keV/MMM2/SPI MM2 Scheelite[6][4].msa
#FORMAT      : EMSA/MAS Spectral Data File
#VERSION     : 1.0
#TITLE       : SPI MM2 Scheelite[6][all]
#DATE        : 13-MAR-2025
#TIME        : 12:19
#OWNER       : Unknown
#NPOINTS     : 4096
#NCOLUMNS    : 1
#XUNITS      : eV
#YUNITS      : counts
#DATATYPE    : Y
#XPERCHAN    : 9.99778
#OFFSET      : 1.69135
#BEAMKV      : 20
#SIGNALTYPE  : EDS
#ELEVANGLE   : 35
#AZIMANGLE   : 0
#LIVETIME    : 239.8805
#REALTIME    : 262.96
#PROBECUR    : 1.02616
#TAUWIND     : 0
#TDEADLYR    : 0
#TACTLYR     : 0.045
#TALWIND     : 0.025
#CHOFFSET    : 0.0
#XLABEL      : Energy (eV)
#YLABEL      : Counts
#XPOSITION   : -2.75227
#YPOSITION   : 2.01027
#ZPOSITION   : 31.03511
#EDSDET      : SD
##SPECIMEN   : SPI MM2 Scheelite[6][all]
##DET_HASH   : 12273538-fd48-a23f-0a19-f1e6fa85caef
##CALIB_HASH : 6abaa72c-aa41-8738-0be9-f592914732f3
##WORKING    : 15.0 mm
##DET_NAME   : EDAX All
##DET_MODE   : MediumLE
#SPECTRUM    :
34,
32,
16,
28,
176,
868,
2629,
6579,
14890,
19365,
11863,
6017,
4361,
4021,
4615,
9613,
28045,
52763,
39571,
12817,
4647,
4035,
4521,
5167,
5138,
4994,
5235,
5636,
6092,
6409,
6465,
6481,
6517,
6799,
6975,
7120,
7422,
7657,
7885,
8038,
8266,
8482,
8715,
9387,
12460,
18579,
22992,
19448,
13586,
11004,
10356,
10131,
9987,
10195,
11109,
13175,
21350,
57095,
143156,
226350,
221972,
156279,
86774,
34470,
12215,
7462,
7790,
9382,
9696,
7881,
6150,
5147,
5160,
5256,
5285,
5659,
6147,
6560,
6248,
5722,
5176,
4893,
4988,
4777,
4867,
4759,
4773,
4704,
4649,
4776,
4836,
4910,
4954,
4803,
4925,
4828,
4843,
4690,
4814,
4669,
4960,
4866,
4925,
4727,
4985,
4989,
5059,
4932,
4954,
4934,
4891,
4822,
4840,
4785,
4877,
4897,
5055,
5480,
6049,
7787,
14245,
30107,
51969,
65014,
55074,
32799,
15108,
7346,
5460,
5225,
5470,
6711,
8875,
11308,
11956,
10500,
7632,
5526,
4678,
4328,
4311,
4273,
4272,
4288,
4364,
4191,
4235,
4228,
4244,
4208,
4222,
4164,
4217,
4080,
4236,
4126,
4133,
4031,
4144,
4094,
3980,
4091,
4108,
3970,
3953,
4038,
3925,
3852,
4033,
3915,
3957,
3910,
3829,
3851,
3856,
3823,
3713,
3941,
3808,
3912,
3824,
3902,
3933,
3853,
3833,
3807,
3759,
3610,
3606,
3622,
3503,
3648,
3614,
3516,
3558,
3493,
3541,
3507,
3414,
3387,
3455,
3509,
3423,
3388,
3384,
3262,
3363,
3299,
3306,
3344,
3364,
3575,
3616,
3701,
3540,
3487,
3385,
3131,
3235,
3265,
3090,
3140,
3131,
3122,
3083,
2935,
2981,
2969,
2992,
2942,
2970,
2895,
2915,
2928,
2991,
2908,
2840,
2930,
2782,
2831,
2839,
2988,
2996,
3202,
3526,
3706,
4050,
3939,
3749,
3469,
3154,
2931,
2819,
2766,
2605,
2586,
2663,
2531,
2570,
2632,
2598,
2579,
2581,
2604,
2597,
2518,
2436,
2497,
2490,
2511,
2429,
2556,
2626,
2983,
3846,
5936,
9501,
15334,
22089,
26795,
27338,
23345,
16749,
10418,
5954,
3667,
2742,
2522,
2400,
2404,
2473,
2404,
2340,
2295,
2244,
2148,
2107,
2158,
2040,
2103,
2080,
2020,
1987,
1942,
2019,
1959,
1921,
1942,
1951,
1931,
1957,
1954,
2061,
2082,
2288,
2635,
2922,
3601,
4619,
6235,
8002,
9799,
10994,
10362,
8795,
6815,
5351,
4583,
4527,
4925,
5713,
6147,
6218,
5805,
4474,
3581,
2710,
2173,
1966,
1831,
1812,
1873,
1676,
1614,
1518,
1495,
1474,
1394,
1451,
1399,
1389,
1380,
1410,
1408,
1360,
1396,
1330,
1350,
1373,
1306,
1330,
1351,
1359,
1290,
1326,
1376,
1297,
1366,
1351,
1306,
1453,
1483,
1654,
1990,
2316,
2568,
2504,
2483,
2144,
1878,
1546,
1453,
1344,
1337,
1369,
1387,
1525,
1488,
1503,
1481,
1463,
1238,
1289,
1147,
1084,
1103,
1036,
1061,
1062,
1038,
1042,
1084,
1053,
1069,
1048,
1078,
949,
989,
938,
915,
917,
901,
868,
899,
925,
909,
897,
885,
831,
844,
847,
865,
872,
825,
796,
796,
859,
813,
879,
799,
753,
805,
795,
820,
779,
778,
743,
774,
829,
777,
724,
762,
726,
720,
728,
788,
695,
727,
735,
672,
677,
653,
612,
625,
668,
620,
647,
650,
595,
636,
611,
597,
554,
545,
592,
565,
535,
592,
510,
555,
571,
569,
564,
541,
547,
549,
564,
507,
548,
535,
504,
502,
455,
518,
515,
488,
481,
488,
483,
492,
445,
415,
434,
403,
456,
441,
468,
383,
429,
431,
434,
422,
422,
359,
412,
404,
410,
380,
371,
385,
321,
366,
364,
363,
351,
345,
329,
311,
350,
341,
317,
339,
322,
352,
294,
316,
328,
343,
286,
302,
311,
304,
299,
300,
268,
274,
307,
271,
280,
267,
252,
252,
249,
271,
247,
240,
228,
240,
221,
236,
215,
258,
236,
266,
206,
218,
218,
250,
235,
209,
210,
214,
188,
206,
180,
221,
202,
205,
183,
173,
175,
172,
147,
170,
171,
191,
170,
186,
146,
140,
155,
150,
158,
142,
145,
141,
132,
140,
131,
138,
140,
121,
133,
127,
140,
117,
123,
114,
110,
100,
123,
132,
114,
118,
92,
95,
87,
88,
88,
108,
94,
92,
94,
89,
87,
91,
84,
83,
82,
78,
70,
70,
70,
73,
63,
48,
67,
81,
51,
52,
70,
56,
49,
65,
42,
40,
43,
47,
36,
34,
27,
33,
38,
34,
37,
47,
30,
27,
36,
36,
24,
23,
31,
19,
21,
13,
19,
15,
20,
11,
15,
13,
15,
9,
7,
9,
6,
4,
4,
7,
4,
1,
1,
1,
6,
1,
5,
6,
4,
0,
4,
0,
1,
3,
2,
0,
2,
3,
3,
6,
3,
7,
3,
0,
1,
2,
4,
2,
5,
5,
1,
1,
2,
2,
1,
1,
2,
5,
2,
1,
3,
3,
0,
2,
2,
1,
3,
0,
3,
1,
2,
6,
1,
1,
1,
1,
2,
4,
0,
4,
1,
3,
1,
1,
3,
2,
0,
2,
2,
2,
2,
4,
3,
2,
3,
1,
5,
0,
1,
0,
3,
1,
3,
2,
1,
0,
1,
3,
0,
1,
2,
0,
0,
1,
0,
2,
0,
1,
1,
1,
2,
1,
1,
0,
0,
0,
2,
3,
0,
2,
0,
0,
0,
2,
1,
0,
1,
0,
0,
0,
0,
1,
0,
1,
1,
0,
0,
0,
1,
0,
0,
2,
2,
0,
0,
0,
0,
0,
0,
1,
0,
0,
1,
1,
0,
1,
0,
2,
0,
0,
0,
1,
0,
1,
1,
2,
1,
1,
0,
0,
1,
2,
0,
0,
2,
0,
2,
0,
1,
2,
1,
1,
0,
1,
0,
1,
0,
0,
0,
1,
1,
0,
0,
1,
0,
0,
0,
0,
0,
0,
0,
0,
0,
3,
2,
0,
0,
0,
0,
1,
0,
1,
0,
0,
0,
0,
0,
0,
0,
1,
1,
0,
0,
1,
0,
0,
1,
1,
0,
0,
2,
0,
1,
0,
0,
1,
0,
1,
1,
1,
1,
0,
1,
0,
0,
1,
1,
0,
0,
0,
0,
1,
0,
0,
0,
0,
0,
0,
0,
0,
0,
0,
0,
0,
0,
0,
0,
0,
0,
0,
0,
0,
0,
0,
1,
2,
0,
0,
0,
0,
1,
0,
0,
0,
1,
0,
0,
0,
0,
0,
0,
0,
0,
0,
0,
0,
0,
1,
0,
0,
0,
0,
0,
0,
2,
0,
1,
0,
0,
0,
0,
0,
0,
0,
0,
0,
0,
0,
0,
0,
0,
0,
0,
0,
0,
0,
0,
0,
0,
0,
0,
0,
0,
0,
0,
0,
0,
0,
0,
0,
0,
0,
0,
0,
0,
0,
0,
1,
0,
0,
0,
0,
0,
0,
0,
0,
0,
0,
0,
0,
0,
0,
0,
0,
0,
0,
0,
0,
0,
0,
0,
0,
0,
0,
0,
0,
0,
0,
0,
0,
0,
0,
0,
0,
0,
0,
0,
0,
0,
0,
0,
0,
0,
0,
0,
0,
0,
0,
1,
0,
0,
0,
0,
0,
0,
0,
0,
0,
1,
0,
0,
0,
0,
0,
0,
0,
0,
0,
0,
0,
0,
0,
0,
0,
0,
0,
0,
0,
0,
0,
0,
0,
0,
0,
0,
0,
0,
0,
0,
0,
0,
0,
0,
0,
0,
0,
0,
0,
0,
0,
0,
0,
0,
0,
0,
0,
0,
0,
0,
0,
0,
0,
0,
0,
0,
0,
0,
0,
0,
0,
0,
0,
0,
0,
0,
0,
0,
0,
0,
0,
0,
0,
0,
0,
0,
0,
0,
0,
0,
0,
0,
0,
0,
0,
0,
0,
0,
0,
0,
1,
0,
0,
0,
1,
0,
0,
0,
0,
0,
0,
0,
0,
0,
0,
0,
0,
0,
0,
0,
0,
0,
0,
0,
0,
0,
0,
0,
0,
0,
0,
0,
0,
0,
0,
0,
0,
0,
0,
0,
0,
0,
0,
0,
0,
0,
0,
0,
0,
0,
0,
0,
0,
0,
0,
0,
0,
0,
0,
0,
0,
0,
0,
0,
0,
0,
0,
0,
0,
0,
0,
0,
0,
0,
0,
0,
0,
0,
0,
0,
0,
0,
0,
0,
0,
0,
0,
0,
0,
0,
0,
0,
0,
0,
0,
0,
0,
0,
0,
0,
0,
0,
0,
0,
0,
0,
0,
0,
0,
0,
0,
0,
0,
0,
0,
0,
0,
0,
0,
0,
0,
0,
0,
0,
0,
0,
0,
0,
0,
0,
0,
0,
0,
0,
0,
0,
0,
0,
0,
0,
0,
0,
0,
0,
0,
0,
0,
0,
0,
0,
0,
0,
0,
0,
0,
0,
0,
0,
0,
0,
0,
0,
0,
0,
0,
0,
0,
0,
0,
0,
0,
0,
0,
0,
0,
0,
0,
0,
0,
0,
0,
0,
0,
0,
0,
0,
0,
0,
0,
0,
0,
0,
0,
0,
0,
0,
0,
0,
0,
0,
0,
0,
0,
0,
0,
0,
0,
#ENDOFDATA   :