File: N132962/Quantification/20 keV/MMM2/SPI MM2 Wollastonite[7][4].msa
#FORMAT      : EMSA/MAS Spectral Data File
#VERSION     : 1.0
#TITLE       : SPI MM2 Wollastonite[7][all]
#DATE        : 13-MAR-2025
#TIME        : 14:01
#OWNER       : Unknown
#NPOINTS     : 4096
#NCOLUMNS    : 1
#XUNITS      : eV
#YUNITS      : counts
#DATATYPE    : Y
#XPERCHAN    : 9.99778
#OFFSET      : 1.69135
#BEAMKV      : 20
#SIGNALTYPE  : EDS
#ELEVANGLE   : 35
#AZIMANGLE   : 0
#LIVETIME    : 239.81
#REALTIME    : 256.108
#PROBECUR    : 1.0264
#TAUWIND     : 0
#TDEADLYR    : 0
#TACTLYR     : 0.045
#TALWIND     : 0.025
#CHOFFSET    : 0.0
#XLABEL      : Energy (eV)
#YLABEL      : Counts
#XPOSITION   : -0.01652
#YPOSITION   : 6.28295
#ZPOSITION   : 31.03511
#EDSDET      : SD
##SPECIMEN   : SPI MM2 Wollastonite[7][all]
##DET_HASH   : 12273538-fd48-a23f-0a19-f1e6fa85caef
##CALIB_HASH : 6abaa72c-aa41-8738-0be9-f592914732f3
##WORKING    : 15.0 mm
##DET_NAME   : EDAX All
##DET_MODE   : MediumLE
#SPECTRUM    :
28,
31,
8,
15,
76,
280,
919,
3186,
9381,
14470,
10197,
5483,
2973,
2336,
3085,
9253,
35725,
70601,
51884,
14326,
2694,
1588,
1785,
1978,
2104,
2206,
2241,
2440,
2656,
2800,
2888,
2890,
3147,
3268,
3325,
3411,
3527,
3721,
3726,
3905,
4048,
4297,
4339,
4382,
4500,
4631,
4754,
4899,
5077,
5339,
5503,
5514,
5639,
5827,
7211,
17451,
65546,
168681,
229300,
162266,
65633,
22382,
10539,
6226,
4994,
4981,
4262,
3563,
3202,
3089,
3168,
3184,
3171,
3215,
3377,
3422,
3488,
3269,
3202,
3040,
3124,
3158,
3086,
2993,
2967,
2908,
3016,
2992,
3022,
2997,
2892,
2946,
2905,
2902,
2886,
2908,
2864,
2907,
2858,
2815,
2883,
2852,
2811,
2771,
2762,
2823,
2768,
2836,
2668,
2663,
2684,
2637,
2538,
2656,
2736,
2931,
3243,
3771,
4967,
9483,
26193,
67791,
126847,
161253,
135194,
75812,
29294,
9285,
3917,
3170,
4170,
7029,
12616,
19277,
21451,
17098,
9791,
4629,
2550,
1898,
1832,
1762,
1760,
1732,
1658,
1642,
1652,
1559,
1571,
1599,
1661,
1597,
1597,
1659,
1577,
1588,
1542,
1646,
1487,
1505,
1517,
1454,
1497,
1505,
1481,
1458,
1451,
1430,
1439,
1445,
1428,
1410,
1490,
1442,
1358,
1375,
1421,
1469,
1462,
1590,
1638,
1733,
1764,
1539,
1449,
1330,
1251,
1339,
1329,
1311,
1227,
1323,
1317,
1265,
1306,
1324,
1336,
1257,
1307,
1261,
1191,
1214,
1150,
1162,
1217,
1213,
1107,
1120,
1171,
1149,
1201,
1187,
1178,
1189,
1184,
1150,
1091,
1054,
1139,
1052,
1063,
1041,
990,
1065,
1075,
1008,
1070,
1015,
936,
975,
1008,
964,
964,
922,
952,
981,
880,
983,
952,
911,
903,
906,
897,
991,
935,
958,
988,
1027,
978,
922,
942,
894,
868,
851,
862,
854,
882,
810,
791,
785,
815,
804,
774,
804,
715,
752,
776,
730,
759,
751,
728,
795,
738,
717,
752,
764,
705,
660,
710,
674,
696,
720,
706,
675,
699,
715,
750,
651,
664,
672,
615,
632,
668,
604,
643,
649,
596,
621,
644,
563,
616,
596,
604,
593,
600,
615,
599,
553,
533,
565,
564,
544,
576,
522,
525,
555,
548,
552,
543,
517,
524,
522,
517,
566,
477,
517,
521,
516,
453,
477,
513,
470,
482,
525,
474,
479,
479,
507,
465,
465,
457,
393,
466,
416,
435,
424,
440,
420,
442,
396,
426,
396,
430,
432,
440,
437,
452,
400,
394,
411,
384,
386,
384,
383,
361,
368,
364,
360,
362,
356,
388,
370,
357,
328,
327,
366,
351,
355,
330,
323,
312,
330,
332,
316,
327,
301,
311,
278,
293,
279,
315,
304,
283,
307,
278,
283,
286,
249,
297,
270,
258,
251,
317,
278,
276,
294,
269,
248,
255,
269,
245,
238,
252,
262,
233,
208,
257,
231,
221,
222,
258,
226,
221,
248,
224,
213,
224,
200,
208,
208,
199,
199,
185,
225,
205,
204,
196,
192,
181,
169,
180,
180,
183,
170,
209,
190,
180,
170,
178,
167,
169,
151,
146,
161,
184,
171,
156,
165,
151,
149,
136,
146,
158,
151,
136,
158,
134,
146,
124,
137,
124,
121,
116,
127,
128,
133,
127,
117,
150,
136,
126,
132,
115,
104,
113,
109,
101,
118,
92,
86,
104,
95,
109,
120,
100,
96,
94,
112,
105,
84,
91,
85,
97,
99,
84,
81,
75,
100,
74,
82,
84,
102,
93,
69,
72,
88,
71,
76,
65,
80,
79,
91,
69,
70,
61,
66,
69,
62,
70,
64,
66,
71,
68,
68,
56,
51,
53,
57,
54,
57,
46,
49,
52,
57,
60,
49,
50,
52,
49,
57,
48,
42,
54,
52,
54,
52,
45,
53,
36,
43,
33,
44,
29,
45,
30,
41,
49,
39,
38,
36,
39,
42,
33,
43,
34,
36,
41,
23,
27,
34,
25,
30,
34,
37,
30,
28,
25,
18,
23,
31,
28,
16,
34,
21,
26,
20,
26,
24,
28,
18,
17,
12,
17,
18,
19,
22,
14,
21,
21,
20,
12,
8,
18,
22,
8,
11,
22,
13,
15,
14,
13,
13,
9,
15,
9,
13,
12,
7,
11,
15,
5,
6,
6,
4,
12,
5,
7,
7,
7,
9,
8,
3,
4,
5,
6,
6,
7,
4,
1,
5,
3,
3,
5,
3,
4,
3,
1,
3,
0,
3,
1,
0,
2,
0,
1,
0,
1,
0,
0,
0,
0,
0,
0,
0,
0,
0,
1,
0,
0,
0,
1,
0,
0,
1,
1,
0,
0,
0,
1,
0,
0,
1,
0,
1,
0,
0,
1,
0,
1,
0,
0,
0,
0,
0,
3,
0,
1,
1,
0,
0,
1,
1,
0,
0,
0,
0,
0,
1,
1,
0,
0,
0,
0,
0,
0,
0,
0,
0,
0,
0,
1,
0,
1,
0,
0,
0,
0,
0,
1,
0,
0,
0,
0,
1,
0,
0,
0,
0,
0,
0,
0,
0,
0,
0,
0,
0,
0,
0,
0,
0,
0,
0,
0,
0,
0,
0,
0,
0,
0,
0,
0,
0,
0,
0,
0,
0,
0,
0,
0,
1,
0,
0,
0,
0,
0,
0,
0,
0,
0,
0,
0,
0,
0,
0,
0,
0,
0,
0,
0,
0,
0,
0,
0,
0,
0,
0,
0,
0,
0,
0,
0,
0,
0,
0,
0,
0,
0,
0,
0,
1,
0,
1,
0,
0,
0,
0,
0,
0,
0,
0,
0,
0,
0,
0,
0,
0,
0,
0,
0,
0,
0,
0,
0,
0,
0,
0,
0,
0,
0,
0,
0,
0,
0,
0,
0,
0,
0,
0,
0,
0,
0,
0,
0,
0,
0,
0,
0,
0,
0,
0,
0,
0,
0,
1,
0,
0,
0,
0,
0,
0,
0,
0,
0,
0,
0,
0,
0,
0,
0,
0,
0,
0,
0,
0,
0,
0,
0,
0,
0,
0,
0,
0,
0,
0,
0,
0,
0,
0,
0,
0,
0,
0,
0,
1,
0,
0,
0,
0,
0,
0,
0,
0,
0,
0,
0,
0,
0,
0,
0,
0,
0,
0,
0,
0,
0,
0,
0,
0,
0,
0,
0,
0,
0,
0,
0,
0,
0,
0,
0,
0,
0,
0,
0,
0,
0,
0,
0,
0,
0,
0,
0,
0,
0,
0,
0,
0,
0,
0,
0,
0,
0,
0,
0,
0,
0,
0,
0,
0,
0,
0,
0,
0,
0,
0,
0,
0,
0,
0,
0,
0,
0,
0,
0,
0,
0,
0,
0,
0,
0,
0,
0,
0,
0,
0,
0,
0,
0,
0,
0,
0,
0,
0,
0,
0,
0,
0,
0,
0,
0,
0,
0,
0,
0,
0,
0,
0,
0,
0,
0,
0,
0,
0,
0,
0,
0,
0,
0,
0,
0,
0,
0,
0,
0,
0,
0,
0,
0,
0,
0,
0,
0,
0,
0,
0,
0,
0,
0,
0,
0,
0,
0,
0,
0,
0,
0,
0,
0,
0,
0,
0,
0,
0,
0,
0,
0,
0,
0,
0,
0,
0,
0,
0,
0,
0,
0,
0,
0,
0,
0,
0,
0,
0,
0,
0,
0,
0,
0,
0,
0,
0,
0,
0,
0,
0,
0,
0,
0,
0,
0,
0,
0,
0,
0,
0,
0,
0,
0,
0,
0,
0,
0,
0,
0,
0,
0,
0,
0,
0,
0,
0,
0,
0,
0,
0,
0,
0,
0,
0,
0,
0,
0,
0,
0,
0,
0,
0,
0,
0,
0,
0,
0,
0,
0,
0,
0,
0,
0,
0,
0,
0,
0,
0,
0,
0,
0,
0,
0,
0,
0,
0,
0,
0,
0,
0,
0,
0,
0,
0,
0,
0,
0,
0,
0,
0,
0,
0,
0,
0,
0,
0,
0,
0,
0,
0,
0,
0,
0,
0,
0,
0,
0,
0,
0,
0,
0,
0,
0,
0,
0,
0,
0,
0,
0,
0,
0,
0,
0,
0,
0,
0,
0,
0,
0,
0,
0,
0,
0,
0,
0,
0,
0,
0,
0,
0,
0,
0,
0,
0,
0,
0,
0,
0,
0,
0,
0,
0,
0,
0,
0,
0,
0,
0,
0,
0,
0,
0,
0,
0,
0,
0,
0,
0,
0,
0,
0,
0,
0,
0,
0,
0,
0,
0,
0,
0,
0,
0,
0,
0,
0,
0,
0,
0,
0,
0,
0,
0,
0,
0,
0,
0,
0,
0,
0,
0,
0,
0,
0,
0,
0,
0,
0,
0,
0,
0,
0,
0,
0,
0,
0,
0,
0,
0,
0,
0,
0,
0,
0,
0,
0,
0,
0,
0,
0,
0,
0,
0,
0,
0,
0,
0,
0,
0,
0,
0,
0,
0,
0,
0,
0,
0,
0,
0,
0,
0,
0,
0,
0,
0,
0,
0,
0,
0,
0,
0,
0,
0,
0,
0,
0,
0,
0,
0,
0,
0,
0,
0,
#ENDOFDATA   :