File: N132962/Quantification/20 keV/MMM2/SPI MM2 Tugtupite[6][4].msa
#FORMAT      : EMSA/MAS Spectral Data File
#VERSION     : 1.0
#TITLE       : SPI MM2 Tugtupite[6][all]
#DATE        : 13-MAR-2025
#TIME        : 13:42
#OWNER       : Unknown
#NPOINTS     : 4096
#NCOLUMNS    : 1
#XUNITS      : eV
#YUNITS      : counts
#DATATYPE    : Y
#XPERCHAN    : 9.99778
#OFFSET      : 1.69135
#BEAMKV      : 20
#SIGNALTYPE  : EDS
#ELEVANGLE   : 35
#AZIMANGLE   : 0
#LIVETIME    : 239.784
#REALTIME    : 255.276
#PROBECUR    : 1.0264
#TAUWIND     : 0
#TDEADLYR    : 0
#TACTLYR     : 0.045
#TALWIND     : 0.025
#CHOFFSET    : 0.0
#XLABEL      : Energy (eV)
#YLABEL      : Counts
#XPOSITION   : -4.53002
#YPOSITION   : 3.53472
#ZPOSITION   : 31.03511
#EDSDET      : SD
##SPECIMEN   : SPI MM2 Tugtupite[6][all]
##DET_HASH   : 12273538-fd48-a23f-0a19-f1e6fa85caef
##CALIB_HASH : 6abaa72c-aa41-8738-0be9-f592914732f3
##WORKING    : 15.0 mm
##DET_NAME   : EDAX All
##DET_MODE   : MediumLE
#SPECTRUM    :
24,
23,
11,
17,
68,
354,
964,
2547,
7286,
9449,
5006,
2253,
2290,
2932,
5123,
19335,
76780,
151506,
110625,
29195,
4178,
1854,
1998,
2255,
2356,
2396,
2750,
2978,
3628,
4264,
4554,
5559,
12345,
45863,
111677,
124092,
60504,
14431,
4108,
2970,
2984,
3005,
3237,
3326,
3417,
3723,
4418,
8303,
23064,
44333,
45204,
24816,
10376,
5711,
5538,
14212,
56136,
143362,
195372,
138089,
55351,
18910,
8638,
4390,
2754,
2321,
2326,
2423,
2367,
2382,
2444,
2275,
2405,
2380,
2738,
2776,
2778,
2578,
2465,
2404,
2315,
2392,
2613,
3361,
5164,
11909,
26155,
41586,
40201,
24140,
9946,
4655,
4274,
5572,
6073,
4959,
3520,
2420,
2191,
1992,
2102,
2017,
1965,
2136,
2039,
2050,
2043,
2057,
2155,
1997,
1968,
1867,
1923,
1925,
1869,
2010,
2049,
2007,
1920,
1838,
1886,
1814,
1798,
1849,
1794,
1730,
1682,
1628,
1703,
1706,
1724,
1646,
1716,
1653,
1665,
1594,
1544,
1563,
1572,
1588,
1584,
1613,
1508,
1575,
1543,
1577,
1606,
1569,
1480,
1522,
1453,
1468,
1408,
1405,
1396,
1406,
1308,
1390,
1355,
1336,
1351,
1303,
1304,
1330,
1257,
1265,
1268,
1264,
1247,
1258,
1296,
1236,
1286,
1224,
1253,
1166,
1191,
1184,
1209,
1163,
1175,
1140,
1158,
1196,
1095,
1139,
1145,
1136,
1110,
1061,
1141,
1053,
1063,
1051,
1073,
1015,
1030,
1004,
972,
1054,
1004,
920,
956,
971,
973,
905,
1027,
902,
949,
920,
964,
1010,
1035,
951,
965,
961,
920,
884,
833,
896,
842,
795,
854,
803,
816,
801,
790,
803,
793,
776,
814,
807,
768,
797,
821,
787,
840,
802,
741,
761,
714,
726,
726,
707,
705,
711,
716,
708,
754,
727,
727,
667,
670,
665,
683,
658,
669,
649,
702,
658,
607,
644,
622,
659,
650,
581,
632,
604,
643,
602,
605,
575,
588,
578,
559,
561,
604,
569,
583,
513,
549,
568,
577,
528,
569,
539,
517,
524,
545,
497,
528,
473,
487,
482,
528,
540,
497,
497,
472,
463,
453,
477,
431,
480,
507,
484,
437,
410,
442,
482,
442,
466,
404,
425,
379,
405,
440,
448,
388,
429,
397,
386,
398,
388,
384,
380,
376,
408,
372,
388,
378,
325,
372,
385,
368,
387,
379,
341,
403,
348,
353,
341,
334,
308,
316,
338,
374,
358,
375,
293,
351,
326,
298,
331,
309,
305,
301,
271,
300,
329,
317,
295,
275,
283,
271,
298,
317,
255,
296,
280,
265,
258,
265,
268,
243,
266,
254,
236,
262,
267,
247,
264,
278,
256,
224,
238,
231,
219,
251,
202,
230,
206,
222,
211,
215,
216,
189,
224,
206,
219,
216,
195,
196,
207,
207,
231,
205,
210,
210,
183,
161,
218,
175,
179,
205,
169,
179,
182,
198,
174,
176,
147,
177,
176,
173,
172,
171,
159,
149,
139,
164,
153,
159,
158,
139,
155,
136,
147,
141,
139,
175,
133,
143,
111,
140,
149,
142,
134,
127,
125,
113,
117,
127,
116,
125,
114,
112,
107,
103,
104,
104,
104,
94,
107,
111,
108,
108,
104,
108,
95,
108,
109,
98,
94,
99,
102,
73,
79,
94,
94,
95,
97,
68,
85,
78,
81,
90,
82,
72,
95,
86,
86,
82,
76,
74,
77,
81,
81,
68,
74,
67,
49,
73,
56,
73,
70,
63,
59,
66,
62,
62,
66,
72,
46,
64,
54,
61,
53,
54,
63,
50,
58,
49,
55,
53,
48,
41,
57,
56,
51,
58,
50,
54,
51,
39,
46,
37,
53,
37,
50,
37,
51,
35,
39,
49,
42,
29,
38,
46,
34,
36,
43,
42,
33,
38,
33,
30,
26,
34,
31,
35,
34,
33,
30,
28,
32,
25,
32,
31,
24,
34,
29,
35,
30,
14,
29,
22,
10,
22,
19,
18,
28,
24,
21,
18,
15,
22,
21,
17,
29,
26,
13,
18,
18,
10,
23,
16,
11,
14,
12,
14,
22,
13,
8,
10,
6,
15,
24,
10,
12,
9,
13,
11,
13,
15,
9,
18,
13,
9,
19,
13,
9,
7,
7,
7,
4,
9,
9,
11,
5,
3,
1,
12,
5,
9,
9,
2,
11,
6,
3,
5,
4,
3,
5,
4,
4,
5,
4,
3,
6,
3,
2,
0,
2,
3,
0,
1,
1,
0,
0,
5,
3,
1,
3,
0,
0,
0,
0,
1,
0,
0,
0,
0,
0,
0,
0,
0,
1,
0,
0,
0,
0,
0,
1,
0,
0,
0,
0,
0,
0,
0,
0,
0,
0,
0,
0,
0,
0,
0,
0,
0,
0,
1,
0,
0,
0,
0,
1,
0,
0,
2,
0,
0,
0,
0,
0,
0,
0,
0,
0,
0,
0,
0,
0,
1,
0,
0,
0,
0,
0,
0,
1,
0,
0,
0,
0,
0,
0,
0,
0,
1,
0,
0,
0,
0,
0,
0,
0,
0,
0,
0,
0,
0,
0,
0,
0,
0,
1,
0,
0,
0,
0,
0,
0,
0,
0,
0,
0,
0,
0,
0,
0,
0,
0,
0,
0,
0,
0,
0,
0,
0,
0,
0,
0,
0,
0,
0,
0,
0,
0,
0,
0,
0,
0,
0,
0,
0,
0,
0,
0,
0,
0,
0,
0,
0,
0,
0,
0,
0,
0,
0,
0,
0,
0,
0,
0,
0,
0,
0,
0,
0,
0,
0,
0,
0,
0,
0,
0,
0,
0,
0,
0,
0,
0,
0,
1,
0,
0,
0,
0,
0,
0,
0,
0,
0,
0,
0,
0,
0,
0,
0,
0,
0,
0,
0,
0,
0,
0,
0,
0,
0,
0,
0,
0,
0,
0,
0,
0,
0,
0,
0,
0,
0,
0,
0,
0,
0,
0,
0,
0,
0,
0,
0,
0,
0,
0,
0,
0,
0,
0,
0,
0,
0,
0,
0,
0,
0,
0,
0,
0,
0,
0,
0,
0,
0,
0,
0,
0,
0,
0,
0,
0,
0,
0,
0,
0,
0,
0,
0,
0,
0,
0,
0,
0,
0,
0,
0,
0,
0,
0,
0,
0,
0,
0,
0,
0,
0,
0,
0,
0,
0,
0,
0,
0,
0,
0,
0,
0,
0,
0,
0,
0,
0,
0,
0,
0,
0,
0,
0,
0,
0,
0,
0,
0,
0,
0,
0,
0,
0,
0,
0,
0,
0,
0,
0,
0,
0,
0,
0,
0,
0,
0,
0,
0,
0,
0,
0,
0,
0,
0,
0,
0,
0,
0,
0,
0,
0,
0,
0,
0,
0,
0,
0,
0,
0,
0,
0,
0,
0,
0,
0,
0,
0,
0,
0,
0,
0,
0,
0,
0,
0,
0,
0,
0,
0,
0,
0,
0,
0,
0,
0,
0,
0,
0,
0,
0,
0,
0,
0,
0,
0,
0,
0,
0,
0,
0,
0,
0,
0,
0,
0,
0,
0,
0,
0,
0,
0,
0,
0,
0,
0,
0,
0,
0,
0,
0,
0,
0,
0,
0,
0,
0,
0,
0,
0,
0,
0,
0,
0,
0,
0,
0,
0,
0,
0,
0,
0,
0,
0,
0,
0,
0,
0,
0,
0,
0,
0,
0,
0,
0,
0,
0,
0,
0,
0,
0,
0,
0,
0,
0,
0,
0,
0,
0,
0,
0,
0,
0,
0,
0,
0,
0,
0,
0,
0,
0,
0,
0,
0,
0,
0,
0,
0,
0,
0,
0,
0,
0,
0,
0,
0,
0,
0,
0,
0,
0,
0,
0,
0,
0,
0,
0,
0,
0,
0,
0,
0,
0,
0,
0,
0,
0,
0,
0,
0,
0,
0,
0,
0,
0,
0,
0,
0,
0,
0,
0,
0,
0,
0,
0,
0,
0,
0,
0,
0,
0,
0,
0,
0,
0,
0,
0,
0,
0,
0,
0,
0,
0,
0,
0,
0,
0,
0,
0,
0,
0,
0,
0,
0,
0,
0,
0,
0,
0,
0,
0,
0,
0,
0,
0,
0,
0,
0,
0,
0,
0,
0,
0,
0,
0,
0,
0,
0,
0,
0,
0,
0,
0,
0,
0,
0,
0,
0,
0,
0,
0,
0,
0,
0,
0,
0,
0,
0,
0,
0,
0,
0,
0,
0,
0,
0,
0,
0,
0,
0,
0,
0,
0,
0,
0,
0,
0,
0,
0,
0,
0,
0,
0,
0,
0,
0,
0,
0,
0,
0,
0,
0,
0,
0,
0,
0,
0,
0,
0,
0,
0,
0,
0,
0,
0,
0,
0,
0,
0,
0,
0,
0,
0,
0,
0,
0,
0,
0,
0,
0,
0,
0,
0,
0,
0,
0,
0,
0,
0,
0,
0,
0,
0,
0,
0,
0,
0,
0,
0,
0,
0,
0,
0,
0,
0,
0,
0,
0,
0,
0,
0,
0,
0,
0,
0,
0,
0,
0,
0,
0,
0,
0,
0,
0,
0,
0,
0,
0,
0,
0,
0,
#ENDOFDATA   :