File: N132962/Quantification/20 keV/MMM2/SPI MM2 Uvarovite[0][4].msa
#FORMAT      : EMSA/MAS Spectral Data File
#VERSION     : 1.0
#TITLE       : SPI MM2 Uvarovite[0][all]
#DATE        : 13-MAR-2025
#TIME        : 14:12
#OWNER       : Unknown
#NPOINTS     : 4096
#NCOLUMNS    : 1
#XUNITS      : eV
#YUNITS      : counts
#DATATYPE    : Y
#XPERCHAN    : 9.99778
#OFFSET      : 1.69135
#BEAMKV      : 20
#SIGNALTYPE  : EDS
#ELEVANGLE   : 35
#AZIMANGLE   : 0
#LIVETIME    : 239.874
#REALTIME    : 255.395
#PROBECUR    : 1.02609
#TAUWIND     : 0
#TDEADLYR    : 0
#TACTLYR     : 0.045
#TALWIND     : 0.025
#CHOFFSET    : 0.0
#XLABEL      : Energy (eV)
#YLABEL      : Counts
#XPOSITION   : 5.76431
#YPOSITION   : 6.40179
#ZPOSITION   : 31.03511
#EDSDET      : SD
##SPECIMEN   : SPI MM2 Uvarovite[0][all]
##DET_HASH   : 12273538-fd48-a23f-0a19-f1e6fa85caef
##CALIB_HASH : 6abaa72c-aa41-8738-0be9-f592914732f3
##WORKING    : 15.0 mm
##DET_NAME   : EDAX All
##DET_MODE   : MediumLE
#SPECTRUM    :
28,
32,
5,
16,
69,
293,
930,
3194,
9268,
14142,
9844,
5031,
3271,
2867,
4053,
12593,
46381,
88846,
65429,
20064,
4742,
2253,
2164,
2604,
2591,
2252,
2200,
2301,
2565,
2533,
2623,
2683,
2780,
3102,
3202,
3324,
3430,
3568,
3767,
3793,
3896,
3953,
4285,
4378,
4366,
4569,
4929,
7379,
16345,
28913,
29309,
17524,
8396,
5929,
6106,
12565,
43970,
109554,
148351,
105887,
43809,
15891,
8487,
5447,
4540,
4586,
4239,
3644,
3346,
3283,
3308,
3290,
3360,
3420,
3493,
3709,
3491,
3453,
3462,
3268,
3182,
3182,
3237,
3149,
3145,
3209,
3174,
3117,
3104,
3182,
3127,
3128,
3029,
3076,
2998,
3091,
3002,
2986,
2977,
2980,
2950,
2941,
2927,
2878,
3010,
2888,
2865,
2834,
2895,
2793,
2639,
2747,
2712,
2743,
2804,
2828,
3019,
3464,
4400,
7654,
19747,
50122,
93552,
118720,
99787,
55658,
22107,
7476,
3541,
3040,
3636,
5849,
10077,
14683,
16626,
13033,
8016,
4064,
2588,
2033,
1958,
2008,
1880,
1868,
1780,
1803,
1840,
2184,
2842,
3574,
4164,
3949,
3275,
2453,
1898,
1741,
1781,
1673,
1729,
1630,
1783,
1858,
1917,
2280,
2416,
2554,
2310,
2046,
1823,
1634,
1594,
1626,
1641,
1672,
1764,
2078,
3383,
6850,
14335,
24476,
31733,
30705,
22091,
12191,
5575,
2687,
1701,
1507,
1409,
1452,
1460,
1484,
1525,
1645,
1867,
2483,
3502,
4769,
5335,
4947,
3725,
2583,
1796,
1448,
1256,
1291,
1162,
1214,
1280,
1315,
1605,
2046,
2543,
2816,
2756,
2291,
1723,
1385,
1239,
1068,
1049,
1057,
1036,
1138,
1039,
1050,
1101,
1050,
1045,
1015,
1028,
996,
1062,
1091,
1230,
1210,
1158,
1158,
1137,
1044,
1042,
978,
986,
942,
960,
1011,
908,
1005,
979,
978,
947,
919,
896,
890,
897,
898,
815,
864,
878,
831,
774,
869,
829,
822,
897,
823,
822,
816,
789,
806,
786,
778,
745,
763,
789,
768,
823,
756,
765,
721,
757,
744,
730,
721,
734,
651,
644,
710,
683,
703,
655,
633,
700,
624,
696,
730,
664,
666,
662,
695,
605,
669,
659,
645,
600,
633,
652,
644,
594,
602,
605,
586,
604,
576,
589,
571,
531,
564,
555,
556,
572,
552,
533,
574,
559,
548,
550,
518,
540,
571,
496,
509,
523,
512,
518,
500,
482,
494,
503,
443,
479,
487,
476,
437,
459,
490,
477,
458,
447,
483,
438,
441,
445,
454,
435,
410,
394,
392,
421,
397,
368,
420,
402,
421,
385,
376,
414,
387,
378,
388,
380,
396,
370,
374,
371,
368,
349,
371,
351,
364,
325,
358,
386,
323,
333,
358,
333,
339,
332,
309,
323,
311,
305,
300,
340,
325,
314,
330,
273,
304,
293,
286,
302,
308,
276,
304,
306,
274,
291,
270,
287,
266,
269,
233,
254,
277,
237,
253,
270,
249,
248,
233,
230,
259,
232,
228,
253,
233,
205,
235,
220,
216,
210,
213,
228,
247,
209,
203,
169,
192,
182,
201,
176,
196,
198,
175,
188,
193,
190,
177,
183,
177,
189,
174,
159,
171,
156,
172,
147,
156,
158,
181,
171,
148,
144,
150,
150,
154,
147,
137,
144,
137,
146,
123,
133,
146,
136,
121,
127,
123,
118,
140,
107,
124,
116,
111,
108,
112,
116,
107,
105,
101,
110,
106,
111,
118,
92,
111,
109,
107,
89,
93,
89,
80,
89,
73,
93,
91,
75,
97,
85,
103,
80,
84,
81,
93,
90,
71,
66,
76,
77,
74,
100,
76,
84,
66,
69,
69,
81,
81,
70,
63,
52,
62,
80,
59,
70,
67,
65,
61,
58,
67,
56,
53,
44,
52,
66,
63,
64,
51,
60,
52,
58,
53,
45,
42,
49,
44,
44,
49,
47,
40,
52,
46,
41,
47,
29,
44,
49,
40,
33,
39,
44,
33,
29,
40,
42,
42,
37,
33,
33,
37,
27,
30,
21,
36,
23,
30,
23,
27,
29,
32,
25,
22,
39,
16,
24,
21,
21,
27,
31,
16,
26,
22,
15,
18,
20,
13,
12,
16,
17,
18,
20,
13,
14,
20,
17,
11,
16,
12,
10,
16,
15,
14,
7,
9,
6,
12,
8,
10,
11,
20,
10,
10,
13,
7,
10,
9,
8,
4,
6,
8,
0,
6,
6,
4,
9,
10,
3,
8,
6,
2,
3,
5,
0,
3,
1,
1,
4,
1,
1,
1,
3,
3,
1,
2,
0,
0,
1,
1,
1,
0,
1,
0,
0,
0,
0,
0,
0,
1,
1,
2,
0,
0,
0,
0,
1,
0,
0,
1,
0,
0,
0,
1,
0,
0,
0,
1,
1,
0,
1,
0,
0,
0,
0,
0,
0,
0,
0,
0,
0,
0,
0,
0,
0,
1,
0,
0,
1,
0,
0,
1,
0,
0,
0,
0,
0,
0,
0,
0,
0,
0,
0,
0,
2,
0,
0,
1,
0,
0,
1,
0,
0,
1,
0,
0,
0,
0,
0,
1,
1,
1,
2,
0,
0,
0,
1,
0,
1,
0,
0,
0,
0,
0,
0,
0,
0,
0,
0,
0,
2,
1,
0,
0,
0,
0,
0,
0,
0,
0,
0,
0,
0,
0,
0,
0,
0,
0,
0,
0,
0,
0,
0,
0,
0,
2,
0,
0,
0,
0,
0,
0,
0,
0,
0,
0,
0,
0,
0,
0,
0,
0,
0,
0,
0,
0,
0,
1,
0,
0,
0,
0,
0,
0,
0,
0,
0,
0,
0,
0,
0,
0,
0,
0,
0,
0,
0,
0,
1,
0,
0,
0,
0,
0,
0,
0,
0,
0,
0,
0,
0,
0,
0,
1,
0,
0,
0,
0,
0,
0,
0,
0,
0,
0,
0,
0,
0,
0,
0,
0,
0,
0,
0,
0,
0,
0,
0,
0,
0,
0,
0,
0,
0,
0,
0,
0,
0,
0,
0,
0,
0,
0,
0,
0,
0,
0,
0,
0,
0,
0,
0,
0,
0,
0,
0,
0,
0,
0,
0,
0,
0,
0,
0,
0,
0,
0,
0,
0,
0,
0,
0,
0,
0,
0,
0,
0,
0,
0,
0,
0,
0,
0,
0,
0,
0,
0,
0,
0,
0,
0,
0,
0,
0,
0,
0,
0,
0,
0,
0,
0,
0,
0,
0,
0,
0,
0,
0,
0,
0,
0,
0,
0,
0,
0,
0,
0,
0,
0,
0,
0,
0,
0,
0,
0,
0,
0,
0,
0,
0,
0,
0,
0,
0,
0,
0,
0,
0,
0,
0,
0,
0,
0,
0,
0,
0,
0,
0,
0,
0,
0,
0,
0,
0,
0,
0,
0,
0,
0,
0,
0,
0,
0,
0,
0,
0,
0,
0,
0,
0,
0,
0,
0,
0,
0,
0,
0,
0,
0,
0,
0,
0,
0,
0,
0,
0,
0,
0,
0,
0,
0,
0,
0,
0,
0,
0,
0,
0,
0,
0,
0,
0,
0,
0,
0,
0,
0,
0,
0,
0,
0,
0,
0,
0,
0,
0,
0,
0,
0,
0,
0,
0,
0,
0,
0,
0,
0,
0,
0,
0,
0,
0,
0,
0,
0,
0,
0,
0,
0,
0,
0,
0,
0,
0,
0,
0,
0,
0,
0,
0,
0,
0,
0,
0,
0,
0,
0,
0,
0,
0,
0,
0,
0,
0,
0,
0,
0,
0,
0,
0,
0,
0,
0,
0,
0,
0,
0,
0,
0,
0,
0,
0,
0,
0,
0,
0,
0,
0,
0,
0,
0,
0,
0,
0,
0,
0,
0,
0,
0,
0,
0,
0,
0,
0,
0,
0,
0,
0,
0,
0,
0,
0,
0,
0,
0,
0,
0,
0,
0,
0,
0,
0,
0,
0,
0,
0,
0,
0,
0,
0,
0,
0,
0,
0,
0,
0,
0,
0,
0,
0,
0,
0,
0,
0,
0,
0,
0,
0,
0,
0,
0,
0,
0,
0,
0,
0,
0,
0,
0,
0,
0,
0,
0,
0,
0,
0,
0,
0,
0,
0,
0,
0,
0,
0,
0,
0,
0,
0,
0,
0,
0,
0,
0,
0,
0,
0,
0,
0,
0,
0,
0,
0,
0,
0,
0,
0,
0,
0,
0,
0,
0,
0,
0,
0,
0,
0,
0,
0,
0,
0,
0,
0,
0,
0,
0,
0,
0,
0,
0,
0,
0,
0,
0,
0,
0,
0,
0,
0,
0,
0,
0,
0,
0,
0,
0,
0,
0,
0,
0,
0,
0,
0,
0,
0,
0,
0,
0,
0,
0,
0,
0,
0,
0,
0,
0,
0,
0,
0,
0,
0,
0,
0,
0,
0,
0,
0,
0,
0,
0,
0,
0,
0,
0,
0,
0,
0,
0,
0,
0,
0,
0,
0,
0,
0,
0,
0,
0,
0,
0,
0,
0,
0,
0,
0,
0,
0,
0,
0,
0,
0,
0,
0,
0,
0,
0,
0,
0,
0,
0,
0,
0,
0,
0,
0,
0,
0,
0,
#ENDOFDATA   :