File: N132962/Quantification/20 keV/MMM2/SPI MM2 SPI Pollucite[6][4].msa
#FORMAT      : EMSA/MAS Spectral Data File
#VERSION     : 1.0
#TITLE       : SPI MM2 SPI Pollucite[6][all]
#DATE        : 13-MAR-2025
#TIME        : 11:06
#OWNER       : Unknown
#NPOINTS     : 4096
#NCOLUMNS    : 1
#XUNITS      : eV
#YUNITS      : counts
#DATATYPE    : Y
#XPERCHAN    : 9.99778
#OFFSET      : 1.69135
#BEAMKV      : 20
#SIGNALTYPE  : EDS
#ELEVANGLE   : 35
#AZIMANGLE   : 0
#LIVETIME    : 239.497
#REALTIME    : 256.752
#PROBECUR    : 1.02609
#TAUWIND     : 0
#TDEADLYR    : 0
#TACTLYR     : 0.045
#TALWIND     : 0.025
#CHOFFSET    : 0.0
#XLABEL      : Energy (eV)
#YLABEL      : Counts
#XPOSITION   : -3.9987
#YPOSITION   : -1.16055
#ZPOSITION   : 31.0351
#EDSDET      : SD
##SPECIMEN   : SPI MM2 SPI Pollucite[6][all]
##D2STDCMP   : SPI Pollucite,(Li:0.05),(O:35.94),(Na:1.5),(Al:9.06),(Si:22.2),(K:0.05),(Rb:0.17),(Cs:32.3)
##DET_HASH   : 12273538-fd48-a23f-0a19-f1e6fa85caef
##CALIB_HASH : 6abaa72c-aa41-8738-0be9-f592914732f3
##WORKING    : 15.0 mm
##DET_NAME   : EDAX All
##DET_MODE   : MediumLE
#SPECTRUM    :
30,
30,
13,
18,
101,
368,
1171,
3611,
9662,
13240,
7263,
3834,
3969,
4855,
7637,
25060,
94368,
184736,
137263,
38883,
7131,
3434,
3596,
4550,
5260,
4556,
3630,
3345,
3563,
3801,
4392,
5033,
5029,
6423,
9017,
9389,
6297,
4198,
3900,
3866,
4002,
4079,
4372,
4448,
4685,
4979,
5639,
10662,
29340,
56445,
57478,
31312,
12354,
6897,
6418,
13320,
45919,
113142,
153136,
108045,
44609,
16552,
8596,
5102,
3840,
3647,
4022,
4265,
4079,
3813,
3715,
3628,
3695,
3782,
3878,
4088,
4009,
3872,
3747,
3646,
3636,
3747,
3725,
3852,
3996,
3986,
3837,
3791,
3626,
3700,
3720,
3690,
3582,
3702,
3606,
3727,
3726,
3752,
3811,
3584,
3534,
3593,
3536,
3502,
3546,
3582,
3532,
3581,
3581,
3584,
3731,
3637,
3415,
3407,
3406,
3350,
3422,
3434,
3254,
3206,
3185,
3341,
3207,
3434,
3630,
4229,
4688,
4791,
4299,
3656,
3331,
3094,
3103,
3037,
3033,
3114,
3289,
3725,
4367,
6624,
13505,
26908,
42721,
48798,
39171,
23080,
10780,
5125,
3418,
3239,
4103,
6879,
12712,
19833,
24094,
22976,
17448,
12271,
8320,
6103,
4583,
4141,
5113,
7357,
9258,
9415,
7647,
5216,
3516,
2726,
2373,
2360,
2401,
2823,
3581,
4625,
5010,
4560,
3777,
2757,
2328,
2245,
2563,
2799,
3129,
3275,
2940,
2631,
2347,
2159,
2055,
1954,
1943,
1934,
1847,
1871,
1822,
1727,
1736,
1765,
1816,
1818,
1784,
1772,
1665,
1686,
1682,
1795,
1694,
1678,
1730,
1773,
1869,
1898,
1881,
1754,
1698,
1660,
1606,
1542,
1580,
1659,
1585,
1617,
1583,
1523,
1566,
1466,
1450,
1524,
1470,
1479,
1509,
1544,
1549,
1380,
1530,
1423,
1428,
1479,
1439,
1402,
1435,
1435,
1401,
1378,
1403,
1378,
1407,
1398,
1352,
1360,
1343,
1322,
1329,
1289,
1316,
1302,
1276,
1223,
1220,
1224,
1215,
1299,
1180,
1175,
1238,
1167,
1182,
1161,
1127,
1200,
1188,
1192,
1117,
1128,
1137,
1139,
1111,
1105,
1118,
1087,
1099,
1116,
1060,
1049,
1085,
1093,
1078,
1053,
1010,
1086,
1025,
1012,
1034,
983,
1009,
1028,
966,
969,
938,
1034,
952,
930,
980,
938,
952,
941,
951,
991,
929,
955,
908,
884,
911,
930,
869,
858,
863,
890,
891,
868,
830,
868,
881,
846,
806,
802,
830,
834,
853,
812,
810,
791,
754,
777,
784,
759,
795,
769,
769,
732,
708,
746,
725,
757,
712,
737,
708,
679,
701,
681,
675,
691,
680,
647,
687,
646,
681,
641,
640,
625,
681,
641,
668,
616,
619,
584,
588,
628,
595,
584,
606,
603,
598,
579,
539,
591,
599,
558,
528,
601,
582,
528,
533,
539,
550,
523,
512,
530,
522,
547,
517,
518,
512,
463,
486,
483,
483,
499,
499,
446,
475,
483,
441,
426,
460,
463,
419,
426,
478,
407,
415,
466,
418,
400,
421,
388,
419,
398,
395,
374,
386,
357,
396,
405,
381,
353,
389,
388,
390,
401,
380,
353,
372,
347,
333,
366,
361,
337,
325,
343,
334,
328,
365,
331,
325,
319,
282,
311,
315,
317,
297,
293,
281,
293,
331,
276,
293,
275,
293,
279,
242,
287,
250,
245,
219,
243,
246,
249,
238,
227,
245,
236,
237,
231,
210,
220,
240,
221,
209,
226,
234,
226,
196,
191,
189,
214,
224,
203,
186,
188,
212,
180,
206,
210,
195,
184,
175,
198,
158,
151,
180,
182,
169,
176,
166,
155,
159,
157,
150,
133,
159,
149,
141,
156,
167,
161,
152,
148,
139,
127,
131,
119,
127,
129,
120,
118,
108,
118,
133,
122,
132,
117,
128,
110,
118,
108,
97,
115,
97,
96,
101,
96,
81,
107,
91,
94,
101,
87,
73,
96,
92,
97,
97,
76,
80,
80,
71,
79,
80,
73,
64,
71,
64,
68,
79,
57,
75,
69,
69,
73,
55,
65,
66,
60,
77,
64,
59,
55,
64,
57,
51,
61,
51,
53,
47,
63,
48,
48,
31,
48,
58,
45,
49,
37,
28,
44,
48,
45,
51,
42,
48,
35,
29,
28,
33,
29,
34,
41,
24,
26,
25,
38,
36,
36,
25,
31,
48,
28,
34,
26,
21,
19,
27,
19,
21,
12,
26,
24,
24,
18,
16,
24,
17,
11,
19,
17,
18,
15,
16,
11,
10,
13,
13,
7,
14,
16,
11,
9,
10,
9,
3,
8,
6,
7,
6,
5,
4,
2,
4,
1,
2,
1,
1,
4,
1,
0,
0,
0,
0,
1,
0,
0,
0,
0,
0,
1,
0,
2,
0,
0,
1,
1,
0,
0,
0,
0,
1,
0,
1,
0,
2,
0,
1,
0,
0,
0,
1,
1,
0,
0,
2,
1,
0,
0,
1,
1,
0,
0,
0,
0,
0,
0,
0,
0,
0,
0,
0,
0,
0,
0,
0,
1,
0,
0,
0,
0,
2,
0,
0,
0,
0,
1,
1,
0,
0,
0,
0,
0,
0,
0,
0,
1,
0,
0,
0,
0,
0,
0,
0,
0,
0,
0,
1,
0,
0,
1,
1,
1,
0,
0,
0,
0,
0,
0,
0,
0,
0,
0,
1,
0,
0,
0,
0,
0,
0,
0,
0,
0,
0,
0,
0,
0,
0,
0,
0,
0,
0,
0,
0,
0,
0,
0,
2,
0,
0,
0,
0,
0,
0,
1,
1,
0,
0,
0,
0,
0,
0,
0,
0,
0,
0,
0,
0,
0,
0,
0,
0,
0,
0,
0,
0,
3,
0,
0,
0,
0,
0,
0,
0,
0,
0,
0,
0,
0,
0,
0,
0,
0,
0,
0,
0,
0,
0,
0,
1,
0,
0,
0,
0,
1,
0,
0,
0,
0,
0,
0,
0,
0,
0,
0,
0,
0,
0,
1,
0,
0,
0,
0,
0,
0,
1,
0,
0,
0,
0,
0,
0,
0,
0,
0,
0,
0,
0,
0,
0,
0,
0,
0,
0,
0,
0,
1,
0,
0,
0,
0,
0,
0,
0,
0,
0,
0,
0,
0,
0,
0,
0,
0,
0,
0,
0,
0,
0,
1,
0,
0,
0,
0,
0,
0,
0,
0,
0,
0,
0,
0,
0,
0,
0,
0,
0,
0,
0,
0,
0,
0,
0,
0,
0,
0,
0,
0,
0,
0,
0,
0,
0,
0,
0,
0,
0,
0,
0,
0,
0,
1,
0,
0,
0,
0,
0,
0,
0,
0,
0,
0,
0,
0,
0,
0,
0,
0,
0,
0,
0,
0,
0,
0,
0,
0,
0,
0,
0,
0,
0,
0,
0,
0,
0,
0,
0,
0,
0,
0,
0,
0,
0,
0,
0,
0,
0,
0,
0,
0,
0,
0,
0,
0,
0,
0,
0,
0,
0,
0,
0,
0,
0,
0,
0,
0,
0,
0,
0,
0,
0,
0,
0,
0,
0,
0,
0,
0,
0,
0,
0,
0,
0,
0,
0,
0,
0,
0,
0,
0,
0,
0,
0,
0,
0,
0,
0,
0,
0,
0,
0,
0,
0,
0,
0,
0,
0,
0,
0,
0,
0,
0,
0,
0,
0,
0,
0,
0,
0,
0,
0,
0,
0,
0,
0,
0,
0,
0,
0,
0,
0,
0,
0,
0,
0,
0,
0,
0,
0,
0,
0,
0,
0,
0,
0,
0,
0,
0,
0,
0,
0,
0,
0,
0,
0,
0,
0,
0,
0,
0,
0,
0,
0,
0,
0,
0,
0,
0,
0,
0,
0,
0,
0,
0,
0,
0,
0,
0,
0,
0,
0,
0,
0,
0,
0,
0,
0,
0,
0,
0,
0,
0,
0,
0,
0,
0,
0,
0,
0,
0,
0,
0,
0,
0,
0,
0,
0,
0,
0,
0,
0,
0,
0,
0,
0,
0,
0,
0,
0,
0,
0,
0,
0,
0,
0,
0,
0,
0,
0,
0,
0,
0,
0,
0,
0,
0,
0,
0,
0,
0,
0,
0,
0,
0,
0,
0,
0,
0,
0,
0,
0,
0,
0,
0,
0,
0,
0,
0,
0,
0,
0,
0,
0,
0,
0,
0,
0,
0,
0,
0,
0,
0,
0,
0,
0,
0,
0,
0,
0,
0,
0,
0,
0,
0,
0,
0,
0,
0,
0,
0,
0,
0,
0,
0,
0,
0,
0,
0,
0,
0,
0,
0,
0,
0,
0,
0,
0,
0,
0,
0,
0,
0,
0,
0,
0,
0,
0,
0,
0,
0,
0,
0,
0,
0,
0,
0,
0,
0,
0,
0,
0,
0,
0,
0,
0,
0,
0,
0,
0,
0,
0,
0,
0,
0,
0,
0,
0,
0,
0,
0,
0,
0,
0,
0,
0,
0,
0,
0,
0,
0,
0,
0,
0,
0,
0,
0,
0,
0,
0,
0,
0,
0,
0,
0,
0,
0,
0,
0,
0,
0,
0,
0,
0,
0,
0,
0,
0,
0,
0,
0,
0,
0,
0,
0,
0,
0,
0,
0,
0,
0,
0,
0,
0,
0,
0,
0,
0,
0,
0,
0,
#ENDOFDATA   :