File: N132962/Quantification/20 keV/MMM2/SPI MM2 SPI Orthoclaise[1][4].msa
#FORMAT      : EMSA/MAS Spectral Data File
#VERSION     : 1.0
#TITLE       : SPI MM2 SPI Orthoclaise[1][all]
#DATE        : 13-MAR-2025
#TIME        : 10:24
#OWNER       : Unknown
#NPOINTS     : 4096
#NCOLUMNS    : 1
#XUNITS      : eV
#YUNITS      : counts
#DATATYPE    : Y
#XPERCHAN    : 9.99778
#OFFSET      : 1.69135
#BEAMKV      : 20
#SIGNALTYPE  : EDS
#ELEVANGLE   : 35
#AZIMANGLE   : 0
#LIVETIME    : 239.809
#REALTIME    : 255.905
#PROBECUR    : 1.02606
#TAUWIND     : 0
#TDEADLYR    : 0
#TACTLYR     : 0.045
#TALWIND     : 0.025
#CHOFFSET    : 0.0
#XLABEL      : Energy (eV)
#YLABEL      : Counts
#XPOSITION   : 6.11682
#YPOSITION   : 0.10717
#ZPOSITION   : 31.0351
#EDSDET      : SD
##SPECIMEN   : SPI MM2 SPI Orthoclaise[1][all]
##D2STDCMP   : SPI Orthoclaise,(O:45.86),(Na:0.67),(Al:8.85),(Si:30.29),(K:12.85),(Fe:1.4),(Ba:0.04),5.0
##DET_HASH   : 12273538-fd48-a23f-0a19-f1e6fa85caef
##CALIB_HASH : 6abaa72c-aa41-8738-0be9-f592914732f3
##WORKING    : 15.0 mm
##DET_NAME   : EDAX All
##DET_MODE   : MediumLE
#SPECTRUM    :
24,
20,
9,
15,
71,
268,
907,
3081,
8617,
10784,
5289,
2262,
2097,
2549,
4491,
16048,
63719,
125726,
92291,
24449,
3852,
2073,
2492,
3614,
3481,
2673,
2468,
2600,
2699,
2713,
2748,
2923,
3073,
3579,
4275,
4485,
4081,
3848,
3708,
3856,
4089,
4416,
4318,
4552,
4778,
5124,
6244,
12916,
37965,
74400,
75788,
41090,
16167,
8230,
7496,
18542,
73802,
191124,
260372,
184509,
73313,
24520,
10939,
5303,
3020,
2599,
2570,
2565,
2524,
2534,
2415,
2437,
2437,
2535,
2786,
2877,
2862,
2726,
2522,
2419,
2534,
2412,
2385,
2416,
2551,
2475,
2529,
2448,
2514,
2510,
2492,
2504,
2386,
2474,
2413,
2415,
2392,
2436,
2359,
2392,
2374,
2315,
2391,
2491,
2478,
2831,
3834,
7418,
18659,
40493,
62747,
63001,
40987,
18156,
6708,
3443,
3342,
4299,
6348,
8755,
9252,
7267,
4444,
2721,
1878,
1852,
1884,
1839,
1847,
1806,
1710,
1713,
1690,
1639,
1722,
1677,
1630,
1693,
1649,
1646,
1527,
1653,
1682,
1635,
1547,
1610,
1635,
1608,
1594,
1696,
1586,
1527,
1563,
1530,
1446,
1499,
1484,
1446,
1546,
1488,
1436,
1544,
1466,
1408,
1409,
1393,
1471,
1494,
1600,
1529,
1441,
1373,
1390,
1375,
1325,
1271,
1267,
1242,
1261,
1304,
1228,
1226,
1219,
1179,
1215,
1263,
1248,
1161,
1152,
1110,
1174,
1179,
1125,
1099,
1120,
1096,
1122,
1055,
1081,
1087,
1137,
1077,
1093,
1018,
1026,
1055,
1059,
1028,
1123,
1274,
1859,
2770,
3763,
4437,
4216,
3345,
2267,
1524,
1136,
985,
929,
970,
969,
920,
933,
903,
933,
907,
908,
870,
874,
905,
1002,
1160,
1200,
1266,
1206,
1082,
968,
909,
798,
833,
854,
749,
789,
813,
811,
832,
787,
799,
830,
760,
735,
747,
736,
698,
729,
774,
739,
688,
718,
657,
655,
693,
675,
684,
696,
662,
716,
626,
612,
679,
631,
606,
581,
587,
596,
613,
612,
585,
628,
649,
585,
612,
606,
577,
566,
574,
558,
581,
573,
549,
538,
550,
574,
601,
489,
545,
513,
519,
500,
489,
532,
474,
509,
518,
495,
523,
527,
500,
466,
432,
483,
461,
504,
481,
458,
468,
453,
496,
411,
413,
442,
445,
450,
442,
457,
433,
385,
405,
411,
412,
440,
412,
393,
409,
408,
399,
410,
383,
362,
408,
373,
428,
362,
396,
375,
348,
390,
342,
390,
332,
352,
362,
377,
359,
369,
333,
345,
359,
303,
299,
343,
333,
328,
319,
350,
303,
308,
303,
291,
290,
275,
293,
308,
300,
272,
302,
299,
293,
298,
273,
289,
290,
275,
279,
250,
288,
264,
256,
246,
245,
248,
230,
266,
237,
227,
283,
223,
221,
222,
238,
235,
209,
248,
234,
213,
202,
229,
188,
239,
214,
200,
210,
207,
181,
215,
223,
200,
201,
206,
197,
202,
183,
199,
159,
187,
191,
171,
189,
141,
149,
138,
161,
181,
159,
165,
161,
147,
164,
162,
187,
167,
157,
143,
166,
156,
150,
138,
144,
158,
128,
155,
121,
141,
111,
131,
121,
114,
134,
136,
110,
126,
122,
114,
111,
110,
109,
106,
101,
105,
119,
101,
98,
110,
108,
118,
87,
100,
101,
103,
94,
88,
101,
85,
98,
93,
101,
111,
96,
82,
99,
81,
78,
83,
93,
87,
71,
84,
82,
86,
60,
77,
68,
70,
78,
75,
68,
73,
75,
51,
64,
72,
67,
58,
55,
82,
62,
58,
62,
76,
54,
61,
59,
57,
58,
63,
57,
49,
55,
63,
59,
68,
51,
48,
39,
61,
48,
48,
47,
52,
37,
51,
41,
34,
39,
37,
52,
38,
35,
54,
39,
32,
48,
36,
30,
34,
38,
34,
27,
36,
36,
26,
24,
31,
37,
31,
22,
32,
37,
29,
16,
32,
35,
25,
32,
22,
35,
29,
21,
24,
25,
36,
28,
19,
19,
30,
14,
30,
23,
20,
12,
22,
20,
14,
11,
26,
17,
20,
22,
14,
18,
12,
10,
13,
13,
18,
16,
14,
10,
14,
13,
16,
8,
8,
13,
10,
12,
8,
9,
9,
9,
19,
12,
11,
13,
3,
9,
12,
9,
13,
9,
6,
4,
6,
6,
7,
7,
7,
6,
5,
2,
2,
6,
3,
7,
7,
3,
2,
2,
3,
5,
4,
3,
3,
2,
2,
2,
0,
0,
0,
2,
1,
0,
1,
1,
0,
1,
0,
1,
0,
0,
0,
1,
0,
0,
0,
0,
0,
0,
1,
0,
0,
1,
0,
0,
0,
1,
0,
0,
1,
0,
1,
0,
0,
0,
0,
0,
0,
0,
0,
0,
0,
0,
0,
0,
0,
0,
0,
0,
0,
0,
1,
0,
0,
0,
0,
0,
0,
0,
0,
0,
0,
0,
0,
0,
0,
0,
0,
0,
0,
0,
0,
0,
0,
0,
0,
0,
0,
0,
0,
0,
0,
0,
0,
0,
0,
0,
0,
0,
0,
0,
0,
1,
0,
0,
0,
0,
0,
0,
1,
0,
0,
0,
0,
0,
0,
0,
0,
0,
0,
0,
0,
0,
0,
0,
0,
0,
0,
0,
0,
0,
0,
0,
0,
0,
0,
0,
1,
0,
0,
0,
0,
0,
0,
0,
0,
0,
0,
0,
0,
0,
0,
0,
0,
0,
0,
0,
0,
0,
0,
0,
0,
0,
0,
0,
0,
0,
0,
0,
0,
0,
0,
0,
0,
0,
0,
0,
0,
0,
0,
0,
0,
0,
0,
0,
0,
1,
0,
0,
0,
0,
0,
0,
0,
0,
0,
0,
0,
0,
0,
0,
0,
0,
0,
0,
0,
0,
0,
0,
0,
0,
0,
0,
0,
0,
0,
0,
0,
0,
0,
0,
0,
0,
0,
0,
0,
0,
0,
0,
0,
0,
0,
0,
0,
0,
0,
0,
0,
0,
0,
0,
0,
0,
0,
0,
0,
0,
0,
0,
0,
0,
0,
0,
0,
0,
0,
1,
0,
0,
0,
0,
0,
0,
0,
0,
0,
0,
0,
0,
0,
0,
0,
0,
0,
0,
0,
0,
0,
0,
0,
0,
0,
0,
0,
0,
0,
0,
0,
0,
0,
0,
0,
0,
0,
0,
0,
0,
0,
0,
0,
0,
0,
0,
0,
0,
0,
0,
0,
0,
0,
0,
0,
0,
0,
1,
0,
0,
0,
0,
0,
0,
0,
0,
0,
0,
0,
0,
0,
0,
0,
0,
0,
0,
0,
0,
0,
0,
0,
0,
0,
0,
0,
0,
0,
0,
0,
0,
0,
0,
0,
0,
0,
0,
0,
0,
0,
0,
0,
0,
0,
0,
0,
0,
0,
0,
0,
0,
0,
0,
0,
0,
0,
0,
0,
0,
0,
0,
0,
0,
0,
0,
0,
0,
0,
0,
0,
0,
0,
0,
0,
0,
0,
0,
0,
0,
0,
0,
0,
0,
0,
0,
0,
0,
0,
0,
0,
0,
0,
0,
0,
0,
0,
0,
0,
0,
0,
0,
0,
0,
0,
0,
0,
0,
0,
0,
0,
0,
0,
0,
0,
0,
0,
0,
0,
0,
0,
0,
0,
0,
0,
0,
0,
0,
0,
0,
0,
0,
0,
0,
0,
0,
0,
0,
0,
0,
0,
0,
0,
0,
0,
0,
0,
0,
0,
0,
0,
0,
0,
0,
0,
0,
0,
0,
0,
0,
0,
0,
0,
0,
0,
0,
0,
0,
0,
0,
0,
0,
0,
0,
0,
0,
0,
0,
0,
0,
0,
0,
0,
0,
0,
0,
0,
0,
0,
0,
0,
0,
0,
0,
0,
0,
0,
0,
0,
0,
0,
0,
0,
0,
0,
0,
0,
0,
0,
0,
0,
0,
0,
0,
0,
0,
0,
0,
0,
0,
0,
0,
0,
0,
0,
0,
0,
0,
0,
0,
0,
0,
0,
0,
0,
0,
0,
0,
0,
0,
0,
0,
0,
0,
0,
0,
0,
0,
0,
0,
0,
0,
0,
0,
0,
0,
0,
0,
0,
0,
0,
0,
0,
0,
0,
0,
0,
0,
0,
0,
0,
0,
0,
0,
0,
0,
0,
0,
0,
0,
0,
0,
0,
0,
0,
0,
0,
0,
0,
0,
0,
0,
0,
0,
0,
0,
0,
0,
0,
0,
0,
0,
0,
0,
0,
0,
0,
0,
0,
0,
0,
0,
0,
0,
0,
0,
0,
0,
0,
0,
0,
0,
0,
0,
0,
0,
0,
0,
0,
0,
0,
0,
0,
0,
0,
0,
0,
0,
0,
0,
0,
0,
0,
0,
0,
0,
0,
0,
0,
0,
0,
0,
0,
0,
0,
0,
0,
0,
0,
0,
0,
0,
0,
0,
0,
0,
0,
0,
0,
0,
0,
0,
0,
0,
0,
0,
0,
0,
0,
0,
0,
0,
0,
0,
0,
0,
0,
0,
0,
0,
0,
0,
0,
0,
0,
0,
0,
0,
0,
0,
#ENDOFDATA   :