File: N132962/Quantification/20 keV/MMM2/SPI MM2 Rhodonite[4][4].msa
#FORMAT      : EMSA/MAS Spectral Data File
#VERSION     : 1.0
#TITLE       : SPI MM2 Rhodonite[4][all]
#DATE        : 13-MAR-2025
#TIME        : 12:26
#OWNER       : Unknown
#NPOINTS     : 4096
#NCOLUMNS    : 1
#XUNITS      : eV
#YUNITS      : counts
#DATATYPE    : Y
#XPERCHAN    : 9.99778
#OFFSET      : 1.69135
#BEAMKV      : 20
#SIGNALTYPE  : EDS
#ELEVANGLE   : 35
#AZIMANGLE   : 0
#LIVETIME    : 239.755
#REALTIME    : 256.226
#PROBECUR    : 1.02616
#TAUWIND     : 0
#TDEADLYR    : 0
#TACTLYR     : 0.045
#TALWIND     : 0.025
#CHOFFSET    : 0.0
#XLABEL      : Energy (eV)
#YLABEL      : Counts
#XPOSITION   : 0.02909
#YPOSITION   : 1.24637
#ZPOSITION   : 31.03511
#EDSDET      : SD
##SPECIMEN   : SPI MM2 Rhodonite[4][all]
##DET_HASH   : 12273538-fd48-a23f-0a19-f1e6fa85caef
##CALIB_HASH : 6abaa72c-aa41-8738-0be9-f592914732f3
##WORKING    : 15.0 mm
##DET_NAME   : EDAX All
##DET_MODE   : MediumLE
#SPECTRUM    :
23,
22,
15,
23,
73,
337,
1040,
3137,
8945,
12008,
6899,
3514,
3423,
4290,
7065,
22995,
90445,
178346,
132390,
38516,
13515,
16578,
12949,
6874,
4557,
2887,
2215,
2187,
2326,
2425,
2423,
2582,
2680,
2837,
3086,
3149,
3202,
3334,
3391,
3768,
5477,
8990,
10156,
7552,
4836,
4218,
4187,
4356,
4565,
5093,
5221,
5226,
5129,
5355,
6216,
14409,
53165,
135119,
183201,
130397,
53201,
18574,
9347,
5200,
3819,
3242,
3228,
3192,
3185,
3060,
3092,
3215,
3288,
3456,
3543,
3721,
3616,
3518,
3412,
3256,
3262,
3421,
3275,
3249,
3291,
3145,
3201,
3216,
3219,
3218,
3148,
3204,
3084,
3056,
3011,
3154,
3095,
3122,
2973,
3024,
2984,
2973,
2953,
3059,
2845,
2920,
2852,
2881,
2906,
2832,
2771,
2835,
2804,
2730,
2911,
2856,
2887,
2993,
2905,
3377,
5094,
9017,
14799,
17963,
15822,
9787,
5171,
3187,
2675,
2561,
2613,
2979,
3454,
4139,
4375,
4022,
3242,
2747,
2668,
2593,
2476,
2360,
2193,
2209,
2141,
2179,
2128,
2105,
2081,
2070,
2079,
2098,
2038,
2040,
2038,
2029,
1953,
2032,
1968,
2073,
1946,
1999,
1945,
1954,
1948,
1956,
1908,
1875,
1852,
1926,
1814,
1858,
1877,
1796,
1837,
1806,
1738,
1805,
1775,
1696,
1769,
1782,
1751,
1711,
1670,
1681,
1664,
1694,
1744,
1819,
2067,
2853,
5818,
14188,
30838,
53491,
70773,
70027,
52388,
29916,
13225,
5247,
2426,
1678,
1524,
1483,
1462,
1564,
1715,
2060,
3139,
5281,
7879,
10360,
12321,
13292,
12619,
10495,
7553,
4575,
2642,
1602,
1232,
1180,
1140,
1138,
1149,
1092,
1084,
1093,
1157,
1235,
1316,
1545,
1694,
1790,
1754,
1553,
1271,
1109,
1086,
1017,
1039,
976,
945,
1003,
1000,
963,
1045,
1051,
926,
1017,
1063,
1076,
1073,
1085,
991,
935,
950,
880,
877,
929,
879,
916,
885,
852,
893,
798,
872,
905,
913,
870,
886,
841,
820,
783,
848,
777,
773,
797,
738,
817,
792,
781,
774,
786,
770,
778,
800,
772,
762,
704,
748,
669,
747,
718,
716,
762,
670,
736,
726,
685,
731,
667,
745,
647,
650,
671,
664,
638,
679,
627,
648,
660,
641,
600,
574,
637,
633,
606,
564,
622,
617,
589,
574,
624,
539,
572,
607,
552,
548,
567,
526,
599,
564,
526,
556,
550,
542,
505,
524,
569,
488,
531,
510,
517,
512,
513,
498,
470,
493,
456,
482,
476,
494,
487,
477,
457,
492,
431,
443,
436,
405,
425,
441,
389,
477,
433,
373,
457,
391,
427,
414,
400,
414,
366,
396,
406,
418,
386,
351,
374,
388,
358,
373,
356,
386,
398,
418,
342,
358,
365,
362,
370,
343,
361,
307,
297,
307,
331,
333,
330,
331,
295,
342,
318,
329,
318,
308,
319,
315,
320,
301,
307,
291,
294,
278,
302,
253,
265,
288,
244,
282,
274,
305,
263,
260,
247,
225,
232,
241,
237,
252,
205,
220,
278,
236,
230,
232,
201,
251,
243,
217,
225,
225,
202,
233,
210,
197,
225,
208,
208,
190,
209,
196,
188,
204,
195,
179,
186,
163,
208,
162,
185,
173,
162,
161,
147,
158,
162,
176,
190,
172,
163,
159,
145,
159,
156,
153,
131,
161,
124,
142,
138,
149,
136,
142,
171,
146,
135,
121,
137,
120,
116,
118,
123,
133,
118,
97,
106,
106,
119,
114,
118,
125,
107,
117,
91,
118,
127,
112,
98,
94,
97,
96,
92,
102,
78,
87,
101,
84,
101,
95,
94,
91,
79,
67,
79,
69,
96,
83,
86,
82,
76,
81,
75,
78,
77,
66,
73,
79,
72,
83,
64,
65,
66,
66,
76,
68,
55,
56,
50,
56,
59,
45,
61,
65,
47,
41,
44,
53,
62,
50,
50,
58,
45,
50,
42,
40,
32,
39,
42,
50,
45,
37,
52,
30,
29,
30,
44,
36,
36,
29,
26,
33,
42,
28,
31,
40,
28,
34,
35,
22,
30,
25,
24,
30,
33,
36,
23,
23,
21,
22,
25,
26,
23,
21,
15,
17,
22,
15,
17,
17,
16,
23,
18,
25,
19,
12,
18,
14,
9,
17,
14,
10,
9,
19,
19,
11,
11,
9,
7,
13,
10,
11,
12,
9,
13,
9,
7,
8,
13,
9,
12,
15,
4,
5,
4,
4,
7,
3,
9,
4,
5,
4,
2,
5,
5,
1,
1,
4,
2,
3,
3,
1,
0,
0,
0,
1,
0,
1,
1,
0,
0,
1,
0,
0,
0,
1,
2,
0,
0,
1,
0,
0,
0,
1,
0,
0,
0,
1,
0,
0,
0,
0,
0,
0,
1,
0,
0,
0,
1,
0,
0,
0,
0,
0,
1,
1,
1,
0,
0,
1,
1,
0,
0,
1,
0,
0,
0,
0,
0,
0,
0,
0,
1,
0,
0,
1,
0,
0,
0,
1,
0,
0,
0,
1,
0,
0,
0,
1,
0,
0,
0,
0,
1,
0,
0,
0,
1,
1,
0,
0,
0,
0,
0,
0,
0,
1,
0,
0,
0,
0,
0,
0,
0,
0,
0,
0,
0,
1,
0,
0,
0,
0,
0,
0,
0,
0,
0,
0,
0,
0,
0,
0,
1,
0,
0,
0,
0,
0,
0,
0,
1,
0,
1,
0,
0,
0,
0,
0,
0,
0,
0,
0,
0,
0,
0,
0,
0,
0,
0,
0,
0,
0,
0,
0,
0,
0,
0,
0,
0,
0,
1,
0,
0,
0,
0,
0,
0,
0,
0,
0,
0,
0,
0,
0,
0,
0,
0,
0,
1,
0,
0,
0,
0,
0,
0,
0,
0,
0,
0,
0,
0,
0,
0,
1,
0,
0,
0,
0,
0,
0,
0,
0,
0,
0,
0,
0,
0,
0,
0,
0,
0,
0,
0,
0,
0,
0,
0,
0,
0,
0,
0,
0,
0,
0,
0,
0,
0,
0,
0,
0,
0,
0,
0,
0,
0,
0,
0,
0,
0,
0,
0,
0,
0,
0,
0,
0,
0,
0,
0,
0,
0,
0,
0,
0,
0,
0,
0,
0,
0,
0,
0,
0,
0,
0,
0,
0,
0,
0,
0,
0,
0,
0,
0,
0,
0,
0,
0,
0,
0,
0,
0,
0,
0,
0,
0,
0,
0,
0,
0,
0,
0,
0,
0,
0,
0,
0,
0,
0,
0,
0,
0,
0,
0,
0,
0,
0,
0,
0,
0,
0,
0,
0,
0,
0,
0,
0,
0,
0,
0,
0,
0,
1,
0,
0,
0,
0,
0,
0,
0,
0,
0,
0,
0,
0,
0,
0,
0,
0,
0,
0,
0,
0,
0,
0,
0,
0,
0,
0,
0,
0,
0,
0,
0,
0,
0,
0,
0,
0,
0,
0,
0,
0,
0,
0,
0,
0,
0,
0,
0,
0,
0,
0,
0,
0,
0,
0,
0,
0,
0,
0,
0,
0,
0,
0,
0,
0,
0,
0,
0,
0,
0,
0,
0,
0,
0,
0,
0,
0,
0,
0,
0,
0,
0,
0,
0,
0,
0,
0,
0,
0,
0,
0,
0,
0,
0,
0,
0,
0,
0,
0,
0,
0,
0,
0,
0,
0,
0,
0,
0,
0,
0,
0,
0,
0,
0,
0,
0,
0,
0,
0,
0,
0,
0,
0,
0,
0,
0,
0,
0,
0,
0,
0,
0,
0,
0,
0,
0,
0,
0,
0,
0,
0,
0,
0,
0,
0,
0,
0,
0,
0,
0,
0,
0,
0,
0,
0,
0,
0,
0,
0,
0,
0,
0,
0,
0,
0,
0,
0,
0,
0,
0,
0,
0,
0,
0,
0,
0,
0,
1,
0,
0,
0,
0,
0,
0,
0,
0,
0,
0,
0,
0,
0,
0,
0,
0,
0,
0,
0,
0,
0,
0,
0,
0,
0,
0,
0,
0,
0,
0,
0,
0,
0,
0,
0,
0,
0,
0,
0,
0,
0,
0,
0,
0,
0,
0,
0,
0,
0,
0,
0,
0,
0,
0,
0,
0,
0,
0,
0,
0,
0,
0,
0,
0,
0,
0,
0,
0,
0,
0,
0,
0,
0,
0,
0,
0,
0,
0,
0,
0,
0,
0,
0,
0,
0,
0,
0,
0,
0,
0,
0,
0,
0,
0,
0,
0,
0,
0,
0,
0,
0,
0,
0,
0,
0,
0,
0,
0,
0,
0,
0,
0,
0,
0,
0,
0,
0,
0,
0,
0,
0,
0,
0,
0,
0,
0,
0,
0,
0,
0,
0,
0,
0,
0,
0,
0,
0,
0,
0,
0,
0,
0,
0,
0,
0,
0,
0,
0,
0,
0,
0,
0,
0,
0,
0,
0,
0,
0,
0,
0,
0,
0,
0,
0,
0,
0,
0,
0,
0,
0,
0,
0,
0,
0,
0,
0,
0,
0,
0,
0,
0,
0,
0,
0,
0,
0,
0,
0,
0,
0,
0,
0,
0,
0,
0,
0,
0,
0,
0,
1,
0,
0,
0,
0,
#ENDOFDATA   :