File: N132962/Quantification/20 keV/MMM2/SPI MM2 C[2][4].msa
#FORMAT      : EMSA/MAS Spectral Data File
#VERSION     : 1.0
#TITLE       : SPI MM2 C[2][all]
#DATE        : 13-MAR-2025
#TIME        : 14:23
#OWNER       : Unknown
#NPOINTS     : 4096
#NCOLUMNS    : 1
#XUNITS      : eV
#YUNITS      : counts
#DATATYPE    : Y
#XPERCHAN    : 9.99778
#OFFSET      : 1.69135
#BEAMKV      : 20
#SIGNALTYPE  : EDS
#ELEVANGLE   : 35
#AZIMANGLE   : 0
#LIVETIME    : 239.988
#REALTIME    : 250.9146
#PROBECUR    : 1.02609
#TAUWIND     : 0
#TDEADLYR    : 0
#TACTLYR     : 0.045
#TALWIND     : 0.025
#CHOFFSET    : 0.0
#XLABEL      : Energy (eV)
#YLABEL      : Counts
#XPOSITION   : 3.31868
#YPOSITION   : 8.90796
#ZPOSITION   : 31.03511
#EDSDET      : SD
##SPECIMEN   : SPI MM2 C[2][all]
##D2STDCMP   : C,(C:100.0)
##DET_HASH   : 12273538-fd48-a23f-0a19-f1e6fa85caef
##CALIB_HASH : 6abaa72c-aa41-8738-0be9-f592914732f3
##WORKING    : 15.0 mm
##DET_NAME   : EDAX All
##DET_MODE   : MediumLE
#SPECTRUM    :
38,
30,
19,
54,
315,
1744,
11220,
92791,
380107,
523537,
216654,
27995,
1688,
556,
556,
768,
1712,
3192,
3205,
1808,
1027,
980,
1105,
1187,
1201,
1329,
1422,
1488,
1561,
1598,
1773,
1838,
1864,
1968,
2064,
2140,
2121,
2264,
2412,
2353,
2474,
2540,
2509,
2474,
2582,
2640,
2719,
2645,
2633,
2656,
2589,
2644,
2615,
2599,
2540,
2458,
2559,
2672,
2545,
2521,
2485,
2397,
2185,
2118,
2056,
2055,
2042,
1955,
1958,
1930,
1992,
1820,
1854,
1838,
1795,
1858,
1829,
1786,
1777,
1764,
1715,
1640,
1599,
1626,
1569,
1650,
1597,
1563,
1453,
1501,
1445,
1480,
1440,
1416,
1377,
1357,
1349,
1343,
1327,
1340,
1304,
1256,
1341,
1235,
1242,
1197,
1174,
1209,
1128,
1091,
1098,
1155,
1100,
1094,
1079,
1033,
1060,
1056,
1041,
1037,
1002,
1025,
991,
950,
986,
1006,
949,
929,
972,
861,
910,
889,
902,
835,
876,
906,
808,
830,
871,
847,
822,
807,
792,
821,
784,
798,
758,
777,
750,
775,
757,
722,
734,
707,
681,
725,
750,
689,
686,
687,
660,
672,
641,
663,
655,
629,
646,
667,
681,
630,
591,
581,
578,
584,
596,
651,
600,
595,
580,
576,
581,
553,
560,
522,
533,
530,
498,
499,
517,
540,
485,
548,
537,
483,
451,
485,
503,
431,
466,
439,
489,
505,
468,
477,
427,
415,
447,
433,
421,
427,
438,
468,
481,
491,
529,
479,
421,
389,
400,
402,
417,
388,
383,
399,
349,
382,
362,
390,
401,
387,
343,
367,
343,
381,
380,
389,
385,
366,
339,
312,
334,
337,
343,
339,
299,
358,
314,
317,
304,
305,
320,
290,
296,
298,
314,
294,
277,
318,
246,
278,
289,
286,
276,
287,
269,
272,
308,
267,
287,
280,
260,
257,
261,
240,
256,
260,
255,
245,
233,
223,
232,
232,
243,
245,
213,
239,
205,
268,
221,
225,
237,
219,
224,
210,
196,
203,
211,
223,
196,
197,
202,
215,
183,
191,
183,
228,
179,
186,
203,
172,
176,
173,
174,
190,
209,
192,
205,
182,
172,
191,
170,
171,
153,
173,
136,
192,
166,
156,
180,
184,
176,
155,
144,
169,
148,
141,
117,
142,
129,
153,
159,
150,
123,
137,
131,
143,
129,
136,
151,
137,
126,
139,
131,
138,
127,
126,
134,
146,
127,
119,
119,
124,
110,
118,
119,
110,
126,
120,
115,
108,
114,
96,
114,
109,
120,
113,
114,
124,
100,
92,
108,
109,
94,
90,
97,
100,
97,
100,
92,
82,
90,
96,
74,
79,
80,
99,
80,
78,
69,
76,
71,
97,
92,
95,
70,
78,
77,
88,
91,
84,
93,
70,
67,
73,
74,
73,
53,
62,
72,
73,
78,
74,
52,
62,
60,
65,
70,
65,
58,
69,
62,
49,
64,
65,
52,
52,
56,
59,
49,
53,
49,
68,
52,
52,
42,
45,
43,
59,
48,
52,
28,
57,
53,
49,
35,
42,
56,
48,
33,
48,
40,
38,
41,
47,
46,
44,
32,
38,
51,
42,
32,
42,
45,
40,
45,
36,
32,
36,
40,
27,
48,
28,
27,
29,
24,
30,
39,
25,
31,
24,
26,
33,
22,
32,
30,
22,
30,
16,
38,
28,
22,
23,
25,
34,
19,
25,
20,
23,
18,
25,
26,
27,
23,
25,
30,
23,
21,
20,
25,
18,
20,
16,
22,
20,
13,
26,
15,
15,
11,
25,
22,
18,
18,
16,
18,
14,
20,
13,
15,
15,
19,
13,
21,
9,
14,
8,
11,
13,
20,
20,
15,
15,
11,
10,
16,
11,
11,
12,
11,
7,
14,
12,
12,
10,
7,
12,
8,
9,
13,
9,
12,
9,
10,
6,
6,
4,
11,
3,
8,
7,
3,
5,
6,
5,
6,
7,
6,
7,
8,
12,
3,
2,
8,
6,
7,
10,
4,
6,
4,
10,
7,
10,
2,
4,
4,
2,
4,
3,
3,
5,
3,
1,
2,
5,
6,
5,
7,
4,
6,
2,
5,
2,
3,
3,
2,
2,
1,
0,
3,
2,
1,
5,
1,
2,
2,
3,
1,
2,
2,
1,
1,
3,
0,
1,
3,
2,
1,
0,
1,
1,
2,
1,
0,
1,
0,
1,
0,
0,
0,
1,
1,
1,
0,
0,
1,
0,
0,
0,
0,
1,
0,
0,
0,
0,
0,
0,
0,
0,
0,
0,
0,
0,
0,
0,
0,
0,
0,
0,
0,
0,
0,
0,
0,
0,
0,
0,
0,
0,
0,
0,
0,
0,
0,
0,
0,
0,
0,
0,
0,
0,
0,
0,
0,
0,
0,
0,
0,
0,
0,
0,
0,
0,
0,
0,
0,
0,
0,
0,
0,
0,
0,
0,
0,
0,
0,
0,
0,
0,
0,
0,
0,
0,
0,
0,
0,
0,
0,
0,
0,
0,
0,
0,
0,
0,
0,
0,
0,
0,
0,
0,
0,
1,
0,
0,
0,
0,
0,
0,
0,
0,
0,
0,
0,
0,
0,
0,
0,
0,
0,
0,
0,
0,
0,
0,
0,
0,
0,
0,
0,
0,
0,
0,
0,
0,
0,
0,
0,
0,
0,
0,
0,
0,
0,
0,
0,
0,
0,
0,
0,
0,
0,
0,
0,
0,
0,
0,
0,
0,
0,
0,
0,
0,
0,
0,
0,
0,
0,
0,
0,
0,
0,
0,
0,
0,
0,
0,
0,
0,
0,
0,
0,
0,
0,
0,
0,
0,
0,
0,
0,
0,
0,
0,
0,
0,
0,
0,
0,
0,
0,
0,
0,
0,
0,
0,
0,
0,
0,
0,
0,
0,
0,
0,
0,
0,
0,
0,
0,
0,
0,
0,
0,
0,
0,
0,
0,
0,
0,
0,
0,
0,
0,
0,
0,
0,
0,
0,
0,
0,
0,
0,
0,
0,
0,
0,
0,
0,
0,
0,
0,
0,
0,
0,
0,
0,
0,
0,
0,
0,
0,
0,
0,
0,
0,
0,
0,
0,
0,
0,
0,
0,
0,
0,
0,
0,
0,
0,
0,
0,
0,
0,
0,
0,
0,
0,
0,
0,
0,
0,
0,
0,
0,
0,
0,
0,
0,
0,
0,
0,
0,
0,
0,
0,
0,
0,
0,
0,
0,
0,
0,
0,
0,
0,
0,
0,
0,
0,
0,
0,
0,
0,
0,
0,
0,
0,
0,
0,
0,
0,
0,
0,
0,
0,
0,
0,
0,
0,
0,
0,
0,
0,
0,
0,
0,
0,
0,
0,
0,
0,
0,
0,
0,
0,
0,
0,
0,
0,
0,
0,
0,
0,
0,
0,
0,
0,
0,
0,
0,
0,
0,
0,
0,
0,
0,
0,
0,
0,
0,
0,
0,
0,
0,
0,
0,
0,
0,
0,
0,
0,
0,
0,
0,
0,
0,
0,
0,
0,
0,
0,
0,
0,
0,
0,
0,
0,
0,
0,
0,
0,
0,
0,
0,
0,
0,
0,
0,
0,
0,
0,
0,
0,
0,
0,
0,
0,
0,
0,
0,
0,
0,
0,
0,
0,
0,
0,
0,
0,
0,
0,
0,
0,
0,
0,
0,
0,
0,
0,
0,
0,
0,
0,
0,
0,
0,
0,
0,
0,
0,
0,
0,
0,
0,
0,
0,
0,
0,
0,
0,
0,
0,
0,
0,
0,
0,
0,
0,
0,
0,
0,
0,
0,
0,
0,
0,
0,
0,
0,
0,
0,
0,
0,
0,
0,
0,
0,
0,
0,
0,
0,
0,
0,
0,
0,
0,
0,
0,
0,
0,
0,
0,
0,
0,
0,
0,
0,
0,
0,
0,
0,
0,
0,
0,
0,
0,
0,
0,
0,
0,
0,
0,
0,
0,
0,
0,
0,
0,
0,
0,
0,
0,
0,
0,
0,
0,
0,
0,
0,
0,
0,
0,
0,
0,
0,
0,
0,
0,
0,
0,
0,
0,
0,
0,
0,
0,
0,
0,
0,
0,
0,
0,
0,
0,
0,
0,
0,
0,
0,
0,
0,
0,
0,
0,
0,
0,
0,
0,
0,
0,
0,
0,
0,
0,
0,
0,
0,
0,
0,
0,
0,
0,
0,
0,
0,
0,
0,
0,
0,
0,
0,
0,
0,
0,
0,
0,
0,
0,
0,
0,
0,
0,
0,
0,
0,
0,
0,
0,
0,
0,
0,
0,
0,
0,
0,
0,
0,
0,
0,
0,
0,
0,
0,
0,
0,
0,
0,
0,
0,
0,
0,
0,
0,
0,
0,
0,
0,
0,
0,
0,
0,
0,
0,
0,
0,
0,
0,
0,
0,
0,
0,
0,
0,
0,
0,
0,
0,
0,
0,
0,
0,
0,
0,
0,
0,
0,
0,
0,
0,
0,
0,
0,
0,
0,
0,
0,
0,
0,
0,
0,
0,
0,
0,
0,
0,
0,
0,
0,
0,
#ENDOFDATA   :