File: N132962/Quantification/20 keV/MMM2/SPI MM2 SPI Pollucite[0][4].msa
#FORMAT      : EMSA/MAS Spectral Data File
#VERSION     : 1.0
#TITLE       : SPI MM2 SPI Pollucite[0][all]
#DATE        : 13-MAR-2025
#TIME        : 10:59
#OWNER       : Unknown
#NPOINTS     : 4096
#NCOLUMNS    : 1
#XUNITS      : eV
#YUNITS      : counts
#DATATYPE    : Y
#XPERCHAN    : 9.99778
#OFFSET      : 1.69135
#BEAMKV      : 20
#SIGNALTYPE  : EDS
#ELEVANGLE   : 35
#AZIMANGLE   : 0
#LIVETIME    : 239.858
#REALTIME    : 257.051
#PROBECUR    : 1.02609
#TAUWIND     : 0
#TDEADLYR    : 0
#TACTLYR     : 0.045
#TALWIND     : 0.025
#CHOFFSET    : 0.0
#XLABEL      : Energy (eV)
#YLABEL      : Counts
#XPOSITION   : -4.06911
#YPOSITION   : -1.14413
#ZPOSITION   : 31.0351
#EDSDET      : SD
##SPECIMEN   : SPI MM2 SPI Pollucite[0][all]
##D2STDCMP   : SPI Pollucite,(Li:0.05),(O:35.94),(Na:1.5),(Al:9.06),(Si:22.2),(K:0.05),(Rb:0.17),(Cs:32.3)
##DET_HASH   : 12273538-fd48-a23f-0a19-f1e6fa85caef
##CALIB_HASH : 6abaa72c-aa41-8738-0be9-f592914732f3
##WORKING    : 15.0 mm
##DET_NAME   : EDAX All
##DET_MODE   : MediumLE
#SPECTRUM    :
22,
20,
9,
17,
95,
424,
1231,
3596,
9753,
12959,
7086,
3827,
3928,
4782,
7649,
24715,
93894,
182806,
136068,
38182,
7039,
3333,
3513,
4509,
5118,
4462,
3699,
3352,
3480,
3816,
4522,
4907,
5002,
6370,
9107,
9418,
6153,
4295,
3842,
3950,
4037,
4142,
4344,
4421,
4589,
4891,
5721,
10707,
29053,
55806,
56578,
31162,
12394,
6788,
6394,
13042,
44350,
111932,
152046,
108609,
44684,
16687,
8507,
5150,
3857,
3646,
3860,
3925,
4124,
3701,
3588,
3590,
3669,
3652,
3873,
4146,
3961,
3851,
3778,
3745,
3721,
3618,
3733,
3859,
4177,
4223,
3955,
3812,
3738,
3675,
3580,
3669,
3718,
3682,
3749,
3775,
3703,
3767,
3821,
3622,
3592,
3661,
3523,
3433,
3535,
3561,
3523,
3568,
3595,
3647,
3722,
3618,
3433,
3403,
3449,
3385,
3337,
3430,
3342,
3312,
3199,
3117,
3237,
3339,
3667,
4087,
4830,
4844,
4273,
3553,
3364,
3110,
3021,
3004,
3058,
3123,
3371,
3683,
4355,
6860,
13587,
27048,
42564,
48551,
39296,
23192,
10773,
5020,
3447,
3253,
4079,
7023,
12683,
19992,
24411,
23057,
17441,
12080,
8369,
5955,
4556,
4358,
5343,
7506,
9296,
9324,
7655,
5382,
3458,
2612,
2399,
2392,
2499,
2868,
3712,
4472,
5031,
4652,
3840,
2743,
2314,
2220,
2471,
2729,
3212,
3244,
2938,
2560,
2238,
2106,
2088,
2043,
1953,
1928,
1767,
1821,
1814,
1792,
1858,
1795,
1780,
1859,
1818,
1847,
1795,
1643,
1766,
1789,
1718,
1762,
1663,
1763,
1810,
1908,
1867,
1719,
1687,
1638,
1645,
1581,
1602,
1544,
1587,
1580,
1501,
1568,
1554,
1502,
1526,
1575,
1532,
1474,
1534,
1445,
1467,
1473,
1476,
1476,
1411,
1444,
1398,
1475,
1386,
1428,
1435,
1444,
1367,
1417,
1480,
1445,
1398,
1393,
1343,
1310,
1364,
1315,
1314,
1312,
1283,
1245,
1270,
1241,
1237,
1257,
1164,
1157,
1239,
1200,
1165,
1188,
1246,
1193,
1108,
1157,
1102,
1134,
1166,
1152,
1104,
1079,
1067,
1113,
1081,
1083,
1124,
1097,
1076,
1062,
1079,
1109,
1039,
1070,
1032,
1062,
1023,
999,
1055,
1036,
1057,
999,
957,
956,
966,
982,
925,
944,
903,
984,
925,
892,
921,
945,
916,
898,
876,
903,
858,
910,
917,
883,
848,
870,
850,
882,
823,
844,
868,
824,
836,
858,
823,
787,
781,
787,
784,
756,
765,
744,
720,
765,
808,
815,
761,
746,
736,
749,
703,
694,
732,
695,
702,
689,
741,
693,
640,
713,
681,
646,
673,
658,
640,
700,
675,
630,
618,
673,
613,
608,
634,
631,
680,
604,
579,
609,
601,
572,
576,
598,
571,
598,
530,
550,
563,
543,
559,
502,
532,
521,
527,
530,
532,
518,
491,
495,
509,
528,
486,
497,
474,
493,
481,
500,
474,
510,
431,
462,
428,
459,
448,
456,
463,
436,
406,
397,
408,
441,
422,
448,
422,
415,
427,
361,
393,
388,
409,
373,
376,
391,
348,
390,
367,
338,
350,
345,
385,
357,
357,
372,
330,
331,
325,
333,
336,
329,
300,
346,
351,
322,
298,
305,
336,
278,
314,
340,
297,
300,
336,
264,
259,
265,
289,
281,
267,
278,
242,
282,
243,
290,
258,
245,
238,
263,
261,
220,
242,
237,
231,
222,
250,
223,
252,
236,
230,
220,
215,
224,
206,
204,
186,
186,
195,
195,
193,
174,
182,
192,
184,
198,
191,
207,
157,
173,
157,
151,
152,
179,
168,
169,
172,
184,
155,
151,
167,
140,
152,
129,
145,
145,
143,
156,
141,
142,
119,
120,
136,
134,
130,
127,
118,
113,
111,
138,
125,
124,
102,
130,
101,
111,
115,
108,
109,
115,
107,
123,
103,
110,
86,
102,
81,
121,
98,
104,
94,
91,
83,
96,
91,
84,
90,
80,
88,
75,
82,
76,
88,
78,
72,
72,
50,
65,
77,
63,
73,
66,
67,
62,
61,
61,
53,
75,
67,
53,
54,
46,
42,
38,
53,
44,
50,
42,
46,
63,
43,
45,
48,
39,
41,
47,
41,
44,
36,
41,
32,
36,
36,
45,
37,
39,
29,
36,
41,
26,
32,
26,
35,
24,
26,
17,
20,
25,
33,
32,
26,
16,
16,
27,
22,
20,
21,
16,
20,
25,
17,
18,
23,
18,
16,
16,
14,
10,
17,
17,
14,
12,
9,
8,
10,
15,
11,
11,
7,
7,
12,
5,
7,
5,
5,
5,
4,
2,
1,
7,
1,
0,
0,
3,
0,
1,
1,
0,
1,
0,
4,
0,
0,
3,
0,
1,
1,
1,
0,
0,
0,
0,
1,
0,
0,
3,
0,
2,
0,
0,
1,
0,
0,
0,
0,
0,
0,
0,
0,
0,
0,
1,
0,
0,
0,
0,
0,
0,
1,
2,
0,
0,
1,
0,
1,
0,
0,
0,
0,
0,
0,
0,
0,
0,
1,
0,
0,
0,
0,
1,
1,
1,
0,
0,
0,
1,
1,
0,
0,
0,
1,
0,
0,
0,
0,
0,
0,
0,
0,
0,
1,
0,
0,
0,
0,
0,
0,
0,
0,
0,
0,
0,
0,
0,
0,
0,
0,
0,
2,
0,
0,
0,
1,
0,
0,
0,
0,
0,
0,
0,
0,
0,
1,
0,
0,
0,
0,
0,
1,
0,
0,
0,
0,
0,
0,
0,
0,
0,
0,
0,
0,
0,
0,
0,
0,
0,
0,
0,
0,
1,
0,
0,
0,
1,
0,
0,
0,
0,
0,
0,
1,
1,
0,
0,
0,
0,
0,
0,
0,
1,
0,
0,
0,
0,
0,
1,
0,
0,
0,
0,
0,
0,
0,
0,
0,
0,
0,
0,
0,
0,
0,
0,
0,
0,
0,
0,
1,
0,
0,
0,
0,
0,
0,
0,
0,
0,
0,
0,
0,
1,
0,
0,
0,
0,
0,
0,
0,
0,
0,
0,
0,
0,
0,
0,
1,
0,
0,
0,
0,
0,
0,
0,
0,
0,
1,
0,
0,
0,
0,
0,
0,
0,
0,
0,
0,
0,
0,
0,
0,
0,
0,
0,
0,
0,
0,
0,
0,
0,
0,
0,
0,
0,
0,
0,
0,
0,
0,
0,
0,
0,
0,
0,
0,
0,
0,
0,
0,
0,
0,
0,
0,
0,
0,
0,
0,
0,
0,
0,
0,
1,
0,
0,
0,
0,
0,
0,
0,
0,
0,
0,
0,
0,
0,
0,
0,
0,
0,
0,
0,
0,
0,
0,
0,
0,
0,
0,
0,
0,
0,
0,
0,
0,
0,
0,
0,
0,
0,
0,
0,
0,
0,
0,
0,
0,
0,
0,
0,
0,
0,
0,
0,
0,
0,
0,
0,
0,
0,
0,
0,
0,
0,
0,
0,
0,
0,
0,
1,
0,
0,
0,
0,
0,
0,
0,
0,
0,
0,
0,
0,
0,
0,
0,
0,
0,
0,
0,
0,
0,
0,
0,
0,
0,
0,
0,
0,
0,
0,
0,
0,
0,
0,
0,
0,
0,
0,
0,
0,
0,
0,
0,
0,
0,
0,
0,
0,
0,
0,
0,
0,
0,
0,
0,
0,
0,
0,
0,
0,
0,
0,
0,
0,
0,
0,
0,
0,
0,
0,
0,
0,
0,
0,
0,
0,
0,
0,
0,
0,
0,
0,
0,
0,
0,
0,
0,
0,
0,
0,
0,
0,
0,
0,
0,
0,
0,
0,
0,
0,
0,
0,
0,
0,
0,
0,
0,
0,
0,
0,
0,
0,
0,
0,
0,
0,
0,
0,
0,
0,
0,
0,
0,
0,
0,
0,
0,
0,
0,
0,
0,
0,
0,
0,
0,
0,
0,
0,
0,
0,
0,
0,
0,
0,
0,
0,
0,
0,
0,
0,
0,
0,
0,
0,
0,
0,
0,
0,
0,
0,
0,
0,
0,
0,
0,
0,
0,
0,
0,
0,
0,
0,
0,
0,
0,
0,
0,
0,
0,
0,
0,
0,
0,
0,
0,
0,
0,
0,
0,
0,
0,
0,
0,
0,
0,
0,
0,
0,
0,
0,
0,
0,
0,
0,
0,
0,
0,
0,
0,
0,
0,
0,
0,
0,
0,
0,
0,
0,
0,
0,
0,
0,
0,
0,
0,
0,
0,
0,
0,
0,
0,
0,
0,
0,
0,
0,
0,
0,
0,
0,
0,
0,
0,
0,
0,
0,
0,
0,
0,
0,
0,
0,
0,
0,
0,
0,
0,
0,
0,
0,
0,
0,
0,
0,
0,
0,
0,
0,
0,
0,
0,
0,
0,
0,
0,
0,
0,
0,
0,
0,
0,
0,
0,
0,
0,
0,
0,
0,
0,
0,
0,
0,
0,
0,
0,
0,
0,
0,
0,
0,
0,
0,
0,
0,
0,
0,
0,
0,
0,
0,
0,
0,
0,
0,
0,
0,
0,
0,
0,
0,
0,
0,
0,
0,
0,
0,
0,
0,
0,
0,
0,
0,
0,
0,
0,
0,
0,
0,
0,
0,
0,
0,
0,
0,
0,
0,
0,
#ENDOFDATA   :