File: N132962/Quantification/20 keV/MMM2/SPI MM2 Spessartine[0][4].msa
#FORMAT      : EMSA/MAS Spectral Data File
#VERSION     : 1.0
#TITLE       : SPI MM2 Spessartine[0][all]
#DATE        : 13-MAR-2025
#TIME        : 12:02
#OWNER       : Unknown
#NPOINTS     : 4096
#NCOLUMNS    : 1
#XUNITS      : eV
#YUNITS      : counts
#DATATYPE    : Y
#XPERCHAN    : 9.99778
#OFFSET      : 1.69135
#BEAMKV      : 20
#SIGNALTYPE  : EDS
#ELEVANGLE   : 35
#AZIMANGLE   : 0
#LIVETIME    : 239.907
#REALTIME    : 256.291
#PROBECUR    : 1.02616
#TAUWIND     : 0
#TDEADLYR    : 0
#TACTLYR     : 0.045
#TALWIND     : 0.025
#CHOFFSET    : 0.0
#XLABEL      : Energy (eV)
#YLABEL      : Counts
#XPOSITION   : -5.81961
#YPOSITION   : 1.52155
#ZPOSITION   : 31.03511
#EDSDET      : SD
##SPECIMEN   : SPI MM2 Spessartine[0][all]
##DET_HASH   : 12273538-fd48-a23f-0a19-f1e6fa85caef
##CALIB_HASH : 6abaa72c-aa41-8738-0be9-f592914732f3
##WORKING    : 15.0 mm
##DET_NAME   : EDAX All
##DET_MODE   : MediumLE
#SPECTRUM    :
19,
21,
8,
15,
71,
340,
913,
2941,
8131,
10914,
5976,
3190,
3399,
4415,
7596,
26733,
104130,
203548,
150972,
43163,
13990,
16867,
13871,
6837,
3570,
2416,
2045,
2111,
2297,
2372,
2482,
2604,
2646,
2898,
3154,
3238,
3247,
3313,
3402,
3472,
3642,
3830,
4004,
4143,
4280,
4553,
5688,
12707,
38922,
77613,
79374,
42014,
14959,
6676,
5540,
10800,
36924,
92699,
125541,
89987,
37075,
13694,
7331,
4342,
3282,
3160,
3512,
3561,
3324,
3124,
3147,
3096,
3147,
3161,
3258,
3427,
3372,
3267,
3070,
3034,
3228,
3138,
3106,
3044,
3152,
3115,
3033,
3068,
3041,
3005,
3111,
2977,
2952,
3026,
3005,
2960,
2979,
2926,
2765,
2848,
2871,
2970,
2954,
2782,
2836,
2854,
2794,
2856,
2904,
2711,
2707,
2724,
2728,
2672,
2842,
2782,
2745,
2742,
2637,
2633,
2744,
3153,
3505,
3809,
3603,
3108,
2631,
2383,
2432,
2387,
2420,
2504,
2381,
2485,
2401,
2482,
2502,
2521,
2517,
2509,
2399,
2258,
2110,
2132,
2159,
2079,
2105,
2154,
2151,
2147,
2157,
2120,
2056,
1966,
1973,
1901,
2005,
1890,
1992,
1928,
1854,
1886,
1879,
1868,
1828,
1889,
1865,
1838,
1751,
1828,
1760,
1791,
1736,
1790,
1751,
1756,
1602,
1681,
1682,
1614,
1711,
1695,
1632,
1602,
1668,
1604,
1619,
1636,
1672,
1780,
2022,
2850,
5841,
14251,
30857,
53239,
70530,
69962,
52079,
29446,
13169,
5201,
2418,
1653,
1513,
1430,
1476,
1477,
1501,
1667,
2102,
2827,
4230,
6002,
8107,
10216,
10985,
9928,
7071,
4459,
2388,
1549,
1213,
1093,
1027,
1063,
1114,
1072,
1101,
1072,
1043,
1059,
1089,
1148,
1279,
1273,
1208,
1124,
1113,
1030,
1013,
935,
952,
953,
978,
1031,
1073,
1004,
1051,
1048,
1001,
976,
936,
883,
1008,
936,
962,
905,
925,
930,
888,
894,
866,
827,
828,
854,
845,
810,
815,
851,
849,
773,
805,
785,
835,
837,
788,
803,
759,
748,
773,
759,
761,
766,
712,
740,
717,
712,
755,
656,
774,
713,
691,
679,
644,
709,
690,
718,
693,
628,
675,
647,
667,
706,
672,
626,
641,
637,
591,
639,
610,
624,
616,
547,
581,
590,
624,
587,
600,
612,
628,
543,
580,
555,
550,
569,
523,
553,
574,
560,
605,
574,
529,
581,
567,
555,
510,
510,
517,
481,
480,
479,
466,
469,
484,
528,
513,
491,
457,
485,
436,
447,
483,
440,
469,
441,
426,
467,
474,
412,
431,
451,
421,
427,
437,
440,
423,
425,
421,
414,
418,
407,
421,
375,
399,
387,
412,
387,
396,
371,
384,
373,
369,
353,
348,
356,
335,
369,
366,
321,
332,
353,
349,
388,
324,
354,
337,
361,
329,
325,
333,
321,
281,
320,
288,
300,
327,
306,
268,
284,
284,
285,
302,
265,
268,
293,
284,
270,
250,
278,
271,
258,
250,
234,
239,
227,
250,
265,
222,
220,
237,
224,
230,
230,
229,
227,
228,
230,
221,
203,
224,
211,
225,
176,
182,
229,
220,
214,
198,
206,
201,
198,
182,
184,
180,
154,
172,
167,
188,
169,
156,
184,
175,
166,
153,
168,
152,
181,
170,
155,
157,
180,
150,
151,
152,
186,
138,
123,
141,
146,
131,
148,
140,
137,
153,
116,
116,
135,
120,
133,
117,
136,
118,
124,
126,
106,
149,
102,
134,
110,
109,
115,
115,
115,
104,
111,
105,
108,
100,
81,
86,
86,
92,
85,
93,
88,
75,
84,
93,
77,
86,
110,
82,
81,
78,
87,
78,
75,
61,
70,
81,
74,
95,
80,
52,
80,
74,
69,
64,
55,
79,
56,
67,
68,
60,
59,
50,
52,
69,
61,
63,
58,
67,
55,
72,
61,
47,
37,
42,
58,
49,
31,
46,
42,
49,
52,
43,
38,
37,
39,
39,
47,
51,
43,
38,
40,
36,
42,
33,
39,
24,
44,
27,
31,
41,
29,
33,
31,
25,
27,
25,
29,
38,
29,
23,
22,
22,
20,
26,
20,
25,
21,
23,
20,
26,
31,
20,
20,
21,
17,
18,
24,
12,
21,
17,
16,
14,
17,
14,
12,
13,
11,
14,
12,
16,
13,
8,
9,
10,
11,
16,
10,
6,
11,
13,
10,
11,
7,
8,
13,
7,
10,
6,
5,
9,
5,
6,
6,
5,
6,
6,
6,
6,
3,
5,
0,
4,
6,
0,
1,
0,
0,
4,
0,
4,
0,
0,
0,
1,
1,
0,
0,
0,
0,
0,
0,
1,
0,
0,
0,
0,
0,
0,
0,
2,
2,
0,
0,
0,
1,
0,
0,
0,
1,
0,
0,
1,
1,
0,
1,
0,
0,
0,
0,
0,
0,
0,
1,
0,
0,
0,
0,
0,
1,
0,
0,
1,
0,
2,
0,
0,
0,
0,
0,
1,
1,
0,
1,
1,
1,
1,
0,
1,
0,
0,
0,
0,
0,
0,
0,
0,
0,
0,
0,
0,
0,
0,
0,
0,
1,
0,
0,
0,
0,
0,
0,
0,
0,
0,
0,
0,
0,
0,
0,
0,
0,
0,
0,
0,
0,
0,
0,
0,
0,
0,
0,
0,
0,
0,
0,
0,
0,
0,
0,
0,
0,
0,
0,
0,
0,
0,
0,
0,
0,
0,
0,
0,
0,
0,
0,
0,
0,
0,
0,
0,
0,
0,
0,
0,
1,
0,
0,
0,
0,
0,
0,
1,
0,
0,
0,
1,
0,
0,
0,
0,
1,
0,
0,
0,
0,
1,
0,
1,
0,
0,
0,
0,
0,
0,
0,
0,
0,
0,
0,
0,
0,
0,
0,
0,
0,
0,
0,
0,
0,
0,
0,
0,
0,
0,
0,
0,
0,
0,
0,
0,
0,
0,
0,
0,
0,
0,
0,
0,
0,
0,
0,
0,
0,
0,
0,
0,
0,
0,
0,
0,
0,
0,
0,
0,
0,
0,
0,
0,
0,
0,
0,
0,
0,
0,
0,
0,
0,
0,
0,
0,
0,
0,
0,
0,
0,
0,
0,
0,
0,
0,
0,
0,
0,
0,
0,
0,
0,
0,
0,
0,
0,
0,
0,
0,
0,
0,
0,
0,
0,
0,
0,
0,
0,
0,
0,
0,
0,
0,
0,
0,
0,
0,
0,
0,
0,
0,
0,
0,
0,
0,
0,
0,
0,
0,
0,
0,
0,
0,
0,
0,
0,
0,
2,
0,
0,
0,
0,
0,
0,
0,
0,
0,
0,
0,
0,
0,
0,
0,
0,
0,
0,
0,
0,
0,
0,
0,
0,
0,
0,
0,
0,
0,
0,
0,
0,
0,
0,
0,
0,
0,
0,
0,
0,
0,
0,
0,
0,
0,
0,
0,
0,
0,
0,
0,
0,
0,
0,
0,
0,
0,
0,
0,
0,
0,
0,
0,
0,
0,
0,
0,
0,
0,
0,
0,
0,
0,
0,
0,
0,
0,
0,
0,
0,
0,
0,
0,
0,
0,
0,
0,
0,
0,
0,
0,
0,
0,
0,
0,
0,
0,
0,
0,
0,
0,
0,
0,
0,
0,
0,
0,
0,
0,
0,
0,
0,
0,
0,
0,
0,
0,
0,
0,
0,
0,
0,
0,
0,
0,
0,
0,
0,
0,
0,
0,
0,
0,
0,
0,
0,
0,
0,
0,
0,
0,
0,
0,
0,
0,
0,
0,
0,
0,
0,
0,
0,
0,
0,
0,
0,
0,
0,
0,
0,
0,
0,
0,
0,
0,
0,
0,
0,
0,
0,
0,
0,
0,
0,
0,
0,
0,
0,
0,
0,
0,
0,
0,
0,
0,
0,
0,
0,
0,
0,
0,
0,
0,
0,
0,
0,
0,
0,
0,
0,
0,
0,
0,
0,
0,
0,
0,
0,
0,
0,
0,
0,
0,
0,
0,
0,
0,
0,
0,
0,
0,
0,
0,
0,
0,
0,
0,
0,
0,
0,
0,
0,
0,
0,
0,
0,
0,
0,
0,
0,
0,
0,
0,
0,
0,
0,
0,
0,
0,
0,
0,
0,
0,
0,
0,
0,
0,
0,
0,
0,
0,
0,
0,
0,
0,
0,
0,
0,
0,
0,
0,
0,
0,
0,
0,
0,
0,
0,
0,
0,
0,
0,
0,
0,
0,
0,
0,
0,
0,
0,
0,
0,
0,
0,
0,
0,
0,
0,
0,
0,
0,
0,
0,
0,
0,
0,
0,
0,
0,
0,
0,
0,
0,
0,
0,
0,
0,
0,
0,
0,
0,
0,
0,
0,
0,
0,
0,
0,
0,
0,
0,
0,
0,
0,
0,
0,
0,
0,
0,
0,
0,
0,
0,
0,
0,
0,
0,
0,
0,
0,
0,
0,
0,
0,
0,
0,
0,
0,
0,
0,
0,
0,
0,
0,
0,
0,
0,
0,
0,
0,
0,
0,
0,
0,
0,
0,
0,
0,
0,
0,
0,
0,
0,
0,
0,
0,
0,
0,
0,
0,
0,
0,
0,
0,
0,
0,
0,
0,
#ENDOFDATA   :