File: N132962/Quantification/20 keV/MMM2/SPI MM2 SPI Obsidian[4][4].msa
#FORMAT      : EMSA/MAS Spectral Data File
#VERSION     : 1.0
#TITLE       : SPI MM2 SPI Obsidian[4][all]
#DATE        : 13-MAR-2025
#TIME        : 09:59
#OWNER       : Unknown
#NPOINTS     : 4096
#NCOLUMNS    : 1
#XUNITS      : eV
#YUNITS      : counts
#DATATYPE    : Y
#XPERCHAN    : 9.99778
#OFFSET      : 1.69135
#BEAMKV      : 20
#SIGNALTYPE  : EDS
#ELEVANGLE   : 35
#AZIMANGLE   : 0
#LIVETIME    : 239.863
#REALTIME    : 256.299
#PROBECUR    : 1.02627
#TAUWIND     : 0
#TDEADLYR    : 0
#TACTLYR     : 0.045
#TALWIND     : 0.025
#CHOFFSET    : 0.0
#XLABEL      : Energy (eV)
#YLABEL      : Counts
#XPOSITION   : 0.05713
#YPOSITION   : -3.01833
#ZPOSITION   : 31.03509
#EDSDET      : SD
##SPECIMEN   : SPI MM2 SPI Obsidian[4][all]
##D2STDCMP   : SPI Obsidian,(O:49.01),(Na:2.77),(Mg:0.06),(Al:6.9),(Si:35.66),(K:3.58),(Ca:0.63),(Ti:0.06),(Mn:0.04),(Fe:0.59),5.0
##DET_HASH   : 12273538-fd48-a23f-0a19-f1e6fa85caef
##CALIB_HASH : 6abaa72c-aa41-8738-0be9-f592914732f3
##WORKING    : 15.0 mm
##DET_NAME   : EDAX All
##DET_MODE   : MediumLE
#SPECTRUM    :
30,
26,
6,
19,
70,
292,
856,
2758,
7527,
9876,
5217,
2506,
2493,
3197,
5650,
21660,
88079,
173684,
126812,
33267,
4559,
1880,
2069,
2560,
2650,
2385,
2206,
2431,
2725,
2760,
2940,
3147,
4135,
8569,
17114,
18764,
10620,
5112,
3720,
3724,
3979,
4205,
4644,
4625,
4586,
4631,
5610,
10998,
31165,
60942,
62022,
34202,
13388,
7499,
7322,
21374,
88279,
230036,
314753,
221259,
88087,
28921,
12139,
5386,
2962,
2332,
2325,
2300,
2339,
2272,
2111,
2282,
2293,
2477,
2722,
2948,
2873,
2602,
2323,
2298,
2276,
2300,
2214,
2161,
2223,
2206,
2216,
2249,
2283,
2168,
2282,
2236,
2253,
2281,
2229,
2232,
2188,
2081,
2151,
2133,
2255,
2100,
2146,
2154,
2139,
2281,
2583,
3578,
6275,
11809,
17928,
17791,
12126,
6264,
3252,
2685,
2720,
2959,
3209,
3847,
4210,
4329,
4441,
4534,
3993,
3035,
2133,
1878,
1705,
1809,
1774,
1765,
1757,
1854,
1948,
1958,
1753,
1683,
1581,
1611,
1600,
1563,
1609,
1561,
1440,
1475,
1545,
1603,
1678,
1788,
1788,
1662,
1641,
1482,
1372,
1486,
1460,
1465,
1411,
1336,
1469,
1416,
1434,
1399,
1418,
1291,
1375,
1298,
1365,
1326,
1305,
1249,
1279,
1223,
1269,
1263,
1212,
1215,
1211,
1207,
1165,
1217,
1163,
1129,
1240,
1076,
1140,
1094,
1117,
1087,
1053,
1074,
1126,
1028,
1060,
1130,
1094,
1147,
1055,
1023,
1066,
1001,
1011,
948,
960,
960,
916,
948,
987,
1018,
1242,
1555,
1921,
2159,
2034,
1726,
1340,
1062,
943,
935,
886,
898,
893,
905,
813,
880,
837,
859,
733,
809,
814,
818,
901,
861,
887,
908,
878,
839,
839,
767,
782,
783,
725,
695,
740,
739,
754,
697,
769,
701,
755,
730,
705,
697,
681,
663,
652,
630,
627,
669,
665,
640,
670,
633,
639,
598,
619,
623,
636,
606,
621,
608,
613,
575,
604,
570,
601,
578,
542,
570,
528,
542,
572,
582,
536,
600,
498,
518,
543,
503,
492,
479,
516,
500,
522,
511,
556,
485,
449,
501,
438,
490,
487,
468,
441,
471,
471,
487,
441,
488,
463,
432,
433,
452,
446,
403,
454,
402,
399,
444,
415,
421,
407,
402,
427,
381,
395,
371,
400,
390,
422,
365,
363,
358,
390,
386,
379,
374,
378,
357,
344,
346,
310,
346,
345,
354,
343,
346,
337,
322,
313,
298,
325,
304,
326,
296,
359,
329,
300,
277,
288,
299,
283,
280,
297,
318,
281,
292,
326,
265,
274,
279,
263,
281,
271,
267,
263,
243,
240,
241,
246,
271,
241,
257,
248,
254,
240,
235,
236,
218,
221,
239,
230,
261,
215,
234,
233,
211,
242,
219,
205,
204,
232,
198,
223,
207,
184,
205,
196,
206,
230,
190,
187,
210,
206,
195,
181,
157,
194,
178,
186,
169,
150,
167,
165,
166,
147,
156,
129,
170,
178,
143,
139,
153,
149,
149,
146,
157,
146,
135,
151,
134,
139,
151,
147,
121,
138,
127,
125,
126,
131,
136,
133,
117,
146,
125,
122,
119,
123,
102,
112,
110,
133,
119,
103,
107,
88,
119,
99,
120,
107,
97,
107,
109,
107,
89,
101,
109,
95,
98,
91,
96,
87,
75,
93,
83,
82,
73,
76,
104,
87,
82,
76,
81,
73,
70,
79,
70,
81,
73,
66,
76,
87,
63,
81,
70,
59,
59,
59,
78,
63,
49,
58,
67,
70,
53,
57,
64,
71,
70,
52,
58,
48,
54,
53,
49,
54,
53,
46,
51,
48,
51,
44,
44,
43,
39,
33,
41,
41,
46,
43,
35,
45,
44,
32,
40,
30,
28,
38,
37,
31,
40,
33,
38,
25,
38,
33,
38,
22,
42,
33,
37,
35,
30,
27,
28,
29,
20,
22,
20,
27,
32,
25,
33,
22,
30,
26,
22,
13,
23,
23,
17,
26,
10,
24,
15,
19,
21,
21,
24,
17,
18,
8,
19,
10,
16,
15,
15,
12,
9,
18,
16,
21,
15,
13,
13,
11,
13,
7,
16,
7,
17,
10,
10,
12,
8,
5,
8,
10,
10,
7,
4,
6,
4,
7,
11,
7,
8,
11,
8,
8,
4,
3,
8,
4,
7,
5,
5,
2,
5,
5,
4,
1,
0,
6,
1,
3,
4,
5,
0,
1,
6,
4,
1,
1,
3,
0,
0,
0,
0,
1,
0,
3,
1,
0,
0,
0,
1,
0,
0,
0,
1,
0,
0,
0,
0,
0,
0,
0,
1,
0,
0,
0,
0,
0,
0,
0,
0,
0,
0,
0,
0,
0,
0,
0,
0,
0,
0,
0,
1,
0,
0,
0,
1,
0,
0,
0,
0,
0,
0,
0,
0,
0,
0,
0,
0,
0,
0,
0,
0,
0,
0,
0,
1,
0,
0,
0,
0,
0,
0,
0,
0,
0,
0,
0,
0,
0,
1,
0,
0,
0,
0,
0,
0,
0,
0,
0,
0,
0,
0,
0,
0,
0,
0,
0,
0,
0,
0,
0,
0,
0,
0,
0,
0,
0,
0,
0,
1,
0,
0,
0,
0,
0,
0,
0,
0,
0,
0,
0,
0,
0,
0,
0,
0,
0,
0,
0,
0,
0,
0,
0,
0,
0,
0,
0,
0,
0,
0,
0,
0,
0,
0,
0,
0,
0,
0,
0,
0,
0,
0,
0,
0,
0,
0,
0,
0,
0,
0,
0,
0,
0,
0,
0,
0,
0,
0,
0,
0,
0,
0,
0,
0,
0,
0,
0,
0,
0,
0,
0,
0,
0,
0,
0,
0,
0,
0,
0,
0,
0,
0,
0,
0,
0,
0,
0,
1,
0,
1,
0,
0,
0,
0,
0,
0,
0,
0,
0,
0,
0,
0,
0,
0,
1,
0,
0,
0,
0,
0,
0,
0,
0,
0,
0,
0,
0,
0,
0,
0,
0,
0,
0,
0,
0,
0,
0,
0,
0,
0,
0,
0,
0,
0,
0,
0,
0,
0,
0,
0,
0,
0,
0,
0,
0,
0,
0,
0,
0,
0,
0,
0,
0,
0,
0,
0,
0,
0,
0,
0,
0,
0,
0,
0,
0,
0,
0,
0,
0,
0,
0,
0,
0,
0,
0,
0,
0,
0,
0,
0,
0,
0,
0,
0,
0,
0,
0,
0,
0,
0,
0,
0,
0,
0,
0,
0,
0,
0,
0,
0,
0,
0,
0,
0,
0,
0,
0,
0,
0,
0,
0,
0,
0,
0,
0,
0,
0,
0,
0,
0,
0,
0,
0,
0,
0,
0,
0,
0,
0,
0,
0,
0,
0,
0,
0,
0,
0,
0,
0,
0,
0,
0,
0,
0,
0,
0,
0,
0,
0,
0,
0,
0,
0,
0,
0,
0,
0,
0,
0,
0,
0,
0,
0,
0,
0,
0,
0,
0,
0,
0,
0,
0,
0,
0,
0,
0,
0,
0,
0,
0,
0,
0,
0,
0,
0,
0,
0,
0,
0,
0,
0,
0,
0,
0,
0,
0,
0,
0,
0,
0,
0,
0,
0,
0,
0,
0,
0,
0,
0,
0,
0,
0,
0,
0,
0,
0,
0,
0,
0,
0,
0,
0,
0,
0,
0,
0,
0,
0,
0,
0,
0,
0,
0,
0,
0,
0,
0,
0,
0,
0,
0,
0,
0,
0,
0,
0,
0,
0,
0,
0,
0,
0,
0,
0,
0,
0,
0,
0,
0,
0,
0,
0,
0,
0,
0,
0,
0,
0,
0,
0,
0,
0,
0,
0,
0,
0,
0,
0,
0,
0,
0,
0,
0,
0,
0,
0,
0,
0,
0,
0,
0,
0,
0,
0,
0,
0,
0,
0,
0,
0,
0,
0,
0,
0,
0,
0,
0,
0,
0,
0,
0,
0,
0,
0,
0,
0,
0,
0,
0,
0,
0,
0,
0,
0,
0,
0,
0,
0,
0,
0,
0,
0,
0,
0,
0,
0,
0,
0,
0,
0,
0,
0,
0,
0,
0,
0,
0,
0,
0,
0,
0,
0,
0,
0,
0,
0,
0,
0,
0,
0,
0,
0,
0,
0,
0,
0,
0,
0,
0,
0,
0,
0,
0,
0,
0,
0,
0,
0,
0,
0,
0,
0,
0,
0,
0,
0,
0,
0,
0,
0,
0,
0,
0,
0,
0,
0,
0,
0,
0,
0,
0,
0,
0,
0,
0,
0,
0,
0,
0,
0,
0,
0,
0,
0,
0,
0,
0,
0,
0,
0,
0,
0,
0,
0,
0,
0,
0,
0,
0,
0,
0,
0,
0,
0,
0,
0,
0,
0,
0,
0,
0,
0,
0,
0,
0,
0,
0,
0,
0,
0,
0,
0,
0,
0,
0,
0,
0,
0,
0,
0,
0,
0,
0,
0,
0,
0,
0,
0,
0,
0,
0,
0,
0,
0,
0,
0,
0,
0,
0,
0,
0,
0,
0,
0,
0,
0,
0,
0,
0,
0,
0,
0,
0,
0,
0,
0,
0,
0,
#ENDOFDATA   :