File: N132962/Quantification/20 keV/MMM2/SPI MM2 Wollastonite[3][4].msa
#FORMAT      : EMSA/MAS Spectral Data File
#VERSION     : 1.0
#TITLE       : SPI MM2 Wollastonite[3][all]
#DATE        : 13-MAR-2025
#TIME        : 13:57
#OWNER       : Unknown
#NPOINTS     : 4096
#NCOLUMNS    : 1
#XUNITS      : eV
#YUNITS      : counts
#DATATYPE    : Y
#XPERCHAN    : 9.99778
#OFFSET      : 1.69135
#BEAMKV      : 20
#SIGNALTYPE  : EDS
#ELEVANGLE   : 35
#AZIMANGLE   : 0
#LIVETIME    : 239.866
#REALTIME    : 256.167
#PROBECUR    : 1.0264
#TAUWIND     : 0
#TDEADLYR    : 0
#TACTLYR     : 0.045
#TALWIND     : 0.025
#CHOFFSET    : 0.0
#XLABEL      : Energy (eV)
#YLABEL      : Counts
#XPOSITION   : -0.03743
#YPOSITION   : 6.17366
#ZPOSITION   : 31.03511
#EDSDET      : SD
##SPECIMEN   : SPI MM2 Wollastonite[3][all]
##DET_HASH   : 12273538-fd48-a23f-0a19-f1e6fa85caef
##CALIB_HASH : 6abaa72c-aa41-8738-0be9-f592914732f3
##WORKING    : 15.0 mm
##DET_NAME   : EDAX All
##DET_MODE   : MediumLE
#SPECTRUM    :
26,
28,
11,
17,
74,
292,
917,
3015,
9570,
14422,
10412,
5445,
3124,
2231,
3110,
9320,
35850,
70009,
51657,
14049,
2644,
1673,
1901,
1995,
2119,
2288,
2333,
2501,
2726,
2670,
2897,
2976,
3042,
3214,
3386,
3395,
3526,
3693,
3824,
3915,
4005,
4101,
4368,
4403,
4465,
4562,
4769,
4823,
5094,
5443,
5650,
5507,
5752,
5694,
7017,
17192,
66009,
168285,
229174,
162487,
65477,
22834,
10832,
6271,
5051,
4824,
4269,
3641,
3251,
3103,
3217,
3237,
3111,
3289,
3377,
3512,
3415,
3366,
3224,
3066,
3099,
3001,
3070,
2961,
3037,
3154,
2968,
3035,
2980,
2996,
3026,
2859,
2923,
2829,
2886,
2800,
2822,
2894,
2832,
2818,
2847,
2916,
2882,
2728,
2792,
2836,
2829,
2842,
2656,
2720,
2735,
2665,
2588,
2639,
2720,
3010,
3278,
3806,
4891,
9508,
26144,
67738,
127265,
160336,
135208,
76190,
29556,
9186,
3843,
3128,
4184,
6995,
12765,
19487,
21251,
16892,
9891,
4698,
2517,
1911,
1886,
1729,
1781,
1659,
1665,
1600,
1706,
1604,
1577,
1609,
1615,
1604,
1597,
1622,
1586,
1558,
1527,
1601,
1552,
1550,
1511,
1582,
1501,
1553,
1508,
1455,
1507,
1534,
1556,
1432,
1477,
1388,
1455,
1355,
1368,
1396,
1409,
1459,
1477,
1580,
1743,
1795,
1712,
1497,
1382,
1398,
1359,
1255,
1341,
1306,
1334,
1332,
1291,
1301,
1268,
1278,
1308,
1276,
1257,
1184,
1189,
1184,
1150,
1101,
1150,
1196,
1200,
1093,
1153,
1060,
1074,
1210,
1203,
1225,
1271,
1135,
1156,
1120,
1088,
1111,
1028,
1037,
1073,
1072,
1021,
988,
997,
1008,
1025,
960,
995,
943,
1008,
946,
991,
1014,
982,
932,
969,
937,
943,
976,
933,
980,
958,
982,
1013,
1044,
979,
953,
892,
893,
857,
883,
802,
838,
852,
833,
773,
797,
779,
784,
834,
770,
779,
784,
781,
752,
769,
766,
729,
776,
730,
746,
749,
720,
713,
730,
690,
720,
669,
719,
690,
682,
663,
618,
658,
647,
708,
653,
662,
641,
633,
653,
632,
624,
634,
612,
634,
596,
616,
598,
607,
597,
591,
610,
594,
571,
609,
573,
574,
560,
570,
596,
539,
518,
567,
529,
560,
507,
524,
488,
557,
521,
518,
502,
509,
463,
540,
494,
520,
500,
479,
464,
464,
476,
485,
463,
478,
456,
497,
438,
418,
448,
422,
423,
434,
400,
436,
437,
458,
431,
383,
376,
412,
413,
411,
395,
407,
399,
361,
434,
366,
367,
392,
338,
376,
367,
372,
354,
406,
370,
338,
361,
358,
363,
383,
335,
332,
332,
315,
336,
353,
341,
342,
320,
303,
306,
322,
315,
278,
296,
295,
315,
303,
290,
318,
294,
290,
278,
283,
292,
285,
278,
289,
238,
276,
263,
266,
263,
265,
237,
242,
266,
243,
216,
226,
263,
236,
212,
230,
254,
224,
233,
214,
224,
222,
226,
189,
165,
227,
221,
205,
201,
199,
194,
199,
215,
212,
198,
199,
182,
180,
175,
192,
173,
172,
182,
157,
215,
180,
170,
180,
146,
157,
156,
130,
143,
160,
145,
150,
144,
161,
132,
152,
128,
135,
126,
128,
130,
114,
127,
143,
135,
141,
142,
131,
123,
103,
142,
132,
126,
120,
121,
109,
132,
132,
118,
125,
111,
112,
108,
117,
115,
129,
100,
88,
123,
101,
114,
89,
96,
82,
96,
85,
79,
81,
79,
77,
90,
79,
86,
83,
76,
99,
91,
62,
82,
81,
74,
74,
74,
69,
79,
86,
78,
62,
63,
73,
64,
71,
58,
61,
70,
56,
56,
71,
50,
64,
55,
58,
62,
52,
52,
49,
54,
59,
49,
35,
50,
53,
59,
50,
45,
53,
48,
44,
42,
41,
42,
56,
33,
42,
47,
31,
36,
34,
43,
48,
43,
32,
31,
33,
37,
30,
28,
27,
37,
26,
35,
32,
30,
26,
21,
35,
26,
23,
25,
19,
30,
31,
26,
22,
21,
19,
23,
22,
21,
23,
16,
16,
20,
25,
24,
14,
19,
22,
13,
12,
14,
28,
13,
16,
18,
20,
20,
15,
19,
19,
12,
9,
16,
19,
19,
10,
8,
11,
11,
5,
12,
10,
10,
5,
11,
6,
7,
9,
13,
8,
8,
6,
8,
4,
7,
9,
5,
5,
9,
4,
3,
11,
7,
3,
1,
2,
5,
2,
3,
1,
0,
0,
1,
1,
0,
1,
3,
0,
0,
0,
0,
0,
0,
0,
0,
0,
1,
0,
0,
0,
0,
0,
0,
0,
0,
0,
0,
0,
0,
0,
0,
0,
0,
0,
0,
1,
0,
1,
0,
0,
0,
1,
0,
0,
0,
0,
0,
1,
1,
0,
0,
0,
0,
0,
0,
0,
0,
0,
0,
0,
0,
0,
0,
0,
0,
0,
0,
0,
0,
0,
0,
0,
0,
0,
0,
0,
0,
0,
0,
0,
0,
1,
0,
1,
0,
1,
0,
0,
0,
1,
0,
0,
0,
0,
0,
0,
0,
0,
0,
0,
1,
0,
0,
0,
0,
0,
0,
0,
0,
0,
0,
0,
0,
1,
0,
0,
0,
0,
0,
1,
0,
0,
0,
0,
0,
0,
1,
0,
0,
0,
0,
0,
0,
0,
0,
0,
0,
0,
0,
0,
1,
1,
0,
1,
0,
0,
0,
0,
0,
0,
0,
0,
0,
0,
0,
0,
0,
0,
0,
0,
0,
0,
0,
0,
0,
0,
0,
0,
0,
0,
0,
0,
0,
0,
0,
0,
0,
0,
0,
1,
0,
0,
0,
0,
0,
0,
0,
0,
0,
0,
0,
0,
0,
0,
0,
0,
0,
0,
0,
0,
0,
0,
0,
0,
0,
0,
0,
0,
0,
0,
0,
1,
0,
0,
0,
0,
0,
0,
0,
0,
0,
0,
0,
0,
0,
0,
0,
1,
0,
0,
0,
0,
0,
0,
0,
0,
0,
0,
0,
0,
0,
0,
0,
0,
0,
0,
0,
0,
0,
0,
0,
0,
0,
0,
0,
0,
0,
0,
0,
0,
0,
0,
0,
0,
0,
0,
0,
0,
0,
0,
0,
0,
0,
0,
0,
0,
0,
0,
1,
0,
0,
0,
0,
0,
0,
0,
0,
0,
0,
0,
0,
0,
0,
0,
0,
0,
0,
0,
0,
0,
0,
0,
0,
0,
0,
0,
0,
0,
0,
0,
0,
0,
0,
0,
0,
0,
0,
0,
0,
1,
0,
0,
0,
0,
0,
0,
0,
0,
0,
0,
0,
0,
0,
0,
0,
0,
0,
0,
0,
0,
0,
0,
0,
0,
0,
0,
0,
0,
0,
0,
0,
0,
0,
0,
0,
0,
0,
0,
0,
0,
0,
0,
0,
0,
0,
0,
0,
0,
0,
0,
0,
0,
0,
0,
0,
0,
0,
0,
0,
0,
0,
0,
0,
0,
0,
0,
0,
0,
0,
0,
0,
0,
0,
0,
0,
0,
0,
0,
0,
0,
0,
0,
0,
0,
0,
0,
0,
0,
0,
0,
0,
0,
0,
0,
0,
0,
0,
0,
0,
0,
0,
0,
0,
0,
0,
0,
0,
0,
0,
0,
0,
0,
0,
0,
0,
0,
0,
0,
0,
0,
0,
0,
0,
0,
0,
0,
0,
0,
0,
0,
0,
0,
0,
0,
0,
0,
0,
0,
0,
0,
0,
0,
0,
0,
0,
0,
0,
0,
0,
0,
0,
0,
0,
0,
0,
0,
0,
0,
0,
0,
0,
0,
0,
0,
0,
0,
0,
0,
0,
0,
0,
0,
0,
0,
0,
0,
0,
0,
0,
0,
0,
0,
0,
0,
0,
0,
0,
0,
0,
0,
0,
0,
0,
0,
0,
0,
0,
0,
0,
0,
0,
0,
0,
0,
0,
0,
0,
0,
0,
0,
0,
0,
0,
0,
0,
0,
0,
0,
0,
0,
0,
0,
0,
0,
0,
0,
0,
0,
0,
0,
0,
0,
0,
0,
0,
0,
0,
0,
0,
0,
0,
0,
0,
0,
0,
0,
0,
0,
0,
0,
0,
0,
0,
0,
0,
0,
0,
0,
0,
0,
0,
0,
0,
0,
0,
0,
0,
0,
0,
0,
0,
0,
0,
0,
0,
0,
0,
0,
0,
0,
0,
0,
0,
0,
0,
0,
0,
0,
0,
0,
0,
0,
0,
0,
0,
0,
0,
0,
0,
0,
0,
0,
0,
0,
0,
0,
0,
0,
0,
0,
0,
0,
0,
0,
0,
0,
0,
0,
0,
0,
0,
0,
0,
0,
0,
0,
0,
0,
0,
0,
0,
0,
0,
0,
0,
0,
0,
0,
0,
0,
0,
0,
0,
0,
0,
0,
0,
0,
0,
0,
0,
0,
0,
0,
0,
0,
0,
0,
0,
0,
0,
0,
0,
0,
0,
0,
0,
0,
0,
0,
0,
0,
0,
0,
0,
0,
0,
0,
0,
0,
0,
0,
0,
0,
0,
0,
0,
#ENDOFDATA   :