File: N132962/Quantification/20 keV/MMM2/SPI MM2 Spessartine[6][4].msa
#FORMAT      : EMSA/MAS Spectral Data File
#VERSION     : 1.0
#TITLE       : SPI MM2 Spessartine[6][all]
#DATE        : 13-MAR-2025
#TIME        : 12:09
#OWNER       : Unknown
#NPOINTS     : 4096
#NCOLUMNS    : 1
#XUNITS      : eV
#YUNITS      : counts
#DATATYPE    : Y
#XPERCHAN    : 9.99778
#OFFSET      : 1.69135
#BEAMKV      : 20
#SIGNALTYPE  : EDS
#ELEVANGLE   : 35
#AZIMANGLE   : 0
#LIVETIME    : 239.941
#REALTIME    : 256.357
#PROBECUR    : 1.02616
#TAUWIND     : 0
#TDEADLYR    : 0
#TACTLYR     : 0.045
#TALWIND     : 0.025
#CHOFFSET    : 0.0
#XLABEL      : Energy (eV)
#YLABEL      : Counts
#XPOSITION   : -5.73194
#YPOSITION   : 1.54127
#ZPOSITION   : 31.03511
#EDSDET      : SD
##SPECIMEN   : SPI MM2 Spessartine[6][all]
##DET_HASH   : 12273538-fd48-a23f-0a19-f1e6fa85caef
##CALIB_HASH : 6abaa72c-aa41-8738-0be9-f592914732f3
##WORKING    : 15.0 mm
##DET_NAME   : EDAX All
##DET_MODE   : MediumLE
#SPECTRUM    :
20,
28,
7,
16,
89,
322,
960,
2958,
8337,
11106,
6048,
3138,
3360,
4420,
7510,
26537,
104565,
203332,
151452,
43204,
14351,
16871,
13776,
6662,
3609,
2364,
2000,
2152,
2279,
2408,
2392,
2508,
2680,
2884,
3197,
3187,
3206,
3226,
3457,
3581,
3656,
3731,
3812,
4297,
4363,
4651,
5714,
12840,
38843,
77435,
79102,
41461,
14933,
6669,
5634,
10799,
37313,
93348,
125630,
89530,
37006,
13764,
7273,
4368,
3344,
3201,
3341,
3458,
3445,
3144,
3156,
3126,
3103,
3266,
3245,
3494,
3431,
3282,
3206,
3121,
3084,
3074,
3016,
3090,
3091,
3141,
3169,
3042,
3034,
3143,
3032,
3000,
2938,
2975,
2961,
2991,
2883,
2986,
2920,
3030,
2853,
2837,
2942,
2960,
2773,
2837,
2839,
2861,
2788,
2838,
2790,
2691,
2587,
2729,
2807,
2849,
2871,
2654,
2675,
2612,
2782,
3171,
3536,
3792,
3599,
3088,
2623,
2347,
2362,
2363,
2417,
2441,
2385,
2454,
2454,
2377,
2363,
2521,
2372,
2457,
2427,
2239,
2121,
2126,
2105,
2125,
2204,
2128,
2143,
2043,
2066,
2139,
2085,
2012,
1913,
1965,
2006,
2005,
1921,
1938,
1893,
1959,
1911,
1838,
1895,
1791,
1847,
1810,
1860,
1795,
1737,
1773,
1753,
1800,
1620,
1719,
1658,
1736,
1640,
1699,
1682,
1664,
1651,
1609,
1652,
1655,
1650,
1673,
1745,
1824,
2067,
2873,
5798,
14238,
31102,
53647,
70688,
69777,
52193,
29737,
13090,
5260,
2367,
1611,
1489,
1552,
1427,
1445,
1523,
1699,
2043,
2882,
4089,
5854,
8207,
10303,
11027,
9774,
7231,
4425,
2510,
1462,
1233,
1088,
1091,
1089,
1062,
1111,
1073,
1081,
1046,
1030,
1081,
1165,
1312,
1251,
1320,
1156,
1114,
1089,
942,
1042,
999,
933,
1019,
982,
1009,
990,
1018,
1049,
970,
952,
1029,
1001,
971,
976,
973,
927,
884,
869,
855,
851,
872,
841,
847,
835,
839,
812,
801,
874,
816,
810,
768,
861,
854,
855,
811,
802,
769,
751,
728,
762,
743,
723,
741,
788,
737,
699,
752,
663,
761,
722,
725,
692,
696,
696,
663,
662,
603,
704,
672,
631,
682,
713,
622,
641,
592,
630,
645,
650,
652,
649,
579,
608,
640,
597,
632,
611,
613,
558,
582,
588,
632,
546,
535,
595,
569,
541,
616,
568,
576,
541,
549,
536,
497,
498,
464,
527,
523,
471,
530,
503,
500,
504,
486,
486,
459,
514,
469,
493,
437,
442,
458,
460,
450,
455,
432,
466,
460,
448,
443,
443,
424,
419,
403,
408,
414,
403,
432,
381,
401,
396,
422,
411,
378,
407,
373,
399,
394,
348,
369,
371,
368,
371,
363,
375,
388,
354,
354,
358,
357,
360,
344,
343,
331,
323,
311,
325,
308,
313,
301,
325,
297,
300,
274,
291,
288,
311,
296,
274,
311,
306,
290,
309,
257,
305,
279,
269,
252,
265,
231,
230,
249,
237,
265,
244,
240,
236,
249,
243,
235,
239,
248,
245,
244,
209,
229,
220,
211,
209,
221,
208,
192,
211,
206,
198,
199,
205,
199,
198,
195,
196,
186,
207,
179,
176,
180,
165,
174,
159,
175,
177,
166,
156,
180,
145,
138,
135,
154,
157,
151,
157,
162,
149,
150,
163,
133,
150,
144,
157,
142,
128,
142,
114,
135,
111,
115,
131,
134,
140,
114,
133,
141,
127,
124,
131,
120,
120,
130,
107,
119,
114,
94,
124,
128,
120,
113,
111,
118,
106,
85,
95,
96,
104,
116,
102,
91,
83,
96,
86,
76,
82,
85,
83,
81,
75,
69,
82,
72,
66,
66,
78,
67,
82,
69,
62,
67,
69,
64,
60,
83,
56,
69,
48,
76,
64,
55,
63,
60,
62,
55,
62,
67,
51,
62,
46,
64,
38,
48,
54,
53,
49,
35,
55,
41,
48,
39,
46,
42,
36,
32,
42,
37,
48,
37,
41,
35,
52,
43,
33,
42,
45,
34,
29,
23,
27,
35,
37,
23,
25,
26,
27,
25,
28,
28,
24,
25,
20,
18,
34,
23,
36,
21,
18,
11,
22,
28,
18,
12,
13,
20,
18,
10,
21,
16,
23,
22,
15,
10,
19,
12,
10,
8,
13,
8,
11,
8,
6,
12,
12,
8,
15,
11,
9,
12,
10,
10,
5,
5,
10,
5,
6,
6,
11,
5,
3,
2,
9,
2,
6,
6,
6,
4,
6,
3,
3,
8,
5,
3,
1,
2,
2,
2,
5,
1,
2,
1,
1,
1,
0,
1,
0,
0,
0,
0,
0,
0,
1,
0,
2,
0,
1,
1,
0,
0,
0,
0,
1,
0,
0,
0,
0,
0,
0,
1,
0,
0,
0,
1,
0,
0,
1,
0,
0,
0,
0,
0,
1,
0,
0,
0,
0,
0,
0,
0,
0,
0,
0,
0,
0,
0,
0,
2,
0,
0,
0,
0,
0,
0,
0,
0,
0,
0,
1,
0,
0,
0,
0,
0,
0,
0,
0,
0,
0,
1,
0,
0,
0,
0,
0,
0,
0,
0,
0,
0,
0,
0,
0,
0,
1,
1,
0,
0,
0,
0,
0,
0,
0,
0,
0,
0,
0,
0,
0,
0,
0,
0,
0,
0,
1,
0,
0,
0,
0,
0,
0,
0,
0,
0,
0,
0,
0,
0,
0,
1,
0,
0,
0,
0,
0,
0,
0,
0,
0,
0,
0,
0,
0,
0,
0,
0,
0,
0,
0,
0,
1,
0,
0,
0,
1,
0,
0,
1,
0,
0,
1,
0,
0,
0,
0,
0,
0,
0,
0,
0,
0,
0,
0,
0,
0,
0,
0,
0,
0,
0,
0,
0,
0,
0,
0,
0,
0,
0,
0,
0,
0,
0,
0,
0,
0,
0,
0,
0,
0,
0,
0,
0,
0,
0,
0,
0,
0,
0,
0,
0,
0,
0,
0,
0,
0,
0,
0,
0,
0,
0,
0,
0,
0,
0,
0,
0,
0,
0,
0,
0,
1,
0,
0,
0,
0,
0,
0,
0,
0,
0,
0,
0,
0,
0,
0,
0,
0,
0,
0,
0,
0,
0,
0,
0,
0,
0,
0,
0,
0,
0,
0,
0,
0,
0,
0,
0,
0,
0,
0,
0,
0,
0,
0,
0,
0,
0,
0,
0,
0,
0,
0,
0,
0,
0,
0,
0,
0,
0,
0,
0,
0,
0,
0,
0,
0,
0,
0,
0,
0,
0,
0,
0,
0,
0,
0,
0,
0,
0,
0,
0,
0,
0,
0,
0,
0,
0,
0,
0,
0,
0,
0,
0,
0,
0,
0,
0,
0,
0,
0,
0,
0,
0,
0,
0,
0,
0,
0,
0,
0,
0,
0,
0,
0,
0,
0,
0,
0,
0,
0,
0,
0,
0,
0,
0,
0,
0,
0,
0,
0,
0,
0,
0,
0,
0,
0,
0,
0,
0,
0,
0,
0,
0,
0,
0,
0,
0,
0,
0,
0,
0,
0,
0,
0,
0,
0,
0,
0,
0,
0,
0,
0,
0,
0,
0,
0,
0,
0,
0,
0,
0,
0,
0,
0,
0,
0,
0,
0,
0,
0,
0,
0,
0,
0,
0,
0,
0,
0,
0,
0,
0,
0,
0,
0,
0,
0,
0,
0,
0,
0,
0,
0,
0,
0,
0,
0,
0,
0,
0,
0,
0,
0,
0,
0,
0,
0,
0,
0,
0,
0,
0,
0,
0,
0,
0,
0,
0,
0,
0,
0,
0,
0,
0,
0,
0,
0,
0,
0,
0,
0,
0,
0,
0,
0,
0,
0,
0,
0,
0,
0,
0,
0,
0,
0,
0,
0,
0,
0,
0,
0,
0,
0,
0,
0,
0,
0,
0,
0,
0,
0,
0,
0,
0,
0,
0,
0,
0,
0,
0,
0,
0,
0,
0,
0,
0,
0,
0,
0,
0,
0,
0,
0,
0,
0,
0,
0,
0,
0,
0,
0,
0,
0,
0,
0,
0,
0,
0,
0,
0,
0,
0,
0,
0,
0,
0,
0,
0,
0,
0,
0,
0,
0,
0,
0,
0,
0,
0,
0,
0,
0,
0,
0,
0,
0,
0,
0,
0,
0,
0,
0,
0,
0,
0,
0,
0,
0,
0,
0,
0,
0,
0,
0,
0,
0,
0,
0,
0,
0,
0,
0,
0,
0,
0,
0,
0,
0,
0,
0,
0,
0,
0,
0,
0,
0,
0,
0,
0,
0,
0,
0,
0,
0,
0,
0,
0,
0,
0,
0,
0,
0,
0,
0,
0,
0,
0,
0,
0,
0,
0,
0,
0,
0,
0,
0,
0,
0,
0,
0,
0,
0,
0,
0,
0,
0,
0,
0,
0,
0,
0,
0,
0,
0,
0,
0,
0,
0,
0,
0,
0,
0,
0,
0,
0,
0,
0,
0,
0,
0,
0,
0,
0,
0,
0,
0,
0,
0,
0,
0,
0,
0,
0,
0,
0,
0,
0,
0,
0,
0,
0,
0,
0,
0,
0,
0,
0,
0,
0,
0,
0,
0,
0,
0,
#ENDOFDATA   :