File: N132962/Quantification/20 keV/MMM2/SPI MM2 Sphene[3][4].msa
#FORMAT      : EMSA/MAS Spectral Data File
#VERSION     : 1.0
#TITLE       : SPI MM2 Sphene[3][all]
#DATE        : 13-MAR-2025
#TIME        : 13:01
#OWNER       : Unknown
#NPOINTS     : 4096
#NCOLUMNS    : 1
#XUNITS      : eV
#YUNITS      : counts
#DATATYPE    : Y
#XPERCHAN    : 9.99778
#OFFSET      : 1.69135
#BEAMKV      : 20
#SIGNALTYPE  : EDS
#ELEVANGLE   : 35
#AZIMANGLE   : 0
#LIVETIME    : 239.909
#REALTIME    : 254.883
#PROBECUR    : 1.02627
#TAUWIND     : 0
#TDEADLYR    : 0
#TACTLYR     : 0.045
#TALWIND     : 0.025
#CHOFFSET    : 0.0
#XLABEL      : Energy (eV)
#YLABEL      : Counts
#XPOSITION   : 6.08936
#YPOSITION   : 3.70473
#ZPOSITION   : 31.03511
#EDSDET      : SD
##SPECIMEN   : SPI MM2 Sphene[3][all]
##DET_HASH   : 12273538-fd48-a23f-0a19-f1e6fa85caef
##CALIB_HASH : 6abaa72c-aa41-8738-0be9-f592914732f3
##WORKING    : 15.0 mm
##DET_NAME   : EDAX All
##DET_MODE   : MediumLE
#SPECTRUM    :
28,
29,
6,
17,
70,
307,
958,
3223,
9604,
14283,
9852,
6104,
6006,
7152,
7798,
12544,
33588,
63140,
46453,
12848,
2521,
1787,
2114,
2331,
2314,
2065,
2040,
2224,
2439,
2482,
2489,
2707,
2854,
2914,
3073,
3142,
3295,
3424,
3462,
3538,
3640,
3897,
4031,
4097,
4273,
4322,
4533,
5086,
7104,
10033,
10286,
7554,
5663,
5283,
5839,
11541,
38815,
95447,
129693,
92041,
38617,
14677,
7989,
5263,
4654,
4664,
4312,
4048,
3582,
3451,
3541,
3641,
3613,
3698,
3853,
3775,
3676,
3516,
3426,
3438,
3342,
3298,
3334,
3286,
3310,
3301,
3299,
3246,
3190,
3335,
3415,
3713,
3654,
3611,
3454,
3158,
3081,
3116,
3077,
2960,
2909,
3072,
3048,
3097,
3017,
2992,
2974,
2973,
2803,
2901,
2778,
2773,
2680,
2723,
2753,
2825,
3062,
3274,
4187,
6936,
17487,
43072,
80910,
101964,
86481,
49055,
19302,
6747,
3419,
2949,
3575,
5406,
9038,
12978,
14822,
11507,
7115,
3941,
2500,
2142,
1968,
2075,
2038,
2142,
2349,
2872,
5075,
12139,
29157,
54302,
72027,
67792,
45004,
21337,
8255,
3328,
2184,
1835,
1845,
1996,
2407,
3540,
5482,
8663,
11002,
10686,
8131,
5090,
2772,
1948,
1565,
1491,
1519,
1460,
1466,
1472,
1462,
1479,
1470,
1499,
1623,
1526,
1493,
1525,
1481,
1384,
1350,
1270,
1340,
1348,
1334,
1384,
1310,
1299,
1312,
1292,
1313,
1306,
1331,
1255,
1265,
1214,
1223,
1276,
1194,
1184,
1254,
1265,
1261,
1405,
1429,
1635,
1958,
2037,
2005,
1818,
1466,
1268,
1156,
1072,
1088,
1102,
1117,
1139,
1098,
1051,
1102,
1071,
999,
1026,
1035,
1084,
996,
1126,
1134,
1122,
1094,
970,
1025,
995,
902,
984,
1024,
954,
975,
966,
999,
979,
963,
984,
948,
913,
850,
842,
876,
865,
861,
897,
943,
880,
819,
867,
833,
802,
810,
817,
827,
818,
798,
754,
780,
818,
838,
819,
843,
830,
745,
786,
748,
712,
813,
682,
742,
780,
782,
707,
725,
692,
716,
677,
694,
621,
674,
682,
685,
672,
711,
652,
624,
703,
663,
616,
655,
649,
638,
578,
599,
618,
609,
620,
614,
611,
600,
626,
578,
627,
586,
573,
548,
553,
586,
558,
538,
520,
610,
552,
488,
561,
518,
513,
523,
482,
480,
495,
486,
481,
475,
475,
494,
478,
495,
469,
449,
460,
452,
476,
489,
446,
454,
407,
445,
475,
448,
456,
481,
420,
419,
414,
423,
423,
396,
415,
425,
441,
436,
415,
385,
381,
423,
392,
362,
361,
387,
403,
345,
382,
349,
352,
364,
383,
364,
340,
323,
313,
334,
304,
322,
340,
322,
324,
356,
303,
350,
335,
321,
300,
274,
298,
278,
316,
296,
290,
293,
274,
301,
265,
252,
309,
269,
265,
258,
271,
249,
281,
261,
244,
250,
219,
221,
235,
244,
216,
245,
221,
245,
269,
234,
204,
229,
244,
222,
231,
236,
204,
212,
233,
220,
237,
197,
215,
205,
217,
208,
206,
180,
182,
199,
188,
170,
183,
172,
193,
196,
187,
154,
175,
172,
153,
186,
172,
157,
159,
147,
175,
155,
164,
150,
146,
137,
170,
154,
147,
153,
141,
140,
136,
141,
122,
140,
126,
129,
126,
142,
112,
125,
128,
113,
115,
146,
117,
124,
132,
105,
117,
122,
90,
108,
123,
100,
99,
94,
97,
104,
105,
89,
111,
100,
109,
72,
89,
108,
91,
102,
100,
74,
98,
69,
80,
78,
72,
80,
91,
75,
77,
76,
68,
83,
61,
83,
86,
91,
65,
58,
68,
74,
62,
69,
84,
64,
61,
68,
69,
55,
67,
53,
62,
51,
58,
49,
52,
55,
56,
42,
52,
43,
55,
49,
48,
46,
55,
47,
41,
48,
54,
50,
33,
41,
40,
40,
49,
44,
32,
45,
29,
36,
42,
30,
37,
49,
32,
26,
27,
27,
27,
26,
31,
36,
28,
30,
28,
31,
18,
31,
30,
28,
26,
20,
26,
15,
12,
21,
14,
27,
23,
11,
21,
15,
15,
15,
13,
18,
15,
17,
9,
20,
22,
16,
7,
18,
13,
11,
5,
17,
11,
4,
11,
17,
14,
6,
14,
12,
20,
10,
10,
5,
13,
11,
12,
7,
13,
7,
4,
5,
3,
6,
6,
4,
3,
12,
4,
5,
3,
3,
5,
4,
5,
4,
7,
4,
1,
3,
1,
1,
0,
1,
1,
1,
1,
0,
0,
0,
0,
1,
0,
1,
0,
1,
0,
0,
1,
1,
1,
0,
0,
0,
0,
0,
0,
0,
0,
0,
2,
0,
0,
0,
0,
0,
0,
1,
0,
0,
0,
1,
0,
0,
0,
1,
0,
0,
0,
0,
1,
0,
1,
0,
0,
0,
1,
0,
0,
0,
1,
0,
0,
0,
0,
0,
0,
0,
0,
0,
0,
0,
0,
0,
1,
0,
0,
0,
0,
0,
0,
0,
0,
0,
0,
0,
0,
0,
0,
0,
1,
0,
0,
0,
0,
1,
0,
0,
0,
0,
0,
0,
0,
0,
1,
0,
0,
0,
0,
0,
0,
0,
0,
0,
0,
0,
0,
0,
0,
0,
0,
0,
0,
0,
0,
0,
0,
0,
0,
0,
0,
0,
0,
0,
0,
0,
0,
0,
0,
0,
0,
0,
0,
0,
0,
0,
0,
1,
0,
0,
0,
0,
0,
0,
0,
0,
0,
0,
0,
0,
0,
0,
0,
0,
0,
0,
0,
0,
0,
0,
0,
0,
0,
0,
0,
0,
0,
0,
0,
0,
0,
0,
0,
0,
0,
0,
0,
0,
0,
1,
0,
0,
0,
0,
0,
0,
0,
0,
0,
0,
0,
0,
0,
0,
0,
0,
0,
0,
0,
0,
0,
0,
0,
0,
0,
0,
0,
0,
0,
0,
0,
0,
0,
0,
0,
0,
0,
0,
0,
0,
0,
0,
0,
0,
0,
0,
0,
0,
0,
0,
0,
0,
0,
0,
0,
0,
0,
0,
0,
0,
0,
0,
0,
0,
0,
0,
0,
0,
0,
0,
0,
0,
0,
0,
0,
0,
0,
0,
0,
0,
0,
0,
0,
0,
0,
0,
0,
0,
0,
0,
0,
0,
0,
0,
0,
0,
0,
0,
0,
0,
0,
0,
0,
0,
0,
0,
0,
0,
0,
0,
0,
0,
0,
0,
0,
0,
0,
0,
0,
0,
0,
0,
0,
0,
0,
0,
0,
0,
0,
0,
0,
0,
0,
0,
0,
0,
0,
0,
0,
0,
0,
0,
0,
0,
0,
0,
0,
0,
0,
0,
0,
0,
0,
0,
0,
0,
0,
0,
0,
0,
0,
0,
0,
0,
0,
0,
0,
0,
0,
0,
0,
0,
0,
0,
0,
0,
0,
0,
0,
0,
0,
0,
0,
0,
0,
0,
0,
0,
0,
0,
0,
0,
0,
0,
0,
0,
0,
0,
0,
0,
0,
0,
0,
0,
0,
0,
0,
0,
0,
0,
0,
0,
0,
0,
0,
0,
0,
0,
0,
0,
0,
0,
0,
0,
0,
0,
0,
0,
0,
0,
0,
0,
0,
0,
0,
0,
0,
0,
0,
0,
0,
0,
0,
0,
0,
0,
0,
0,
1,
0,
0,
0,
0,
0,
0,
0,
0,
0,
0,
0,
0,
0,
0,
0,
0,
0,
0,
0,
0,
0,
0,
0,
0,
0,
0,
0,
0,
0,
0,
0,
0,
0,
0,
0,
0,
0,
0,
0,
0,
0,
0,
0,
0,
0,
0,
0,
0,
0,
0,
0,
0,
0,
0,
0,
0,
0,
0,
0,
0,
0,
0,
0,
0,
0,
0,
0,
0,
0,
0,
0,
0,
0,
0,
0,
0,
0,
0,
0,
0,
0,
0,
0,
0,
0,
0,
0,
0,
0,
0,
0,
0,
0,
0,
0,
0,
0,
0,
0,
0,
0,
0,
0,
0,
0,
0,
0,
0,
0,
0,
0,
0,
0,
0,
0,
0,
0,
0,
0,
0,
0,
0,
0,
0,
0,
0,
0,
0,
0,
0,
0,
0,
0,
0,
0,
0,
0,
0,
0,
0,
0,
0,
0,
0,
0,
0,
0,
0,
0,
0,
0,
0,
0,
0,
0,
0,
0,
0,
0,
0,
0,
0,
0,
0,
0,
0,
0,
0,
0,
0,
0,
0,
0,
0,
0,
0,
0,
0,
0,
0,
0,
0,
0,
0,
0,
0,
0,
0,
0,
0,
0,
0,
0,
0,
0,
0,
0,
0,
0,
0,
0,
0,
0,
0,
0,
0,
0,
0,
0,
0,
0,
0,
0,
0,
0,
0,
0,
0,
0,
0,
0,
0,
0,
0,
0,
0,
0,
0,
0,
0,
0,
0,
0,
0,
0,
0,
0,
0,
0,
0,
0,
0,
0,
0,
0,
0,
0,
0,
0,
0,
0,
0,
0,
0,
0,
0,
0,
0,
0,
0,
0,
0,
0,
0,
0,
0,
#ENDOFDATA   :