File: N132962/Quantification/20 keV/MMM2/SPI MM2 SPI Mangotantalite[3][4].msa
#FORMAT      : EMSA/MAS Spectral Data File
#VERSION     : 1.0
#TITLE       : SPI MM2 SPI Mangotantalite[3][all]
#DATE        : 13-MAR-2025
#TIME        : 09:39
#OWNER       : Unknown
#NPOINTS     : 4096
#NCOLUMNS    : 1
#XUNITS      : eV
#YUNITS      : counts
#DATATYPE    : Y
#XPERCHAN    : 9.99778
#OFFSET      : 1.69135
#BEAMKV      : 20
#SIGNALTYPE  : EDS
#ELEVANGLE   : 35
#AZIMANGLE   : 0
#LIVETIME    : 239.945
#REALTIME    : 262.053
#PROBECUR    : 1.02582
#TAUWIND     : 0
#TDEADLYR    : 0
#TACTLYR     : 0.045
#TALWIND     : 0.025
#CHOFFSET    : 0.0
#XLABEL      : Energy (eV)
#YLABEL      : Counts
#XPOSITION   : -1.62144
#YPOSITION   : -4.68278
#ZPOSITION   : 31.03509
#EDSDET      : SD
##SPECIMEN   : SPI MM2 SPI Mangotantalite[3][all]
##DET_HASH   : 12273538-fd48-a23f-0a19-f1e6fa85caef
##CALIB_HASH : 6abaa72c-aa41-8738-0be9-f592914732f3
##WORKING    : 15.0 mm
##DET_NAME   : EDAX All
##DET_MODE   : MediumLE
#SPECTRUM    :
34,
28,
10,
27,
239,
1043,
2922,
6153,
13415,
16857,
8992,
4491,
4358,
4916,
6081,
11772,
34053,
63243,
48068,
16957,
8878,
10910,
9816,
8077,
7110,
5759,
5262,
5425,
5757,
5857,
5780,
5914,
6234,
6535,
6829,
6967,
7065,
7266,
7359,
7685,
7882,
8339,
10288,
14554,
19485,
18267,
13507,
10613,
9853,
9611,
10015,
9886,
10369,
12581,
21657,
58245,
138152,
197839,
175662,
113121,
55112,
21029,
9126,
7825,
8936,
10102,
9473,
7702,
6817,
7825,
12508,
22045,
30479,
28692,
22151,
18577,
15353,
11402,
8343,
6887,
5823,
5258,
4991,
4838,
4624,
4575,
4688,
5003,
5156,
4968,
4923,
4762,
4608,
4776,
4674,
4762,
4889,
4769,
4749,
4856,
4792,
4777,
4945,
4774,
4790,
4876,
4759,
4901,
4862,
4927,
4895,
4794,
4885,
4944,
5041,
5020,
5103,
4968,
4834,
4774,
4814,
4751,
4782,
4879,
4857,
4837,
4806,
4678,
4673,
4646,
4733,
4579,
4606,
4709,
4709,
4636,
4770,
4674,
4694,
4606,
4673,
4566,
4453,
4553,
4449,
4581,
4623,
4722,
4851,
5249,
5564,
5418,
5174,
4746,
4536,
4348,
4300,
4429,
4183,
4163,
4294,
4333,
4306,
4296,
4439,
4277,
4381,
4180,
4136,
4143,
4087,
4057,
3851,
3912,
4021,
3936,
3961,
4049,
3975,
3943,
3817,
3789,
3813,
3854,
3870,
3875,
3882,
3779,
3843,
3780,
3748,
4195,
5234,
8185,
14251,
22020,
27944,
27912,
21378,
13370,
7635,
4826,
3681,
3659,
3404,
3434,
3445,
3518,
3573,
3757,
4608,
5750,
7407,
8686,
9308,
9032,
8110,
6785,
5590,
4333,
3594,
3246,
3122,
3086,
3025,
3024,
3073,
2973,
3019,
2973,
2954,
3078,
3054,
3302,
3331,
3674,
3944,
3950,
4123,
3974,
3774,
3514,
3263,
2896,
2861,
2736,
2776,
2895,
2904,
2935,
2979,
2857,
2733,
2697,
2790,
2584,
2630,
2607,
2568,
2664,
2567,
2555,
2584,
2705,
2852,
3206,
4213,
6595,
10890,
17068,
23108,
26691,
25278,
20332,
13907,
8128,
4896,
3258,
2753,
2576,
2552,
2668,
2409,
2414,
2372,
2309,
2286,
2269,
2209,
2192,
2251,
2228,
2126,
2123,
2104,
2060,
2116,
2045,
2157,
2067,
2008,
2079,
2176,
2306,
2531,
3023,
3510,
4539,
6039,
8213,
10161,
11176,
10594,
8975,
7083,
5495,
4497,
4230,
4284,
4764,
5523,
6124,
6004,
5322,
4156,
3266,
2448,
2157,
1949,
1918,
1771,
1748,
1706,
1689,
1576,
1590,
1623,
1560,
1527,
1511,
1484,
1434,
1470,
1429,
1479,
1438,
1486,
1469,
1436,
1514,
1463,
1404,
1483,
1506,
1448,
1402,
1404,
1511,
1572,
1789,
2058,
2391,
2661,
2784,
2660,
2309,
1991,
1710,
1455,
1433,
1455,
1495,
1560,
1632,
1730,
1651,
1613,
1554,
1463,
1315,
1244,
1205,
1175,
1169,
1164,
1156,
1256,
1095,
1144,
1152,
1121,
1058,
1102,
1063,
998,
1085,
993,
1013,
1016,
985,
1042,
964,
1032,
986,
999,
917,
913,
960,
943,
908,
892,
925,
872,
888,
931,
915,
842,
872,
896,
879,
874,
842,
877,
798,
807,
829,
762,
819,
751,
759,
821,
796,
731,
780,
769,
735,
720,
747,
750,
758,
761,
684,
721,
743,
669,
683,
663,
726,
711,
716,
667,
668,
592,
651,
649,
622,
584,
617,
645,
636,
641,
589,
590,
603,
580,
583,
581,
644,
571,
583,
560,
577,
577,
528,
509,
558,
512,
567,
548,
553,
553,
476,
477,
513,
452,
468,
483,
437,
476,
486,
437,
465,
478,
460,
467,
411,
407,
439,
434,
408,
392,
424,
378,
382,
417,
368,
397,
342,
379,
418,
362,
398,
370,
394,
376,
374,
329,
355,
318,
319,
299,
347,
320,
330,
291,
325,
336,
328,
297,
318,
327,
261,
325,
304,
292,
274,
270,
286,
263,
256,
261,
259,
233,
249,
231,
261,
234,
265,
268,
269,
267,
262,
259,
263,
226,
244,
227,
231,
230,
217,
194,
217,
217,
209,
196,
195,
207,
196,
204,
172,
176,
177,
180,
192,
181,
154,
141,
187,
168,
164,
151,
141,
157,
141,
141,
164,
151,
140,
143,
140,
126,
112,
120,
141,
166,
107,
121,
101,
113,
129,
103,
110,
114,
99,
100,
93,
91,
89,
80,
95,
83,
87,
86,
76,
80,
85,
74,
82,
81,
55,
75,
68,
82,
66,
71,
75,
69,
63,
57,
44,
59,
56,
64,
52,
38,
61,
36,
54,
35,
42,
49,
38,
36,
40,
33,
35,
32,
43,
27,
19,
26,
23,
28,
25,
19,
11,
10,
18,
13,
7,
9,
7,
7,
7,
7,
6,
5,
1,
3,
1,
8,
3,
2,
4,
2,
5,
2,
1,
10,
3,
2,
4,
2,
1,
8,
2,
5,
1,
2,
1,
5,
2,
1,
3,
4,
2,
3,
2,
4,
3,
2,
3,
2,
1,
0,
3,
2,
3,
3,
5,
3,
3,
1,
1,
5,
4,
0,
4,
2,
1,
2,
2,
1,
0,
2,
3,
1,
3,
4,
2,
3,
0,
3,
0,
3,
1,
4,
0,
3,
0,
4,
1,
1,
1,
2,
2,
1,
0,
1,
1,
1,
0,
5,
1,
1,
0,
1,
1,
2,
3,
0,
0,
0,
2,
1,
2,
3,
2,
0,
2,
2,
1,
2,
1,
2,
3,
3,
0,
0,
1,
1,
1,
0,
3,
1,
0,
0,
0,
0,
0,
0,
3,
1,
0,
1,
0,
0,
2,
2,
1,
0,
0,
0,
0,
0,
0,
0,
0,
0,
1,
0,
0,
1,
0,
1,
0,
1,
0,
0,
0,
0,
1,
1,
0,
1,
1,
0,
0,
0,
0,
0,
0,
1,
0,
0,
1,
1,
1,
2,
0,
0,
0,
0,
0,
2,
2,
1,
2,
0,
1,
1,
0,
0,
3,
2,
0,
1,
1,
0,
1,
1,
1,
1,
0,
0,
0,
1,
1,
0,
0,
1,
0,
0,
0,
0,
0,
1,
1,
0,
3,
0,
1,
0,
3,
0,
0,
0,
1,
0,
0,
0,
0,
1,
1,
0,
0,
1,
0,
0,
0,
0,
0,
0,
0,
0,
0,
1,
0,
0,
0,
0,
0,
0,
0,
0,
0,
1,
0,
1,
0,
0,
0,
0,
0,
0,
1,
0,
1,
1,
0,
0,
0,
0,
0,
1,
1,
0,
1,
0,
1,
0,
0,
1,
0,
0,
0,
0,
0,
0,
0,
0,
0,
0,
0,
0,
0,
0,
0,
0,
0,
0,
0,
0,
0,
0,
0,
0,
0,
0,
0,
0,
0,
0,
0,
0,
0,
0,
0,
0,
0,
0,
1,
0,
0,
0,
0,
0,
0,
0,
0,
0,
0,
0,
0,
0,
0,
0,
0,
0,
0,
0,
0,
0,
0,
0,
0,
0,
0,
0,
0,
0,
0,
0,
0,
0,
0,
0,
0,
0,
0,
0,
0,
0,
0,
0,
0,
0,
0,
0,
0,
0,
0,
0,
0,
0,
0,
0,
0,
0,
0,
0,
0,
0,
0,
0,
0,
0,
0,
0,
0,
0,
0,
0,
0,
0,
0,
0,
0,
0,
0,
0,
0,
0,
0,
0,
0,
0,
0,
0,
0,
0,
0,
0,
0,
0,
0,
1,
0,
0,
0,
0,
0,
0,
0,
0,
0,
0,
0,
0,
0,
0,
0,
0,
0,
0,
0,
0,
0,
0,
0,
0,
0,
0,
0,
0,
0,
0,
0,
0,
0,
0,
0,
0,
0,
0,
0,
0,
0,
0,
0,
0,
0,
0,
0,
0,
0,
0,
0,
0,
0,
0,
0,
0,
0,
0,
0,
0,
0,
0,
0,
0,
0,
0,
0,
0,
0,
0,
0,
0,
0,
0,
0,
0,
0,
0,
0,
0,
0,
0,
0,
0,
0,
0,
0,
0,
0,
0,
0,
0,
0,
0,
0,
0,
0,
0,
0,
0,
0,
0,
0,
0,
0,
0,
0,
0,
0,
0,
0,
0,
0,
0,
0,
0,
0,
0,
0,
0,
0,
0,
0,
0,
0,
0,
0,
0,
0,
0,
0,
0,
0,
0,
0,
0,
0,
0,
0,
0,
0,
0,
0,
0,
0,
0,
0,
0,
0,
0,
0,
0,
0,
0,
0,
0,
0,
0,
0,
0,
0,
0,
0,
0,
0,
0,
0,
0,
0,
0,
0,
0,
0,
0,
0,
0,
0,
0,
0,
0,
0,
0,
0,
0,
0,
0,
0,
0,
0,
0,
0,
0,
0,
0,
0,
0,
0,
0,
0,
0,
0,
0,
0,
0,
0,
0,
0,
0,
0,
0,
0,
0,
0,
0,
0,
0,
0,
0,
0,
0,
0,
0,
0,
0,
0,
0,
0,
0,
0,
0,
0,
0,
0,
0,
0,
0,
0,
0,
0,
0,
0,
0,
0,
0,
0,
0,
0,
0,
0,
0,
0,
0,
0,
0,
0,
0,
0,
0,
0,
0,
0,
0,
0,
0,
0,
0,
0,
0,
0,
0,
0,
0,
0,
0,
0,
0,
0,
0,
0,
0,
0,
0,
0,
0,
0,
0,
0,
0,
0,
#ENDOFDATA   :