File: N132962/Quantification/20 keV/MMM2/SPI MM2 SPI Monazite[7][4].msa
#FORMAT      : EMSA/MAS Spectral Data File
#VERSION     : 1.0
#TITLE       : SPI MM2 SPI Monazite[7][all]
#DATE        : 13-MAR-2025
#TIME        : 10:12
#OWNER       : Unknown
#NPOINTS     : 4096
#NCOLUMNS    : 1
#XUNITS      : eV
#YUNITS      : counts
#DATATYPE    : Y
#XPERCHAN    : 9.99778
#OFFSET      : 1.69135
#BEAMKV      : 20
#SIGNALTYPE  : EDS
#ELEVANGLE   : 35
#AZIMANGLE   : 0
#LIVETIME    : 239.873
#REALTIME    : 258.41
#PROBECUR    : 1.02627
#TAUWIND     : 0
#TDEADLYR    : 0
#TACTLYR     : 0.045
#TALWIND     : 0.025
#CHOFFSET    : 0.0
#XLABEL      : Energy (eV)
#YLABEL      : Counts
#XPOSITION   : 2.43888
#YPOSITION   : -2.74666
#ZPOSITION   : 31.03509
#EDSDET      : SD
##SPECIMEN   : SPI MM2 SPI Monazite[7][all]
##D2STDCMP   : SPI Monazite,(O:26.45),(Si:0.83),(P:11.85),(Ca:0.65),(Y:1.59),(La:7.84),(Ce:19.96),(Pr:2.47),(Nd:9.68),(Sm:3.7),(Eu:0.38),(Gd:2.89),(Tb:0.35),(Dy:1.21),(Pb:0.25),(Th:9.7),(U:0.16),5.0
##DET_HASH   : 12273538-fd48-a23f-0a19-f1e6fa85caef
##CALIB_HASH : 6abaa72c-aa41-8738-0be9-f592914732f3
##WORKING    : 15.0 mm
##DET_NAME   : EDAX All
##DET_MODE   : MediumLE
#SPECTRUM    :
32,
23,
14,
33,
144,
706,
2089,
6185,
15612,
19570,
10836,
5954,
5738,
5982,
7981,
18711,
62370,
117164,
85443,
24916,
7584,
8210,
10001,
9778,
8686,
8093,
7600,
8830,
11026,
11919,
11203,
9572,
8986,
9106,
8043,
7702,
7993,
7490,
7220,
7410,
7308,
6769,
6420,
6625,
6171,
5889,
5667,
5801,
5622,
5655,
5743,
5723,
5549,
5615,
5586,
5999,
7562,
10242,
12027,
10496,
8289,
6849,
7671,
10078,
15657,
28985,
54839,
72792,
57508,
28279,
12890,
9211,
7770,
6368,
5318,
5225,
5449,
5864,
6151,
6134,
5788,
5465,
5488,
5339,
5200,
5290,
5145,
5109,
5115,
5188,
5388,
5483,
5319,
5186,
5260,
5436,
5773,
7370,
11434,
17499,
21003,
17847,
12542,
11224,
13239,
14986,
12798,
8960,
6294,
5482,
5513,
5904,
6027,
5787,
5248,
5024,
4812,
4694,
4647,
4635,
4813,
5474,
6692,
7197,
6668,
5698,
4863,
4649,
4386,
4476,
4474,
4560,
4803,
4817,
4741,
4766,
4652,
4744,
4659,
4572,
4530,
4629,
4973,
5052,
4861,
4547,
4303,
4165,
4162,
4291,
4343,
4950,
6416,
9587,
13276,
14645,
13324,
11063,
10776,
15658,
23401,
29166,
27571,
19999,
12217,
8517,
8937,
10678,
12078,
11036,
9444,
9104,
12019,
17603,
23127,
25195,
22450,
17262,
12492,
9766,
8103,
6869,
6117,
5906,
6204,
7558,
9489,
11490,
12237,
11562,
10790,
9739,
8443,
6900,
5895,
5055,
4436,
4003,
3947,
4582,
5987,
7508,
8167,
7977,
6733,
5679,
4942,
4621,
4470,
4434,
4251,
4094,
4002,
3812,
3632,
3510,
3572,
3721,
3827,
4020,
4087,
3876,
3649,
3611,
3355,
3189,
2929,
2839,
2744,
2771,
2764,
2676,
2725,
2567,
2539,
2661,
2788,
2719,
2712,
2668,
2631,
2658,
2456,
2398,
2375,
2326,
2278,
2379,
2450,
2424,
2328,
2303,
2185,
2156,
2127,
2142,
2171,
2190,
2122,
2177,
2128,
2077,
2051,
2064,
1949,
1948,
1986,
1932,
1837,
1905,
1898,
1898,
1837,
1890,
1959,
1884,
1830,
1865,
1801,
1823,
1877,
1775,
1742,
1714,
1684,
1678,
1767,
1686,
1669,
1737,
1711,
1604,
1717,
1644,
1623,
1681,
1577,
1610,
1558,
1707,
1528,
1552,
1595,
1565,
1485,
1590,
1478,
1502,
1584,
1582,
1528,
1531,
1446,
1442,
1420,
1507,
1436,
1461,
1429,
1385,
1397,
1378,
1427,
1456,
1388,
1392,
1376,
1404,
1331,
1337,
1324,
1365,
1390,
1334,
1275,
1339,
1321,
1272,
1339,
1301,
1312,
1286,
1295,
1225,
1170,
1282,
1198,
1217,
1266,
1233,
1238,
1266,
1256,
1228,
1139,
1179,
1198,
1105,
1132,
1134,
1144,
1132,
1114,
1078,
1141,
1094,
1062,
1097,
1059,
1066,
1028,
1057,
1065,
1080,
1060,
1006,
995,
896,
1012,
925,
937,
962,
943,
983,
947,
929,
960,
949,
877,
895,
889,
828,
923,
873,
912,
835,
844,
808,
820,
812,
848,
799,
772,
818,
823,
780,
794,
736,
810,
797,
735,
750,
761,
771,
767,
761,
730,
726,
705,
725,
703,
731,
681,
717,
757,
687,
770,
707,
754,
800,
874,
869,
927,
846,
795,
741,
654,
594,
614,
592,
627,
604,
590,
558,
551,
594,
599,
579,
546,
562,
546,
577,
530,
542,
552,
558,
501,
516,
495,
526,
505,
485,
446,
485,
520,
480,
468,
439,
404,
430,
504,
467,
427,
417,
415,
419,
450,
455,
431,
381,
408,
424,
412,
411,
407,
362,
433,
376,
340,
358,
378,
346,
371,
385,
387,
376,
375,
372,
358,
328,
374,
354,
352,
324,
292,
288,
298,
267,
301,
301,
296,
291,
299,
281,
278,
287,
303,
288,
320,
267,
321,
260,
272,
270,
260,
231,
238,
244,
226,
241,
219,
274,
224,
221,
210,
226,
202,
216,
244,
214,
185,
203,
210,
215,
195,
185,
175,
183,
149,
170,
195,
177,
174,
159,
151,
152,
148,
175,
171,
173,
161,
154,
156,
148,
152,
141,
145,
137,
149,
130,
138,
126,
142,
134,
117,
108,
125,
136,
97,
114,
118,
117,
109,
107,
105,
110,
120,
111,
104,
97,
127,
95,
106,
93,
80,
90,
89,
99,
79,
88,
94,
80,
88,
93,
79,
75,
65,
73,
63,
70,
55,
60,
61,
71,
49,
65,
54,
61,
59,
50,
58,
51,
40,
45,
55,
38,
51,
43,
34,
36,
33,
44,
35,
33,
36,
35,
28,
28,
32,
42,
23,
28,
29,
28,
17,
28,
20,
22,
14,
20,
19,
14,
16,
14,
9,
9,
10,
8,
6,
14,
6,
10,
6,
4,
1,
2,
2,
1,
2,
4,
4,
0,
4,
0,
2,
1,
0,
3,
1,
0,
0,
1,
1,
0,
1,
2,
4,
3,
1,
2,
1,
3,
2,
0,
2,
0,
2,
0,
1,
0,
0,
1,
4,
1,
1,
0,
2,
4,
2,
1,
2,
1,
0,
1,
1,
1,
1,
1,
2,
2,
2,
2,
0,
2,
2,
0,
0,
0,
0,
1,
0,
2,
1,
2,
0,
0,
2,
1,
0,
0,
1,
0,
0,
2,
0,
0,
1,
1,
0,
1,
1,
0,
0,
0,
0,
0,
2,
1,
1,
0,
1,
0,
2,
0,
0,
0,
1,
1,
0,
0,
0,
1,
1,
0,
0,
2,
0,
0,
2,
1,
0,
1,
0,
1,
0,
0,
1,
0,
0,
0,
0,
0,
0,
0,
0,
1,
2,
0,
0,
0,
0,
0,
1,
1,
1,
0,
0,
0,
0,
0,
0,
0,
2,
1,
1,
0,
0,
1,
0,
0,
0,
1,
0,
0,
0,
1,
0,
0,
0,
0,
0,
1,
0,
1,
0,
0,
1,
0,
0,
0,
0,
0,
0,
0,
0,
0,
0,
0,
1,
0,
0,
1,
0,
1,
1,
0,
0,
0,
1,
1,
0,
0,
0,
0,
0,
1,
1,
0,
1,
0,
0,
0,
0,
1,
0,
0,
0,
0,
0,
0,
0,
0,
0,
0,
0,
0,
1,
0,
0,
0,
0,
1,
0,
0,
0,
1,
0,
0,
1,
0,
0,
1,
0,
1,
0,
0,
0,
1,
0,
0,
1,
0,
1,
0,
0,
0,
0,
0,
0,
0,
0,
0,
0,
0,
0,
0,
1,
0,
0,
0,
0,
0,
0,
0,
0,
0,
0,
0,
0,
0,
0,
0,
0,
0,
0,
0,
0,
0,
0,
0,
1,
0,
0,
0,
1,
1,
0,
1,
0,
0,
0,
0,
0,
1,
0,
0,
0,
0,
0,
0,
0,
0,
0,
0,
0,
0,
0,
0,
0,
0,
0,
0,
0,
0,
0,
0,
0,
0,
0,
0,
0,
0,
0,
0,
0,
0,
0,
1,
0,
0,
0,
0,
0,
0,
0,
0,
0,
0,
0,
0,
0,
0,
0,
0,
0,
0,
0,
0,
0,
0,
0,
0,
0,
0,
0,
0,
0,
0,
0,
0,
0,
0,
0,
0,
0,
0,
0,
0,
0,
0,
0,
0,
0,
0,
0,
0,
0,
0,
0,
0,
0,
0,
0,
0,
0,
0,
0,
0,
0,
0,
0,
0,
0,
0,
0,
0,
0,
0,
0,
0,
0,
0,
0,
0,
0,
0,
0,
0,
0,
0,
0,
0,
0,
0,
0,
0,
0,
0,
0,
0,
0,
0,
0,
0,
0,
0,
0,
0,
0,
0,
0,
0,
0,
0,
0,
0,
0,
0,
0,
0,
0,
0,
0,
0,
0,
0,
0,
0,
0,
0,
0,
0,
0,
0,
0,
0,
0,
0,
0,
0,
0,
0,
0,
0,
0,
0,
0,
0,
0,
0,
0,
0,
0,
0,
0,
0,
0,
0,
0,
0,
0,
0,
0,
0,
0,
0,
0,
0,
0,
0,
0,
0,
0,
0,
0,
0,
0,
0,
0,
0,
0,
0,
0,
0,
0,
0,
0,
0,
0,
0,
0,
0,
0,
0,
0,
0,
0,
0,
0,
0,
0,
0,
0,
0,
0,
0,
0,
0,
0,
0,
0,
0,
0,
0,
0,
0,
0,
0,
0,
0,
0,
0,
0,
0,
0,
0,
0,
0,
0,
0,
0,
0,
0,
0,
0,
0,
0,
0,
0,
0,
0,
0,
0,
0,
0,
0,
0,
0,
0,
0,
0,
0,
0,
0,
0,
0,
0,
0,
0,
0,
0,
0,
0,
0,
0,
0,
0,
0,
0,
0,
0,
0,
0,
0,
0,
0,
0,
0,
0,
0,
0,
0,
0,
0,
0,
0,
0,
0,
0,
0,
0,
0,
0,
0,
0,
0,
0,
0,
0,
0,
0,
0,
0,
0,
0,
0,
0,
0,
0,
0,
0,
0,
0,
0,
0,
0,
0,
0,
0,
0,
0,
0,
0,
0,
0,
0,
0,
0,
0,
0,
0,
0,
0,
0,
0,
0,
0,
0,
0,
0,
0,
0,
0,
0,
0,
0,
0,
0,
0,
0,
0,
0,
0,
0,
0,
0,
0,
0,
0,
0,
0,
0,
0,
0,
0,
0,
0,
0,
0,
0,
0,
0,
0,
0,
0,
0,
#ENDOFDATA   :