File: N132962/Quantification/20 keV/MMM2/SPI MM2 SPI Magnetite[6][4].msa
#FORMAT      : EMSA/MAS Spectral Data File
#VERSION     : 1.0
#TITLE       : SPI MM2 SPI Magnetite[6][all]
#DATE        : 13-MAR-2025
#TIME        : 09:24
#OWNER       : Unknown
#NPOINTS     : 4096
#NCOLUMNS    : 1
#XUNITS      : eV
#YUNITS      : counts
#DATATYPE    : Y
#XPERCHAN    : 9.99778
#OFFSET      : 1.69135
#BEAMKV      : 20
#SIGNALTYPE  : EDS
#ELEVANGLE   : 35
#AZIMANGLE   : 0
#LIVETIME    : 240.075
#REALTIME    : 257.071
#PROBECUR    : 1.02582
#TAUWIND     : 0
#TDEADLYR    : 0
#TACTLYR     : 0.045
#TALWIND     : 0.025
#CHOFFSET    : 0.0
#XLABEL      : Energy (eV)
#YLABEL      : Counts
#XPOSITION   : 3.94307
#YPOSITION   : -4.25265
#ZPOSITION   : 31.03509
#EDSDET      : SD
##SPECIMEN   : SPI MM2 SPI Magnetite[6][all]
##D2STDCMP   : SPI Magnetite,(O:27.53),(Si:0.01),(Mn:0.18),(Fe:71.88)
##DET_HASH   : 12273538-fd48-a23f-0a19-f1e6fa85caef
##CALIB_HASH : 6abaa72c-aa41-8738-0be9-f592914732f3
##WORKING    : 15.0 mm
##DET_NAME   : EDAX All
##DET_MODE   : MediumLE
#SPECTRUM    :
26,
22,
12,
20,
105,
448,
1318,
4005,
10306,
13455,
7773,
4773,
5157,
6342,
9336,
26905,
96174,
182110,
134184,
43738,
24103,
22985,
30345,
50194,
42949,
16711,
4989,
2861,
2391,
2168,
2087,
2092,
2273,
2481,
2768,
2836,
2750,
2813,
2937,
2977,
3281,
3433,
3479,
3514,
3531,
3610,
3867,
3816,
4036,
4372,
4465,
4240,
4315,
4335,
4365,
4446,
4577,
4723,
5064,
5009,
4941,
4800,
4282,
4130,
4209,
4331,
4396,
4365,
4356,
4379,
4367,
4424,
4395,
4401,
4445,
4534,
4535,
4430,
4450,
4448,
4241,
4311,
4348,
4249,
4398,
4276,
4277,
4346,
4370,
4250,
4181,
4247,
4260,
4194,
4192,
4068,
4125,
4020,
4117,
4073,
4026,
3855,
3953,
3987,
3934,
3757,
3875,
3716,
3855,
3771,
3644,
3811,
3777,
3708,
3545,
3570,
3647,
3566,
3468,
3449,
3454,
3620,
3429,
3447,
3360,
3475,
3440,
3334,
3392,
3169,
3262,
3210,
3221,
3135,
3249,
3142,
3116,
3208,
3221,
2953,
3090,
3024,
2909,
3010,
3023,
2962,
2876,
2972,
2983,
2973,
3047,
3009,
3080,
3122,
3315,
3229,
3218,
2991,
2792,
2818,
2634,
2696,
2575,
2680,
2598,
2620,
2623,
2489,
2620,
2458,
2562,
2471,
2511,
2430,
2364,
2472,
2436,
2452,
2424,
2432,
2474,
2378,
2323,
2292,
2324,
2313,
2197,
2195,
2206,
2234,
2184,
2121,
2135,
2174,
2371,
2526,
2623,
2595,
2607,
2336,
2217,
2079,
2173,
2196,
2267,
2310,
2555,
3359,
6166,
14875,
36340,
73622,
116505,
142201,
133266,
96391,
53172,
23411,
8816,
3678,
2255,
1946,
1833,
1943,
1872,
1857,
1910,
2054,
2189,
2441,
3193,
4749,
7984,
12672,
17282,
19570,
17690,
12954,
7880,
4272,
2189,
1535,
1260,
1246,
1197,
1238,
1243,
1266,
1357,
1226,
1334,
1274,
1284,
1277,
1189,
1141,
1189,
1242,
1222,
1126,
1176,
1121,
1177,
1179,
1157,
1097,
1118,
1141,
1146,
1102,
1045,
1072,
1125,
1125,
1125,
1080,
1075,
1064,
1067,
1053,
1085,
1039,
1048,
983,
1060,
1050,
1024,
1034,
1026,
943,
1022,
1022,
973,
956,
980,
946,
930,
943,
977,
954,
920,
945,
867,
900,
928,
933,
926,
907,
899,
899,
869,
876,
839,
859,
776,
834,
810,
860,
852,
797,
840,
804,
866,
848,
807,
771,
754,
821,
833,
719,
777,
747,
772,
758,
767,
734,
754,
710,
706,
692,
704,
697,
693,
703,
710,
716,
708,
665,
702,
703,
656,
737,
694,
627,
645,
586,
628,
685,
654,
647,
614,
615,
641,
646,
590,
586,
587,
637,
580,
602,
539,
582,
549,
585,
568,
606,
567,
594,
569,
596,
525,
541,
486,
498,
527,
555,
531,
500,
500,
490,
486,
480,
504,
480,
476,
448,
463,
478,
495,
480,
463,
458,
474,
475,
441,
456,
480,
428,
418,
473,
426,
401,
430,
432,
408,
429,
381,
430,
385,
408,
406,
387,
419,
445,
407,
458,
442,
493,
435,
437,
398,
388,
365,
343,
354,
348,
352,
332,
329,
302,
343,
330,
299,
313,
312,
308,
321,
314,
332,
359,
300,
303,
284,
273,
270,
296,
277,
259,
277,
287,
250,
253,
257,
231,
234,
251,
236,
254,
255,
254,
255,
238,
222,
237,
232,
230,
195,
224,
226,
236,
200,
201,
210,
241,
207,
169,
210,
178,
206,
195,
200,
200,
184,
190,
169,
171,
160,
190,
193,
162,
163,
180,
169,
160,
158,
154,
160,
159,
163,
177,
151,
140,
124,
142,
140,
168,
137,
148,
154,
131,
128,
144,
116,
130,
129,
103,
117,
118,
116,
104,
116,
117,
103,
111,
125,
116,
110,
121,
107,
107,
80,
95,
86,
91,
86,
97,
80,
101,
93,
82,
86,
85,
99,
88,
85,
83,
57,
74,
89,
82,
94,
81,
71,
75,
76,
96,
72,
76,
71,
61,
69,
68,
61,
74,
53,
71,
70,
57,
60,
60,
55,
56,
49,
52,
63,
42,
52,
47,
57,
48,
47,
44,
42,
46,
44,
43,
46,
48,
42,
37,
29,
25,
39,
41,
34,
25,
41,
31,
25,
34,
32,
32,
25,
34,
26,
27,
31,
25,
31,
22,
26,
27,
27,
22,
23,
18,
20,
21,
15,
18,
10,
17,
9,
13,
15,
14,
14,
21,
7,
14,
18,
13,
13,
16,
13,
10,
22,
9,
7,
15,
8,
9,
7,
4,
5,
4,
9,
8,
8,
2,
4,
1,
2,
3,
1,
0,
1,
1,
0,
1,
0,
5,
0,
2,
2,
1,
1,
0,
0,
1,
1,
0,
3,
1,
1,
1,
0,
1,
0,
0,
0,
2,
1,
0,
2,
0,
1,
0,
2,
0,
0,
3,
0,
2,
1,
0,
0,
0,
0,
2,
0,
1,
0,
1,
0,
0,
0,
1,
1,
0,
0,
1,
0,
1,
1,
0,
0,
0,
3,
1,
0,
0,
1,
0,
2,
1,
0,
0,
0,
1,
0,
0,
0,
1,
1,
0,
1,
1,
1,
1,
0,
1,
0,
0,
0,
0,
0,
1,
0,
0,
0,
0,
1,
0,
1,
2,
0,
0,
0,
0,
0,
0,
0,
0,
0,
0,
0,
0,
0,
0,
1,
0,
0,
0,
0,
0,
0,
0,
0,
0,
0,
1,
0,
0,
0,
0,
0,
0,
0,
0,
2,
0,
0,
0,
1,
0,
0,
1,
0,
0,
1,
0,
0,
0,
2,
0,
0,
0,
0,
0,
0,
1,
1,
0,
0,
0,
0,
0,
1,
0,
1,
0,
0,
0,
1,
1,
1,
0,
0,
0,
0,
0,
1,
0,
0,
0,
0,
0,
0,
1,
0,
1,
0,
1,
0,
0,
1,
0,
0,
0,
0,
0,
0,
0,
0,
0,
0,
0,
0,
0,
0,
1,
1,
1,
0,
0,
0,
0,
0,
0,
0,
0,
0,
0,
0,
0,
0,
0,
0,
0,
0,
0,
0,
0,
0,
0,
0,
0,
0,
0,
0,
0,
0,
0,
0,
0,
0,
0,
0,
0,
0,
0,
0,
0,
0,
0,
0,
0,
0,
0,
0,
0,
0,
0,
0,
0,
0,
0,
0,
0,
0,
0,
0,
0,
0,
0,
0,
0,
0,
0,
0,
0,
0,
0,
0,
0,
0,
0,
0,
0,
0,
0,
0,
0,
0,
0,
0,
0,
0,
0,
0,
0,
0,
0,
0,
0,
0,
0,
0,
0,
0,
0,
0,
0,
0,
0,
0,
0,
0,
0,
0,
1,
0,
0,
0,
0,
0,
0,
0,
0,
0,
0,
0,
0,
0,
0,
0,
0,
0,
0,
0,
0,
0,
0,
0,
0,
0,
0,
0,
0,
0,
0,
0,
0,
0,
0,
0,
0,
0,
0,
0,
0,
0,
0,
0,
0,
0,
0,
0,
0,
0,
0,
0,
0,
0,
0,
0,
0,
0,
0,
0,
1,
0,
0,
0,
0,
0,
0,
0,
0,
0,
0,
0,
0,
0,
0,
0,
0,
0,
0,
0,
0,
0,
0,
0,
0,
0,
0,
0,
0,
0,
0,
0,
0,
0,
0,
0,
0,
0,
0,
0,
0,
0,
0,
0,
0,
0,
0,
0,
0,
0,
0,
0,
0,
0,
0,
0,
0,
0,
0,
0,
0,
0,
0,
0,
0,
0,
0,
0,
0,
0,
0,
0,
0,
0,
0,
0,
0,
0,
0,
0,
0,
0,
0,
0,
0,
0,
0,
0,
0,
0,
0,
0,
0,
0,
0,
0,
0,
0,
0,
0,
0,
0,
0,
0,
0,
0,
0,
0,
0,
0,
0,
0,
0,
0,
0,
0,
0,
0,
0,
0,
0,
0,
0,
0,
0,
0,
0,
0,
0,
0,
0,
0,
0,
0,
0,
0,
0,
0,
0,
0,
0,
0,
0,
0,
0,
0,
0,
0,
0,
0,
0,
0,
0,
0,
0,
0,
0,
0,
0,
0,
0,
0,
0,
0,
0,
0,
0,
0,
0,
0,
0,
0,
0,
0,
0,
0,
0,
0,
0,
0,
0,
0,
0,
0,
0,
0,
0,
0,
0,
0,
0,
0,
0,
0,
0,
0,
0,
0,
0,
0,
0,
0,
0,
0,
0,
0,
0,
0,
0,
0,
0,
0,
0,
0,
0,
0,
0,
0,
0,
0,
0,
0,
0,
0,
0,
0,
0,
0,
0,
0,
0,
0,
0,
0,
0,
0,
0,
0,
0,
0,
0,
0,
0,
0,
0,
0,
0,
0,
0,
0,
0,
0,
0,
0,
0,
0,
0,
0,
0,
0,
0,
0,
0,
0,
0,
0,
0,
0,
0,
0,
0,
0,
0,
0,
0,
0,
0,
0,
0,
0,
0,
0,
0,
0,
0,
0,
0,
0,
0,
0,
0,
0,
0,
0,
0,
0,
0,
0,
0,
0,
0,
0,
0,
0,
0,
0,
0,
0,
0,
0,
0,
0,
0,
0,
0,
0,
0,
0,
0,
0,
0,
0,
0,
0,
0,
#ENDOFDATA   :