File: N132962/Quantification/20 keV/MMM2/SPI MM2 Quartz[7][4].msa
#FORMAT      : EMSA/MAS Spectral Data File
#VERSION     : 1.0
#TITLE       : SPI MM2 Quartz[7][all]
#DATE        : 13-MAR-2025
#TIME        : 12:38
#OWNER       : Unknown
#NPOINTS     : 4096
#NCOLUMNS    : 1
#XUNITS      : eV
#YUNITS      : counts
#DATATYPE    : Y
#XPERCHAN    : 9.99778
#OFFSET      : 1.69135
#BEAMKV      : 20
#SIGNALTYPE  : EDS
#ELEVANGLE   : 35
#AZIMANGLE   : 0
#LIVETIME    : 239.846
#REALTIME    : 257.713
#PROBECUR    : 1.02627
#TAUWIND     : 0
#TDEADLYR    : 0
#TACTLYR     : 0.045
#TALWIND     : 0.025
#CHOFFSET    : 0.0
#XLABEL      : Energy (eV)
#YLABEL      : Counts
#XPOSITION   : 2.42408
#YPOSITION   : 2.20814
#ZPOSITION   : 31.03511
#EDSDET      : SD
##SPECIMEN   : SPI MM2 Quartz[7][all]
##D2STDCMP   : Quartz,(O:53.2565),(Si:46.7435),2.65
##DET_HASH   : 12273538-fd48-a23f-0a19-f1e6fa85caef
##CALIB_HASH : 6abaa72c-aa41-8738-0be9-f592914732f3
##WORKING    : 15.0 mm
##DET_NAME   : EDAX All
##DET_MODE   : MediumLE
#SPECTRUM    :
37,
24,
11,
14,
68,
247,
835,
2479,
7314,
9616,
5094,
2401,
2426,
3246,
6223,
24959,
100393,
198527,
145078,
37520,
4755,
1716,
1751,
1956,
1952,
2011,
2154,
2329,
2379,
2540,
2658,
2696,
2892,
3205,
3265,
3500,
3580,
3436,
3576,
3662,
3864,
3957,
4108,
4046,
4270,
4398,
4575,
4688,
5087,
5365,
5774,
6041,
6081,
6537,
9005,
30400,
129604,
339236,
464538,
326903,
128219,
40317,
15947,
6609,
2948,
2158,
1870,
1961,
2042,
1952,
1995,
1998,
2187,
2456,
2975,
3268,
3242,
2638,
2231,
2103,
2068,
2047,
2065,
2000,
1965,
2039,
2028,
2138,
2110,
2040,
2154,
2137,
1985,
2005,
2049,
2014,
1986,
2011,
2022,
1980,
1936,
2049,
2020,
1976,
1955,
1881,
1934,
1909,
1889,
1935,
1778,
1855,
1924,
2073,
2286,
2816,
3089,
2886,
2398,
2106,
1889,
1785,
1708,
1705,
1791,
1624,
1661,
1669,
1626,
1621,
1668,
1612,
1642,
1639,
1598,
1631,
1557,
1592,
1586,
1526,
1571,
1534,
1540,
1443,
1469,
1444,
1448,
1426,
1433,
1461,
1326,
1365,
1422,
1363,
1387,
1402,
1323,
1343,
1367,
1357,
1341,
1353,
1274,
1261,
1297,
1293,
1243,
1247,
1218,
1213,
1219,
1214,
1167,
1214,
1235,
1165,
1087,
1170,
1192,
1173,
1161,
1144,
1151,
1073,
1101,
1117,
1072,
1027,
1095,
1067,
1079,
1007,
1038,
1061,
1048,
995,
991,
981,
1008,
1015,
996,
945,
965,
965,
927,
895,
957,
924,
935,
929,
904,
918,
965,
981,
996,
951,
861,
832,
863,
809,
836,
871,
803,
892,
946,
808,
835,
727,
807,
794,
801,
767,
731,
718,
777,
816,
769,
748,
694,
752,
710,
719,
669,
694,
704,
687,
699,
692,
729,
743,
718,
691,
743,
669,
649,
671,
609,
670,
625,
622,
651,
646,
604,
594,
620,
605,
642,
607,
603,
559,
606,
596,
607,
519,
614,
588,
602,
540,
570,
556,
587,
538,
547,
507,
543,
481,
520,
534,
528,
505,
495,
484,
532,
511,
465,
476,
497,
493,
452,
402,
413,
480,
477,
423,
460,
450,
436,
419,
410,
426,
422,
449,
438,
389,
439,
429,
397,
429,
412,
430,
427,
428,
393,
386,
426,
419,
373,
377,
398,
382,
348,
379,
380,
347,
364,
370,
350,
330,
339,
359,
331,
370,
337,
336,
354,
327,
333,
334,
331,
304,
303,
295,
360,
313,
313,
316,
313,
293,
292,
310,
281,
293,
291,
305,
275,
260,
263,
280,
259,
257,
296,
260,
281,
246,
262,
255,
239,
263,
255,
251,
219,
235,
234,
224,
252,
238,
216,
220,
232,
251,
252,
241,
218,
204,
209,
223,
201,
214,
224,
197,
193,
209,
198,
203,
197,
193,
191,
198,
205,
197,
185,
175,
169,
187,
177,
182,
161,
196,
159,
171,
161,
160,
164,
150,
167,
169,
161,
167,
163,
160,
140,
160,
156,
164,
147,
141,
152,
152,
146,
132,
138,
139,
137,
149,
134,
124,
139,
146,
127,
108,
138,
136,
142,
112,
125,
123,
124,
112,
108,
89,
102,
108,
106,
113,
97,
120,
92,
101,
86,
74,
106,
90,
105,
90,
89,
81,
96,
104,
78,
73,
108,
80,
82,
90,
84,
85,
75,
84,
71,
71,
61,
80,
91,
76,
84,
68,
71,
74,
81,
63,
90,
66,
65,
61,
59,
65,
67,
70,
54,
62,
60,
66,
56,
63,
45,
48,
58,
57,
59,
42,
44,
50,
43,
49,
56,
46,
51,
49,
44,
50,
36,
45,
48,
44,
59,
36,
36,
45,
37,
42,
30,
35,
34,
39,
41,
31,
32,
29,
32,
33,
32,
40,
26,
36,
35,
28,
31,
40,
31,
24,
28,
18,
34,
30,
22,
37,
21,
34,
30,
19,
43,
31,
12,
27,
18,
23,
24,
16,
15,
24,
19,
28,
16,
25,
32,
14,
15,
11,
29,
14,
16,
21,
15,
18,
12,
17,
19,
15,
13,
22,
21,
13,
16,
12,
8,
6,
6,
8,
14,
20,
12,
17,
11,
8,
8,
11,
6,
8,
11,
11,
4,
11,
5,
12,
10,
5,
8,
11,
10,
10,
6,
8,
2,
4,
2,
7,
4,
5,
6,
7,
1,
6,
5,
7,
3,
2,
2,
4,
4,
4,
3,
3,
2,
2,
1,
2,
3,
1,
0,
1,
2,
1,
0,
0,
0,
0,
0,
0,
0,
0,
1,
1,
0,
0,
0,
0,
0,
1,
1,
0,
1,
0,
0,
0,
1,
1,
0,
0,
0,
0,
0,
0,
0,
0,
0,
0,
0,
0,
0,
0,
0,
1,
0,
0,
0,
1,
0,
0,
1,
0,
0,
0,
0,
0,
0,
0,
0,
0,
0,
0,
0,
0,
1,
0,
0,
0,
0,
0,
0,
0,
0,
1,
0,
0,
0,
0,
0,
0,
0,
0,
0,
0,
0,
0,
0,
0,
0,
0,
0,
0,
1,
0,
0,
0,
0,
0,
0,
0,
0,
0,
0,
0,
0,
0,
0,
0,
0,
0,
0,
0,
0,
0,
0,
0,
0,
0,
0,
0,
0,
0,
0,
0,
0,
0,
0,
0,
0,
0,
0,
0,
0,
1,
0,
0,
0,
0,
0,
0,
0,
0,
0,
0,
0,
0,
0,
0,
0,
0,
0,
0,
0,
0,
0,
1,
0,
0,
0,
0,
0,
0,
0,
0,
0,
0,
0,
0,
0,
0,
0,
0,
0,
0,
0,
0,
0,
0,
0,
0,
0,
0,
0,
0,
0,
0,
0,
0,
0,
0,
0,
0,
0,
0,
0,
0,
0,
0,
0,
0,
0,
0,
0,
0,
0,
0,
0,
0,
0,
0,
0,
0,
0,
0,
0,
0,
0,
0,
0,
0,
0,
0,
0,
1,
0,
0,
0,
0,
0,
0,
0,
0,
0,
0,
0,
0,
0,
0,
0,
0,
0,
0,
0,
0,
0,
0,
0,
0,
0,
0,
0,
0,
0,
0,
0,
0,
0,
0,
0,
0,
0,
0,
0,
0,
0,
0,
0,
0,
0,
0,
0,
0,
0,
0,
0,
0,
0,
0,
0,
0,
0,
0,
0,
0,
0,
0,
0,
0,
0,
0,
0,
0,
0,
0,
0,
0,
0,
0,
0,
0,
0,
0,
0,
0,
0,
0,
0,
0,
0,
0,
0,
0,
0,
0,
0,
0,
0,
0,
0,
0,
0,
0,
0,
0,
0,
0,
0,
0,
0,
0,
0,
0,
0,
0,
0,
0,
0,
0,
0,
0,
0,
0,
0,
0,
0,
0,
0,
0,
0,
0,
0,
0,
0,
0,
0,
0,
0,
0,
0,
0,
0,
0,
0,
0,
0,
0,
0,
0,
0,
0,
0,
0,
0,
0,
0,
0,
0,
0,
0,
0,
0,
0,
0,
0,
0,
0,
0,
0,
0,
0,
0,
0,
0,
0,
0,
0,
0,
0,
0,
0,
0,
0,
0,
0,
0,
0,
0,
0,
0,
0,
0,
0,
0,
0,
0,
0,
0,
0,
0,
0,
0,
0,
0,
0,
0,
0,
0,
0,
0,
0,
0,
0,
0,
0,
0,
0,
0,
0,
0,
0,
0,
0,
0,
0,
0,
0,
0,
0,
0,
0,
0,
0,
0,
0,
0,
0,
0,
0,
0,
0,
0,
0,
0,
0,
0,
0,
0,
0,
0,
0,
0,
0,
0,
0,
0,
0,
0,
0,
0,
0,
0,
0,
0,
0,
0,
0,
0,
0,
0,
0,
0,
0,
0,
0,
0,
0,
0,
0,
0,
0,
0,
0,
0,
0,
0,
0,
0,
0,
0,
0,
0,
0,
0,
0,
0,
0,
0,
0,
0,
0,
0,
0,
0,
0,
0,
0,
0,
0,
0,
0,
0,
0,
0,
0,
0,
0,
0,
0,
0,
0,
0,
0,
0,
0,
0,
0,
0,
0,
0,
0,
0,
0,
0,
0,
0,
0,
0,
0,
0,
0,
0,
0,
0,
0,
0,
0,
0,
0,
0,
0,
0,
0,
0,
0,
0,
0,
0,
0,
0,
0,
0,
0,
0,
0,
0,
0,
0,
0,
0,
0,
0,
0,
0,
0,
0,
0,
0,
0,
0,
0,
0,
0,
0,
0,
0,
0,
0,
0,
0,
0,
0,
0,
0,
0,
0,
0,
0,
0,
0,
0,
0,
0,
0,
0,
0,
0,
0,
0,
0,
0,
0,
0,
0,
0,
0,
0,
0,
0,
0,
0,
0,
0,
0,
0,
0,
0,
0,
0,
0,
0,
0,
0,
0,
0,
0,
0,
0,
0,
0,
0,
0,
0,
0,
0,
0,
0,
0,
0,
0,
0,
0,
0,
0,
0,
0,
0,
0,
0,
0,
0,
0,
0,
0,
0,
0,
0,
0,
0,
0,
0,
0,
0,
0,
0,
0,
0,
0,
0,
0,
0,
0,
0,
0,
0,
0,
0,
0,
0,
#ENDOFDATA   :