File: N132962/Quantification/20 keV/MMM2/SPI MM2 Pyrite[2][4].msa
#FORMAT      : EMSA/MAS Spectral Data File
#VERSION     : 1.0
#TITLE       : SPI MM2 Pyrite[2][all]
#DATE        : 13-MAR-2025
#TIME        : 12:51
#OWNER       : Unknown
#NPOINTS     : 4096
#NCOLUMNS    : 1
#XUNITS      : eV
#YUNITS      : counts
#DATATYPE    : Y
#XPERCHAN    : 9.99778
#OFFSET      : 1.69135
#BEAMKV      : 20
#SIGNALTYPE  : EDS
#ELEVANGLE   : 35
#AZIMANGLE   : 0
#LIVETIME    : 239.845
#REALTIME    : 262.06
#PROBECUR    : 1.02627
#TAUWIND     : 0
#TDEADLYR    : 0
#TACTLYR     : 0.045
#TALWIND     : 0.025
#CHOFFSET    : 0.0
#XLABEL      : Energy (eV)
#YLABEL      : Counts
#XPOSITION   : 7.83242
#YPOSITION   : 1.95805
#ZPOSITION   : 31.03511
#EDSDET      : SD
##SPECIMEN   : SPI MM2 Pyrite[2][all]
##DET_HASH   : 12273538-fd48-a23f-0a19-f1e6fa85caef
##CALIB_HASH : 6abaa72c-aa41-8738-0be9-f592914732f3
##WORKING    : 15.0 mm
##DET_NAME   : EDAX All
##DET_MODE   : MediumLE
#SPECTRUM    :
33,
24,
12,
52,
362,
885,
1261,
3294,
9448,
12393,
6308,
2450,
2230,
2424,
2739,
3400,
4851,
7617,
13004,
18411,
20256,
20597,
34222,
60938,
50616,
18821,
5958,
3959,
3676,
3457,
3414,
3433,
3593,
3709,
3827,
3993,
4049,
4286,
4428,
4521,
4593,
4912,
5071,
5117,
5247,
5221,
5503,
5589,
5686,
5675,
5860,
5953,
5837,
5968,
6025,
5968,
6156,
6775,
7116,
6942,
6715,
6389,
6021,
5922,
5817,
5880,
6095,
6331,
6306,
6400,
6398,
7229,
10472,
20221,
52761,
148966,
308458,
388343,
281229,
120756,
40272,
27801,
31144,
25603,
14197,
6567,
3783,
3079,
3139,
3056,
3227,
3102,
3125,
3102,
3305,
3110,
3218,
3331,
3423,
3501,
3464,
3371,
3270,
3129,
3166,
3094,
3155,
3081,
3093,
3138,
3114,
3055,
2975,
3100,
3040,
3020,
3104,
3010,
3010,
3065,
3036,
3046,
2982,
3065,
3002,
3036,
2853,
2890,
2946,
2854,
2840,
2945,
2944,
2850,
2855,
2797,
2833,
2875,
2787,
2741,
2864,
2797,
2781,
2785,
2721,
2721,
2719,
2683,
2812,
2698,
2771,
2942,
3034,
3472,
3726,
3455,
3237,
2867,
2742,
2635,
2568,
2494,
2388,
2413,
2467,
2437,
2376,
2327,
2306,
2364,
2344,
2320,
2349,
2329,
2315,
2356,
2254,
2253,
2301,
2239,
2325,
2225,
2222,
2155,
2078,
2130,
2227,
2060,
2103,
1998,
1965,
2015,
2095,
2042,
2046,
2050,
2006,
2045,
1999,
2050,
1945,
1985,
1968,
1969,
2017,
2110,
2212,
2730,
4364,
9800,
23073,
45717,
72295,
88213,
83035,
59765,
33650,
14875,
6062,
2901,
1983,
1886,
1800,
1723,
1735,
1740,
1732,
1805,
1827,
1995,
2288,
3296,
5332,
8284,
11474,
12808,
11603,
8746,
5584,
3192,
1982,
1536,
1321,
1303,
1305,
1355,
1314,
1319,
1430,
1403,
1309,
1234,
1297,
1257,
1291,
1203,
1223,
1199,
1211,
1220,
1261,
1225,
1241,
1194,
1179,
1181,
1178,
1162,
1162,
1142,
1165,
1184,
1130,
1057,
1129,
1126,
1093,
1145,
1121,
1089,
1019,
1030,
1073,
1115,
1059,
1082,
1111,
1143,
1233,
1267,
1295,
1295,
1228,
1187,
1085,
991,
1010,
1023,
984,
964,
973,
981,
951,
889,
936,
935,
924,
923,
984,
890,
953,
975,
904,
943,
878,
885,
940,
827,
846,
901,
779,
800,
794,
844,
757,
778,
810,
812,
787,
787,
804,
757,
774,
785,
763,
763,
768,
750,
753,
770,
753,
726,
710,
737,
697,
673,
664,
708,
679,
644,
656,
661,
641,
667,
646,
717,
612,
593,
629,
670,
603,
602,
651,
624,
602,
617,
581,
600,
619,
622,
579,
552,
550,
574,
578,
604,
592,
558,
543,
611,
557,
580,
524,
492,
530,
490,
572,
542,
534,
509,
543,
486,
478,
488,
492,
494,
497,
501,
472,
467,
471,
467,
490,
475,
451,
432,
459,
466,
420,
420,
426,
429,
417,
409,
417,
423,
428,
420,
412,
407,
371,
389,
398,
400,
419,
391,
447,
376,
373,
371,
385,
346,
328,
336,
339,
338,
350,
349,
328,
302,
336,
298,
320,
288,
305,
345,
308,
317,
313,
326,
268,
270,
315,
294,
280,
286,
259,
275,
248,
256,
273,
272,
255,
254,
258,
231,
254,
248,
238,
214,
258,
230,
238,
219,
223,
214,
228,
242,
202,
215,
222,
236,
208,
227,
212,
207,
195,
204,
183,
181,
200,
176,
197,
192,
170,
188,
178,
163,
180,
175,
170,
206,
161,
175,
156,
161,
135,
167,
160,
127,
130,
140,
148,
145,
127,
161,
141,
145,
121,
123,
133,
153,
109,
138,
135,
116,
126,
121,
111,
114,
138,
105,
104,
100,
112,
117,
112,
103,
112,
100,
91,
93,
95,
101,
103,
94,
102,
99,
107,
83,
93,
105,
95,
89,
98,
82,
82,
88,
76,
79,
85,
89,
71,
65,
86,
73,
54,
75,
85,
68,
69,
79,
65,
75,
52,
54,
64,
57,
59,
63,
54,
60,
63,
51,
55,
33,
47,
41,
57,
41,
44,
42,
43,
37,
45,
52,
49,
41,
34,
40,
48,
37,
23,
35,
36,
34,
41,
33,
19,
35,
23,
34,
30,
28,
29,
25,
17,
19,
21,
26,
26,
29,
19,
26,
29,
19,
21,
20,
13,
18,
9,
28,
23,
15,
16,
14,
10,
8,
18,
10,
14,
12,
15,
14,
13,
16,
11,
10,
13,
10,
12,
6,
6,
6,
8,
4,
4,
4,
6,
5,
3,
5,
3,
3,
4,
3,
3,
0,
1,
2,
1,
3,
0,
4,
3,
0,
1,
1,
1,
2,
1,
2,
1,
1,
1,
2,
0,
2,
1,
0,
0,
0,
0,
0,
2,
0,
0,
1,
1,
2,
0,
0,
2,
0,
1,
2,
1,
1,
0,
0,
0,
2,
0,
1,
0,
1,
0,
2,
0,
1,
0,
1,
1,
0,
2,
0,
0,
0,
1,
1,
0,
0,
1,
1,
0,
0,
1,
1,
0,
2,
1,
0,
0,
0,
1,
0,
0,
0,
1,
0,
1,
0,
0,
1,
0,
0,
1,
0,
0,
1,
0,
0,
1,
0,
0,
0,
0,
0,
0,
0,
0,
0,
0,
0,
0,
0,
0,
1,
1,
0,
0,
0,
0,
0,
0,
0,
1,
1,
0,
0,
0,
0,
0,
0,
0,
0,
0,
0,
0,
0,
0,
0,
0,
0,
0,
1,
1,
0,
0,
0,
0,
0,
0,
0,
0,
1,
0,
0,
0,
0,
0,
0,
0,
0,
0,
0,
0,
0,
0,
0,
0,
0,
1,
0,
0,
0,
1,
0,
0,
1,
0,
0,
0,
0,
0,
0,
0,
0,
0,
0,
0,
1,
0,
0,
1,
0,
0,
1,
0,
0,
0,
0,
0,
0,
0,
0,
0,
0,
0,
0,
0,
0,
0,
0,
0,
0,
0,
0,
0,
0,
0,
0,
0,
0,
0,
0,
0,
0,
0,
0,
0,
0,
0,
0,
0,
0,
0,
0,
0,
0,
0,
0,
0,
0,
0,
0,
0,
0,
0,
0,
0,
0,
0,
0,
0,
0,
0,
0,
0,
0,
0,
0,
0,
0,
0,
0,
0,
0,
0,
0,
0,
0,
0,
0,
0,
0,
0,
0,
0,
0,
0,
0,
0,
0,
0,
0,
0,
0,
0,
0,
0,
0,
0,
0,
0,
0,
0,
0,
0,
0,
0,
0,
0,
0,
0,
0,
0,
0,
0,
0,
0,
0,
0,
0,
0,
0,
0,
0,
0,
0,
0,
0,
0,
0,
0,
0,
0,
0,
0,
0,
0,
0,
0,
0,
0,
0,
0,
0,
0,
0,
0,
0,
0,
0,
0,
0,
0,
0,
0,
0,
0,
0,
0,
0,
0,
0,
0,
0,
0,
0,
0,
0,
0,
0,
0,
0,
0,
0,
0,
0,
0,
0,
0,
0,
0,
0,
0,
0,
0,
0,
0,
0,
0,
0,
0,
0,
0,
0,
0,
0,
0,
0,
0,
0,
0,
0,
0,
0,
0,
0,
0,
0,
0,
0,
0,
0,
0,
0,
0,
0,
0,
0,
0,
0,
0,
0,
0,
0,
0,
0,
0,
0,
0,
0,
0,
0,
0,
0,
0,
0,
0,
0,
0,
0,
0,
0,
0,
0,
0,
0,
0,
0,
0,
0,
0,
0,
0,
0,
0,
0,
0,
0,
0,
0,
0,
0,
0,
0,
0,
0,
0,
0,
0,
0,
0,
0,
0,
0,
0,
0,
0,
0,
0,
0,
0,
0,
0,
0,
0,
0,
0,
0,
0,
0,
0,
0,
0,
0,
0,
0,
0,
0,
0,
0,
0,
0,
0,
0,
0,
1,
0,
0,
0,
0,
0,
0,
0,
0,
0,
0,
0,
0,
0,
0,
0,
0,
0,
0,
0,
0,
0,
0,
0,
0,
0,
0,
0,
0,
0,
0,
0,
0,
0,
0,
0,
0,
0,
0,
0,
0,
0,
0,
0,
0,
0,
0,
0,
0,
0,
0,
0,
0,
0,
0,
0,
0,
0,
0,
0,
0,
0,
0,
0,
0,
0,
0,
0,
0,
0,
0,
0,
0,
0,
0,
0,
0,
0,
0,
0,
0,
0,
0,
0,
0,
0,
0,
0,
0,
0,
0,
0,
0,
0,
0,
0,
0,
0,
0,
0,
0,
0,
0,
0,
0,
0,
0,
0,
0,
0,
0,
0,
0,
0,
0,
0,
0,
0,
0,
0,
0,
0,
0,
0,
0,
0,
0,
0,
0,
0,
0,
0,
0,
0,
0,
0,
0,
0,
0,
0,
0,
0,
0,
0,
0,
0,
0,
0,
0,
0,
0,
0,
0,
0,
0,
0,
0,
0,
0,
0,
0,
0,
0,
0,
0,
0,
0,
0,
0,
0,
0,
0,
0,
0,
0,
0,
0,
0,
0,
0,
0,
0,
0,
0,
0,
0,
0,
0,
0,
0,
0,
0,
0,
0,
0,
0,
0,
0,
0,
0,
0,
0,
0,
0,
0,
0,
0,
#ENDOFDATA   :