File: N132962/Quantification/20 keV/MMM2/SPI MM2 Pyrite[4][4].msa
#FORMAT      : EMSA/MAS Spectral Data File
#VERSION     : 1.0
#TITLE       : SPI MM2 Pyrite[4][all]
#DATE        : 13-MAR-2025
#TIME        : 12:53
#OWNER       : Unknown
#NPOINTS     : 4096
#NCOLUMNS    : 1
#XUNITS      : eV
#YUNITS      : counts
#DATATYPE    : Y
#XPERCHAN    : 9.99778
#OFFSET      : 1.69135
#BEAMKV      : 20
#SIGNALTYPE  : EDS
#ELEVANGLE   : 35
#AZIMANGLE   : 0
#LIVETIME    : 239.855
#REALTIME    : 262.0544
#PROBECUR    : 1.02627
#TAUWIND     : 0
#TDEADLYR    : 0
#TACTLYR     : 0.045
#TALWIND     : 0.025
#CHOFFSET    : 0.0
#XLABEL      : Energy (eV)
#YLABEL      : Counts
#XPOSITION   : 7.85067
#YPOSITION   : 1.87824
#ZPOSITION   : 31.03511
#EDSDET      : SD
##SPECIMEN   : SPI MM2 Pyrite[4][all]
##DET_HASH   : 12273538-fd48-a23f-0a19-f1e6fa85caef
##CALIB_HASH : 6abaa72c-aa41-8738-0be9-f592914732f3
##WORKING    : 15.0 mm
##DET_NAME   : EDAX All
##DET_MODE   : MediumLE
#SPECTRUM    :
17,
30,
9,
69,
390,
858,
1259,
3187,
9212,
12499,
6121,
2448,
2201,
2431,
2720,
3363,
4882,
7812,
13079,
18255,
20642,
20504,
34460,
60742,
50696,
18995,
6060,
3896,
3635,
3363,
3427,
3437,
3654,
3695,
3829,
3934,
4192,
4196,
4351,
4494,
4583,
4848,
5063,
4988,
5096,
5344,
5493,
5599,
5675,
5850,
5864,
5873,
5735,
5796,
5848,
5991,
6320,
6822,
7018,
7039,
6756,
6239,
5875,
5888,
5885,
5936,
6181,
6189,
6316,
6222,
6386,
7397,
10645,
20078,
52678,
148625,
308297,
388041,
280991,
120518,
40606,
27815,
30775,
25540,
14079,
6339,
3735,
3234,
3165,
3032,
3136,
3165,
3162,
3176,
3167,
3196,
3301,
3261,
3324,
3419,
3593,
3487,
3386,
3300,
3112,
3161,
3129,
3138,
3160,
3021,
3167,
3042,
3022,
2991,
3046,
2973,
2992,
3014,
3020,
3152,
3001,
3045,
2986,
3030,
2994,
2990,
2893,
2933,
2918,
2880,
2813,
2877,
2907,
2921,
2886,
2903,
2854,
2899,
2828,
2846,
2787,
2687,
2614,
2716,
2668,
2743,
2647,
2729,
2697,
2656,
2746,
2956,
3154,
3464,
3547,
3539,
3144,
2961,
2721,
2580,
2539,
2446,
2609,
2442,
2474,
2476,
2405,
2404,
2437,
2272,
2337,
2250,
2337,
2343,
2325,
2296,
2346,
2311,
2267,
2358,
2245,
2306,
2227,
2179,
2229,
2152,
2161,
2012,
2048,
2121,
2110,
2004,
2027,
2043,
2004,
2005,
2003,
1950,
2010,
1974,
2002,
2038,
1980,
1970,
2083,
2056,
2291,
2687,
4443,
9704,
22695,
45504,
72396,
88419,
82952,
59971,
33574,
15338,
6102,
2982,
2014,
1802,
1749,
1788,
1727,
1741,
1731,
1756,
1802,
1969,
2387,
3390,
5236,
8364,
11151,
12721,
11732,
8650,
5466,
3174,
2042,
1516,
1394,
1301,
1348,
1388,
1364,
1256,
1417,
1368,
1375,
1363,
1224,
1281,
1271,
1301,
1233,
1253,
1185,
1244,
1232,
1172,
1145,
1170,
1194,
1167,
1185,
1194,
1153,
1109,
1055,
1124,
1058,
1120,
1097,
1097,
1128,
1043,
1133,
1103,
1077,
1103,
1047,
1062,
1063,
1023,
1109,
1171,
1200,
1230,
1346,
1271,
1174,
1110,
1102,
1090,
1061,
936,
970,
996,
923,
991,
937,
867,
951,
889,
912,
933,
929,
932,
970,
922,
954,
880,
887,
903,
900,
906,
888,
877,
816,
788,
803,
764,
801,
855,
823,
744,
829,
793,
761,
793,
804,
747,
820,
757,
769,
704,
768,
761,
752,
710,
703,
752,
703,
723,
747,
667,
680,
674,
661,
709,
718,
708,
632,
636,
613,
650,
638,
654,
641,
637,
614,
596,
600,
626,
650,
571,
570,
617,
631,
571,
610,
575,
558,
558,
613,
525,
518,
578,
580,
573,
512,
558,
554,
569,
539,
501,
553,
506,
498,
506,
479,
481,
492,
505,
485,
486,
436,
447,
467,
442,
436,
492,
434,
457,
436,
410,
421,
437,
434,
409,
386,
433,
401,
378,
380,
414,
393,
403,
379,
396,
369,
384,
404,
405,
384,
402,
358,
358,
379,
375,
357,
355,
343,
319,
322,
346,
363,
325,
322,
272,
335,
327,
353,
322,
302,
304,
292,
316,
284,
286,
266,
275,
309,
291,
267,
286,
272,
266,
272,
287,
286,
259,
261,
251,
248,
252,
250,
251,
237,
221,
207,
205,
238,
223,
241,
215,
205,
222,
227,
200,
207,
210,
212,
216,
175,
214,
204,
179,
180,
180,
184,
173,
182,
167,
184,
161,
192,
162,
189,
171,
190,
157,
157,
144,
182,
142,
144,
144,
122,
166,
153,
151,
157,
133,
142,
132,
150,
116,
137,
154,
123,
130,
121,
112,
122,
118,
102,
119,
103,
133,
134,
99,
119,
90,
113,
105,
122,
97,
109,
81,
99,
102,
89,
102,
101,
106,
89,
106,
87,
91,
74,
74,
87,
96,
90,
72,
81,
78,
53,
83,
93,
96,
77,
80,
75,
74,
68,
81,
66,
54,
79,
68,
65,
52,
73,
64,
77,
59,
51,
62,
54,
53,
33,
55,
53,
50,
44,
49,
43,
56,
50,
48,
52,
53,
42,
48,
34,
40,
33,
26,
38,
36,
39,
38,
27,
42,
37,
29,
24,
36,
26,
32,
39,
33,
29,
24,
32,
24,
30,
31,
18,
27,
17,
15,
23,
19,
13,
15,
22,
21,
12,
16,
14,
17,
10,
22,
6,
7,
10,
7,
9,
16,
5,
12,
7,
7,
15,
4,
6,
11,
8,
2,
9,
5,
5,
4,
5,
6,
5,
6,
4,
1,
1,
1,
2,
2,
3,
1,
1,
0,
2,
0,
0,
2,
0,
0,
0,
2,
1,
2,
1,
0,
1,
1,
0,
0,
2,
2,
3,
0,
0,
1,
0,
2,
2,
0,
1,
0,
0,
2,
2,
1,
0,
3,
2,
2,
0,
1,
2,
0,
0,
1,
1,
1,
0,
2,
1,
0,
4,
0,
2,
0,
0,
0,
0,
0,
0,
0,
0,
1,
0,
0,
0,
0,
0,
1,
0,
0,
0,
0,
1,
1,
0,
1,
1,
0,
0,
0,
0,
0,
0,
0,
0,
1,
0,
0,
0,
0,
0,
1,
0,
1,
0,
1,
0,
0,
0,
1,
1,
1,
0,
0,
2,
0,
0,
0,
0,
1,
0,
0,
0,
1,
0,
0,
0,
0,
2,
0,
0,
0,
0,
0,
0,
0,
0,
0,
1,
0,
0,
0,
0,
0,
0,
0,
0,
0,
0,
0,
0,
0,
1,
0,
0,
0,
0,
0,
1,
0,
0,
0,
0,
0,
1,
0,
0,
0,
0,
1,
0,
0,
0,
0,
0,
0,
0,
0,
0,
0,
0,
0,
0,
0,
0,
0,
0,
0,
1,
0,
0,
1,
0,
0,
0,
0,
1,
0,
0,
0,
0,
0,
0,
0,
0,
0,
0,
0,
0,
0,
0,
0,
0,
0,
1,
0,
0,
0,
0,
0,
0,
0,
0,
0,
0,
0,
0,
1,
0,
1,
0,
0,
0,
0,
0,
0,
0,
0,
0,
0,
0,
0,
0,
0,
0,
0,
0,
0,
0,
0,
0,
0,
0,
0,
0,
0,
0,
0,
0,
0,
0,
0,
0,
0,
0,
0,
0,
0,
0,
0,
0,
0,
0,
0,
0,
0,
0,
0,
0,
0,
0,
0,
0,
0,
0,
0,
0,
0,
0,
0,
0,
0,
1,
0,
0,
0,
0,
0,
0,
0,
0,
0,
0,
0,
0,
0,
0,
0,
0,
0,
0,
0,
0,
0,
0,
0,
0,
0,
0,
0,
0,
0,
0,
0,
0,
0,
0,
0,
0,
0,
0,
0,
0,
0,
0,
0,
0,
0,
0,
0,
0,
0,
1,
0,
0,
0,
0,
0,
0,
0,
0,
0,
0,
0,
0,
0,
0,
0,
0,
0,
0,
0,
0,
0,
0,
0,
0,
0,
0,
0,
0,
0,
0,
0,
0,
0,
0,
0,
0,
0,
0,
0,
0,
0,
0,
0,
0,
0,
0,
0,
0,
0,
0,
0,
0,
0,
0,
0,
0,
0,
0,
0,
0,
0,
0,
0,
0,
0,
0,
0,
0,
0,
0,
0,
0,
0,
0,
0,
0,
0,
0,
0,
0,
0,
0,
0,
0,
0,
0,
0,
0,
0,
0,
0,
0,
0,
0,
0,
0,
0,
0,
0,
0,
0,
0,
0,
0,
0,
0,
0,
0,
0,
0,
0,
0,
0,
0,
0,
0,
0,
0,
0,
0,
0,
0,
0,
0,
0,
0,
0,
0,
0,
0,
0,
0,
0,
0,
0,
0,
0,
0,
0,
0,
0,
0,
0,
0,
0,
0,
0,
0,
0,
0,
0,
0,
0,
0,
0,
0,
0,
0,
0,
0,
0,
0,
0,
0,
0,
0,
0,
0,
0,
0,
0,
0,
0,
0,
0,
0,
0,
0,
0,
0,
0,
0,
0,
0,
0,
0,
0,
0,
0,
0,
0,
0,
0,
0,
0,
0,
0,
0,
0,
0,
0,
0,
0,
0,
0,
0,
0,
0,
0,
0,
0,
0,
0,
0,
0,
0,
0,
0,
0,
0,
0,
0,
0,
0,
0,
0,
0,
0,
0,
0,
0,
0,
0,
0,
0,
0,
0,
0,
0,
0,
0,
0,
0,
0,
0,
0,
0,
0,
0,
0,
0,
0,
0,
0,
0,
0,
0,
0,
0,
0,
0,
0,
0,
0,
0,
0,
0,
0,
0,
0,
0,
0,
0,
0,
0,
0,
0,
0,
0,
0,
0,
0,
0,
0,
0,
0,
0,
0,
0,
0,
0,
0,
0,
0,
0,
0,
0,
0,
0,
0,
0,
0,
0,
0,
0,
0,
0,
0,
0,
0,
0,
0,
0,
0,
0,
0,
0,
0,
0,
0,
0,
0,
0,
0,
0,
0,
0,
0,
0,
0,
0,
0,
0,
0,
0,
0,
0,
0,
0,
0,
0,
0,
0,
0,
0,
0,
0,
0,
0,
0,
0,
0,
0,
0,
0,
0,
0,
0,
0,
0,
0,
0,
0,
#ENDOFDATA   :