File: N132962/Quantification/20 keV/MMM2/SPI MM2 Pyrope[1][4].msa
#FORMAT      : EMSA/MAS Spectral Data File
#VERSION     : 1.0
#TITLE       : SPI MM2 Pyrope[1][all]
#DATE        : 13-MAR-2025
#TIME        : 12:41
#OWNER       : Unknown
#NPOINTS     : 4096
#NCOLUMNS    : 1
#XUNITS      : eV
#YUNITS      : counts
#DATATYPE    : Y
#XPERCHAN    : 9.99778
#OFFSET      : 1.69135
#BEAMKV      : 20
#SIGNALTYPE  : EDS
#ELEVANGLE   : 35
#AZIMANGLE   : 0
#LIVETIME    : 239.8023
#REALTIME    : 255.022
#PROBECUR    : 1.02627
#TAUWIND     : 0
#TDEADLYR    : 0
#TACTLYR     : 0.045
#TALWIND     : 0.025
#CHOFFSET    : 0.0
#XLABEL      : Energy (eV)
#YLABEL      : Counts
#XPOSITION   : 4.58345
#YPOSITION   : 1.53495
#ZPOSITION   : 31.03511
#EDSDET      : SD
##SPECIMEN   : SPI MM2 Pyrope[1][all]
##D2STDCMP   : Pyrope,(O:47.6258),(Mg:18.0873),(Al:13.3861),(Si:20.9007),5.0
##DET_HASH   : 12273538-fd48-a23f-0a19-f1e6fa85caef
##CALIB_HASH : 6abaa72c-aa41-8738-0be9-f592914732f3
##WORKING    : 15.0 mm
##DET_NAME   : EDAX All
##DET_MODE   : MediumLE
#SPECTRUM    :
23,
24,
10,
15,
68,
320,
799,
2557,
7730,
10392,
5719,
2871,
2726,
3345,
6026,
22295,
89772,
174809,
128326,
34050,
5620,
3074,
4151,
6802,
6745,
4100,
2671,
2429,
2565,
2688,
2751,
2803,
3109,
3351,
3760,
3963,
4073,
4229,
4930,
9615,
32072,
78385,
94401,
53693,
16978,
5905,
5287,
12310,
39447,
79796,
80457,
42707,
14609,
6029,
5014,
10967,
40648,
104315,
141008,
100192,
41019,
14297,
7233,
4016,
2861,
2672,
2667,
2610,
2555,
2431,
2353,
2379,
2382,
2473,
2603,
2782,
2796,
2572,
2659,
2437,
2445,
2362,
2427,
2418,
2436,
2479,
2454,
2430,
2352,
2354,
2437,
2478,
2469,
2447,
2355,
2377,
2340,
2392,
2460,
2490,
2471,
2380,
2313,
2312,
2240,
2165,
2291,
2388,
2293,
2206,
2220,
2158,
2174,
2080,
2181,
2105,
2272,
2207,
2239,
2568,
4022,
7752,
12867,
15784,
13672,
8266,
4350,
2387,
2014,
1935,
2114,
2225,
2808,
3286,
3534,
3012,
2470,
1980,
1776,
1822,
1656,
1771,
1678,
1681,
1641,
1634,
1648,
1708,
1993,
2375,
2693,
2616,
2215,
1908,
1615,
1552,
1569,
1521,
1508,
1448,
1498,
1480,
1582,
1564,
1691,
1658,
1523,
1477,
1350,
1347,
1404,
1378,
1369,
1453,
1344,
1356,
1411,
1699,
2163,
2755,
3234,
3258,
2638,
2026,
1519,
1333,
1300,
1202,
1219,
1170,
1244,
1172,
1226,
1223,
1348,
1629,
1675,
1806,
1702,
1521,
1330,
1200,
1106,
1101,
1055,
1040,
1131,
1150,
1395,
2051,
3972,
7142,
10817,
13042,
12306,
9277,
5436,
2899,
1637,
1164,
984,
1000,
935,
941,
908,
948,
951,
931,
939,
964,
969,
1039,
1483,
1838,
2105,
2394,
2223,
1807,
1350,
1070,
898,
817,
804,
801,
736,
830,
779,
852,
826,
849,
797,
726,
773,
742,
759,
692,
723,
724,
697,
725,
714,
631,
690,
677,
671,
685,
639,
662,
673,
661,
648,
710,
618,
652,
626,
574,
581,
608,
628,
652,
573,
582,
600,
553,
589,
600,
562,
605,
575,
542,
567,
574,
575,
530,
525,
545,
500,
511,
498,
523,
506,
530,
530,
498,
513,
517,
486,
481,
520,
458,
486,
489,
503,
471,
495,
473,
408,
456,
476,
426,
457,
461,
454,
424,
443,
437,
435,
421,
396,
440,
390,
386,
402,
401,
410,
393,
374,
407,
398,
384,
405,
377,
373,
367,
368,
409,
341,
341,
387,
351,
339,
361,
332,
340,
350,
357,
342,
306,
309,
336,
321,
319,
327,
338,
306,
324,
299,
321,
299,
250,
311,
326,
308,
302,
282,
291,
306,
292,
285,
312,
289,
289,
260,
294,
273,
249,
268,
276,
276,
219,
238,
247,
213,
273,
206,
237,
246,
229,
218,
254,
227,
238,
241,
245,
218,
239,
229,
217,
253,
203,
218,
237,
217,
227,
211,
192,
204,
190,
189,
190,
183,
205,
187,
180,
179,
194,
185,
192,
166,
170,
181,
164,
175,
164,
170,
174,
164,
170,
176,
156,
160,
174,
158,
141,
146,
154,
147,
143,
167,
138,
176,
143,
121,
143,
146,
125,
138,
134,
133,
147,
122,
116,
117,
125,
128,
111,
108,
127,
111,
124,
121,
120,
122,
108,
94,
101,
93,
113,
93,
103,
119,
93,
109,
103,
119,
97,
90,
74,
97,
83,
99,
72,
84,
92,
92,
81,
88,
84,
83,
74,
73,
74,
74,
81,
75,
66,
82,
80,
72,
70,
83,
68,
63,
59,
78,
80,
70,
64,
62,
98,
60,
59,
57,
62,
58,
69,
62,
55,
45,
43,
54,
72,
51,
57,
43,
62,
48,
43,
57,
39,
46,
55,
43,
46,
49,
39,
32,
35,
45,
43,
34,
41,
37,
40,
38,
53,
32,
42,
29,
29,
45,
42,
30,
35,
38,
26,
32,
31,
31,
28,
34,
31,
26,
28,
33,
26,
26,
23,
26,
27,
31,
29,
27,
17,
27,
19,
24,
23,
27,
20,
13,
22,
23,
23,
13,
18,
18,
24,
14,
15,
12,
15,
16,
19,
15,
16,
12,
11,
11,
15,
9,
13,
16,
16,
17,
8,
9,
10,
5,
12,
9,
7,
9,
9,
8,
5,
9,
12,
8,
4,
8,
9,
8,
6,
4,
8,
7,
4,
5,
1,
2,
5,
7,
2,
3,
4,
4,
2,
1,
5,
3,
2,
5,
4,
0,
2,
1,
1,
2,
4,
0,
1,
0,
0,
0,
1,
0,
0,
1,
0,
2,
0,
0,
0,
0,
0,
0,
0,
0,
0,
1,
0,
0,
0,
0,
0,
0,
0,
0,
0,
0,
0,
0,
0,
0,
0,
0,
0,
0,
0,
0,
0,
0,
1,
0,
0,
0,
0,
1,
0,
0,
0,
0,
0,
0,
0,
0,
0,
0,
0,
0,
0,
0,
0,
0,
0,
0,
0,
0,
0,
0,
1,
0,
0,
0,
0,
0,
0,
0,
0,
0,
0,
0,
0,
0,
0,
1,
0,
0,
0,
0,
0,
0,
0,
0,
0,
0,
0,
0,
0,
0,
0,
0,
0,
0,
0,
0,
0,
0,
0,
0,
0,
0,
0,
0,
0,
0,
0,
0,
0,
0,
0,
0,
1,
0,
0,
0,
0,
0,
0,
0,
0,
0,
0,
0,
0,
0,
0,
0,
0,
0,
0,
0,
0,
0,
0,
0,
0,
0,
0,
0,
0,
0,
0,
0,
0,
0,
0,
0,
0,
0,
0,
0,
0,
0,
0,
0,
0,
0,
0,
0,
1,
0,
0,
0,
0,
1,
0,
0,
0,
0,
0,
0,
0,
0,
0,
0,
0,
0,
0,
0,
0,
0,
0,
0,
0,
0,
0,
0,
0,
1,
0,
0,
0,
0,
0,
0,
0,
0,
0,
0,
0,
0,
0,
0,
0,
0,
0,
0,
0,
0,
0,
0,
0,
0,
1,
0,
0,
0,
0,
0,
0,
0,
0,
0,
0,
0,
0,
0,
0,
0,
0,
0,
0,
0,
0,
0,
0,
0,
0,
0,
0,
0,
0,
0,
0,
0,
0,
0,
0,
0,
0,
0,
0,
0,
0,
0,
0,
0,
0,
0,
0,
0,
0,
0,
0,
0,
0,
0,
0,
0,
0,
0,
0,
0,
0,
0,
0,
0,
0,
0,
0,
0,
0,
0,
0,
0,
0,
0,
0,
0,
0,
0,
0,
0,
0,
0,
0,
0,
0,
0,
0,
0,
0,
0,
0,
0,
0,
0,
0,
0,
0,
0,
0,
0,
0,
0,
0,
0,
0,
0,
0,
0,
0,
0,
0,
0,
0,
0,
0,
0,
0,
0,
0,
0,
0,
0,
0,
0,
0,
0,
0,
0,
0,
0,
0,
0,
0,
0,
0,
0,
0,
0,
0,
0,
0,
0,
0,
0,
0,
0,
0,
0,
0,
0,
0,
0,
0,
0,
0,
0,
0,
0,
0,
0,
0,
0,
0,
0,
0,
0,
0,
0,
0,
0,
0,
0,
0,
0,
0,
0,
0,
0,
0,
0,
0,
0,
0,
0,
0,
0,
0,
0,
0,
0,
0,
0,
0,
0,
0,
0,
0,
0,
0,
0,
0,
0,
0,
0,
0,
0,
0,
0,
0,
0,
0,
0,
0,
0,
0,
0,
0,
0,
0,
0,
0,
0,
0,
0,
0,
0,
0,
0,
0,
0,
0,
0,
0,
0,
0,
0,
0,
0,
0,
0,
0,
0,
0,
0,
0,
0,
0,
0,
0,
0,
0,
0,
0,
0,
0,
0,
0,
0,
0,
0,
0,
0,
0,
0,
0,
0,
0,
0,
0,
0,
0,
0,
0,
0,
0,
0,
0,
0,
0,
0,
0,
0,
0,
0,
0,
0,
0,
0,
0,
0,
0,
0,
0,
0,
0,
0,
0,
0,
0,
0,
0,
0,
0,
0,
0,
0,
0,
0,
0,
0,
0,
0,
0,
0,
0,
0,
0,
0,
0,
0,
0,
0,
0,
0,
0,
0,
0,
0,
0,
0,
0,
0,
0,
0,
0,
0,
0,
0,
0,
0,
0,
0,
0,
0,
0,
0,
0,
0,
0,
0,
0,
0,
0,
0,
0,
0,
0,
0,
0,
0,
0,
0,
0,
0,
0,
0,
0,
0,
0,
0,
0,
0,
0,
0,
0,
0,
0,
0,
0,
0,
0,
0,
0,
0,
0,
0,
0,
0,
0,
0,
0,
0,
0,
0,
0,
0,
0,
0,
0,
0,
0,
0,
0,
0,
0,
0,
0,
0,
0,
0,
0,
0,
0,
0,
0,
0,
0,
0,
0,
0,
0,
0,
0,
0,
0,
0,
0,
0,
0,
0,
0,
0,
0,
0,
0,
0,
0,
0,
0,
0,
0,
0,
0,
0,
0,
0,
0,
0,
0,
0,
0,
0,
0,
0,
0,
0,
0,
0,
0,
0,
0,
0,
0,
0,
0,
0,
0,
0,
0,
0,
0,
0,
0,
0,
0,
0,
0,
0,
0,
0,
0,
#ENDOFDATA   :