File: N132962/Quantification/20 keV/MMM2/SPI MM2 Pyrite[7][4].msa
#FORMAT      : EMSA/MAS Spectral Data File
#VERSION     : 1.0
#TITLE       : SPI MM2 Pyrite[7][all]
#DATE        : 13-MAR-2025
#TIME        : 12:57
#OWNER       : Unknown
#NPOINTS     : 4096
#NCOLUMNS    : 1
#XUNITS      : eV
#YUNITS      : counts
#DATATYPE    : Y
#XPERCHAN    : 9.99778
#OFFSET      : 1.69135
#BEAMKV      : 20
#SIGNALTYPE  : EDS
#ELEVANGLE   : 35
#AZIMANGLE   : 0
#LIVETIME    : 239.858
#REALTIME    : 262.054
#PROBECUR    : 1.02627
#TAUWIND     : 0
#TDEADLYR    : 0
#TACTLYR     : 0.045
#TALWIND     : 0.025
#CHOFFSET    : 0.0
#XLABEL      : Energy (eV)
#YLABEL      : Counts
#XPOSITION   : 7.88986
#YPOSITION   : 1.90523
#ZPOSITION   : 31.03511
#EDSDET      : SD
##SPECIMEN   : SPI MM2 Pyrite[7][all]
##DET_HASH   : 12273538-fd48-a23f-0a19-f1e6fa85caef
##CALIB_HASH : 6abaa72c-aa41-8738-0be9-f592914732f3
##WORKING    : 15.0 mm
##DET_NAME   : EDAX All
##DET_MODE   : MediumLE
#SPECTRUM    :
15,
17,
15,
52,
365,
858,
1261,
3224,
9396,
12373,
6017,
2365,
2197,
2420,
2604,
3305,
4544,
7288,
12470,
18284,
20656,
20835,
34652,
61112,
51060,
18933,
5908,
3809,
3630,
3576,
3448,
3426,
3513,
3718,
3860,
3951,
4077,
4355,
4441,
4480,
4720,
4787,
4904,
4998,
5123,
5342,
5323,
5670,
5594,
5995,
5988,
5970,
5882,
5736,
5939,
6050,
6320,
6856,
7034,
7020,
6674,
6316,
6177,
5803,
5777,
5991,
6287,
6293,
6301,
6238,
6408,
7341,
10833,
20209,
52696,
148371,
308112,
388091,
281282,
120835,
40647,
27888,
30979,
25453,
14281,
6501,
3847,
3198,
3089,
3156,
3083,
3149,
3154,
3120,
3210,
3244,
3292,
3244,
3309,
3303,
3403,
3385,
3329,
3264,
3112,
3150,
3122,
3121,
3124,
3086,
3128,
3083,
2999,
3059,
3058,
3063,
3007,
3116,
3095,
3067,
2924,
2981,
3010,
3035,
3056,
3049,
2905,
3030,
2872,
2874,
2846,
2885,
2814,
2858,
2855,
2810,
2855,
2767,
2709,
2794,
2734,
2778,
2795,
2783,
2714,
2554,
2691,
2783,
2613,
2715,
2680,
2811,
3157,
3549,
3623,
3501,
3263,
2959,
2645,
2644,
2557,
2487,
2566,
2478,
2424,
2421,
2453,
2317,
2397,
2398,
2299,
2298,
2389,
2273,
2300,
2322,
2378,
2272,
2285,
2277,
2253,
2136,
2274,
2225,
2229,
2136,
2154,
2078,
2107,
2112,
2077,
2039,
2056,
1988,
2001,
1993,
1993,
2006,
1960,
2010,
1950,
2016,
2026,
2075,
1968,
2068,
2274,
2682,
4422,
9808,
22627,
45719,
71733,
88686,
83575,
59939,
33444,
15270,
6174,
2896,
2018,
1919,
1736,
1657,
1748,
1711,
1786,
1762,
1826,
1981,
2342,
3238,
5243,
8402,
11255,
12664,
11675,
8737,
5450,
3244,
2001,
1522,
1389,
1310,
1330,
1273,
1255,
1422,
1343,
1299,
1283,
1282,
1293,
1222,
1237,
1248,
1232,
1263,
1214,
1203,
1190,
1212,
1197,
1140,
1167,
1137,
1210,
1180,
1139,
1146,
1128,
1117,
1145,
1148,
1191,
1116,
1050,
1086,
1071,
1061,
1048,
1069,
1047,
1037,
995,
992,
1056,
1114,
1172,
1323,
1335,
1283,
1181,
1175,
1031,
968,
969,
989,
942,
996,
934,
921,
957,
934,
947,
888,
931,
912,
902,
966,
945,
907,
953,
868,
901,
895,
937,
847,
816,
858,
796,
811,
815,
865,
818,
874,
774,
827,
779,
823,
766,
774,
733,
806,
750,
790,
747,
740,
726,
720,
693,
675,
746,
704,
698,
673,
700,
757,
683,
694,
687,
688,
657,
662,
652,
666,
655,
673,
654,
634,
634,
650,
673,
629,
621,
658,
629,
614,
606,
605,
607,
589,
572,
609,
555,
580,
595,
546,
579,
614,
560,
557,
580,
514,
524,
550,
528,
483,
485,
524,
515,
505,
508,
485,
506,
480,
470,
500,
494,
442,
472,
473,
503,
411,
456,
422,
433,
431,
437,
414,
407,
428,
427,
419,
422,
387,
413,
394,
404,
391,
401,
376,
384,
372,
409,
374,
401,
388,
381,
394,
360,
357,
344,
351,
357,
326,
327,
322,
338,
345,
316,
314,
304,
259,
298,
306,
343,
281,
343,
320,
291,
306,
289,
286,
273,
261,
236,
287,
233,
260,
252,
281,
248,
266,
255,
245,
216,
246,
250,
224,
221,
229,
260,
232,
231,
230,
211,
232,
228,
198,
209,
193,
219,
208,
207,
216,
184,
225,
190,
190,
177,
174,
185,
183,
171,
173,
184,
162,
158,
181,
166,
168,
175,
176,
150,
159,
159,
168,
162,
141,
161,
141,
133,
152,
143,
135,
129,
156,
146,
147,
133,
130,
126,
116,
146,
128,
113,
126,
108,
122,
102,
119,
110,
114,
107,
131,
103,
109,
102,
96,
98,
94,
100,
89,
93,
114,
83,
80,
107,
73,
81,
95,
84,
94,
103,
67,
83,
87,
80,
80,
80,
85,
63,
73,
74,
89,
75,
69,
63,
72,
72,
67,
64,
70,
47,
59,
63,
62,
62,
52,
53,
55,
50,
48,
43,
50,
61,
37,
35,
36,
53,
43,
36,
39,
45,
46,
44,
45,
42,
29,
32,
23,
37,
29,
34,
38,
24,
30,
40,
33,
38,
34,
30,
23,
30,
31,
27,
31,
20,
29,
19,
30,
24,
26,
15,
22,
20,
27,
17,
23,
17,
23,
14,
26,
19,
10,
14,
13,
11,
7,
14,
8,
13,
12,
12,
12,
4,
7,
13,
10,
9,
6,
10,
5,
4,
4,
1,
2,
3,
8,
4,
2,
5,
2,
1,
4,
2,
2,
1,
0,
2,
0,
3,
0,
1,
1,
1,
1,
0,
0,
0,
0,
1,
0,
1,
1,
1,
0,
1,
2,
1,
0,
0,
2,
0,
0,
3,
0,
2,
0,
0,
1,
1,
3,
1,
0,
0,
1,
0,
0,
0,
1,
0,
0,
0,
0,
0,
0,
0,
0,
0,
2,
0,
2,
0,
0,
2,
1,
0,
1,
0,
0,
1,
1,
0,
2,
1,
0,
0,
0,
0,
1,
0,
0,
2,
0,
2,
0,
0,
0,
1,
1,
0,
0,
0,
0,
0,
1,
0,
0,
0,
0,
0,
0,
0,
0,
0,
0,
0,
1,
0,
1,
0,
0,
0,
1,
0,
0,
0,
1,
1,
0,
0,
0,
0,
2,
1,
1,
0,
0,
1,
0,
0,
0,
0,
1,
0,
0,
1,
0,
0,
0,
0,
0,
0,
0,
0,
0,
1,
0,
0,
0,
0,
0,
0,
0,
0,
0,
0,
1,
0,
0,
0,
0,
0,
0,
1,
1,
0,
1,
0,
0,
0,
0,
0,
0,
0,
0,
0,
0,
0,
0,
0,
0,
0,
0,
0,
0,
0,
0,
0,
0,
0,
0,
0,
0,
0,
0,
0,
0,
0,
0,
0,
0,
0,
0,
0,
0,
0,
0,
0,
1,
2,
0,
0,
0,
0,
0,
0,
0,
0,
0,
0,
1,
0,
0,
0,
0,
0,
0,
0,
0,
0,
0,
0,
0,
0,
0,
0,
0,
0,
1,
0,
0,
0,
0,
0,
0,
0,
0,
0,
0,
0,
0,
0,
0,
0,
0,
0,
0,
1,
0,
0,
0,
0,
0,
0,
0,
0,
0,
0,
0,
0,
0,
0,
0,
0,
0,
0,
0,
0,
0,
0,
0,
0,
0,
0,
0,
0,
0,
0,
0,
0,
0,
0,
0,
0,
0,
0,
0,
1,
0,
1,
0,
0,
0,
0,
0,
0,
0,
0,
0,
0,
0,
0,
0,
0,
0,
0,
0,
0,
0,
1,
0,
0,
0,
0,
0,
0,
1,
0,
0,
0,
0,
0,
0,
0,
0,
0,
0,
0,
1,
0,
0,
0,
0,
0,
0,
0,
0,
0,
0,
0,
0,
0,
0,
0,
0,
0,
0,
0,
0,
0,
0,
0,
0,
0,
0,
0,
0,
0,
0,
0,
0,
0,
0,
0,
0,
0,
0,
0,
0,
0,
0,
0,
0,
0,
0,
0,
0,
0,
0,
0,
0,
0,
0,
0,
0,
0,
0,
0,
0,
0,
0,
0,
0,
0,
0,
0,
0,
0,
0,
0,
0,
0,
0,
0,
0,
0,
0,
0,
0,
0,
0,
0,
0,
0,
0,
0,
0,
0,
0,
0,
0,
0,
0,
0,
0,
0,
0,
0,
0,
0,
0,
0,
0,
0,
0,
0,
0,
0,
0,
0,
0,
0,
0,
0,
0,
0,
0,
0,
0,
0,
0,
0,
0,
0,
0,
0,
0,
0,
0,
0,
0,
0,
0,
0,
0,
0,
0,
0,
0,
0,
0,
0,
0,
0,
0,
0,
0,
0,
0,
0,
0,
0,
0,
0,
0,
0,
0,
0,
0,
0,
0,
0,
0,
0,
0,
0,
0,
0,
0,
0,
0,
0,
0,
0,
0,
0,
0,
0,
0,
0,
0,
0,
0,
0,
0,
0,
0,
0,
0,
0,
0,
0,
0,
0,
0,
0,
0,
0,
0,
0,
0,
0,
0,
0,
0,
0,
0,
0,
0,
0,
0,
0,
0,
0,
0,
0,
0,
0,
0,
0,
0,
0,
0,
0,
0,
0,
0,
0,
0,
0,
0,
0,
0,
0,
0,
0,
0,
0,
0,
0,
0,
0,
0,
0,
0,
0,
0,
0,
0,
0,
0,
0,
0,
0,
0,
0,
0,
0,
0,
0,
0,
0,
0,
0,
0,
0,
0,
0,
0,
0,
0,
0,
0,
0,
0,
0,
0,
0,
0,
0,
0,
0,
0,
0,
0,
0,
0,
0,
0,
0,
0,
0,
0,
0,
0,
0,
0,
0,
0,
0,
0,
0,
0,
0,
0,
0,
0,
0,
0,
0,
0,
0,
0,
0,
0,
0,
0,
0,
0,
0,
0,
0,
0,
0,
0,
0,
0,
0,
0,
0,
0,
0,
0,
0,
0,
0,
0,
0,
0,
0,
0,
0,
0,
0,
0,
0,
0,
0,
0,
0,
0,
0,
0,
0,
0,
0,
0,
0,
0,
0,
0,
0,
0,
#ENDOFDATA   :