File: N132962/Quantification/20 keV/MMM2/SPI MM2 C[4][4].msa
#FORMAT      : EMSA/MAS Spectral Data File
#VERSION     : 1.0
#TITLE       : SPI MM2 C[4][all]
#DATE        : 13-MAR-2025
#TIME        : 14:25
#OWNER       : Unknown
#NPOINTS     : 4096
#NCOLUMNS    : 1
#XUNITS      : eV
#YUNITS      : counts
#DATATYPE    : Y
#XPERCHAN    : 9.99778
#OFFSET      : 1.69135
#BEAMKV      : 20
#SIGNALTYPE  : EDS
#ELEVANGLE   : 35
#AZIMANGLE   : 0
#LIVETIME    : 240.002
#REALTIME    : 250.851
#PROBECUR    : 1.02609
#TAUWIND     : 0
#TDEADLYR    : 0
#TACTLYR     : 0.045
#TALWIND     : 0.025
#CHOFFSET    : 0.0
#XLABEL      : Energy (eV)
#YLABEL      : Counts
#XPOSITION   : 3.27067
#YPOSITION   : 8.90949
#ZPOSITION   : 31.03511
#EDSDET      : SD
##SPECIMEN   : SPI MM2 C[4][all]
##D2STDCMP   : C,(C:100.0)
##DET_HASH   : 12273538-fd48-a23f-0a19-f1e6fa85caef
##CALIB_HASH : 6abaa72c-aa41-8738-0be9-f592914732f3
##WORKING    : 15.0 mm
##DET_NAME   : EDAX All
##DET_MODE   : MediumLE
#SPECTRUM    :
25,
28,
7,
58,
332,
1633,
11148,
90612,
377856,
518930,
215528,
27643,
1645,
552,
600,
772,
1686,
3351,
3360,
1763,
1013,
935,
1094,
1193,
1277,
1290,
1423,
1467,
1530,
1670,
1676,
1785,
1905,
1889,
2066,
2162,
2162,
2176,
2251,
2318,
2493,
2477,
2464,
2519,
2565,
2473,
2579,
2721,
2674,
2599,
2583,
2607,
2565,
2526,
2518,
2504,
2567,
2682,
2660,
2620,
2502,
2457,
2218,
2002,
2003,
2091,
2042,
1990,
1873,
2005,
1897,
1953,
1912,
1842,
1837,
1801,
1818,
1808,
1759,
1740,
1682,
1659,
1684,
1606,
1533,
1546,
1558,
1564,
1490,
1453,
1413,
1463,
1431,
1419,
1381,
1369,
1420,
1339,
1288,
1251,
1284,
1348,
1297,
1228,
1254,
1201,
1205,
1210,
1111,
1193,
1172,
1135,
1110,
1047,
1137,
1066,
1045,
1015,
954,
1005,
1030,
1001,
965,
992,
918,
911,
935,
969,
937,
855,
883,
932,
903,
909,
862,
855,
814,
841,
841,
845,
846,
835,
801,
791,
760,
781,
807,
745,
711,
782,
734,
705,
711,
738,
672,
679,
680,
662,
723,
699,
760,
706,
671,
646,
616,
613,
613,
658,
625,
625,
571,
601,
610,
631,
580,
567,
569,
571,
560,
573,
564,
580,
554,
525,
537,
546,
529,
514,
512,
528,
526,
528,
470,
503,
526,
518,
471,
509,
504,
460,
471,
440,
453,
418,
444,
427,
475,
442,
424,
450,
454,
479,
448,
498,
502,
496,
401,
418,
402,
376,
414,
420,
363,
412,
373,
403,
350,
384,
374,
358,
356,
371,
392,
331,
385,
391,
368,
368,
370,
342,
345,
296,
347,
328,
293,
295,
333,
339,
324,
342,
271,
301,
315,
294,
288,
271,
282,
282,
248,
277,
299,
307,
250,
287,
268,
263,
251,
254,
288,
246,
235,
271,
243,
258,
248,
274,
263,
233,
241,
251,
240,
249,
231,
253,
230,
222,
218,
220,
214,
211,
250,
210,
226,
208,
168,
190,
200,
203,
219,
211,
208,
201,
195,
227,
190,
182,
176,
206,
209,
176,
182,
183,
196,
166,
169,
142,
185,
156,
174,
157,
186,
153,
160,
188,
175,
181,
173,
190,
155,
151,
160,
145,
177,
143,
161,
139,
150,
146,
132,
156,
159,
130,
146,
158,
143,
119,
136,
145,
152,
140,
139,
131,
132,
125,
121,
117,
116,
121,
122,
129,
133,
130,
110,
107,
118,
128,
100,
99,
120,
107,
97,
94,
103,
122,
109,
112,
108,
104,
111,
111,
107,
105,
106,
108,
98,
101,
97,
82,
91,
89,
97,
84,
82,
93,
93,
96,
81,
77,
103,
81,
81,
87,
76,
74,
87,
70,
83,
74,
83,
72,
75,
75,
67,
61,
62,
73,
60,
69,
80,
85,
73,
58,
63,
76,
71,
61,
65,
70,
60,
73,
63,
48,
59,
62,
60,
63,
63,
50,
73,
48,
36,
54,
60,
69,
57,
55,
50,
46,
46,
47,
50,
50,
44,
38,
41,
43,
51,
54,
44,
41,
55,
49,
46,
49,
47,
49,
37,
40,
33,
35,
38,
36,
43,
39,
29,
43,
30,
40,
21,
48,
26,
37,
38,
25,
41,
41,
25,
22,
28,
35,
29,
29,
26,
38,
33,
23,
35,
30,
17,
27,
22,
16,
30,
21,
13,
27,
19,
19,
22,
16,
19,
23,
16,
25,
21,
21,
21,
21,
24,
18,
21,
22,
21,
31,
20,
18,
26,
13,
16,
15,
7,
20,
13,
19,
19,
14,
19,
17,
23,
13,
14,
10,
8,
16,
15,
21,
13,
11,
8,
11,
11,
14,
9,
11,
14,
19,
8,
12,
9,
13,
11,
16,
12,
10,
10,
11,
13,
7,
8,
6,
7,
4,
13,
7,
4,
4,
8,
7,
9,
8,
9,
7,
11,
11,
5,
11,
4,
12,
7,
6,
5,
8,
10,
4,
5,
4,
2,
3,
6,
8,
7,
4,
5,
6,
7,
3,
3,
3,
3,
3,
2,
8,
3,
2,
5,
2,
6,
6,
4,
3,
5,
5,
1,
0,
2,
4,
3,
3,
2,
4,
1,
1,
0,
0,
3,
3,
1,
2,
1,
1,
1,
0,
3,
1,
3,
2,
1,
1,
2,
0,
0,
0,
2,
0,
0,
2,
1,
2,
0,
0,
1,
0,
1,
1,
1,
0,
0,
0,
0,
0,
0,
0,
0,
0,
0,
0,
0,
0,
0,
0,
0,
0,
0,
0,
0,
0,
0,
0,
0,
0,
0,
0,
0,
0,
0,
0,
0,
0,
0,
0,
0,
0,
0,
0,
0,
0,
0,
0,
0,
0,
0,
0,
0,
0,
0,
0,
0,
0,
0,
0,
0,
0,
0,
0,
0,
0,
0,
0,
0,
0,
0,
0,
0,
0,
0,
0,
0,
0,
0,
0,
0,
0,
0,
0,
0,
0,
0,
0,
0,
0,
0,
0,
0,
0,
0,
0,
0,
0,
0,
0,
0,
0,
0,
0,
0,
0,
0,
0,
0,
0,
0,
0,
0,
0,
0,
0,
0,
0,
0,
0,
0,
0,
0,
0,
1,
0,
0,
0,
0,
0,
0,
0,
0,
0,
0,
0,
0,
0,
0,
0,
0,
0,
0,
0,
0,
0,
0,
0,
0,
0,
0,
0,
0,
0,
0,
0,
0,
0,
0,
0,
0,
0,
0,
0,
0,
0,
0,
0,
0,
0,
0,
0,
0,
0,
0,
0,
0,
0,
0,
0,
0,
0,
0,
0,
0,
0,
0,
0,
0,
0,
0,
0,
0,
0,
0,
0,
0,
0,
0,
0,
0,
0,
0,
0,
0,
0,
0,
0,
0,
0,
0,
0,
0,
0,
0,
0,
0,
0,
0,
0,
0,
0,
0,
0,
0,
0,
0,
0,
0,
0,
0,
0,
0,
0,
0,
0,
0,
0,
0,
0,
0,
0,
0,
0,
0,
0,
0,
0,
0,
0,
0,
0,
0,
0,
0,
0,
0,
0,
0,
0,
0,
0,
0,
0,
0,
0,
0,
0,
0,
0,
0,
0,
0,
0,
0,
0,
0,
0,
0,
0,
0,
0,
0,
0,
0,
0,
0,
0,
0,
0,
0,
0,
0,
0,
0,
0,
0,
0,
0,
0,
0,
0,
0,
0,
0,
0,
0,
0,
0,
0,
0,
0,
0,
0,
0,
0,
0,
0,
0,
0,
0,
0,
0,
0,
0,
0,
0,
0,
0,
0,
0,
0,
0,
0,
0,
0,
0,
0,
0,
0,
0,
0,
0,
0,
0,
0,
0,
0,
0,
0,
0,
0,
0,
0,
0,
0,
0,
0,
0,
0,
0,
0,
0,
0,
0,
0,
0,
0,
0,
0,
0,
0,
0,
0,
0,
0,
0,
0,
0,
0,
0,
0,
0,
0,
0,
0,
0,
0,
0,
0,
0,
0,
0,
0,
0,
0,
0,
0,
0,
0,
0,
0,
0,
0,
0,
0,
0,
0,
0,
0,
0,
0,
0,
0,
0,
0,
0,
0,
0,
0,
0,
0,
0,
0,
0,
0,
0,
0,
0,
0,
0,
0,
0,
0,
0,
0,
0,
0,
0,
0,
0,
0,
0,
0,
0,
0,
0,
0,
0,
0,
0,
0,
0,
0,
0,
0,
0,
0,
0,
0,
0,
0,
0,
0,
0,
0,
0,
0,
0,
0,
0,
0,
0,
0,
0,
0,
0,
0,
0,
0,
0,
0,
0,
0,
0,
0,
0,
0,
0,
0,
0,
0,
0,
0,
0,
0,
0,
0,
0,
0,
0,
0,
0,
0,
0,
0,
0,
0,
0,
0,
0,
0,
0,
0,
0,
0,
0,
0,
0,
0,
0,
0,
0,
0,
0,
0,
0,
0,
0,
0,
0,
0,
0,
0,
0,
0,
0,
0,
0,
0,
0,
0,
0,
0,
0,
0,
0,
0,
0,
0,
0,
0,
0,
0,
0,
0,
0,
0,
0,
0,
0,
0,
0,
0,
0,
0,
0,
0,
0,
0,
0,
0,
0,
0,
0,
0,
0,
0,
0,
0,
0,
0,
0,
0,
0,
0,
0,
0,
0,
0,
0,
0,
0,
0,
0,
0,
0,
0,
0,
0,
0,
0,
0,
0,
0,
0,
0,
0,
0,
0,
0,
0,
0,
0,
0,
0,
0,
0,
0,
0,
0,
0,
0,
0,
0,
0,
0,
0,
0,
0,
0,
0,
0,
0,
0,
0,
0,
0,
0,
0,
0,
0,
0,
0,
0,
0,
0,
0,
0,
0,
0,
0,
0,
0,
0,
0,
0,
0,
0,
0,
0,
0,
0,
0,
0,
0,
0,
0,
0,
0,
0,
0,
0,
0,
0,
0,
0,
0,
0,
0,
0,
0,
0,
0,
0,
0,
0,
0,
0,
0,
0,
0,
0,
0,
0,
0,
0,
0,
0,
0,
0,
0,
0,
0,
0,
0,
#ENDOFDATA   :