File: N132962/Quantification/20 keV/MMM2/SPI MM2 SPI Orthoclaise[0][4].msa
#FORMAT      : EMSA/MAS Spectral Data File
#VERSION     : 1.0
#TITLE       : SPI MM2 SPI Orthoclaise[0][all]
#DATE        : 13-MAR-2025
#TIME        : 10:22
#OWNER       : Unknown
#NPOINTS     : 4096
#NCOLUMNS    : 1
#XUNITS      : eV
#YUNITS      : counts
#DATATYPE    : Y
#XPERCHAN    : 9.99778
#OFFSET      : 1.69135
#BEAMKV      : 20
#SIGNALTYPE  : EDS
#ELEVANGLE   : 35
#AZIMANGLE   : 0
#LIVETIME    : 239.823
#REALTIME    : 255.919
#PROBECUR    : 1.02606
#TAUWIND     : 0
#TDEADLYR    : 0
#TACTLYR     : 0.045
#TALWIND     : 0.025
#CHOFFSET    : 0.0
#XLABEL      : Energy (eV)
#YLABEL      : Counts
#XPOSITION   : 6.16449
#YPOSITION   : 0.1297
#ZPOSITION   : 31.0351
#EDSDET      : SD
##SPECIMEN   : SPI MM2 SPI Orthoclaise[0][all]
##D2STDCMP   : SPI Orthoclaise,(O:45.86),(Na:0.67),(Al:8.85),(Si:30.29),(K:12.85),(Fe:1.4),(Ba:0.04),5.0
##DET_HASH   : 12273538-fd48-a23f-0a19-f1e6fa85caef
##CALIB_HASH : 6abaa72c-aa41-8738-0be9-f592914732f3
##WORKING    : 15.0 mm
##DET_NAME   : EDAX All
##DET_MODE   : MediumLE
#SPECTRUM    :
24,
19,
10,
15,
63,
292,
907,
3080,
8987,
10715,
5323,
2277,
2068,
2586,
4359,
15960,
64242,
125900,
91940,
24421,
3804,
2044,
2566,
3504,
3394,
2730,
2393,
2459,
2617,
2683,
2865,
2940,
3111,
3546,
4243,
4457,
4057,
3659,
3939,
3941,
4229,
4221,
4523,
4656,
4708,
5119,
5934,
12775,
38127,
74218,
76106,
41353,
16055,
8250,
7391,
18577,
73799,
191576,
261546,
184701,
73971,
24831,
10766,
5230,
2912,
2598,
2532,
2542,
2486,
2489,
2361,
2460,
2386,
2591,
2806,
2937,
2856,
2635,
2625,
2569,
2535,
2451,
2495,
2446,
2505,
2494,
2451,
2447,
2514,
2466,
2476,
2468,
2406,
2437,
2480,
2372,
2445,
2482,
2453,
2407,
2463,
2323,
2324,
2367,
2586,
2968,
4001,
7451,
18528,
40905,
61649,
62828,
41437,
18204,
6639,
3545,
3299,
4303,
6307,
8835,
9209,
7233,
4404,
2725,
2005,
1801,
1763,
1854,
1786,
1814,
1754,
1733,
1760,
1703,
1701,
1709,
1670,
1635,
1632,
1646,
1678,
1535,
1601,
1552,
1586,
1586,
1653,
1634,
1642,
1504,
1573,
1548,
1521,
1500,
1449,
1427,
1437,
1440,
1505,
1434,
1515,
1520,
1442,
1431,
1414,
1451,
1416,
1538,
1544,
1570,
1461,
1345,
1323,
1336,
1360,
1312,
1274,
1306,
1216,
1242,
1276,
1303,
1239,
1209,
1186,
1201,
1238,
1205,
1092,
1169,
1184,
1128,
1184,
1140,
1088,
1128,
1136,
1134,
1076,
1112,
1102,
1092,
1003,
1122,
1021,
1074,
999,
1084,
1095,
1213,
1891,
2798,
3752,
4466,
4273,
3269,
2250,
1509,
1102,
1040,
977,
945,
901,
915,
946,
941,
902,
902,
917,
894,
883,
928,
1005,
1061,
1255,
1265,
1164,
1175,
967,
874,
813,
832,
835,
752,
800,
827,
849,
779,
825,
784,
702,
793,
728,
714,
732,
737,
691,
741,
713,
708,
701,
693,
716,
691,
612,
715,
749,
688,
677,
666,
701,
632,
623,
618,
614,
640,
625,
597,
604,
599,
548,
596,
581,
583,
587,
572,
648,
576,
569,
480,
602,
599,
556,
529,
585,
550,
572,
521,
530,
500,
569,
521,
526,
502,
529,
493,
501,
487,
512,
490,
517,
454,
496,
463,
453,
466,
455,
428,
508,
441,
435,
422,
404,
445,
442,
424,
425,
399,
441,
429,
421,
433,
442,
407,
424,
396,
382,
420,
386,
400,
376,
355,
378,
382,
364,
400,
357,
340,
341,
402,
353,
360,
331,
328,
350,
335,
313,
321,
317,
333,
349,
349,
319,
286,
324,
307,
280,
302,
279,
294,
308,
304,
296,
298,
289,
292,
261,
296,
280,
283,
287,
262,
283,
275,
273,
262,
270,
274,
255,
277,
253,
244,
243,
262,
247,
229,
246,
247,
252,
223,
231,
218,
239,
225,
215,
226,
229,
225,
235,
206,
196,
232,
193,
203,
200,
209,
199,
148,
223,
212,
178,
182,
177,
179,
191,
199,
167,
195,
180,
171,
163,
173,
185,
165,
160,
159,
155,
166,
156,
160,
173,
141,
160,
169,
141,
153,
152,
145,
171,
146,
157,
144,
148,
136,
138,
142,
130,
151,
117,
119,
108,
119,
126,
126,
117,
124,
133,
116,
111,
124,
104,
109,
122,
106,
115,
111,
87,
104,
77,
82,
102,
83,
86,
83,
99,
74,
93,
109,
80,
82,
81,
83,
113,
82,
93,
92,
85,
89,
65,
83,
71,
99,
78,
81,
73,
80,
77,
73,
73,
75,
66,
77,
69,
62,
72,
53,
68,
71,
58,
80,
62,
70,
63,
60,
67,
57,
60,
51,
61,
76,
62,
51,
57,
52,
63,
38,
52,
56,
46,
46,
42,
48,
42,
41,
46,
43,
45,
26,
32,
26,
36,
43,
36,
27,
33,
33,
42,
27,
33,
27,
29,
36,
35,
27,
34,
34,
25,
22,
30,
28,
32,
29,
21,
24,
22,
23,
19,
24,
29,
27,
29,
27,
28,
18,
23,
28,
21,
28,
25,
18,
15,
19,
21,
21,
14,
13,
21,
12,
8,
24,
19,
12,
16,
9,
14,
17,
19,
6,
12,
11,
10,
7,
15,
10,
7,
14,
4,
12,
9,
17,
7,
8,
3,
12,
9,
5,
11,
6,
12,
12,
9,
9,
7,
7,
4,
4,
9,
8,
6,
10,
4,
2,
5,
8,
2,
3,
9,
2,
5,
2,
3,
4,
1,
4,
5,
1,
2,
4,
3,
0,
0,
5,
2,
0,
0,
0,
0,
0,
1,
1,
0,
0,
0,
0,
1,
0,
0,
0,
1,
0,
0,
0,
1,
0,
1,
0,
0,
0,
1,
0,
0,
0,
0,
1,
0,
1,
0,
1,
0,
1,
0,
0,
0,
1,
0,
0,
0,
1,
0,
1,
0,
0,
0,
0,
0,
0,
0,
0,
0,
0,
0,
0,
0,
0,
0,
0,
0,
0,
1,
0,
0,
0,
0,
0,
0,
0,
0,
0,
0,
0,
0,
0,
1,
1,
0,
0,
0,
0,
1,
0,
0,
0,
0,
0,
0,
0,
0,
0,
0,
0,
0,
0,
0,
0,
0,
0,
0,
0,
0,
0,
0,
0,
0,
0,
0,
0,
0,
0,
0,
0,
0,
0,
0,
0,
0,
0,
0,
0,
0,
0,
0,
0,
0,
0,
0,
0,
0,
0,
0,
0,
0,
0,
0,
0,
0,
0,
0,
0,
0,
0,
0,
0,
0,
0,
0,
0,
0,
0,
0,
0,
0,
0,
0,
0,
0,
0,
0,
0,
0,
0,
0,
0,
0,
0,
0,
0,
0,
0,
0,
0,
0,
0,
0,
0,
0,
0,
0,
0,
0,
0,
0,
0,
0,
0,
0,
0,
0,
0,
0,
0,
0,
0,
0,
0,
0,
0,
0,
0,
0,
0,
0,
0,
0,
0,
0,
0,
0,
0,
0,
0,
0,
0,
0,
0,
0,
0,
0,
0,
0,
0,
0,
0,
0,
0,
0,
0,
0,
0,
0,
0,
0,
0,
0,
0,
0,
0,
0,
0,
0,
0,
0,
0,
0,
0,
0,
0,
0,
0,
0,
0,
0,
0,
0,
0,
0,
0,
0,
0,
0,
0,
0,
0,
0,
0,
0,
0,
0,
1,
0,
0,
0,
0,
0,
0,
0,
0,
0,
0,
0,
0,
0,
0,
0,
0,
0,
0,
0,
0,
0,
0,
0,
0,
0,
0,
0,
0,
0,
0,
0,
0,
0,
0,
0,
0,
0,
0,
0,
0,
0,
0,
0,
0,
0,
0,
0,
0,
0,
0,
0,
0,
0,
0,
0,
0,
0,
0,
0,
0,
0,
0,
0,
0,
0,
0,
0,
0,
0,
0,
0,
0,
0,
0,
0,
0,
0,
0,
0,
0,
0,
0,
0,
0,
0,
0,
0,
0,
0,
0,
0,
0,
0,
0,
0,
0,
0,
0,
0,
0,
0,
0,
0,
0,
0,
0,
0,
0,
0,
0,
0,
0,
0,
0,
0,
0,
0,
0,
0,
0,
0,
0,
0,
0,
0,
0,
0,
0,
0,
0,
0,
0,
0,
0,
0,
0,
0,
0,
0,
0,
0,
0,
0,
0,
0,
0,
0,
0,
0,
0,
0,
0,
0,
0,
0,
0,
0,
0,
0,
0,
0,
0,
0,
0,
0,
0,
0,
0,
0,
0,
0,
0,
0,
0,
0,
0,
0,
0,
0,
0,
0,
0,
0,
0,
0,
0,
0,
0,
0,
0,
0,
0,
0,
0,
0,
0,
0,
0,
0,
0,
0,
0,
0,
0,
0,
0,
0,
0,
0,
0,
0,
0,
0,
0,
0,
0,
0,
0,
0,
0,
0,
0,
0,
0,
0,
0,
0,
0,
0,
0,
0,
0,
0,
0,
0,
0,
0,
0,
0,
0,
0,
0,
0,
0,
0,
0,
0,
0,
0,
0,
0,
0,
0,
0,
0,
0,
0,
0,
0,
0,
0,
0,
0,
0,
0,
0,
0,
0,
0,
0,
0,
0,
0,
0,
0,
0,
0,
0,
0,
0,
0,
0,
0,
0,
0,
0,
0,
0,
0,
0,
0,
0,
0,
0,
0,
0,
0,
0,
0,
0,
0,
0,
0,
0,
0,
0,
0,
0,
0,
0,
0,
0,
0,
0,
0,
0,
0,
0,
0,
0,
0,
0,
0,
0,
0,
0,
0,
0,
0,
0,
0,
0,
0,
0,
0,
0,
0,
0,
0,
0,
0,
0,
0,
0,
0,
0,
0,
0,
0,
0,
0,
0,
0,
0,
0,
0,
0,
0,
0,
0,
0,
0,
0,
0,
0,
0,
0,
0,
0,
0,
0,
0,
0,
0,
0,
0,
0,
0,
0,
0,
0,
0,
0,
0,
0,
0,
0,
0,
0,
0,
0,
0,
0,
0,
0,
0,
0,
0,
0,
0,
0,
0,
0,
0,
0,
0,
0,
0,
0,
0,
0,
0,
0,
0,
0,
0,
0,
0,
0,
0,
0,
0,
0,
0,
0,
0,
0,
0,
#ENDOFDATA   :