File: N132962/Quantification/20 keV/MMM2/SPI MM2 SPI Olivine[4][4].msa
#FORMAT      : EMSA/MAS Spectral Data File
#VERSION     : 1.0
#TITLE       : SPI MM2 SPI Olivine[4][all]
#DATE        : 13-MAR-2025
#TIME        : 09:50
#OWNER       : Unknown
#NPOINTS     : 4096
#NCOLUMNS    : 1
#XUNITS      : eV
#YUNITS      : counts
#DATATYPE    : Y
#XPERCHAN    : 9.99778
#OFFSET      : 1.69135
#BEAMKV      : 20
#SIGNALTYPE  : EDS
#ELEVANGLE   : 35
#AZIMANGLE   : 0
#LIVETIME    : 239.764
#REALTIME    : 255.92
#PROBECUR    : 1.02627
#TAUWIND     : 0
#TDEADLYR    : 0
#TACTLYR     : 0.045
#TALWIND     : 0.025
#CHOFFSET    : 0.0
#XLABEL      : Energy (eV)
#YLABEL      : Counts
#XPOSITION   : -3.14696
#YPOSITION   : -2.12472
#ZPOSITION   : 31.03509
#EDSDET      : SD
##SPECIMEN   : SPI MM2 SPI Olivine[4][all]
##D2STDCMP   : SPI Olivine,(O:43.96),(Mg:30.26),(Si:19.14),(Mn:0.089),(Fe:6.35),(Ni:0.278),5.0
##DET_HASH   : 12273538-fd48-a23f-0a19-f1e6fa85caef
##CALIB_HASH : 6abaa72c-aa41-8738-0be9-f592914732f3
##WORKING    : 15.0 mm
##DET_NAME   : EDAX All
##DET_MODE   : MediumLE
#SPECTRUM    :
26,
20,
8,
19,
83,
294,
841,
2665,
7402,
9791,
5246,
2652,
2787,
3536,
6859,
25330,
103074,
203229,
149310,
39262,
5966,
3075,
4101,
6857,
6837,
4199,
2859,
2796,
3252,
3293,
3151,
3222,
3411,
3721,
4085,
4451,
4888,
5378,
7202,
19158,
78356,
199132,
241025,
133565,
36750,
7608,
3181,
2733,
2832,
3020,
3128,
3190,
3300,
3478,
4297,
10376,
39543,
100742,
137067,
96863,
39925,
14070,
6766,
3927,
2628,
2348,
2190,
2212,
2187,
2236,
2326,
2205,
2283,
2410,
2557,
2717,
2624,
2508,
2369,
2289,
2345,
2392,
2518,
2748,
2744,
2548,
2440,
2346,
2326,
2335,
2328,
2224,
2250,
2281,
2257,
2231,
2230,
2336,
2420,
2525,
2595,
2523,
2248,
2190,
2176,
2097,
2093,
2061,
2085,
1996,
2054,
1959,
2002,
2007,
2001,
2036,
2015,
2014,
2014,
1879,
1897,
1966,
1861,
1924,
1870,
1811,
1780,
1773,
1773,
1849,
1854,
1837,
1642,
1772,
1666,
1795,
1765,
1637,
1745,
1633,
1659,
1644,
1655,
1578,
1577,
1668,
1560,
1514,
1589,
1604,
1450,
1457,
1492,
1453,
1485,
1580,
1462,
1535,
1499,
1427,
1417,
1383,
1370,
1441,
1429,
1390,
1305,
1404,
1346,
1327,
1302,
1298,
1347,
1310,
1258,
1319,
1287,
1225,
1277,
1243,
1273,
1235,
1203,
1203,
1211,
1175,
1196,
1196,
1142,
1146,
1104,
1145,
1135,
1179,
1190,
1224,
1307,
1264,
1210,
1183,
1127,
1104,
1062,
1076,
1052,
1035,
1027,
1049,
1311,
1994,
3633,
6359,
9818,
11879,
11244,
8335,
4853,
2549,
1545,
1045,
972,
974,
933,
905,
845,
842,
852,
888,
905,
912,
975,
1099,
1302,
1659,
2072,
2292,
2122,
1648,
1260,
966,
854,
768,
804,
726,
710,
816,
843,
1013,
1151,
1111,
1061,
934,
870,
784,
776,
740,
706,
707,
675,
673,
672,
687,
664,
625,
618,
718,
611,
676,
650,
619,
634,
670,
635,
619,
645,
644,
617,
638,
644,
608,
626,
578,
563,
539,
536,
525,
547,
524,
596,
529,
475,
566,
533,
532,
512,
520,
516,
496,
582,
480,
492,
473,
495,
480,
459,
491,
466,
442,
465,
453,
438,
504,
413,
460,
448,
455,
459,
471,
451,
422,
447,
415,
426,
430,
423,
372,
414,
402,
401,
436,
436,
380,
398,
356,
349,
412,
397,
371,
381,
396,
367,
399,
365,
415,
382,
333,
359,
410,
346,
323,
321,
377,
312,
313,
319,
361,
333,
307,
298,
330,
329,
324,
309,
298,
330,
307,
306,
310,
301,
281,
336,
258,
275,
242,
282,
277,
266,
261,
308,
263,
293,
263,
247,
266,
259,
249,
242,
241,
251,
210,
245,
229,
243,
229,
234,
236,
239,
245,
239,
234,
230,
239,
206,
203,
220,
204,
215,
226,
201,
191,
184,
177,
196,
208,
189,
182,
185,
188,
200,
203,
186,
214,
183,
172,
174,
189,
191,
169,
187,
170,
149,
175,
161,
141,
173,
175,
137,
134,
159,
162,
133,
163,
156,
129,
140,
137,
143,
141,
140,
149,
141,
116,
156,
130,
106,
139,
127,
109,
128,
103,
131,
121,
116,
135,
106,
113,
110,
103,
120,
106,
104,
98,
98,
121,
106,
110,
103,
100,
104,
92,
102,
82,
87,
104,
86,
101,
76,
70,
88,
76,
81,
86,
72,
87,
85,
83,
67,
83,
79,
77,
74,
87,
65,
71,
84,
93,
76,
62,
79,
55,
80,
57,
75,
81,
63,
73,
54,
53,
53,
64,
56,
56,
58,
60,
50,
50,
61,
85,
65,
61,
45,
61,
40,
59,
40,
44,
43,
37,
44,
55,
43,
43,
48,
37,
49,
47,
45,
49,
31,
43,
37,
36,
25,
36,
30,
39,
42,
37,
39,
21,
36,
39,
37,
30,
27,
24,
32,
30,
36,
28,
22,
29,
34,
24,
25,
20,
22,
24,
32,
26,
22,
21,
19,
25,
18,
16,
19,
17,
18,
21,
18,
17,
17,
21,
24,
9,
20,
21,
17,
14,
11,
14,
21,
13,
18,
17,
12,
14,
12,
17,
7,
10,
11,
12,
8,
5,
18,
11,
10,
8,
12,
6,
9,
6,
14,
8,
9,
12,
9,
4,
8,
3,
8,
8,
6,
6,
3,
4,
2,
1,
5,
4,
3,
1,
3,
8,
4,
2,
2,
5,
3,
5,
2,
0,
0,
2,
7,
1,
3,
1,
1,
1,
1,
0,
1,
0,
0,
0,
0,
0,
0,
0,
1,
0,
0,
1,
1,
0,
0,
0,
0,
0,
0,
1,
0,
0,
0,
0,
0,
0,
0,
0,
0,
0,
0,
0,
0,
0,
0,
0,
0,
1,
0,
0,
1,
0,
0,
0,
0,
0,
0,
0,
0,
1,
0,
0,
0,
0,
0,
0,
0,
0,
0,
0,
0,
1,
0,
0,
0,
0,
0,
0,
0,
0,
0,
0,
0,
0,
0,
1,
0,
0,
0,
0,
0,
0,
0,
0,
0,
0,
0,
0,
0,
0,
0,
0,
0,
0,
0,
0,
0,
0,
0,
0,
0,
0,
0,
0,
0,
1,
0,
0,
0,
0,
0,
0,
0,
0,
0,
0,
0,
0,
0,
0,
0,
0,
0,
0,
0,
0,
0,
0,
0,
0,
0,
0,
0,
0,
0,
0,
0,
0,
0,
0,
0,
0,
0,
0,
0,
0,
0,
0,
0,
0,
0,
0,
0,
0,
0,
0,
0,
0,
0,
0,
0,
0,
0,
0,
0,
0,
0,
0,
0,
0,
0,
1,
0,
0,
0,
0,
0,
0,
0,
0,
0,
0,
0,
0,
0,
0,
0,
0,
0,
0,
0,
0,
0,
0,
0,
0,
0,
0,
0,
0,
0,
0,
0,
0,
0,
0,
0,
0,
0,
0,
0,
0,
0,
0,
0,
0,
0,
0,
0,
0,
0,
0,
0,
0,
0,
0,
0,
0,
0,
0,
0,
0,
0,
0,
0,
0,
0,
0,
0,
0,
0,
0,
0,
0,
0,
0,
0,
0,
0,
0,
0,
0,
0,
0,
0,
0,
0,
0,
0,
0,
0,
0,
0,
0,
0,
0,
0,
0,
0,
0,
0,
0,
0,
0,
0,
0,
0,
0,
0,
0,
1,
0,
0,
0,
0,
0,
0,
0,
0,
0,
0,
0,
0,
0,
0,
0,
0,
0,
0,
0,
0,
0,
0,
0,
0,
0,
0,
0,
0,
0,
0,
0,
0,
0,
0,
0,
0,
0,
0,
0,
0,
0,
0,
0,
0,
0,
0,
0,
0,
0,
0,
0,
0,
0,
0,
0,
0,
0,
0,
0,
0,
0,
0,
0,
0,
0,
0,
0,
0,
0,
0,
0,
0,
0,
0,
0,
0,
0,
0,
0,
0,
0,
0,
0,
0,
0,
0,
0,
0,
0,
0,
0,
0,
0,
0,
0,
0,
0,
0,
0,
0,
0,
0,
0,
0,
0,
0,
0,
0,
0,
0,
0,
0,
0,
0,
0,
0,
0,
0,
0,
0,
0,
0,
0,
0,
0,
0,
0,
0,
0,
0,
0,
0,
0,
0,
0,
0,
0,
0,
0,
0,
0,
0,
0,
0,
0,
0,
0,
0,
0,
0,
0,
0,
0,
0,
0,
0,
0,
0,
0,
0,
0,
0,
0,
0,
0,
0,
0,
0,
0,
0,
0,
0,
0,
0,
0,
0,
0,
0,
0,
0,
0,
0,
0,
0,
0,
0,
0,
0,
0,
0,
0,
0,
0,
0,
0,
0,
0,
0,
0,
0,
0,
0,
0,
0,
0,
0,
0,
0,
0,
0,
0,
0,
0,
0,
0,
0,
0,
0,
0,
0,
0,
0,
0,
0,
0,
0,
0,
0,
0,
0,
0,
0,
0,
0,
0,
0,
0,
0,
0,
0,
0,
0,
0,
0,
0,
0,
0,
0,
0,
0,
0,
0,
0,
0,
0,
0,
0,
0,
0,
0,
0,
0,
0,
0,
0,
0,
0,
0,
0,
0,
0,
0,
0,
0,
0,
0,
0,
0,
0,
0,
0,
0,
0,
0,
0,
0,
0,
0,
0,
0,
0,
0,
0,
0,
0,
0,
0,
0,
0,
0,
0,
0,
0,
0,
0,
0,
0,
0,
0,
0,
0,
0,
0,
0,
0,
0,
0,
0,
0,
0,
0,
0,
0,
0,
0,
0,
0,
0,
0,
0,
0,
0,
0,
0,
0,
0,
0,
0,
0,
0,
0,
0,
0,
0,
0,
0,
0,
0,
0,
0,
0,
0,
0,
0,
0,
0,
0,
0,
0,
0,
0,
0,
0,
0,
0,
0,
0,
0,
0,
0,
0,
0,
0,
0,
0,
0,
0,
0,
0,
0,
0,
0,
0,
0,
0,
0,
0,
0,
0,
0,
0,
0,
0,
0,
0,
0,
0,
0,
0,
0,
0,
0,
0,
0,
0,
0,
0,
0,
0,
0,
0,
0,
0,
0,
0,
0,
0,
0,
0,
0,
0,
#ENDOFDATA   :