File: N132962/Quantification/20 keV/MMM2/SPI MM2 SPI Pollucite[7][4].msa
#FORMAT      : EMSA/MAS Spectral Data File
#VERSION     : 1.0
#TITLE       : SPI MM2 SPI Pollucite[7][all]
#DATE        : 13-MAR-2025
#TIME        : 11:07
#OWNER       : Unknown
#NPOINTS     : 4096
#NCOLUMNS    : 1
#XUNITS      : eV
#YUNITS      : counts
#DATATYPE    : Y
#XPERCHAN    : 9.99778
#OFFSET      : 1.69135
#BEAMKV      : 20
#SIGNALTYPE  : EDS
#ELEVANGLE   : 35
#AZIMANGLE   : 0
#LIVETIME    : 239.72
#REALTIME    : 256.878
#PROBECUR    : 1.02609
#TAUWIND     : 0
#TDEADLYR    : 0
#TACTLYR     : 0.045
#TALWIND     : 0.025
#CHOFFSET    : 0.0
#XLABEL      : Energy (eV)
#YLABEL      : Counts
#XPOSITION   : -4.05832
#YPOSITION   : -1.07251
#ZPOSITION   : 31.0351
#EDSDET      : SD
##SPECIMEN   : SPI MM2 SPI Pollucite[7][all]
##D2STDCMP   : SPI Pollucite,(Li:0.05),(O:35.94),(Na:1.5),(Al:9.06),(Si:22.2),(K:0.05),(Rb:0.17),(Cs:32.3)
##DET_HASH   : 12273538-fd48-a23f-0a19-f1e6fa85caef
##CALIB_HASH : 6abaa72c-aa41-8738-0be9-f592914732f3
##WORKING    : 15.0 mm
##DET_NAME   : EDAX All
##DET_MODE   : MediumLE
#SPECTRUM    :
23,
28,
10,
25,
80,
380,
1100,
3594,
9851,
12730,
7205,
3876,
3809,
4722,
7716,
24658,
92853,
182435,
134528,
38087,
7052,
3304,
3548,
4556,
5083,
4483,
3586,
3264,
3320,
3770,
4315,
4915,
5004,
6235,
8819,
9189,
6150,
4192,
3868,
3876,
4075,
4170,
4229,
4453,
4498,
4833,
5631,
10574,
29255,
56064,
56434,
31024,
12488,
6696,
6398,
13157,
45437,
112375,
152271,
108316,
44657,
16460,
8428,
5190,
3798,
3728,
4026,
4204,
3983,
3734,
3706,
3550,
3680,
3743,
3839,
4086,
4001,
3782,
3769,
3699,
3711,
3630,
3795,
3827,
4150,
3895,
4046,
3827,
3711,
3609,
3682,
3676,
3703,
3629,
3638,
3747,
3772,
3803,
3608,
3576,
3646,
3588,
3498,
3441,
3525,
3544,
3578,
3595,
3595,
3516,
3656,
3629,
3503,
3351,
3417,
3412,
3468,
3417,
3325,
3240,
3181,
3258,
3223,
3269,
3568,
4134,
4734,
4812,
4261,
3634,
3317,
3146,
3025,
3017,
3005,
3137,
3391,
3737,
4421,
6639,
13403,
27026,
42700,
49075,
39267,
23023,
10567,
5138,
3409,
3193,
4192,
6798,
12430,
19913,
24403,
23250,
17553,
12053,
8308,
5981,
4684,
4284,
5188,
7311,
9355,
9620,
7795,
5222,
3563,
2609,
2425,
2348,
2463,
2848,
3690,
4523,
5039,
4588,
3721,
2741,
2340,
2232,
2373,
2803,
3053,
3093,
2910,
2605,
2255,
2133,
2128,
2025,
1932,
1839,
1807,
1825,
1807,
1870,
1825,
1829,
1790,
1816,
1752,
1806,
1763,
1736,
1695,
1700,
1690,
1627,
1709,
1752,
1824,
1878,
1948,
1843,
1741,
1673,
1604,
1545,
1566,
1566,
1516,
1592,
1634,
1551,
1496,
1538,
1459,
1489,
1547,
1513,
1433,
1510,
1443,
1486,
1447,
1450,
1456,
1474,
1479,
1455,
1422,
1423,
1374,
1371,
1327,
1394,
1442,
1446,
1455,
1317,
1384,
1243,
1233,
1271,
1284,
1353,
1282,
1216,
1209,
1210,
1224,
1270,
1266,
1215,
1199,
1176,
1157,
1124,
1137,
1271,
1176,
1179,
1214,
1146,
1233,
1137,
1114,
1174,
1122,
1097,
1141,
1069,
1121,
1069,
1065,
1045,
1025,
1089,
1071,
1022,
1127,
1026,
1037,
1070,
979,
1020,
1040,
993,
1016,
1015,
955,
926,
942,
906,
952,
985,
951,
931,
943,
951,
896,
882,
943,
913,
890,
924,
916,
859,
904,
831,
857,
840,
865,
887,
824,
819,
841,
872,
823,
825,
831,
786,
774,
776,
786,
773,
774,
778,
770,
789,
757,
741,
727,
746,
737,
733,
772,
693,
727,
658,
672,
669,
690,
655,
703,
663,
658,
670,
670,
654,
685,
637,
649,
600,
647,
632,
672,
605,
633,
626,
576,
645,
605,
564,
562,
609,
567,
559,
575,
536,
554,
550,
530,
522,
492,
514,
551,
464,
547,
525,
528,
520,
492,
505,
480,
484,
453,
481,
441,
467,
445,
483,
450,
428,
440,
485,
472,
396,
419,
424,
457,
434,
437,
413,
433,
420,
437,
460,
433,
409,
392,
392,
454,
358,
391,
391,
343,
346,
367,
376,
366,
347,
351,
327,
352,
338,
353,
317,
346,
319,
324,
389,
309,
321,
318,
302,
300,
282,
294,
282,
308,
293,
310,
305,
288,
288,
263,
252,
263,
254,
256,
267,
267,
233,
261,
257,
246,
243,
227,
222,
259,
217,
239,
240,
234,
231,
223,
214,
217,
214,
201,
252,
228,
201,
217,
197,
240,
193,
182,
192,
199,
211,
197,
199,
191,
174,
187,
152,
187,
180,
172,
184,
179,
175,
174,
164,
160,
171,
199,
155,
162,
151,
146,
157,
144,
134,
162,
152,
112,
137,
125,
127,
154,
127,
142,
121,
139,
114,
130,
109,
131,
96,
126,
104,
124,
136,
104,
117,
96,
123,
110,
97,
109,
100,
88,
85,
79,
97,
110,
92,
89,
82,
87,
92,
76,
103,
83,
84,
78,
89,
88,
76,
76,
60,
82,
79,
76,
80,
54,
81,
65,
74,
71,
74,
62,
55,
58,
59,
51,
63,
49,
58,
56,
73,
50,
62,
47,
55,
55,
46,
50,
60,
42,
44,
57,
59,
34,
37,
45,
43,
38,
47,
31,
40,
40,
32,
37,
27,
42,
32,
27,
31,
28,
33,
26,
23,
39,
28,
27,
26,
25,
25,
23,
26,
16,
16,
18,
23,
18,
26,
18,
28,
15,
16,
17,
13,
15,
11,
16,
17,
17,
7,
16,
11,
13,
7,
10,
12,
9,
7,
5,
7,
6,
5,
1,
10,
5,
4,
2,
5,
0,
2,
0,
2,
1,
1,
1,
0,
0,
0,
1,
0,
1,
1,
0,
0,
0,
1,
0,
3,
1,
1,
0,
3,
0,
0,
0,
1,
1,
1,
1,
1,
1,
1,
1,
1,
1,
1,
0,
1,
0,
0,
0,
0,
1,
0,
1,
0,
1,
1,
0,
1,
0,
0,
0,
0,
0,
1,
0,
1,
0,
1,
0,
0,
0,
0,
0,
2,
0,
0,
0,
0,
1,
1,
1,
0,
0,
1,
0,
0,
0,
0,
0,
0,
0,
0,
0,
1,
0,
1,
0,
0,
1,
0,
0,
0,
0,
0,
0,
0,
0,
0,
1,
1,
1,
0,
0,
2,
0,
0,
0,
0,
0,
0,
0,
0,
1,
0,
0,
0,
0,
0,
0,
2,
0,
0,
0,
0,
0,
0,
0,
1,
1,
0,
0,
0,
0,
0,
1,
0,
1,
0,
0,
0,
0,
0,
0,
0,
0,
0,
0,
0,
1,
0,
0,
0,
0,
1,
0,
0,
0,
0,
0,
0,
0,
0,
0,
0,
0,
0,
0,
0,
0,
0,
1,
0,
0,
0,
0,
0,
0,
1,
0,
0,
1,
0,
0,
0,
1,
0,
0,
0,
0,
0,
0,
0,
0,
1,
0,
0,
0,
0,
0,
1,
0,
0,
0,
0,
0,
0,
0,
0,
0,
1,
0,
0,
0,
0,
0,
0,
0,
0,
0,
0,
0,
0,
0,
0,
0,
0,
0,
0,
0,
0,
0,
0,
0,
0,
0,
0,
0,
0,
0,
0,
0,
0,
0,
0,
0,
0,
0,
0,
0,
0,
0,
0,
0,
0,
0,
0,
0,
0,
0,
0,
0,
0,
0,
0,
0,
0,
0,
0,
0,
0,
0,
0,
0,
0,
0,
0,
0,
0,
0,
0,
0,
2,
0,
0,
0,
0,
0,
0,
0,
0,
1,
0,
0,
0,
0,
0,
0,
0,
0,
0,
0,
0,
0,
0,
0,
0,
0,
0,
0,
0,
0,
0,
0,
0,
0,
0,
0,
0,
0,
0,
0,
0,
0,
0,
0,
0,
0,
0,
0,
0,
0,
0,
0,
0,
0,
0,
0,
0,
0,
0,
0,
0,
0,
0,
0,
0,
0,
0,
0,
0,
0,
0,
0,
0,
0,
0,
0,
0,
0,
0,
0,
0,
0,
0,
0,
0,
0,
0,
0,
0,
0,
0,
0,
0,
0,
0,
0,
0,
0,
0,
0,
0,
0,
0,
0,
0,
0,
0,
0,
0,
0,
0,
0,
0,
0,
0,
0,
0,
0,
0,
0,
0,
0,
0,
0,
0,
0,
0,
0,
0,
0,
0,
0,
0,
0,
0,
0,
0,
0,
0,
0,
0,
0,
0,
0,
0,
0,
0,
0,
0,
0,
0,
0,
0,
0,
0,
0,
0,
0,
0,
0,
0,
0,
0,
0,
0,
0,
0,
0,
0,
0,
0,
0,
0,
0,
0,
0,
0,
0,
0,
0,
0,
0,
0,
0,
0,
0,
0,
0,
0,
0,
0,
0,
0,
0,
0,
0,
0,
0,
0,
0,
0,
0,
0,
0,
0,
0,
0,
0,
0,
0,
0,
0,
0,
0,
0,
0,
0,
0,
0,
0,
0,
0,
0,
0,
0,
0,
0,
0,
0,
0,
0,
0,
0,
0,
0,
0,
0,
0,
0,
0,
0,
0,
0,
0,
0,
0,
0,
0,
0,
0,
0,
0,
0,
0,
0,
0,
0,
0,
0,
0,
0,
0,
0,
0,
0,
0,
0,
0,
0,
0,
0,
0,
0,
0,
0,
0,
0,
0,
0,
0,
0,
0,
0,
0,
0,
0,
0,
0,
0,
0,
0,
0,
0,
0,
0,
0,
0,
0,
0,
0,
0,
0,
0,
0,
0,
0,
0,
0,
0,
0,
0,
0,
0,
0,
0,
0,
0,
0,
0,
0,
0,
0,
0,
0,
0,
0,
0,
0,
0,
0,
0,
0,
0,
0,
0,
0,
0,
0,
0,
0,
0,
0,
0,
0,
0,
0,
0,
0,
0,
0,
0,
0,
0,
0,
0,
0,
0,
0,
0,
0,
0,
0,
0,
0,
0,
0,
0,
0,
0,
0,
0,
0,
0,
0,
0,
0,
0,
0,
0,
0,
0,
0,
0,
0,
0,
0,
0,
0,
0,
0,
0,
0,
0,
0,
0,
0,
0,
0,
0,
0,
0,
0,
0,
0,
0,
0,
0,
0,
0,
0,
0,
0,
0,
0,
0,
0,
0,
0,
0,
#ENDOFDATA   :