File: N132962/Quantification/20 keV/MMM2/SPI MM2 Scheelite[7][4].msa
#FORMAT      : EMSA/MAS Spectral Data File
#VERSION     : 1.0
#TITLE       : SPI MM2 Scheelite[7][all]
#DATE        : 13-MAR-2025
#TIME        : 12:20
#OWNER       : Unknown
#NPOINTS     : 4096
#NCOLUMNS    : 1
#XUNITS      : eV
#YUNITS      : counts
#DATATYPE    : Y
#XPERCHAN    : 9.99778
#OFFSET      : 1.69135
#BEAMKV      : 20
#SIGNALTYPE  : EDS
#ELEVANGLE   : 35
#AZIMANGLE   : 0
#LIVETIME    : 240.193
#REALTIME    : 263.3399
#PROBECUR    : 1.02616
#TAUWIND     : 0
#TDEADLYR    : 0
#TACTLYR     : 0.045
#TALWIND     : 0.025
#CHOFFSET    : 0.0
#XLABEL      : Energy (eV)
#YLABEL      : Counts
#XPOSITION   : -2.77414
#YPOSITION   : 1.97129
#ZPOSITION   : 31.03511
#EDSDET      : SD
##SPECIMEN   : SPI MM2 Scheelite[7][all]
##DET_HASH   : 12273538-fd48-a23f-0a19-f1e6fa85caef
##CALIB_HASH : 6abaa72c-aa41-8738-0be9-f592914732f3
##WORKING    : 15.0 mm
##DET_NAME   : EDAX All
##DET_MODE   : MediumLE
#SPECTRUM    :
29,
39,
14,
37,
191,
842,
2642,
6491,
14954,
19541,
11781,
5815,
4472,
4116,
4644,
9453,
28567,
52859,
40018,
12937,
4601,
4201,
4496,
4920,
5218,
4990,
5442,
5653,
6373,
6540,
6444,
6314,
6643,
6881,
7000,
7262,
7510,
7541,
7946,
7842,
8155,
8477,
8738,
9614,
12662,
18655,
22895,
19449,
13881,
11022,
10221,
10144,
9948,
10083,
10943,
13236,
21554,
56525,
143711,
227555,
221924,
157741,
87334,
34626,
12276,
7450,
7865,
9206,
9538,
8108,
6169,
5215,
5234,
5275,
5242,
5535,
6159,
6558,
6268,
5764,
5304,
5032,
4849,
4863,
4784,
4712,
4814,
4793,
4806,
4596,
4863,
4881,
4832,
5071,
4814,
4767,
4777,
4856,
4796,
4934,
4855,
4765,
4925,
4812,
4974,
4897,
4974,
4867,
4896,
4886,
4754,
4942,
4941,
4838,
4860,
4925,
4970,
5509,
6026,
7908,
14414,
30023,
52205,
65105,
55441,
32611,
15058,
7247,
5420,
5076,
5590,
6722,
8929,
11395,
12130,
10481,
7642,
5588,
4577,
4465,
4338,
4294,
4300,
4271,
4329,
4262,
4264,
4386,
4195,
4187,
4194,
4180,
4132,
4296,
4057,
4089,
4048,
4064,
4142,
4149,
4054,
4074,
4039,
4124,
4099,
4014,
4076,
3923,
4080,
3847,
3939,
3855,
3831,
3870,
3880,
3890,
3741,
3884,
3928,
3873,
3876,
3783,
3837,
3856,
3910,
3775,
3859,
3727,
3614,
3689,
3594,
3594,
3534,
3528,
3620,
3563,
3570,
3574,
3508,
3567,
3436,
3402,
3371,
3465,
3274,
3419,
3298,
3332,
3403,
3315,
3357,
3437,
3613,
3713,
3594,
3486,
3449,
3284,
3206,
3150,
3198,
3039,
3122,
3107,
3002,
3087,
2974,
2960,
3012,
2921,
2940,
2859,
3008,
2907,
3000,
2922,
2850,
2906,
2865,
2769,
2844,
2901,
2910,
3149,
3525,
3929,
4083,
3974,
3859,
3495,
3116,
2953,
2764,
2659,
2659,
2565,
2609,
2696,
2585,
2566,
2548,
2605,
2489,
2475,
2553,
2459,
2524,
2455,
2563,
2507,
2573,
2530,
2700,
2976,
3900,
5951,
9551,
15331,
22024,
27021,
27374,
23248,
16893,
10460,
6202,
3713,
2675,
2394,
2410,
2423,
2440,
2393,
2362,
2329,
2215,
2143,
2127,
2076,
2139,
2120,
2016,
2063,
2020,
2026,
1986,
1934,
1977,
1995,
1980,
1911,
1931,
1972,
2011,
2150,
2343,
2589,
2963,
3676,
4611,
6173,
8092,
9808,
10662,
10437,
8730,
6930,
5367,
4744,
4441,
4947,
5648,
6348,
6292,
5667,
4560,
3522,
2675,
2229,
1874,
1943,
1884,
1792,
1692,
1603,
1610,
1563,
1439,
1498,
1397,
1439,
1405,
1361,
1358,
1399,
1381,
1405,
1433,
1290,
1370,
1460,
1352,
1376,
1351,
1344,
1373,
1376,
1386,
1319,
1307,
1386,
1351,
1510,
1692,
1963,
2221,
2573,
2722,
2588,
2220,
1815,
1595,
1443,
1379,
1314,
1371,
1493,
1576,
1575,
1575,
1519,
1358,
1342,
1218,
1143,
1067,
1037,
1051,
1031,
1063,
1057,
1091,
1141,
1093,
1070,
1018,
1000,
943,
908,
946,
879,
936,
894,
928,
933,
905,
819,
894,
965,
843,
883,
892,
821,
857,
855,
871,
817,
798,
790,
833,
838,
793,
761,
775,
791,
680,
766,
773,
755,
716,
727,
718,
762,
720,
676,
735,
695,
775,
747,
678,
673,
695,
645,
619,
668,
660,
600,
649,
648,
614,
586,
627,
609,
628,
588,
606,
631,
594,
557,
558,
547,
578,
541,
541,
543,
559,
538,
488,
525,
543,
534,
508,
498,
485,
509,
455,
491,
505,
476,
440,
469,
447,
455,
443,
410,
448,
443,
430,
433,
422,
443,
429,
434,
410,
419,
425,
454,
420,
410,
346,
352,
366,
365,
392,
382,
353,
352,
352,
346,
332,
365,
326,
315,
317,
302,
316,
336,
317,
316,
300,
299,
299,
300,
268,
295,
294,
265,
255,
266,
290,
276,
274,
255,
261,
249,
255,
262,
269,
217,
208,
237,
238,
212,
225,
253,
233,
238,
215,
230,
199,
207,
209,
197,
214,
189,
195,
219,
209,
190,
179,
156,
180,
154,
174,
148,
173,
182,
151,
172,
154,
166,
150,
171,
157,
160,
145,
133,
126,
127,
116,
151,
134,
134,
139,
120,
143,
135,
119,
111,
121,
113,
92,
113,
124,
117,
111,
103,
102,
83,
102,
81,
99,
109,
96,
72,
78,
76,
75,
89,
71,
73,
62,
61,
72,
92,
64,
54,
68,
58,
67,
56,
57,
61,
47,
58,
48,
46,
62,
47,
45,
47,
38,
35,
45,
46,
46,
36,
26,
39,
28,
35,
30,
35,
25,
23,
13,
14,
19,
22,
15,
10,
15,
10,
17,
7,
6,
2,
10,
6,
5,
4,
3,
4,
4,
5,
3,
4,
1,
2,
7,
3,
0,
0,
2,
2,
1,
3,
2,
5,
1,
2,
2,
1,
2,
1,
7,
1,
4,
4,
6,
1,
5,
1,
1,
1,
1,
3,
2,
3,
3,
4,
1,
2,
1,
0,
2,
1,
2,
1,
1,
3,
6,
1,
3,
1,
1,
0,
2,
0,
0,
1,
2,
1,
3,
2,
3,
1,
1,
1,
3,
1,
3,
3,
1,
0,
1,
2,
2,
2,
2,
1,
0,
1,
2,
1,
0,
1,
1,
3,
0,
3,
0,
1,
2,
3,
1,
2,
2,
0,
1,
2,
2,
1,
0,
1,
2,
0,
0,
2,
1,
0,
0,
1,
1,
0,
2,
0,
0,
2,
0,
1,
2,
1,
1,
2,
2,
1,
2,
1,
1,
1,
1,
1,
0,
1,
1,
0,
1,
0,
2,
0,
0,
0,
0,
1,
0,
1,
1,
0,
1,
0,
3,
0,
1,
2,
2,
2,
1,
0,
0,
2,
0,
0,
0,
0,
2,
0,
0,
0,
1,
2,
0,
1,
0,
2,
0,
0,
0,
1,
0,
0,
2,
2,
1,
0,
0,
0,
0,
1,
1,
1,
0,
3,
0,
0,
1,
1,
0,
0,
1,
0,
1,
2,
0,
0,
0,
0,
0,
1,
0,
0,
2,
0,
0,
0,
0,
1,
0,
0,
1,
0,
0,
0,
0,
0,
0,
0,
0,
0,
0,
0,
2,
0,
0,
0,
0,
0,
0,
0,
0,
1,
1,
0,
0,
1,
0,
0,
0,
0,
0,
0,
1,
0,
0,
0,
1,
0,
0,
0,
0,
0,
0,
0,
0,
0,
0,
0,
0,
0,
1,
1,
0,
0,
0,
0,
0,
0,
0,
0,
0,
0,
0,
0,
1,
0,
1,
0,
0,
0,
0,
1,
0,
0,
0,
0,
0,
0,
0,
0,
0,
0,
1,
0,
0,
0,
0,
0,
0,
0,
0,
0,
0,
0,
0,
0,
0,
0,
0,
0,
0,
0,
0,
1,
0,
0,
0,
0,
0,
0,
0,
0,
0,
0,
0,
0,
0,
0,
0,
0,
0,
0,
0,
0,
0,
0,
0,
1,
0,
0,
0,
0,
0,
0,
1,
0,
0,
0,
0,
0,
1,
0,
0,
0,
0,
1,
0,
0,
0,
0,
0,
0,
0,
0,
0,
0,
0,
0,
0,
0,
0,
0,
0,
0,
0,
0,
0,
0,
0,
0,
0,
0,
0,
0,
0,
0,
0,
0,
0,
0,
0,
0,
0,
0,
0,
0,
0,
0,
0,
0,
0,
0,
0,
0,
0,
0,
0,
0,
0,
0,
0,
0,
0,
0,
0,
0,
0,
1,
0,
0,
0,
0,
0,
0,
0,
0,
0,
0,
0,
0,
0,
0,
0,
0,
0,
0,
0,
0,
0,
0,
0,
0,
0,
0,
0,
0,
0,
0,
0,
0,
0,
0,
0,
0,
0,
0,
0,
0,
0,
0,
0,
0,
0,
0,
0,
0,
0,
0,
0,
0,
0,
0,
1,
0,
0,
0,
0,
0,
0,
0,
0,
0,
0,
0,
0,
0,
0,
0,
0,
0,
0,
0,
0,
0,
0,
0,
0,
0,
0,
0,
0,
0,
0,
0,
0,
0,
0,
0,
0,
0,
0,
0,
0,
0,
0,
0,
0,
0,
0,
0,
0,
0,
0,
0,
0,
0,
0,
0,
0,
0,
0,
0,
0,
0,
0,
0,
0,
0,
0,
0,
0,
0,
0,
0,
0,
0,
0,
0,
0,
0,
0,
0,
0,
0,
0,
0,
0,
0,
0,
0,
0,
0,
0,
0,
0,
0,
0,
0,
0,
0,
0,
0,
0,
0,
0,
0,
0,
0,
0,
0,
0,
0,
0,
0,
0,
0,
0,
0,
0,
0,
0,
0,
0,
0,
0,
0,
0,
0,
0,
0,
0,
0,
0,
0,
0,
0,
0,
0,
0,
0,
0,
0,
0,
0,
0,
0,
0,
0,
0,
0,
0,
0,
0,
0,
0,
0,
0,
0,
0,
0,
0,
0,
0,
0,
0,
0,
0,
0,
0,
0,
0,
0,
0,
0,
0,
0,
0,
0,
0,
0,
0,
0,
0,
0,
0,
0,
0,
0,
0,
0,
0,
0,
0,
0,
0,
0,
0,
0,
0,
0,
0,
0,
0,
0,
0,
0,
0,
0,
0,
0,
0,
0,
0,
0,
0,
0,
0,
0,
#ENDOFDATA   :