File: N132962/Quantification/20 keV/MMM2/SPI MM2 Rhodonite[5][4].msa
#FORMAT      : EMSA/MAS Spectral Data File
#VERSION     : 1.0
#TITLE       : SPI MM2 Rhodonite[5][all]
#DATE        : 13-MAR-2025
#TIME        : 12:27
#OWNER       : Unknown
#NPOINTS     : 4096
#NCOLUMNS    : 1
#XUNITS      : eV
#YUNITS      : counts
#DATATYPE    : Y
#XPERCHAN    : 9.99778
#OFFSET      : 1.69135
#BEAMKV      : 20
#SIGNALTYPE  : EDS
#ELEVANGLE   : 35
#AZIMANGLE   : 0
#LIVETIME    : 239.88
#REALTIME    : 256.304
#PROBECUR    : 1.02616
#TAUWIND     : 0
#TDEADLYR    : 0
#TACTLYR     : 0.045
#TALWIND     : 0.025
#CHOFFSET    : 0.0
#XLABEL      : Energy (eV)
#YLABEL      : Counts
#XPOSITION   : 0.10887
#YPOSITION   : 1.16954
#ZPOSITION   : 31.03511
#EDSDET      : SD
##SPECIMEN   : SPI MM2 Rhodonite[5][all]
##DET_HASH   : 12273538-fd48-a23f-0a19-f1e6fa85caef
##CALIB_HASH : 6abaa72c-aa41-8738-0be9-f592914732f3
##WORKING    : 15.0 mm
##DET_NAME   : EDAX All
##DET_MODE   : MediumLE
#SPECTRUM    :
14,
19,
12,
24,
84,
342,
1011,
3108,
8845,
12005,
6747,
3495,
3502,
4134,
6844,
23061,
90001,
176668,
131177,
38169,
13348,
16479,
12991,
6999,
4547,
2872,
2132,
2152,
2310,
2369,
2446,
2501,
2747,
2831,
3169,
3285,
3315,
3201,
3459,
3878,
5512,
8990,
10240,
7351,
4742,
4260,
4153,
4396,
4460,
4805,
5050,
5056,
5057,
5158,
6368,
14430,
53339,
134783,
183553,
129799,
52133,
18309,
9126,
5222,
3636,
3376,
3195,
3232,
3122,
3055,
3291,
3154,
3327,
3340,
3637,
3759,
3683,
3506,
3354,
3331,
3296,
3246,
3187,
3281,
3182,
3254,
3260,
3217,
3149,
3120,
3120,
3092,
3168,
3143,
3183,
3088,
3054,
3001,
2991,
3033,
3019,
3053,
3063,
2949,
3023,
2982,
2875,
2917,
2954,
2779,
2816,
2805,
2781,
2751,
2805,
2954,
2922,
3011,
3008,
3456,
5039,
9231,
14793,
18513,
15837,
9854,
5156,
3094,
2665,
2509,
2649,
2965,
3503,
4066,
4290,
3906,
3350,
2935,
2661,
2545,
2437,
2415,
2257,
2241,
2250,
2187,
2176,
2079,
2136,
2152,
2161,
2082,
2055,
2008,
2110,
1979,
1999,
1989,
2056,
2011,
1977,
1984,
1945,
1856,
1880,
1888,
1938,
1841,
1876,
1959,
1801,
1800,
1818,
1796,
1811,
1763,
1780,
1725,
1732,
1839,
1839,
1690,
1733,
1743,
1674,
1715,
1778,
1730,
1833,
1793,
2102,
2937,
5633,
14222,
30900,
53275,
70240,
69625,
52277,
30124,
13165,
5269,
2378,
1725,
1551,
1495,
1468,
1549,
1680,
2083,
3066,
5179,
7743,
10319,
12268,
13366,
12598,
10765,
7479,
4502,
2545,
1591,
1312,
1190,
1161,
1113,
1120,
1095,
1098,
1125,
1211,
1227,
1319,
1496,
1747,
1820,
1753,
1535,
1324,
1137,
1093,
1007,
974,
978,
1041,
1019,
1015,
1055,
1028,
1063,
1011,
963,
986,
1053,
1054,
998,
1055,
982,
930,
960,
921,
899,
903,
876,
922,
928,
875,
878,
851,
879,
889,
855,
836,
863,
803,
834,
848,
828,
807,
807,
780,
769,
771,
700,
792,
748,
767,
766,
745,
778,
779,
753,
699,
721,
690,
704,
660,
692,
773,
715,
700,
702,
665,
668,
690,
693,
643,
656,
657,
661,
668,
693,
645,
591,
634,
629,
650,
623,
603,
636,
643,
629,
609,
587,
577,
553,
526,
570,
589,
556,
540,
577,
555,
539,
552,
567,
531,
535,
518,
547,
538,
458,
540,
530,
475,
527,
494,
490,
526,
517,
467,
494,
489,
491,
502,
450,
464,
487,
460,
395,
449,
437,
437,
443,
442,
440,
453,
400,
408,
423,
433,
421,
409,
412,
383,
413,
399,
390,
384,
400,
381,
358,
361,
392,
356,
353,
376,
379,
373,
344,
326,
376,
363,
327,
377,
341,
364,
331,
353,
358,
350,
353,
315,
290,
324,
316,
315,
297,
311,
281,
275,
290,
259,
310,
289,
300,
260,
310,
295,
290,
272,
270,
249,
263,
269,
250,
246,
265,
251,
227,
263,
245,
276,
239,
244,
236,
231,
231,
260,
238,
237,
229,
214,
209,
193,
227,
206,
185,
203,
195,
225,
176,
213,
183,
176,
196,
208,
181,
193,
189,
196,
187,
158,
184,
189,
181,
183,
201,
171,
157,
159,
169,
150,
129,
146,
151,
154,
153,
145,
149,
139,
167,
156,
136,
135,
121,
135,
124,
146,
141,
147,
122,
131,
124,
122,
126,
128,
117,
120,
129,
95,
114,
113,
123,
111,
98,
118,
129,
108,
130,
103,
127,
102,
92,
94,
98,
105,
102,
91,
103,
95,
85,
88,
87,
67,
80,
78,
87,
90,
73,
64,
71,
72,
79,
74,
73,
69,
67,
74,
68,
80,
58,
72,
69,
66,
66,
71,
76,
62,
52,
73,
46,
61,
66,
56,
55,
59,
58,
50,
48,
52,
44,
58,
47,
48,
48,
42,
44,
32,
47,
42,
47,
46,
40,
30,
33,
48,
39,
39,
34,
43,
44,
28,
39,
27,
38,
36,
30,
29,
31,
26,
25,
22,
41,
30,
23,
27,
26,
28,
26,
27,
28,
20,
21,
25,
21,
22,
18,
25,
26,
13,
17,
21,
20,
22,
20,
11,
15,
15,
11,
20,
11,
12,
10,
17,
20,
9,
14,
17,
9,
9,
9,
12,
6,
16,
11,
10,
11,
11,
13,
7,
10,
8,
8,
4,
6,
3,
7,
4,
9,
9,
3,
6,
7,
8,
2,
2,
2,
1,
4,
3,
0,
2,
1,
2,
0,
1,
0,
1,
2,
1,
1,
0,
0,
1,
0,
0,
2,
0,
1,
1,
1,
0,
1,
0,
0,
2,
0,
1,
1,
0,
0,
2,
0,
1,
1,
0,
1,
1,
1,
0,
0,
0,
0,
0,
0,
0,
2,
0,
0,
0,
0,
0,
0,
0,
0,
1,
0,
1,
0,
1,
0,
0,
0,
0,
0,
0,
1,
0,
0,
0,
0,
1,
0,
0,
0,
0,
0,
0,
0,
1,
0,
0,
1,
0,
0,
0,
1,
0,
0,
0,
0,
0,
0,
1,
1,
0,
1,
0,
0,
1,
1,
0,
1,
0,
0,
0,
0,
1,
0,
0,
0,
0,
0,
0,
0,
0,
0,
0,
0,
0,
1,
0,
0,
0,
0,
0,
0,
0,
0,
0,
0,
0,
0,
0,
0,
0,
0,
0,
0,
0,
0,
0,
0,
0,
0,
0,
0,
0,
1,
0,
0,
0,
0,
0,
0,
0,
0,
0,
0,
0,
0,
0,
0,
0,
0,
0,
0,
0,
0,
0,
0,
0,
0,
0,
0,
1,
0,
0,
0,
0,
0,
0,
0,
0,
0,
0,
0,
0,
0,
0,
0,
0,
0,
0,
0,
0,
0,
0,
0,
0,
0,
0,
0,
0,
0,
0,
0,
0,
0,
0,
0,
0,
0,
0,
0,
0,
0,
0,
0,
0,
0,
0,
0,
0,
0,
0,
0,
0,
0,
0,
0,
0,
0,
0,
0,
0,
0,
0,
0,
0,
0,
1,
0,
0,
0,
0,
0,
0,
0,
0,
1,
0,
0,
0,
0,
0,
0,
0,
0,
0,
0,
0,
0,
0,
0,
0,
0,
0,
0,
0,
0,
0,
0,
0,
0,
0,
0,
0,
1,
0,
0,
0,
0,
0,
0,
0,
0,
0,
0,
0,
0,
0,
0,
0,
0,
0,
0,
0,
0,
0,
0,
0,
0,
0,
0,
0,
0,
0,
0,
0,
0,
0,
0,
0,
0,
0,
0,
0,
0,
0,
0,
0,
0,
0,
0,
0,
0,
0,
0,
0,
0,
0,
0,
0,
0,
0,
0,
0,
0,
0,
0,
0,
0,
0,
0,
0,
0,
0,
0,
0,
0,
0,
0,
0,
0,
0,
0,
0,
0,
0,
0,
0,
0,
0,
0,
0,
0,
0,
0,
0,
0,
0,
0,
0,
0,
0,
0,
0,
0,
0,
0,
0,
0,
0,
0,
0,
0,
0,
0,
0,
0,
0,
0,
0,
0,
0,
0,
0,
0,
0,
0,
0,
0,
0,
0,
0,
0,
0,
0,
0,
0,
0,
0,
0,
0,
0,
0,
0,
0,
0,
0,
0,
0,
0,
0,
0,
0,
0,
0,
0,
0,
0,
0,
0,
0,
0,
0,
0,
0,
0,
0,
0,
0,
0,
0,
0,
0,
0,
0,
0,
0,
0,
0,
0,
0,
0,
0,
0,
0,
0,
0,
0,
0,
0,
0,
0,
0,
0,
0,
0,
0,
0,
0,
0,
0,
0,
0,
0,
0,
0,
0,
0,
0,
0,
0,
0,
0,
0,
0,
0,
0,
0,
0,
0,
0,
0,
0,
0,
0,
0,
0,
0,
0,
0,
0,
0,
0,
0,
0,
0,
0,
0,
0,
0,
0,
0,
0,
0,
0,
0,
0,
0,
0,
0,
0,
0,
0,
0,
0,
0,
0,
0,
0,
0,
0,
0,
0,
0,
0,
0,
0,
0,
0,
0,
0,
0,
0,
0,
0,
0,
0,
0,
0,
0,
0,
0,
0,
0,
0,
0,
0,
0,
0,
0,
0,
0,
0,
0,
0,
0,
0,
0,
0,
0,
0,
0,
0,
0,
0,
0,
0,
0,
0,
0,
0,
0,
0,
0,
0,
0,
0,
0,
0,
0,
0,
0,
0,
0,
0,
0,
0,
0,
0,
0,
0,
0,
0,
0,
0,
0,
0,
0,
0,
0,
0,
0,
0,
0,
0,
0,
0,
0,
0,
0,
0,
0,
0,
0,
0,
0,
0,
0,
0,
0,
0,
0,
0,
0,
0,
0,
0,
0,
0,
0,
0,
0,
0,
0,
0,
0,
0,
0,
0,
0,
0,
0,
0,
0,
0,
0,
0,
0,
0,
0,
0,
0,
0,
0,
0,
0,
0,
0,
0,
0,
0,
0,
0,
0,
0,
0,
0,
0,
0,
0,
0,
0,
0,
0,
0,
0,
0,
0,
0,
0,
0,
0,
0,
0,
0,
0,
0,
0,
0,
0,
0,
#ENDOFDATA   :