File: N132962/Quantification/20 keV/MMM2/SPI MM2 Pyrite[5][4].msa
#FORMAT      : EMSA/MAS Spectral Data File
#VERSION     : 1.0
#TITLE       : SPI MM2 Pyrite[5][all]
#DATE        : 13-MAR-2025
#TIME        : 12:54
#OWNER       : Unknown
#NPOINTS     : 4096
#NCOLUMNS    : 1
#XUNITS      : eV
#YUNITS      : counts
#DATATYPE    : Y
#XPERCHAN    : 9.99778
#OFFSET      : 1.69135
#BEAMKV      : 20
#SIGNALTYPE  : EDS
#ELEVANGLE   : 35
#AZIMANGLE   : 0
#LIVETIME    : 239.849
#REALTIME    : 262.058
#PROBECUR    : 1.02627
#TAUWIND     : 0
#TDEADLYR    : 0
#TACTLYR     : 0.045
#TALWIND     : 0.025
#CHOFFSET    : 0.0
#XLABEL      : Energy (eV)
#YLABEL      : Counts
#XPOSITION   : 7.84947
#YPOSITION   : 1.95178
#ZPOSITION   : 31.03511
#EDSDET      : SD
##SPECIMEN   : SPI MM2 Pyrite[5][all]
##DET_HASH   : 12273538-fd48-a23f-0a19-f1e6fa85caef
##CALIB_HASH : 6abaa72c-aa41-8738-0be9-f592914732f3
##WORKING    : 15.0 mm
##DET_NAME   : EDAX All
##DET_MODE   : MediumLE
#SPECTRUM    :
18,
26,
12,
62,
393,
854,
1269,
3106,
9289,
12332,
6038,
2488,
2134,
2373,
2749,
3490,
4537,
7304,
12511,
18364,
20138,
20750,
34995,
60576,
50717,
18837,
6109,
4039,
3640,
3452,
3327,
3463,
3613,
3705,
3819,
4013,
3982,
4132,
4322,
4592,
4658,
4964,
4883,
5187,
5334,
5216,
5359,
5484,
5577,
5925,
6208,
5917,
5897,
5814,
5845,
6040,
6215,
6585,
7145,
6961,
6743,
6367,
6016,
5904,
5765,
5993,
6048,
6234,
6480,
6241,
6460,
7400,
10697,
20363,
52474,
148879,
308785,
387462,
281187,
120857,
40738,
27327,
30718,
25466,
14218,
6646,
3733,
3273,
3057,
3144,
3109,
3093,
3089,
3093,
3191,
3217,
3321,
3267,
3347,
3402,
3487,
3440,
3269,
3308,
3167,
3172,
3191,
3101,
3123,
3044,
3081,
3160,
3036,
3074,
3079,
3078,
3110,
3176,
3075,
2962,
2998,
3125,
2949,
2988,
2899,
2932,
2909,
2915,
2950,
2930,
2987,
2820,
2868,
2892,
2910,
2832,
2812,
2820,
2750,
2795,
2770,
2746,
2722,
2725,
2687,
2773,
2706,
2652,
2618,
2702,
2859,
2834,
3180,
3446,
3679,
3545,
3197,
2904,
2833,
2668,
2636,
2571,
2452,
2526,
2357,
2474,
2465,
2429,
2355,
2365,
2306,
2276,
2262,
2330,
2378,
2301,
2368,
2384,
2308,
2263,
2261,
2227,
2164,
2189,
2122,
2127,
2100,
2102,
2098,
2106,
2115,
2094,
1980,
1988,
1989,
1998,
1961,
1903,
2058,
2030,
2032,
2041,
2080,
2036,
2045,
2093,
2220,
2662,
4506,
9636,
22985,
45540,
72035,
88242,
83452,
59826,
33757,
15144,
6066,
2891,
1994,
1809,
1788,
1745,
1703,
1693,
1697,
1766,
1926,
1974,
2432,
3387,
5257,
8212,
11443,
12888,
11487,
8635,
5423,
3243,
2046,
1526,
1294,
1373,
1326,
1349,
1319,
1372,
1411,
1395,
1370,
1270,
1318,
1217,
1247,
1246,
1278,
1173,
1268,
1233,
1184,
1246,
1155,
1272,
1177,
1149,
1177,
1100,
1130,
1146,
1113,
1177,
1092,
1130,
1101,
1172,
1148,
1087,
1071,
1021,
1048,
1099,
1080,
1009,
1052,
1114,
1075,
1145,
1128,
1249,
1303,
1307,
1222,
1102,
1003,
1056,
1031,
1011,
972,
962,
932,
937,
891,
908,
905,
874,
938,
919,
906,
912,
957,
912,
871,
956,
866,
894,
883,
861,
866,
775,
874,
812,
800,
822,
870,
822,
826,
814,
823,
791,
772,
822,
770,
711,
730,
766,
780,
766,
781,
699,
716,
709,
689,
733,
736,
728,
705,
659,
678,
716,
695,
662,
683,
670,
663,
636,
661,
619,
693,
636,
673,
629,
635,
555,
609,
565,
612,
596,
597,
561,
634,
584,
537,
613,
573,
578,
574,
563,
564,
546,
531,
543,
516,
532,
498,
528,
520,
530,
494,
549,
492,
498,
464,
513,
473,
486,
490,
445,
475,
499,
441,
499,
481,
494,
478,
445,
438,
447,
394,
404,
392,
394,
392,
457,
433,
400,
389,
420,
376,
389,
370,
395,
387,
365,
428,
388,
408,
393,
404,
401,
379,
363,
374,
351,
363,
334,
357,
326,
321,
347,
325,
311,
305,
345,
327,
314,
340,
331,
270,
327,
305,
303,
302,
285,
272,
291,
265,
281,
280,
242,
281,
244,
268,
259,
248,
279,
236,
222,
238,
207,
244,
223,
227,
210,
208,
221,
223,
202,
233,
215,
192,
196,
228,
229,
189,
213,
205,
205,
195,
209,
188,
181,
200,
178,
191,
152,
160,
163,
187,
167,
185,
154,
156,
148,
145,
149,
154,
155,
131,
160,
166,
167,
138,
128,
145,
141,
147,
103,
111,
130,
150,
137,
116,
133,
130,
109,
120,
129,
116,
134,
94,
116,
133,
135,
118,
104,
108,
111,
110,
118,
100,
95,
106,
100,
79,
84,
98,
77,
92,
93,
90,
84,
90,
90,
85,
67,
66,
89,
86,
85,
99,
102,
74,
71,
70,
58,
67,
64,
62,
80,
60,
73,
68,
64,
59,
59,
58,
67,
55,
52,
55,
60,
67,
47,
53,
52,
47,
44,
46,
56,
42,
46,
38,
46,
43,
41,
56,
52,
36,
41,
32,
29,
33,
51,
49,
34,
40,
37,
29,
35,
25,
30,
26,
38,
31,
19,
36,
28,
33,
21,
18,
23,
14,
23,
18,
16,
16,
13,
15,
15,
16,
19,
18,
23,
17,
9,
16,
14,
9,
19,
10,
16,
8,
14,
20,
15,
8,
10,
13,
5,
13,
9,
5,
8,
5,
7,
8,
4,
4,
1,
1,
3,
3,
3,
2,
3,
1,
1,
3,
1,
0,
0,
1,
1,
2,
1,
0,
3,
0,
1,
1,
3,
3,
1,
0,
2,
0,
0,
1,
0,
0,
2,
0,
0,
1,
0,
1,
2,
0,
1,
0,
1,
0,
1,
1,
1,
0,
1,
3,
1,
2,
0,
0,
0,
1,
1,
0,
5,
0,
1,
2,
0,
2,
0,
1,
2,
0,
0,
0,
2,
1,
1,
0,
0,
1,
1,
2,
0,
1,
0,
0,
1,
0,
1,
0,
2,
0,
0,
0,
0,
0,
0,
0,
0,
0,
1,
0,
0,
0,
0,
0,
0,
0,
1,
0,
1,
1,
0,
0,
0,
0,
0,
1,
0,
1,
0,
0,
0,
0,
0,
0,
0,
0,
0,
0,
0,
0,
0,
0,
0,
0,
0,
0,
0,
0,
1,
0,
0,
1,
0,
0,
0,
0,
0,
0,
0,
0,
0,
0,
0,
0,
0,
0,
0,
0,
0,
0,
0,
0,
0,
0,
0,
0,
0,
0,
0,
0,
0,
0,
0,
1,
0,
0,
0,
0,
0,
0,
0,
0,
0,
1,
1,
0,
0,
1,
0,
0,
0,
0,
0,
0,
0,
0,
0,
1,
0,
0,
0,
0,
0,
0,
0,
0,
0,
0,
0,
0,
0,
0,
0,
0,
0,
0,
0,
0,
0,
0,
0,
0,
0,
0,
0,
0,
0,
0,
0,
0,
0,
0,
0,
0,
0,
0,
0,
0,
0,
0,
0,
0,
0,
0,
0,
0,
0,
1,
0,
0,
0,
0,
0,
0,
0,
0,
0,
0,
0,
0,
1,
0,
0,
0,
0,
0,
1,
0,
0,
0,
0,
0,
0,
0,
1,
0,
0,
0,
0,
0,
0,
0,
0,
0,
0,
0,
1,
1,
0,
0,
0,
0,
0,
0,
0,
0,
0,
0,
0,
0,
0,
0,
0,
0,
0,
1,
0,
0,
0,
0,
0,
0,
0,
0,
0,
0,
0,
0,
0,
0,
0,
0,
0,
0,
0,
0,
0,
0,
0,
0,
0,
0,
0,
0,
0,
0,
0,
0,
0,
0,
0,
0,
0,
0,
0,
0,
0,
0,
0,
0,
0,
0,
0,
0,
0,
0,
0,
0,
0,
0,
0,
0,
0,
0,
0,
0,
0,
0,
0,
0,
0,
0,
0,
0,
0,
0,
0,
0,
0,
0,
0,
0,
0,
0,
0,
0,
0,
0,
0,
0,
0,
0,
0,
0,
0,
0,
0,
0,
0,
0,
0,
0,
0,
0,
0,
0,
0,
0,
0,
0,
0,
0,
0,
0,
0,
0,
0,
0,
0,
0,
0,
0,
0,
0,
0,
0,
0,
0,
0,
0,
0,
0,
0,
0,
0,
0,
0,
0,
0,
0,
0,
0,
0,
0,
0,
0,
0,
0,
0,
0,
0,
0,
0,
0,
0,
0,
0,
0,
0,
0,
0,
0,
0,
0,
0,
0,
0,
0,
0,
0,
0,
0,
0,
0,
0,
0,
0,
0,
0,
0,
0,
0,
0,
0,
0,
0,
0,
0,
0,
0,
0,
0,
0,
0,
0,
0,
0,
0,
0,
0,
0,
0,
0,
0,
0,
0,
0,
0,
0,
0,
0,
0,
0,
0,
0,
0,
0,
0,
0,
0,
0,
0,
0,
0,
0,
0,
0,
0,
0,
0,
0,
0,
0,
0,
0,
0,
0,
0,
0,
0,
0,
0,
0,
0,
0,
0,
0,
0,
0,
0,
0,
0,
0,
0,
0,
0,
0,
0,
0,
0,
0,
0,
0,
0,
0,
0,
0,
0,
0,
0,
0,
0,
0,
0,
0,
0,
0,
0,
0,
0,
0,
0,
0,
0,
0,
0,
0,
0,
0,
0,
0,
0,
0,
0,
0,
0,
0,
0,
0,
0,
0,
0,
0,
0,
0,
0,
0,
0,
0,
0,
0,
0,
0,
0,
0,
0,
0,
0,
0,
0,
0,
0,
0,
0,
0,
0,
0,
0,
0,
0,
0,
0,
0,
0,
0,
0,
0,
0,
0,
0,
0,
0,
0,
0,
0,
0,
0,
0,
0,
0,
0,
0,
0,
0,
0,
0,
0,
0,
0,
0,
0,
0,
0,
0,
0,
0,
0,
0,
0,
0,
0,
0,
0,
0,
0,
0,
0,
0,
0,
0,
0,
0,
0,
0,
0,
0,
0,
0,
0,
0,
0,
0,
0,
0,
0,
0,
0,
0,
0,
0,
0,
0,
0,
0,
0,
0,
0,
0,
0,
#ENDOFDATA   :