File: N132962/Quantification/20 keV/MMM2/SPI MM2 Tugtupite[5][4].msa
#FORMAT      : EMSA/MAS Spectral Data File
#VERSION     : 1.0
#TITLE       : SPI MM2 Tugtupite[5][all]
#DATE        : 13-MAR-2025
#TIME        : 13:41
#OWNER       : Unknown
#NPOINTS     : 4096
#NCOLUMNS    : 1
#XUNITS      : eV
#YUNITS      : counts
#DATATYPE    : Y
#XPERCHAN    : 9.99778
#OFFSET      : 1.69135
#BEAMKV      : 20
#SIGNALTYPE  : EDS
#ELEVANGLE   : 35
#AZIMANGLE   : 0
#LIVETIME    : 239.862
#REALTIME    : 255.4
#PROBECUR    : 1.0264
#TAUWIND     : 0
#TDEADLYR    : 0
#TACTLYR     : 0.045
#TALWIND     : 0.025
#CHOFFSET    : 0.0
#XLABEL      : Energy (eV)
#YLABEL      : Counts
#XPOSITION   : -4.47263
#YPOSITION   : 3.55898
#ZPOSITION   : 31.03511
#EDSDET      : SD
##SPECIMEN   : SPI MM2 Tugtupite[5][all]
##DET_HASH   : 12273538-fd48-a23f-0a19-f1e6fa85caef
##CALIB_HASH : 6abaa72c-aa41-8738-0be9-f592914732f3
##WORKING    : 15.0 mm
##DET_NAME   : EDAX All
##DET_MODE   : MediumLE
#SPECTRUM    :
25,
30,
13,
12,
84,
331,
933,
2675,
7210,
9562,
4873,
2362,
2277,
2922,
5342,
19335,
77508,
152771,
111633,
29253,
4241,
1916,
1979,
2167,
2360,
2484,
2714,
3126,
3636,
4198,
4516,
5621,
12313,
45702,
112846,
125283,
60533,
14701,
4053,
2784,
3035,
3070,
3136,
3410,
3585,
3626,
4345,
8428,
22792,
44505,
45400,
24761,
10163,
5671,
5611,
14139,
56111,
143587,
195814,
138344,
55483,
19112,
8595,
4544,
2706,
2302,
2313,
2420,
2470,
2503,
2442,
2294,
2375,
2441,
2718,
2808,
2738,
2637,
2490,
2311,
2402,
2417,
2647,
3290,
5318,
11850,
26071,
41085,
40471,
24093,
9991,
4583,
4376,
5732,
6094,
5091,
3444,
2448,
2089,
1964,
1939,
1971,
1981,
2021,
2189,
2036,
2102,
2033,
1933,
2007,
1889,
1929,
1862,
1868,
1931,
2014,
2121,
1998,
1973,
1869,
1815,
1828,
1829,
1848,
1705,
1788,
1736,
1693,
1748,
1670,
1680,
1650,
1609,
1614,
1672,
1581,
1613,
1576,
1514,
1494,
1496,
1534,
1600,
1474,
1539,
1542,
1583,
1523,
1501,
1545,
1451,
1484,
1448,
1427,
1416,
1389,
1427,
1439,
1396,
1338,
1337,
1383,
1355,
1276,
1309,
1296,
1236,
1301,
1281,
1239,
1285,
1227,
1176,
1190,
1258,
1237,
1245,
1148,
1158,
1181,
1161,
1175,
1208,
1185,
1133,
1136,
1079,
1066,
1103,
1085,
1074,
1110,
1037,
1057,
1046,
992,
1043,
1028,
987,
958,
994,
959,
987,
924,
972,
904,
977,
914,
922,
918,
946,
994,
986,
947,
1003,
965,
924,
902,
897,
846,
890,
863,
864,
871,
870,
799,
885,
828,
860,
774,
784,
825,
784,
842,
838,
788,
739,
817,
705,
760,
717,
752,
762,
734,
734,
712,
704,
773,
716,
684,
696,
703,
667,
659,
659,
706,
690,
606,
676,
635,
665,
624,
642,
647,
601,
609,
608,
607,
611,
628,
584,
583,
585,
530,
584,
588,
558,
590,
540,
552,
524,
566,
579,
582,
521,
551,
533,
561,
510,
509,
492,
483,
501,
505,
503,
469,
496,
476,
512,
532,
470,
490,
448,
443,
456,
475,
476,
473,
450,
428,
456,
418,
453,
390,
434,
435,
418,
457,
401,
385,
442,
400,
445,
359,
439,
415,
406,
393,
387,
371,
396,
416,
348,
400,
382,
337,
353,
343,
370,
348,
375,
385,
338,
296,
339,
364,
340,
313,
327,
300,
298,
326,
321,
331,
291,
307,
289,
332,
319,
269,
276,
299,
288,
290,
313,
301,
272,
273,
304,
274,
280,
292,
269,
244,
276,
276,
262,
246,
260,
275,
240,
257,
242,
267,
253,
253,
199,
230,
231,
233,
235,
230,
240,
216,
250,
246,
249,
215,
210,
241,
207,
204,
202,
196,
192,
199,
200,
208,
209,
182,
209,
203,
201,
182,
181,
172,
171,
164,
200,
180,
163,
185,
168,
152,
176,
172,
159,
141,
166,
167,
169,
151,
153,
164,
153,
153,
160,
132,
142,
136,
134,
136,
136,
146,
136,
138,
135,
111,
127,
136,
138,
127,
107,
120,
122,
110,
109,
121,
137,
103,
125,
114,
105,
113,
110,
116,
98,
85,
107,
100,
103,
109,
105,
90,
110,
98,
88,
101,
85,
92,
95,
87,
103,
77,
85,
105,
76,
81,
91,
80,
83,
66,
77,
88,
72,
61,
61,
74,
75,
74,
81,
67,
79,
66,
76,
57,
80,
78,
60,
56,
53,
66,
61,
61,
60,
58,
60,
60,
68,
64,
57,
53,
49,
50,
51,
44,
54,
45,
49,
52,
50,
57,
54,
37,
50,
48,
49,
51,
40,
45,
36,
37,
33,
43,
24,
29,
39,
34,
30,
37,
37,
46,
45,
25,
23,
24,
17,
36,
42,
36,
33,
35,
27,
26,
26,
24,
35,
24,
29,
30,
25,
20,
30,
22,
24,
22,
27,
23,
23,
20,
27,
18,
16,
17,
13,
18,
22,
22,
16,
14,
9,
12,
23,
12,
10,
13,
12,
19,
19,
11,
6,
14,
11,
15,
14,
11,
16,
9,
11,
11,
13,
11,
12,
10,
7,
11,
8,
11,
14,
13,
13,
6,
9,
4,
10,
13,
8,
5,
5,
9,
7,
7,
5,
9,
7,
4,
5,
2,
7,
11,
4,
2,
1,
4,
2,
1,
4,
4,
2,
2,
4,
5,
1,
1,
0,
2,
0,
0,
3,
1,
2,
0,
1,
1,
0,
0,
0,
0,
0,
0,
0,
0,
0,
0,
0,
0,
0,
1,
0,
0,
0,
0,
0,
0,
0,
0,
0,
0,
0,
0,
0,
0,
0,
0,
0,
0,
0,
0,
0,
0,
0,
0,
0,
0,
0,
0,
1,
0,
0,
0,
0,
0,
0,
0,
0,
0,
0,
0,
0,
0,
0,
1,
0,
1,
0,
0,
0,
0,
0,
0,
0,
0,
0,
0,
0,
0,
0,
0,
0,
0,
0,
0,
0,
0,
0,
0,
0,
0,
0,
0,
0,
0,
0,
0,
0,
0,
0,
0,
0,
0,
0,
0,
0,
0,
0,
0,
0,
0,
0,
0,
0,
0,
0,
0,
0,
0,
0,
0,
0,
0,
0,
0,
0,
0,
0,
0,
0,
0,
0,
0,
0,
0,
0,
0,
0,
0,
0,
0,
0,
0,
0,
0,
0,
0,
0,
0,
0,
0,
0,
0,
0,
0,
0,
0,
0,
0,
0,
0,
0,
0,
0,
0,
0,
0,
0,
0,
0,
0,
0,
0,
0,
0,
0,
0,
0,
0,
0,
0,
0,
0,
0,
0,
0,
0,
0,
0,
0,
0,
0,
0,
0,
0,
0,
0,
0,
0,
0,
0,
0,
1,
0,
0,
1,
0,
0,
0,
0,
0,
0,
0,
0,
0,
0,
0,
0,
0,
0,
0,
0,
0,
0,
0,
0,
0,
0,
0,
0,
0,
0,
0,
0,
0,
0,
0,
0,
0,
0,
0,
0,
0,
0,
0,
0,
0,
0,
0,
0,
0,
0,
0,
0,
0,
0,
0,
0,
0,
0,
0,
0,
0,
0,
0,
0,
0,
0,
0,
0,
0,
0,
0,
0,
0,
0,
0,
0,
0,
0,
0,
0,
0,
0,
0,
0,
0,
0,
0,
0,
0,
0,
0,
0,
0,
0,
0,
0,
0,
0,
0,
0,
0,
0,
0,
0,
0,
0,
0,
0,
0,
0,
0,
0,
0,
0,
0,
0,
0,
0,
0,
0,
0,
0,
0,
0,
0,
0,
0,
0,
0,
0,
0,
0,
0,
0,
0,
0,
0,
0,
0,
0,
0,
0,
0,
0,
0,
0,
0,
0,
0,
0,
0,
0,
0,
0,
0,
0,
0,
0,
0,
0,
0,
0,
0,
0,
0,
0,
0,
0,
0,
0,
0,
0,
0,
0,
0,
0,
0,
0,
0,
0,
0,
0,
0,
0,
0,
0,
0,
0,
0,
0,
0,
0,
0,
0,
0,
0,
0,
0,
0,
0,
0,
0,
0,
0,
0,
0,
0,
0,
0,
0,
0,
0,
0,
0,
0,
0,
0,
0,
0,
0,
0,
0,
0,
0,
0,
0,
0,
0,
0,
0,
0,
0,
0,
0,
0,
0,
0,
0,
0,
0,
0,
0,
0,
0,
0,
0,
0,
0,
0,
0,
0,
0,
0,
0,
0,
0,
0,
0,
0,
0,
0,
0,
0,
0,
0,
0,
0,
0,
0,
0,
0,
0,
0,
0,
0,
0,
0,
0,
0,
0,
0,
0,
0,
0,
0,
0,
0,
0,
0,
0,
0,
0,
0,
0,
0,
0,
0,
0,
0,
0,
0,
0,
0,
0,
0,
0,
0,
0,
0,
0,
0,
0,
0,
0,
0,
0,
0,
0,
0,
0,
0,
0,
0,
0,
0,
0,
0,
0,
0,
0,
0,
0,
0,
0,
0,
0,
0,
0,
0,
0,
0,
0,
0,
0,
0,
0,
0,
0,
0,
0,
0,
0,
0,
0,
0,
0,
0,
0,
0,
0,
0,
0,
0,
0,
0,
0,
0,
0,
0,
0,
0,
0,
0,
0,
0,
0,
0,
0,
0,
0,
0,
0,
0,
0,
0,
0,
0,
0,
0,
0,
0,
0,
0,
0,
0,
0,
0,
0,
0,
0,
0,
0,
0,
0,
0,
0,
0,
0,
0,
0,
0,
0,
0,
0,
0,
0,
0,
0,
0,
0,
0,
0,
0,
0,
0,
0,
0,
0,
0,
0,
0,
0,
0,
0,
0,
0,
0,
0,
0,
0,
0,
0,
0,
0,
0,
0,
0,
0,
0,
0,
0,
0,
0,
0,
0,
0,
0,
0,
0,
0,
0,
0,
0,
0,
0,
0,
0,
0,
0,
0,
0,
0,
0,
0,
0,
0,
0,
0,
0,
0,
0,
0,
0,
0,
0,
0,
0,
0,
0,
0,
0,
0,
0,
0,
0,
0,
0,
0,
0,
0,
0,
0,
0,
0,
0,
0,
0,
#ENDOFDATA   :