File: N132962/Quantification/20 keV/MMM2/SPI MM2 Uvarovite[2][4].msa
#FORMAT      : EMSA/MAS Spectral Data File
#VERSION     : 1.0
#TITLE       : SPI MM2 Uvarovite[2][all]
#DATE        : 13-MAR-2025
#TIME        : 14:14
#OWNER       : Unknown
#NPOINTS     : 4096
#NCOLUMNS    : 1
#XUNITS      : eV
#YUNITS      : counts
#DATATYPE    : Y
#XPERCHAN    : 9.99778
#OFFSET      : 1.69135
#BEAMKV      : 20
#SIGNALTYPE  : EDS
#ELEVANGLE   : 35
#AZIMANGLE   : 0
#LIVETIME    : 239.791
#REALTIME    : 255.281
#PROBECUR    : 1.02609
#TAUWIND     : 0
#TDEADLYR    : 0
#TACTLYR     : 0.045
#TALWIND     : 0.025
#CHOFFSET    : 0.0
#XLABEL      : Energy (eV)
#YLABEL      : Counts
#XPOSITION   : 5.73304
#YPOSITION   : 6.43756
#ZPOSITION   : 31.03511
#EDSDET      : SD
##SPECIMEN   : SPI MM2 Uvarovite[2][all]
##DET_HASH   : 12273538-fd48-a23f-0a19-f1e6fa85caef
##CALIB_HASH : 6abaa72c-aa41-8738-0be9-f592914732f3
##WORKING    : 15.0 mm
##DET_NAME   : EDAX All
##DET_MODE   : MediumLE
#SPECTRUM    :
24,
33,
9,
6,
90,
293,
896,
3195,
9583,
14154,
9813,
5116,
3233,
2887,
4105,
12559,
46410,
88265,
65870,
19904,
4717,
2283,
2104,
2551,
2572,
2283,
2103,
2252,
2521,
2661,
2612,
2702,
2847,
3004,
3141,
3319,
3305,
3438,
3537,
3743,
3921,
4144,
4425,
4283,
4431,
4504,
4996,
7172,
15848,
28065,
28666,
16957,
8339,
5746,
6115,
12351,
43775,
109161,
147459,
105722,
43520,
16077,
8423,
5439,
4658,
4609,
4201,
3710,
3468,
3348,
3372,
3477,
3203,
3374,
3449,
3445,
3534,
3443,
3287,
3374,
3270,
3257,
3184,
3175,
3206,
3110,
3222,
3118,
3145,
3183,
3030,
3040,
3171,
2994,
3038,
3051,
3070,
2868,
2976,
3029,
2866,
2960,
2941,
2961,
2910,
2834,
2900,
3018,
2841,
2799,
2774,
2626,
2709,
2703,
2763,
2895,
3051,
3333,
4387,
7680,
19589,
49950,
93673,
117803,
99506,
56408,
22202,
7467,
3390,
3054,
3852,
5719,
9838,
14608,
16402,
13024,
7898,
3993,
2572,
2132,
1947,
1938,
1942,
1889,
1844,
1832,
1845,
2249,
2871,
3933,
4741,
4506,
3536,
2580,
1928,
1824,
1729,
1767,
1680,
1700,
1695,
1716,
1912,
2217,
2410,
2601,
2376,
1992,
1680,
1561,
1639,
1685,
1719,
1720,
1771,
2005,
3277,
6946,
14187,
24554,
31853,
30743,
22501,
12319,
5688,
2593,
1671,
1490,
1505,
1413,
1413,
1436,
1471,
1537,
1793,
2528,
3442,
4724,
5380,
4784,
3792,
2496,
1762,
1362,
1267,
1190,
1165,
1197,
1175,
1347,
1517,
1941,
2506,
2773,
2654,
2255,
1787,
1387,
1193,
1141,
1089,
1102,
1027,
1128,
1043,
1029,
1033,
1085,
989,
994,
1028,
1022,
1043,
1119,
1220,
1213,
1176,
1108,
1080,
1067,
960,
963,
894,
970,
961,
988,
1011,
998,
998,
1024,
1004,
905,
905,
875,
845,
819,
810,
815,
891,
820,
846,
828,
848,
817,
812,
779,
750,
829,
837,
790,
823,
777,
790,
776,
768,
788,
751,
774,
722,
687,
765,
745,
735,
740,
686,
705,
662,
670,
746,
742,
658,
647,
710,
666,
651,
690,
604,
639,
645,
612,
644,
665,
609,
649,
654,
632,
657,
588,
541,
605,
590,
597,
612,
588,
572,
567,
576,
607,
587,
577,
544,
585,
579,
494,
543,
527,
502,
534,
536,
549,
551,
536,
501,
551,
491,
492,
497,
492,
481,
468,
495,
496,
482,
468,
440,
435,
467,
446,
488,
458,
413,
453,
478,
386,
425,
439,
413,
428,
416,
423,
453,
397,
424,
420,
434,
412,
365,
381,
365,
404,
401,
394,
327,
361,
377,
363,
378,
322,
364,
361,
350,
351,
341,
309,
331,
349,
305,
331,
357,
338,
347,
327,
320,
325,
327,
291,
274,
296,
319,
293,
317,
315,
308,
315,
285,
286,
277,
261,
273,
296,
273,
279,
230,
247,
248,
265,
229,
229,
242,
256,
237,
254,
226,
253,
232,
233,
256,
218,
240,
241,
209,
218,
218,
213,
216,
218,
190,
202,
195,
193,
206,
174,
184,
215,
204,
190,
174,
200,
196,
191,
168,
160,
184,
177,
168,
168,
183,
158,
143,
154,
146,
163,
144,
163,
138,
141,
147,
161,
149,
188,
155,
128,
129,
132,
148,
118,
139,
127,
131,
118,
127,
137,
119,
109,
127,
103,
122,
118,
124,
123,
134,
116,
122,
123,
90,
104,
96,
105,
92,
115,
113,
104,
107,
101,
100,
99,
83,
88,
86,
118,
76,
93,
74,
85,
84,
77,
88,
89,
88,
85,
74,
80,
81,
78,
70,
63,
62,
75,
66,
63,
73,
64,
56,
56,
54,
67,
77,
71,
48,
68,
65,
56,
53,
51,
44,
62,
72,
51,
76,
71,
46,
55,
51,
57,
45,
59,
36,
44,
46,
39,
40,
41,
29,
42,
44,
38,
37,
36,
44,
38,
34,
41,
28,
34,
38,
36,
36,
32,
44,
34,
30,
26,
27,
30,
30,
26,
46,
28,
33,
31,
23,
22,
31,
32,
23,
28,
27,
23,
22,
11,
18,
13,
31,
19,
21,
24,
19,
19,
17,
15,
15,
23,
17,
19,
17,
14,
16,
11,
8,
18,
15,
14,
14,
9,
20,
5,
9,
12,
8,
12,
11,
8,
7,
6,
7,
6,
3,
12,
6,
9,
10,
7,
5,
6,
5,
5,
4,
7,
6,
2,
4,
3,
6,
0,
1,
2,
1,
3,
2,
1,
2,
3,
2,
2,
1,
1,
0,
0,
1,
0,
0,
0,
0,
1,
0,
0,
1,
0,
1,
0,
0,
0,
0,
0,
0,
0,
0,
0,
0,
0,
0,
0,
0,
0,
0,
0,
0,
0,
0,
0,
0,
0,
0,
0,
0,
0,
0,
1,
0,
0,
0,
0,
0,
0,
0,
0,
0,
0,
0,
0,
1,
0,
0,
0,
0,
0,
0,
0,
1,
0,
1,
0,
0,
0,
0,
2,
0,
0,
0,
0,
0,
0,
0,
0,
0,
0,
0,
0,
0,
0,
0,
0,
0,
0,
0,
1,
0,
0,
0,
0,
0,
0,
1,
0,
0,
0,
0,
0,
0,
0,
0,
0,
0,
0,
0,
0,
0,
0,
0,
0,
0,
0,
0,
0,
0,
1,
0,
0,
0,
0,
0,
0,
0,
0,
0,
0,
1,
0,
0,
0,
1,
0,
0,
0,
0,
0,
0,
0,
0,
0,
0,
0,
0,
0,
0,
0,
0,
0,
0,
1,
0,
0,
0,
0,
0,
0,
0,
0,
1,
0,
0,
0,
0,
0,
0,
0,
0,
0,
0,
0,
0,
0,
0,
0,
0,
0,
0,
0,
0,
0,
0,
0,
0,
1,
0,
0,
0,
0,
0,
0,
0,
0,
0,
0,
0,
0,
0,
0,
0,
0,
0,
0,
0,
0,
0,
0,
0,
0,
0,
0,
0,
0,
0,
0,
0,
0,
0,
0,
0,
0,
0,
0,
0,
0,
0,
0,
0,
0,
0,
0,
0,
0,
0,
0,
0,
0,
0,
0,
0,
0,
0,
0,
0,
0,
0,
0,
0,
0,
0,
0,
0,
0,
0,
0,
0,
0,
0,
0,
0,
0,
0,
0,
0,
0,
0,
0,
0,
0,
0,
0,
0,
0,
0,
0,
0,
0,
0,
0,
0,
0,
0,
0,
0,
0,
0,
0,
0,
0,
0,
0,
0,
0,
0,
0,
0,
0,
0,
0,
0,
0,
0,
0,
0,
0,
0,
0,
0,
0,
0,
0,
0,
0,
0,
0,
0,
0,
0,
0,
0,
0,
0,
0,
0,
0,
0,
0,
0,
0,
0,
0,
0,
0,
0,
0,
0,
0,
0,
0,
0,
0,
0,
0,
0,
0,
0,
0,
0,
0,
0,
0,
0,
0,
0,
0,
0,
0,
0,
0,
0,
0,
0,
0,
0,
0,
1,
0,
0,
0,
0,
0,
0,
0,
0,
0,
0,
0,
0,
0,
0,
0,
0,
0,
0,
0,
0,
0,
0,
0,
0,
0,
0,
0,
0,
0,
0,
0,
0,
0,
0,
0,
0,
0,
0,
0,
0,
0,
0,
0,
0,
0,
0,
0,
0,
0,
0,
0,
0,
0,
0,
0,
0,
0,
0,
0,
0,
0,
0,
0,
0,
0,
0,
0,
0,
0,
0,
0,
0,
0,
0,
0,
0,
0,
0,
0,
0,
0,
0,
0,
0,
0,
0,
0,
0,
0,
0,
0,
0,
0,
0,
0,
0,
0,
0,
0,
0,
0,
0,
0,
0,
0,
0,
0,
0,
0,
0,
0,
0,
0,
0,
0,
0,
0,
0,
0,
0,
0,
0,
0,
0,
0,
0,
0,
0,
0,
0,
0,
0,
0,
0,
0,
0,
0,
0,
0,
0,
0,
0,
0,
0,
0,
0,
0,
0,
0,
0,
0,
0,
0,
0,
0,
0,
0,
0,
0,
0,
0,
0,
0,
0,
0,
0,
0,
0,
0,
0,
0,
0,
0,
0,
0,
0,
0,
0,
0,
0,
0,
0,
0,
0,
0,
0,
0,
0,
0,
0,
0,
0,
0,
0,
0,
0,
0,
0,
0,
0,
0,
0,
0,
0,
0,
0,
0,
0,
0,
0,
0,
0,
0,
0,
0,
0,
0,
0,
0,
0,
0,
0,
0,
0,
0,
0,
0,
0,
0,
0,
0,
0,
0,
0,
0,
0,
0,
0,
0,
0,
0,
0,
0,
0,
0,
0,
0,
0,
0,
0,
0,
0,
0,
0,
0,
0,
0,
0,
0,
0,
0,
0,
0,
0,
0,
0,
0,
0,
0,
0,
0,
0,
0,
0,
0,
0,
0,
0,
0,
0,
0,
0,
0,
0,
0,
0,
0,
0,
0,
0,
0,
0,
0,
0,
0,
0,
0,
0,
0,
0,
0,
0,
0,
0,
0,
0,
0,
0,
0,
0,
0,
0,
0,
0,
0,
0,
0,
0,
0,
0,
0,
0,
0,
0,
0,
0,
0,
0,
0,
0,
0,
#ENDOFDATA   :