File: N132962/Quantification/20 keV/MMM2/SPI MM2 Zircon[1][4].msa
#FORMAT      : EMSA/MAS Spectral Data File
#VERSION     : 1.0
#TITLE       : SPI MM2 Zircon[1][all]
#DATE        : 13-MAR-2025
#TIME        : 13:45
#OWNER       : Unknown
#NPOINTS     : 4096
#NCOLUMNS    : 1
#XUNITS      : eV
#YUNITS      : counts
#DATATYPE    : Y
#XPERCHAN    : 9.99778
#OFFSET      : 1.69135
#BEAMKV      : 20
#SIGNALTYPE  : EDS
#ELEVANGLE   : 35
#AZIMANGLE   : 0
#LIVETIME    : 239.917
#REALTIME    : 257.507
#PROBECUR    : 1.0264
#TAUWIND     : 0
#TDEADLYR    : 0
#TACTLYR     : 0.045
#TALWIND     : 0.025
#CHOFFSET    : 0.0
#XLABEL      : Energy (eV)
#YLABEL      : Counts
#XPOSITION   : -2.71396
#YPOSITION   : 6.67237
#ZPOSITION   : 31.03511
#EDSDET      : SD
##SPECIMEN   : SPI MM2 Zircon[1][all]
##DET_HASH   : 12273538-fd48-a23f-0a19-f1e6fa85caef
##CALIB_HASH : 6abaa72c-aa41-8738-0be9-f592914732f3
##WORKING    : 15.0 mm
##DET_NAME   : EDAX All
##DET_MODE   : MediumLE
#SPECTRUM    :
11,
30,
6,
40,
350,
961,
1617,
3806,
10701,
15289,
10097,
4805,
3889,
4061,
4556,
10770,
37799,
72147,
53102,
15254,
3711,
2838,
2995,
3407,
3545,
3462,
3685,
4014,
4362,
4470,
4466,
4420,
4555,
4885,
5018,
5246,
5392,
5557,
5809,
5882,
5992,
6256,
6420,
6725,
6634,
6781,
7002,
7163,
7338,
7630,
7637,
7881,
7913,
8648,
10620,
18028,
50942,
121037,
163487,
121007,
56985,
25299,
14882,
11213,
11914,
20780,
51282,
110298,
154197,
137613,
103076,
80073,
54308,
30971,
17575,
10148,
6336,
4449,
3655,
3456,
3147,
3368,
3644,
4076,
4168,
3726,
3272,
3194,
3051,
3028,
3051,
3111,
3010,
2946,
3067,
3099,
2930,
3148,
3172,
3197,
3261,
3084,
3108,
3176,
3150,
3166,
3245,
3142,
3098,
3141,
3137,
3090,
3129,
3203,
3207,
3267,
3141,
3151,
3181,
3199,
3068,
3044,
3013,
3171,
3218,
3337,
3268,
3250,
3234,
3189,
3025,
3030,
2916,
2971,
3019,
3063,
3045,
3044,
3081,
3068,
2857,
2896,
2884,
2748,
2753,
2827,
2754,
2834,
2686,
2709,
2719,
2659,
2676,
2650,
2619,
2635,
2662,
2580,
2552,
2580,
2617,
2555,
2520,
2517,
2530,
2535,
2481,
2577,
2450,
2430,
2380,
2446,
2421,
2471,
2430,
2324,
2390,
2369,
2415,
2340,
2309,
2304,
2254,
2214,
2316,
2228,
2199,
2208,
2213,
2190,
2223,
2143,
2053,
2096,
2100,
2125,
2056,
2062,
2092,
2106,
2098,
1958,
2043,
1982,
1947,
1987,
1895,
2084,
1983,
2033,
1961,
2096,
2110,
2146,
2116,
2013,
2014,
1824,
1932,
1842,
1793,
1800,
1887,
1729,
1796,
1717,
1744,
1785,
1693,
1689,
1763,
1761,
1688,
1763,
1698,
1670,
1660,
1728,
1580,
1631,
1676,
1650,
1587,
1519,
1615,
1625,
1619,
1595,
1619,
1574,
1668,
1593,
1525,
1537,
1510,
1484,
1428,
1482,
1436,
1498,
1561,
1550,
1697,
1667,
1702,
1595,
1468,
1416,
1400,
1271,
1320,
1351,
1331,
1258,
1280,
1274,
1328,
1237,
1301,
1133,
1231,
1169,
1237,
1240,
1251,
1237,
1228,
1156,
1198,
1145,
1110,
1173,
1152,
1174,
1151,
1166,
1125,
1122,
1153,
1206,
1221,
1193,
1215,
1148,
1128,
1071,
1147,
1098,
1091,
1036,
1114,
1048,
1008,
1020,
987,
1025,
1045,
999,
1020,
974,
931,
945,
928,
931,
921,
890,
906,
902,
925,
946,
949,
926,
892,
893,
924,
901,
802,
842,
868,
870,
853,
819,
772,
806,
771,
785,
808,
824,
871,
795,
834,
853,
771,
777,
828,
786,
745,
765,
728,
740,
728,
767,
766,
668,
718,
707,
664,
686,
656,
611,
665,
698,
674,
631,
671,
580,
618,
610,
639,
608,
616,
612,
595,
609,
589,
582,
560,
577,
598,
564,
579,
558,
535,
559,
523,
563,
580,
528,
573,
544,
527,
489,
517,
549,
478,
539,
508,
495,
481,
467,
468,
452,
516,
482,
428,
460,
488,
446,
464,
445,
456,
411,
481,
441,
477,
439,
424,
453,
422,
401,
383,
396,
416,
398,
382,
394,
394,
335,
395,
324,
352,
379,
355,
351,
367,
367,
345,
324,
363,
356,
322,
338,
345,
318,
342,
313,
347,
301,
318,
331,
280,
274,
264,
282,
280,
292,
286,
291,
257,
258,
275,
256,
287,
258,
238,
257,
242,
258,
265,
245,
229,
258,
266,
232,
243,
220,
268,
221,
216,
229,
186,
245,
236,
219,
195,
223,
201,
203,
219,
210,
197,
200,
172,
178,
170,
165,
199,
202,
168,
171,
160,
168,
189,
190,
165,
151,
164,
195,
243,
278,
322,
380,
462,
487,
584,
518,
461,
399,
367,
276,
220,
187,
152,
140,
112,
147,
124,
116,
122,
110,
122,
121,
131,
97,
101,
121,
113,
91,
120,
107,
104,
88,
101,
107,
109,
91,
104,
94,
89,
94,
105,
91,
78,
88,
73,
87,
70,
104,
79,
76,
65,
72,
77,
65,
68,
75,
74,
74,
59,
61,
58,
84,
73,
77,
77,
107,
106,
107,
108,
104,
95,
69,
65,
81,
40,
56,
55,
56,
61,
47,
45,
48,
41,
43,
47,
49,
42,
27,
32,
39,
30,
32,
36,
35,
38,
35,
30,
31,
32,
29,
30,
28,
32,
30,
20,
20,
28,
24,
27,
23,
16,
15,
19,
21,
24,
14,
16,
14,
18,
18,
9,
9,
15,
10,
14,
11,
12,
11,
12,
6,
12,
5,
8,
6,
10,
13,
5,
6,
4,
4,
4,
2,
6,
2,
2,
2,
1,
4,
1,
0,
1,
2,
0,
1,
0,
1,
0,
1,
1,
1,
2,
0,
0,
0,
1,
0,
0,
0,
1,
1,
1,
0,
1,
0,
0,
0,
1,
2,
0,
0,
0,
2,
0,
0,
0,
0,
0,
2,
1,
0,
1,
0,
0,
0,
1,
1,
0,
0,
2,
0,
0,
0,
1,
0,
0,
0,
0,
0,
0,
0,
0,
0,
0,
1,
0,
0,
1,
1,
0,
0,
0,
1,
0,
1,
0,
1,
0,
1,
0,
0,
0,
0,
0,
0,
0,
0,
0,
0,
1,
0,
1,
1,
1,
1,
1,
1,
1,
0,
0,
0,
1,
0,
1,
0,
0,
0,
1,
0,
0,
0,
0,
0,
0,
0,
0,
0,
0,
0,
0,
1,
0,
0,
1,
0,
0,
1,
0,
0,
2,
1,
0,
0,
1,
0,
0,
0,
1,
0,
0,
0,
0,
0,
0,
0,
1,
0,
0,
0,
0,
0,
0,
0,
0,
0,
0,
0,
0,
0,
0,
0,
0,
0,
0,
0,
0,
0,
0,
0,
0,
0,
0,
0,
0,
0,
0,
0,
0,
0,
0,
0,
1,
0,
0,
0,
1,
0,
0,
0,
0,
0,
2,
0,
0,
0,
0,
0,
0,
0,
0,
0,
2,
0,
0,
0,
0,
0,
1,
0,
0,
0,
0,
0,
1,
0,
1,
0,
0,
0,
2,
0,
0,
0,
0,
0,
0,
0,
0,
0,
0,
0,
0,
0,
0,
0,
0,
0,
0,
0,
0,
0,
0,
0,
0,
0,
0,
0,
0,
0,
0,
0,
0,
0,
0,
0,
0,
0,
0,
1,
0,
0,
0,
0,
0,
0,
0,
0,
0,
0,
0,
0,
0,
0,
0,
0,
0,
0,
0,
1,
0,
0,
0,
0,
0,
1,
0,
0,
0,
1,
0,
0,
0,
0,
0,
0,
0,
0,
0,
0,
0,
0,
0,
0,
0,
0,
0,
0,
0,
0,
0,
0,
0,
0,
0,
0,
0,
0,
0,
0,
0,
0,
0,
0,
0,
0,
0,
0,
0,
0,
0,
0,
0,
0,
0,
0,
0,
0,
1,
0,
0,
0,
0,
0,
0,
0,
0,
0,
0,
0,
0,
0,
0,
0,
0,
0,
0,
0,
0,
0,
0,
0,
0,
0,
0,
0,
0,
0,
0,
0,
0,
0,
0,
0,
0,
0,
0,
0,
0,
0,
0,
0,
0,
0,
0,
0,
0,
0,
0,
0,
0,
0,
0,
0,
0,
0,
0,
0,
0,
0,
0,
0,
0,
0,
0,
0,
0,
0,
0,
0,
0,
0,
0,
0,
0,
0,
0,
0,
0,
0,
0,
0,
0,
0,
0,
0,
0,
0,
0,
0,
0,
0,
0,
0,
0,
0,
0,
0,
0,
0,
0,
0,
0,
0,
0,
0,
0,
0,
0,
0,
0,
0,
0,
0,
0,
0,
0,
0,
0,
0,
0,
0,
0,
0,
0,
0,
0,
0,
0,
0,
0,
0,
0,
0,
0,
0,
0,
0,
0,
0,
0,
0,
0,
1,
0,
0,
0,
0,
0,
0,
0,
0,
0,
0,
0,
0,
0,
0,
0,
0,
0,
0,
0,
0,
0,
0,
0,
0,
0,
0,
0,
0,
0,
0,
0,
0,
0,
0,
0,
0,
0,
0,
0,
0,
0,
0,
0,
0,
0,
0,
0,
0,
0,
0,
0,
0,
0,
0,
0,
0,
0,
0,
0,
0,
0,
0,
0,
0,
0,
0,
0,
0,
0,
0,
0,
0,
0,
0,
0,
0,
0,
0,
0,
0,
0,
0,
0,
0,
0,
0,
0,
0,
0,
0,
0,
0,
0,
0,
0,
0,
0,
0,
0,
0,
0,
0,
0,
0,
0,
0,
0,
0,
0,
0,
0,
0,
0,
0,
0,
0,
0,
0,
0,
0,
0,
0,
0,
0,
0,
0,
0,
0,
0,
0,
0,
0,
0,
0,
0,
0,
0,
0,
0,
0,
0,
0,
0,
0,
0,
0,
0,
0,
0,
0,
0,
0,
0,
0,
0,
0,
0,
0,
0,
0,
0,
0,
0,
0,
0,
0,
0,
0,
0,
0,
0,
0,
0,
0,
0,
0,
0,
0,
0,
0,
0,
0,
0,
0,
0,
0,
0,
0,
0,
0,
0,
0,
0,
0,
0,
0,
0,
0,
0,
0,
0,
0,
0,
0,
0,
0,
0,
0,
0,
0,
0,
0,
0,
0,
#ENDOFDATA   :