File: N132962/Quantification/20 keV/MMM2/SPI MM2 Willemite[1][4].msa
#FORMAT      : EMSA/MAS Spectral Data File
#VERSION     : 1.0
#TITLE       : SPI MM2 Willemite[1][all]
#DATE        : 13-MAR-2025
#TIME        : 14:04
#OWNER       : Unknown
#NPOINTS     : 4096
#NCOLUMNS    : 1
#XUNITS      : eV
#YUNITS      : counts
#DATATYPE    : Y
#XPERCHAN    : 9.99778
#OFFSET      : 1.69135
#BEAMKV      : 20
#SIGNALTYPE  : EDS
#ELEVANGLE   : 35
#AZIMANGLE   : 0
#LIVETIME    : 240.378
#REALTIME    : 257.447
#PROBECUR    : 1.0264
#TAUWIND     : 0
#TDEADLYR    : 0
#TACTLYR     : 0.045
#TALWIND     : 0.025
#CHOFFSET    : 0.0
#XLABEL      : Energy (eV)
#YLABEL      : Counts
#XPOSITION   : 2.68272
#YPOSITION   : 6.24227
#ZPOSITION   : 31.03511
#EDSDET      : SD
##SPECIMEN   : SPI MM2 Willemite[1][all]
##DET_HASH   : 12273538-fd48-a23f-0a19-f1e6fa85caef
##CALIB_HASH : 6abaa72c-aa41-8738-0be9-f592914732f3
##WORKING    : 15.0 mm
##DET_NAME   : EDAX All
##DET_MODE   : MediumLE
#SPECTRUM    :
27,
29,
8,
17,
100,
409,
1229,
3990,
11700,
15534,
7927,
3451,
3393,
4044,
5871,
16664,
61187,
116564,
86866,
24776,
6390,
5695,
5580,
4668,
4538,
4630,
5005,
6548,
11195,
17708,
18961,
23071,
67740,
170509,
210146,
119665,
34809,
8082,
3874,
3019,
3146,
4213,
4543,
3874,
3173,
3126,
3179,
3216,
3460,
3728,
3996,
4306,
4093,
4002,
4586,
7959,
23883,
57077,
76128,
55118,
23777,
10243,
5769,
4123,
3575,
3434,
3629,
3635,
3828,
3572,
3431,
3495,
3445,
3525,
3585,
3723,
3711,
3485,
3650,
3552,
3591,
3625,
3670,
3641,
3598,
3623,
3677,
3776,
3674,
3672,
3646,
3790,
3880,
3680,
3657,
3603,
3497,
3517,
3488,
3426,
3448,
3368,
3433,
3440,
3421,
3364,
3339,
3472,
3403,
3291,
3282,
3353,
3247,
3240,
3213,
3223,
3165,
3201,
3196,
3149,
3008,
3132,
3116,
3119,
3137,
3011,
3095,
3072,
3168,
3054,
2836,
2993,
2880,
2838,
2901,
2839,
2889,
2808,
2845,
2789,
2844,
2782,
2749,
2667,
2704,
2683,
2705,
2552,
2563,
2614,
2656,
2647,
2541,
2488,
2504,
2532,
2442,
2507,
2497,
2408,
2431,
2540,
2452,
2434,
2435,
2319,
2384,
2392,
2333,
2313,
2263,
2315,
2250,
2246,
2309,
2204,
2220,
2146,
2225,
2124,
2203,
2266,
2232,
2095,
2188,
2113,
2104,
2087,
2087,
2078,
2105,
2176,
2613,
3420,
5278,
7842,
9695,
9654,
7735,
4970,
3174,
2414,
1958,
1890,
1844,
1811,
1909,
1849,
1753,
1838,
1777,
1903,
2043,
2328,
2513,
2744,
2796,
2624,
2293,
1995,
1663,
1651,
1654,
1585,
1611,
1653,
1558,
1578,
1693,
1654,
1639,
1625,
1653,
1549,
1597,
1499,
1479,
1472,
1471,
1459,
1456,
1392,
1411,
1396,
1403,
1380,
1363,
1402,
1477,
1459,
1489,
1404,
1368,
1347,
1302,
1296,
1357,
1278,
1313,
1230,
1306,
1292,
1226,
1228,
1267,
1220,
1225,
1208,
1203,
1274,
1137,
1216,
1231,
1187,
1307,
1207,
1248,
1194,
1223,
1350,
1413,
1798,
3156,
6414,
13018,
23040,
34779,
43539,
43990,
36000,
24602,
14101,
6838,
3236,
1656,
1152,
1062,
1057,
988,
1015,
995,
996,
1037,
959,
1011,
1122,
1004,
975,
947,
1047,
1001,
1052,
1094,
1236,
1621,
2410,
3607,
5079,
6260,
6821,
5935,
4626,
3227,
2053,
1289,
1060,
846,
766,
724,
739,
753,
737,
712,
692,
690,
665,
709,
632,
726,
680,
704,
707,
652,
693,
715,
736,
675,
690,
649,
647,
647,
670,
643,
654,
632,
610,
622,
581,
582,
559,
558,
586,
562,
569,
559,
609,
562,
550,
572,
552,
586,
539,
525,
540,
546,
516,
522,
523,
542,
530,
536,
494,
552,
525,
542,
498,
485,
450,
509,
488,
500,
488,
460,
484,
477,
474,
479,
442,
469,
472,
451,
416,
416,
409,
400,
412,
419,
406,
402,
409,
395,
395,
393,
386,
393,
368,
399,
408,
379,
357,
351,
387,
364,
381,
400,
338,
337,
377,
327,
310,
339,
339,
309,
309,
298,
287,
326,
302,
287,
326,
297,
282,
336,
291,
306,
261,
293,
301,
259,
286,
284,
267,
265,
246,
247,
261,
276,
246,
242,
232,
262,
250,
251,
219,
254,
225,
238,
206,
242,
223,
211,
245,
225,
203,
215,
189,
196,
234,
185,
205,
210,
232,
221,
187,
203,
185,
206,
200,
199,
173,
203,
186,
180,
184,
164,
173,
190,
165,
159,
149,
158,
163,
158,
146,
149,
155,
163,
157,
128,
150,
135,
134,
130,
132,
137,
125,
143,
155,
131,
118,
140,
117,
134,
111,
118,
100,
122,
129,
94,
120,
134,
112,
99,
104,
111,
89,
102,
107,
108,
102,
99,
116,
117,
80,
91,
79,
93,
81,
89,
91,
95,
86,
83,
92,
71,
74,
68,
71,
69,
87,
85,
65,
85,
64,
57,
61,
71,
67,
62,
62,
74,
54,
79,
63,
63,
63,
89,
76,
72,
52,
54,
66,
59,
40,
63,
46,
46,
38,
50,
46,
66,
37,
40,
43,
35,
34,
34,
48,
36,
41,
49,
21,
21,
36,
34,
35,
35,
41,
25,
19,
27,
34,
40,
28,
28,
28,
25,
22,
28,
28,
24,
29,
20,
20,
13,
18,
23,
13,
19,
13,
13,
19,
17,
17,
18,
12,
15,
20,
9,
21,
10,
8,
12,
14,
5,
13,
11,
12,
4,
5,
8,
5,
7,
5,
8,
6,
5,
4,
4,
1,
1,
0,
7,
2,
0,
3,
2,
1,
0,
0,
0,
0,
1,
3,
4,
1,
1,
1,
0,
1,
0,
0,
1,
1,
1,
0,
0,
0,
2,
0,
0,
2,
1,
1,
1,
2,
2,
0,
1,
2,
0,
0,
1,
1,
0,
1,
1,
1,
0,
1,
2,
0,
3,
1,
1,
1,
0,
0,
0,
1,
0,
1,
0,
0,
0,
0,
3,
0,
1,
3,
0,
1,
0,
1,
0,
0,
0,
0,
0,
1,
0,
0,
0,
1,
1,
0,
1,
1,
0,
0,
0,
0,
0,
1,
0,
0,
0,
0,
0,
0,
1,
0,
0,
1,
0,
0,
0,
0,
0,
1,
0,
0,
0,
1,
0,
0,
0,
0,
0,
0,
0,
0,
0,
0,
0,
0,
0,
0,
1,
0,
0,
0,
0,
0,
0,
0,
0,
0,
0,
0,
0,
1,
0,
0,
1,
0,
0,
0,
0,
0,
0,
0,
0,
1,
0,
0,
0,
1,
0,
0,
1,
0,
0,
0,
0,
0,
0,
0,
0,
1,
1,
0,
0,
0,
0,
0,
0,
1,
1,
0,
0,
0,
0,
0,
1,
0,
0,
0,
0,
1,
0,
0,
0,
0,
0,
0,
0,
0,
1,
0,
0,
0,
0,
0,
0,
0,
0,
0,
0,
0,
0,
0,
0,
0,
0,
0,
0,
0,
0,
0,
0,
0,
1,
0,
0,
0,
0,
0,
0,
0,
0,
0,
0,
0,
1,
0,
0,
0,
0,
0,
0,
0,
0,
0,
0,
0,
0,
0,
0,
0,
0,
0,
0,
0,
0,
0,
0,
0,
0,
0,
0,
0,
0,
0,
0,
0,
0,
0,
0,
0,
0,
0,
0,
0,
0,
0,
0,
0,
0,
0,
0,
0,
0,
0,
0,
0,
0,
0,
0,
0,
0,
0,
0,
0,
0,
0,
0,
0,
0,
0,
0,
0,
0,
0,
0,
0,
0,
0,
0,
0,
0,
0,
0,
0,
0,
0,
0,
0,
0,
0,
0,
0,
0,
0,
0,
0,
0,
0,
0,
0,
0,
0,
0,
0,
0,
0,
0,
0,
0,
0,
0,
0,
0,
1,
0,
0,
0,
0,
0,
0,
0,
0,
0,
0,
0,
0,
0,
0,
0,
0,
0,
0,
0,
0,
0,
0,
0,
0,
0,
0,
0,
0,
0,
0,
0,
0,
0,
0,
0,
0,
0,
0,
0,
0,
0,
0,
0,
0,
0,
0,
0,
0,
0,
0,
0,
0,
0,
0,
0,
0,
0,
0,
0,
0,
0,
0,
0,
0,
0,
0,
0,
0,
0,
0,
0,
0,
0,
0,
0,
0,
0,
0,
0,
0,
0,
0,
0,
0,
0,
0,
0,
0,
0,
0,
0,
0,
0,
0,
0,
0,
0,
0,
0,
0,
0,
0,
0,
0,
0,
0,
0,
0,
0,
0,
0,
0,
0,
0,
0,
0,
0,
0,
0,
0,
0,
0,
0,
0,
0,
0,
0,
0,
0,
0,
0,
0,
0,
0,
0,
0,
0,
0,
0,
0,
0,
0,
0,
0,
0,
0,
0,
0,
0,
0,
0,
0,
0,
0,
0,
0,
0,
0,
0,
0,
0,
0,
0,
0,
0,
0,
0,
0,
0,
0,
0,
0,
0,
0,
0,
0,
0,
0,
0,
0,
0,
0,
0,
0,
0,
0,
0,
0,
0,
0,
0,
0,
0,
0,
0,
0,
0,
0,
0,
0,
0,
0,
0,
0,
0,
0,
0,
0,
0,
0,
0,
0,
0,
0,
0,
0,
0,
0,
0,
0,
0,
0,
0,
0,
0,
0,
0,
0,
0,
0,
0,
0,
0,
0,
0,
0,
0,
0,
0,
0,
0,
0,
0,
0,
0,
0,
0,
0,
0,
0,
0,
0,
0,
0,
0,
0,
0,
0,
0,
0,
0,
0,
0,
0,
0,
0,
0,
0,
0,
0,
0,
0,
0,
0,
0,
0,
0,
0,
0,
0,
0,
0,
0,
0,
0,
0,
0,
0,
0,
0,
0,
0,
0,
0,
0,
0,
0,
0,
0,
0,
0,
0,
0,
0,
0,
0,
0,
0,
0,
0,
0,
0,
0,
0,
0,
0,
0,
0,
0,
0,
0,
0,
0,
0,
0,
0,
0,
0,
0,
0,
0,
0,
0,
0,
0,
0,
0,
0,
0,
0,
0,
0,
0,
0,
0,
0,
0,
0,
0,
0,
0,
0,
0,
0,
0,
0,
0,
0,
0,
0,
0,
0,
#ENDOFDATA   :