File: N132962/Quantification/20 keV/MMM2/SPI MM2 SPI Plagioclase[5][4].msa
#FORMAT      : EMSA/MAS Spectral Data File
#VERSION     : 1.0
#TITLE       : SPI MM2 SPI Plagioclase[5][all]
#DATE        : 13-MAR-2025
#TIME        : 10:56
#OWNER       : Unknown
#NPOINTS     : 4096
#NCOLUMNS    : 1
#XUNITS      : eV
#YUNITS      : counts
#DATATYPE    : Y
#XPERCHAN    : 9.99778
#OFFSET      : 1.69135
#BEAMKV      : 20
#SIGNALTYPE  : EDS
#ELEVANGLE   : 35
#AZIMANGLE   : 0
#LIVETIME    : 239.829
#REALTIME    : 255.4107
#PROBECUR    : 1.02609
#TAUWIND     : 0
#TDEADLYR    : 0
#TACTLYR     : 0.045
#TALWIND     : 0.025
#CHOFFSET    : 0.0
#XLABEL      : Energy (eV)
#YLABEL      : Counts
#XPOSITION   : -1.33313
#YPOSITION   : -0.16274
#ZPOSITION   : 31.0351
#EDSDET      : SD
##SPECIMEN   : SPI MM2 SPI Plagioclase[5][all]
##D2STDCMP   : SPI Plagioclase,(O:46.79),(Na:3.24),(Al:15.54),(Si:24.83),(K:0.2),(Ca:8.53),(Fe:0.27)
##DET_HASH   : 12273538-fd48-a23f-0a19-f1e6fa85caef
##CALIB_HASH : 6abaa72c-aa41-8738-0be9-f592914732f3
##WORKING    : 15.0 mm
##DET_NAME   : EDAX All
##DET_MODE   : MediumLE
#SPECTRUM    :
24,
35,
5,
13,
60,
300,
834,
2507,
7499,
10513,
6140,
3039,
2625,
2865,
4967,
18246,
72236,
142518,
104507,
27727,
3913,
1748,
1901,
2124,
2258,
2235,
2379,
2496,
2699,
2764,
2805,
3191,
4242,
9299,
19055,
20851,
11750,
5354,
3786,
3742,
4114,
4492,
4735,
4772,
4850,
5092,
6832,
18985,
64048,
129348,
132308,
68310,
22479,
8544,
6149,
14368,
55650,
142577,
193664,
137661,
55343,
19272,
8924,
4745,
3233,
2881,
2814,
2709,
2522,
2375,
2463,
2360,
2453,
2423,
2594,
2841,
2693,
2621,
2332,
2430,
2309,
2341,
2406,
2405,
2438,
2370,
2381,
2364,
2310,
2235,
2394,
2358,
2283,
2267,
2454,
2321,
2269,
2322,
2335,
2378,
2282,
2279,
2176,
2183,
2240,
2190,
2412,
2535,
2783,
3215,
3575,
3659,
2982,
2516,
2253,
2245,
2366,
2460,
2760,
3893,
7831,
18022,
31992,
40168,
33930,
19551,
8404,
3568,
2187,
2141,
2258,
2951,
4420,
6015,
6328,
5396,
3627,
2363,
1814,
1627,
1646,
1643,
1608,
1576,
1528,
1570,
1552,
1570,
1581,
1659,
1638,
1584,
1531,
1468,
1476,
1419,
1439,
1366,
1413,
1443,
1334,
1399,
1397,
1378,
1375,
1309,
1385,
1390,
1285,
1296,
1374,
1408,
1341,
1264,
1288,
1269,
1243,
1202,
1252,
1308,
1283,
1289,
1287,
1253,
1175,
1180,
1176,
1192,
1120,
1101,
1106,
1109,
1136,
1085,
1109,
1053,
1062,
1060,
1104,
1004,
1031,
1083,
1025,
1030,
997,
1045,
1048,
1014,
1033,
1039,
1112,
1231,
1448,
1592,
1475,
1250,
1151,
1008,
906,
944,
885,
905,
897,
885,
880,
866,
856,
850,
849,
870,
882,
784,
855,
877,
858,
836,
808,
837,
849,
751,
765,
780,
750,
768,
760,
768,
751,
790,
803,
775,
743,
691,
721,
729,
719,
766,
677,
671,
683,
643,
713,
733,
679,
684,
639,
650,
643,
649,
637,
621,
654,
619,
604,
636,
621,
618,
581,
660,
571,
587,
557,
608,
569,
558,
582,
576,
524,
537,
538,
533,
500,
533,
576,
593,
517,
525,
525,
495,
535,
524,
506,
530,
497,
485,
478,
515,
464,
450,
487,
476,
465,
490,
475,
483,
477,
446,
438,
459,
466,
463,
468,
427,
440,
437,
410,
434,
398,
424,
427,
392,
381,
405,
374,
376,
393,
406,
373,
390,
398,
380,
343,
379,
364,
400,
384,
389,
359,
346,
356,
353,
349,
349,
339,
350,
301,
347,
327,
343,
328,
296,
312,
322,
313,
311,
306,
309,
327,
298,
302,
285,
303,
306,
276,
278,
284,
302,
268,
241,
269,
275,
262,
242,
247,
252,
259,
245,
227,
258,
253,
232,
208,
273,
251,
241,
238,
250,
228,
232,
251,
248,
240,
224,
226,
191,
189,
226,
225,
213,
191,
214,
198,
179,
202,
185,
180,
187,
181,
209,
184,
180,
176,
181,
169,
193,
182,
191,
160,
194,
165,
152,
145,
169,
173,
172,
170,
152,
156,
147,
164,
153,
170,
163,
143,
143,
134,
152,
154,
132,
127,
135,
114,
153,
130,
134,
150,
118,
131,
129,
140,
115,
119,
95,
130,
136,
121,
109,
100,
120,
117,
108,
105,
98,
103,
120,
99,
103,
95,
109,
100,
87,
118,
98,
97,
81,
84,
118,
69,
79,
102,
94,
68,
89,
101,
71,
81,
77,
99,
79,
90,
64,
73,
66,
91,
72,
66,
70,
90,
88,
78,
63,
73,
65,
70,
58,
57,
53,
78,
60,
61,
56,
64,
59,
54,
40,
49,
39,
68,
41,
49,
62,
61,
50,
46,
38,
36,
39,
37,
55,
45,
56,
45,
37,
39,
43,
43,
39,
35,
33,
37,
30,
35,
29,
40,
29,
34,
42,
32,
34,
34,
42,
43,
31,
33,
35,
28,
24,
33,
32,
25,
38,
31,
27,
32,
20,
25,
30,
28,
29,
28,
28,
15,
12,
24,
22,
28,
14,
26,
18,
26,
15,
21,
15,
19,
18,
15,
22,
18,
17,
19,
12,
11,
14,
23,
21,
14,
16,
10,
18,
17,
15,
14,
22,
17,
8,
11,
13,
10,
10,
12,
11,
5,
12,
8,
12,
9,
12,
10,
3,
7,
10,
11,
10,
4,
4,
9,
8,
10,
7,
8,
6,
8,
4,
4,
6,
3,
2,
5,
1,
3,
7,
2,
1,
3,
6,
2,
2,
1,
2,
1,
0,
3,
3,
2,
3,
0,
0,
0,
0,
1,
1,
0,
0,
0,
0,
1,
1,
0,
0,
0,
0,
0,
0,
0,
0,
0,
0,
0,
0,
0,
0,
0,
0,
0,
0,
0,
0,
0,
0,
0,
0,
0,
0,
0,
0,
0,
0,
0,
0,
0,
0,
0,
0,
0,
0,
0,
0,
0,
0,
0,
0,
1,
0,
0,
0,
0,
0,
0,
1,
0,
1,
0,
0,
0,
0,
0,
0,
0,
0,
0,
0,
0,
0,
0,
0,
0,
0,
0,
0,
0,
0,
0,
0,
0,
0,
0,
0,
0,
0,
0,
0,
0,
0,
0,
0,
0,
0,
0,
0,
0,
0,
1,
0,
0,
0,
0,
0,
0,
0,
0,
0,
0,
0,
0,
0,
0,
0,
0,
0,
0,
0,
0,
0,
0,
0,
0,
0,
0,
0,
0,
0,
0,
0,
0,
0,
0,
0,
0,
0,
0,
0,
0,
0,
0,
0,
0,
0,
0,
0,
0,
0,
0,
0,
0,
0,
0,
0,
0,
0,
0,
0,
0,
0,
0,
0,
0,
0,
0,
0,
0,
0,
0,
0,
0,
0,
0,
0,
0,
0,
0,
0,
0,
0,
0,
0,
0,
0,
0,
0,
0,
0,
0,
0,
0,
0,
0,
0,
0,
0,
0,
0,
0,
0,
0,
0,
0,
0,
0,
0,
0,
0,
0,
0,
0,
0,
0,
0,
0,
0,
0,
0,
0,
0,
0,
0,
0,
0,
0,
0,
0,
0,
0,
0,
0,
0,
0,
0,
0,
0,
0,
0,
0,
0,
0,
0,
0,
0,
0,
0,
0,
0,
0,
0,
0,
0,
0,
0,
0,
0,
0,
0,
0,
0,
0,
0,
0,
0,
0,
0,
0,
0,
0,
0,
0,
0,
0,
0,
0,
0,
0,
0,
0,
0,
0,
0,
0,
0,
0,
0,
0,
0,
0,
0,
0,
0,
0,
0,
0,
0,
0,
0,
0,
0,
0,
0,
0,
0,
0,
0,
0,
0,
0,
0,
0,
0,
0,
0,
0,
0,
0,
0,
0,
0,
0,
0,
0,
0,
0,
0,
0,
0,
0,
0,
0,
0,
0,
0,
0,
0,
0,
0,
0,
0,
0,
0,
0,
0,
0,
0,
0,
0,
0,
0,
0,
0,
0,
0,
0,
0,
0,
0,
0,
0,
0,
0,
0,
0,
0,
0,
0,
0,
0,
0,
0,
0,
0,
0,
0,
0,
0,
0,
0,
0,
0,
0,
0,
0,
0,
0,
0,
0,
0,
0,
0,
0,
0,
0,
0,
0,
0,
0,
0,
0,
0,
0,
0,
0,
0,
0,
0,
0,
0,
0,
0,
0,
0,
0,
0,
0,
0,
0,
0,
0,
0,
0,
0,
0,
0,
0,
0,
0,
0,
0,
0,
0,
0,
0,
0,
0,
0,
0,
0,
0,
0,
0,
0,
0,
0,
0,
0,
0,
0,
0,
0,
0,
0,
0,
0,
0,
0,
0,
0,
0,
0,
0,
0,
0,
0,
0,
0,
0,
0,
0,
0,
0,
0,
0,
0,
0,
0,
0,
0,
0,
0,
0,
0,
0,
0,
0,
0,
0,
0,
0,
0,
0,
0,
0,
0,
0,
0,
0,
0,
0,
0,
0,
0,
0,
0,
0,
0,
0,
0,
0,
0,
0,
0,
0,
0,
0,
0,
0,
0,
0,
0,
0,
0,
0,
0,
0,
0,
0,
0,
0,
0,
0,
0,
0,
0,
0,
0,
0,
0,
0,
0,
0,
0,
0,
0,
0,
0,
0,
0,
0,
0,
0,
0,
0,
0,
0,
0,
0,
0,
0,
0,
0,
0,
0,
0,
0,
0,
0,
0,
0,
0,
0,
0,
0,
0,
0,
0,
0,
0,
0,
0,
0,
0,
0,
0,
0,
0,
0,
0,
0,
0,
0,
0,
0,
0,
0,
0,
0,
0,
0,
0,
0,
0,
0,
0,
0,
0,
0,
0,
0,
0,
0,
0,
0,
0,
0,
0,
0,
0,
0,
0,
0,
0,
0,
0,
0,
0,
0,
0,
0,
0,
0,
0,
0,
0,
0,
0,
0,
0,
0,
0,
0,
0,
0,
0,
0,
0,
0,
0,
0,
0,
0,
0,
0,
0,
0,
0,
0,
0,
0,
0,
0,
0,
0,
0,
0,
0,
0,
0,
0,
0,
0,
0,
0,
0,
0,
0,
0,
0,
0,
0,
0,
0,
0,
0,
0,
0,
0,
0,
0,
0,
0,
0,
0,
#ENDOFDATA   :