File: N132962/Quantification/20 keV/MMM2/SPI MM2 Willemite[7][4].msa
#FORMAT      : EMSA/MAS Spectral Data File
#VERSION     : 1.0
#TITLE       : SPI MM2 Willemite[7][all]
#DATE        : 13-MAR-2025
#TIME        : 14:11
#OWNER       : Unknown
#NPOINTS     : 4096
#NCOLUMNS    : 1
#XUNITS      : eV
#YUNITS      : counts
#DATATYPE    : Y
#XPERCHAN    : 9.99778
#OFFSET      : 1.69135
#BEAMKV      : 20
#SIGNALTYPE  : EDS
#ELEVANGLE   : 35
#AZIMANGLE   : 0
#LIVETIME    : 239.715
#REALTIME    : 257.395
#PROBECUR    : 1.02609
#TAUWIND     : 0
#TDEADLYR    : 0
#TACTLYR     : 0.045
#TALWIND     : 0.025
#CHOFFSET    : 0.0
#XLABEL      : Energy (eV)
#YLABEL      : Counts
#XPOSITION   : 2.82049
#YPOSITION   : 6.28937
#ZPOSITION   : 31.03511
#EDSDET      : SD
##SPECIMEN   : SPI MM2 Willemite[7][all]
##DET_HASH   : 12273538-fd48-a23f-0a19-f1e6fa85caef
##CALIB_HASH : 6abaa72c-aa41-8738-0be9-f592914732f3
##WORKING    : 15.0 mm
##DET_NAME   : EDAX All
##DET_MODE   : MediumLE
#SPECTRUM    :
21,
26,
7,
10,
95,
386,
1146,
3399,
9803,
12846,
6829,
3370,
3232,
4014,
6204,
17728,
63852,
122808,
91053,
26078,
7014,
6410,
5893,
4892,
4730,
4784,
5161,
6791,
11302,
18251,
19281,
23845,
70033,
176285,
217646,
122999,
35557,
8373,
3929,
3066,
3042,
3569,
3717,
3405,
3139,
3180,
3319,
3451,
3613,
3809,
4144,
4278,
4289,
4221,
4775,
8287,
24507,
59965,
79816,
57608,
25229,
10336,
6230,
4238,
3671,
3578,
3601,
3782,
3718,
3786,
3571,
3609,
3697,
3642,
3726,
3904,
3924,
3769,
3711,
3665,
3708,
3762,
3694,
3649,
3790,
3798,
3765,
3820,
3781,
3725,
3777,
3828,
3933,
3952,
3699,
3793,
3627,
3601,
3513,
3568,
3706,
3568,
3533,
3621,
3481,
3598,
3492,
3479,
3393,
3463,
3526,
3380,
3353,
3252,
3449,
3346,
3329,
3288,
3253,
3300,
3319,
3258,
3274,
3202,
3231,
3240,
3089,
3053,
3110,
3133,
3075,
3091,
3020,
3049,
2980,
2993,
2921,
2982,
2987,
2899,
2945,
2828,
2888,
2713,
2813,
2840,
2840,
2740,
2721,
2792,
2677,
2588,
2593,
2641,
2609,
2623,
2589,
2645,
2626,
2488,
2513,
2456,
2513,
2438,
2478,
2484,
2468,
2604,
2392,
2348,
2273,
2242,
2265,
2310,
2274,
2283,
2305,
2319,
2268,
2209,
2255,
2096,
2180,
2246,
2191,
2223,
2119,
2122,
2106,
2097,
2115,
2223,
2677,
3935,
6281,
9482,
11934,
11705,
8971,
6115,
3732,
2459,
2090,
1942,
1942,
1900,
1911,
1935,
1837,
1878,
1893,
1992,
2165,
2413,
2642,
2946,
3063,
2913,
2535,
2242,
1941,
1712,
1715,
1752,
1616,
1690,
1669,
1655,
1594,
1701,
1768,
1708,
1602,
1546,
1601,
1534,
1569,
1531,
1546,
1521,
1479,
1477,
1445,
1511,
1428,
1447,
1485,
1521,
1476,
1554,
1525,
1480,
1411,
1369,
1345,
1374,
1342,
1364,
1393,
1271,
1317,
1276,
1270,
1340,
1253,
1284,
1327,
1277,
1242,
1226,
1242,
1152,
1207,
1222,
1310,
1277,
1200,
1218,
1309,
1281,
1449,
1871,
3136,
6646,
13312,
23961,
36242,
44403,
45010,
37365,
25518,
14495,
7012,
3223,
1718,
1235,
1110,
1043,
1051,
1054,
1018,
988,
986,
1047,
1115,
1009,
1068,
1031,
1003,
1012,
1034,
1031,
1076,
1347,
1701,
2307,
3718,
5040,
6422,
6707,
6097,
4804,
3177,
2126,
1425,
952,
926,
775,
781,
740,
747,
709,
739,
709,
732,
704,
721,
736,
707,
784,
700,
687,
712,
661,
742,
749,
720,
706,
667,
698,
680,
672,
666,
623,
672,
634,
643,
649,
562,
630,
611,
612,
629,
601,
589,
540,
590,
566,
548,
579,
600,
580,
550,
534,
567,
563,
529,
533,
550,
536,
554,
510,
545,
500,
468,
544,
501,
520,
452,
470,
503,
490,
496,
453,
469,
483,
496,
464,
454,
469,
478,
451,
431,
449,
453,
420,
425,
389,
422,
394,
412,
413,
385,
418,
408,
392,
396,
390,
371,
363,
360,
404,
341,
331,
399,
368,
343,
375,
376,
356,
339,
356,
346,
357,
346,
330,
341,
331,
309,
314,
304,
310,
318,
337,
277,
288,
295,
286,
290,
288,
262,
283,
296,
296,
265,
243,
269,
270,
271,
259,
274,
259,
247,
273,
232,
240,
233,
216,
251,
254,
245,
236,
218,
195,
227,
198,
247,
226,
195,
218,
221,
194,
189,
220,
233,
182,
176,
188,
179,
195,
199,
188,
190,
170,
179,
156,
174,
180,
177,
161,
177,
170,
148,
165,
152,
155,
180,
135,
156,
143,
155,
129,
141,
122,
149,
142,
139,
161,
130,
125,
124,
132,
125,
122,
123,
142,
123,
128,
121,
97,
117,
114,
140,
126,
102,
124,
103,
100,
100,
105,
107,
112,
90,
107,
106,
105,
87,
85,
85,
80,
84,
69,
83,
91,
77,
91,
97,
83,
79,
69,
68,
67,
66,
76,
87,
82,
72,
73,
69,
58,
79,
69,
78,
76,
76,
75,
80,
61,
65,
58,
74,
57,
60,
54,
43,
55,
58,
50,
46,
56,
37,
49,
46,
40,
43,
56,
44,
48,
33,
41,
25,
38,
36,
35,
34,
37,
36,
33,
33,
28,
17,
35,
34,
28,
31,
37,
29,
24,
15,
29,
29,
26,
33,
26,
16,
14,
18,
28,
24,
20,
21,
21,
22,
20,
16,
15,
19,
11,
10,
16,
8,
7,
16,
14,
13,
7,
6,
11,
10,
5,
6,
8,
4,
5,
3,
6,
7,
7,
2,
4,
5,
2,
0,
3,
2,
5,
1,
1,
3,
0,
1,
1,
2,
1,
3,
3,
0,
1,
1,
1,
0,
3,
1,
1,
1,
2,
1,
0,
3,
0,
0,
0,
3,
0,
0,
1,
1,
0,
0,
1,
0,
1,
0,
1,
2,
0,
2,
1,
0,
0,
0,
1,
1,
0,
0,
1,
0,
0,
1,
0,
2,
0,
2,
0,
1,
3,
0,
0,
1,
1,
0,
0,
0,
3,
2,
0,
2,
0,
2,
0,
0,
0,
0,
0,
0,
0,
0,
1,
0,
0,
0,
2,
1,
0,
0,
0,
0,
1,
0,
0,
0,
0,
0,
0,
0,
0,
2,
1,
0,
0,
0,
0,
0,
0,
0,
0,
0,
0,
1,
0,
1,
0,
0,
0,
0,
1,
2,
0,
0,
0,
0,
0,
0,
0,
1,
0,
0,
1,
0,
0,
1,
0,
1,
0,
0,
0,
1,
0,
1,
0,
0,
0,
0,
0,
0,
0,
0,
1,
1,
0,
0,
0,
0,
0,
0,
0,
0,
0,
1,
0,
0,
0,
0,
0,
0,
0,
0,
0,
1,
1,
0,
0,
0,
0,
0,
0,
0,
0,
1,
0,
0,
0,
0,
1,
1,
0,
0,
1,
0,
0,
0,
0,
0,
0,
0,
0,
0,
1,
0,
0,
0,
0,
0,
0,
0,
0,
0,
0,
0,
0,
0,
0,
0,
0,
0,
0,
1,
0,
0,
0,
0,
0,
0,
0,
0,
0,
0,
0,
0,
0,
1,
0,
0,
0,
0,
0,
0,
0,
0,
0,
0,
0,
0,
0,
0,
0,
0,
0,
1,
0,
0,
0,
0,
0,
0,
0,
0,
0,
0,
0,
0,
0,
0,
0,
0,
0,
0,
0,
1,
0,
0,
0,
0,
0,
1,
0,
0,
0,
0,
0,
0,
0,
0,
0,
0,
0,
0,
0,
0,
0,
0,
0,
0,
0,
0,
0,
0,
0,
1,
0,
0,
0,
0,
0,
0,
0,
0,
0,
0,
0,
0,
0,
0,
0,
0,
0,
0,
0,
0,
0,
0,
0,
0,
0,
0,
0,
0,
0,
0,
0,
0,
0,
0,
0,
0,
0,
0,
0,
0,
0,
0,
0,
0,
0,
0,
0,
0,
0,
0,
0,
0,
0,
0,
1,
0,
0,
0,
0,
0,
0,
0,
0,
0,
0,
0,
0,
0,
0,
0,
0,
0,
0,
0,
0,
0,
0,
0,
0,
0,
0,
0,
0,
0,
0,
0,
0,
0,
0,
0,
0,
0,
0,
0,
0,
0,
0,
0,
0,
0,
0,
0,
0,
0,
0,
0,
0,
0,
0,
0,
0,
0,
0,
0,
0,
0,
0,
0,
0,
0,
0,
0,
0,
0,
0,
0,
0,
0,
0,
0,
0,
0,
0,
0,
0,
0,
0,
0,
0,
0,
0,
0,
0,
0,
0,
0,
0,
0,
0,
0,
0,
0,
0,
0,
0,
0,
0,
0,
0,
0,
0,
0,
0,
0,
0,
0,
0,
0,
0,
0,
0,
0,
0,
0,
0,
0,
0,
0,
0,
0,
0,
0,
0,
0,
0,
0,
0,
0,
0,
0,
0,
0,
0,
0,
0,
0,
0,
0,
0,
0,
0,
0,
0,
0,
0,
0,
0,
0,
0,
0,
0,
0,
0,
0,
0,
0,
0,
0,
0,
0,
0,
0,
0,
0,
0,
0,
0,
0,
0,
0,
0,
0,
0,
0,
0,
0,
0,
0,
0,
0,
0,
0,
0,
0,
0,
0,
0,
0,
0,
0,
0,
0,
0,
0,
0,
0,
0,
0,
0,
0,
0,
0,
0,
0,
0,
0,
0,
0,
0,
0,
0,
0,
0,
0,
0,
0,
0,
0,
0,
0,
0,
0,
0,
0,
0,
0,
0,
0,
0,
0,
0,
0,
0,
0,
0,
0,
0,
0,
0,
0,
0,
0,
0,
0,
0,
0,
0,
0,
0,
0,
0,
0,
0,
0,
0,
0,
0,
0,
0,
0,
0,
0,
0,
0,
0,
0,
0,
0,
0,
0,
0,
0,
0,
0,
0,
0,
0,
0,
0,
0,
0,
0,
0,
0,
0,
0,
0,
0,
0,
0,
0,
0,
0,
0,
0,
0,
0,
0,
0,
0,
0,
0,
0,
0,
0,
0,
0,
0,
0,
0,
0,
0,
0,
0,
0,
0,
0,
0,
0,
0,
0,
0,
0,
0,
0,
0,
0,
0,
0,
0,
0,
0,
0,
0,
0,
0,
0,
#ENDOFDATA   :