File: N132962/Quantification/20 keV/MMM2/SPI MM2 Uvarovite[6][4].msa
#FORMAT      : EMSA/MAS Spectral Data File
#VERSION     : 1.0
#TITLE       : SPI MM2 Uvarovite[6][all]
#DATE        : 13-MAR-2025
#TIME        : 14:19
#OWNER       : Unknown
#NPOINTS     : 4096
#NCOLUMNS    : 1
#XUNITS      : eV
#YUNITS      : counts
#DATATYPE    : Y
#XPERCHAN    : 9.99778
#OFFSET      : 1.69135
#BEAMKV      : 20
#SIGNALTYPE  : EDS
#ELEVANGLE   : 35
#AZIMANGLE   : 0
#LIVETIME    : 239.837
#REALTIME    : 255.333
#PROBECUR    : 1.02609
#TAUWIND     : 0
#TDEADLYR    : 0
#TACTLYR     : 0.045
#TALWIND     : 0.025
#CHOFFSET    : 0.0
#XLABEL      : Energy (eV)
#YLABEL      : Counts
#XPOSITION   : 5.724
#YPOSITION   : 6.36206
#ZPOSITION   : 31.03511
#EDSDET      : SD
##SPECIMEN   : SPI MM2 Uvarovite[6][all]
##DET_HASH   : 12273538-fd48-a23f-0a19-f1e6fa85caef
##CALIB_HASH : 6abaa72c-aa41-8738-0be9-f592914732f3
##WORKING    : 15.0 mm
##DET_NAME   : EDAX All
##DET_MODE   : MediumLE
#SPECTRUM    :
21,
42,
8,
9,
78,
298,
999,
3123,
9361,
13957,
9606,
5045,
3238,
2870,
4134,
12545,
46266,
87823,
65444,
19854,
4772,
2179,
2189,
2639,
2526,
2239,
2176,
2350,
2398,
2611,
2657,
2752,
2895,
3013,
3134,
3362,
3389,
3479,
3541,
3850,
3843,
4091,
4257,
4289,
4509,
4599,
5090,
7180,
15689,
27830,
28371,
16594,
8296,
5766,
6198,
12461,
43506,
109663,
147668,
105771,
43407,
16008,
8192,
5515,
4614,
4665,
4099,
3637,
3389,
3210,
3303,
3404,
3328,
3336,
3583,
3519,
3516,
3459,
3369,
3249,
3329,
3183,
3378,
3137,
3183,
3226,
3203,
3081,
3116,
3152,
3175,
3102,
3075,
3122,
2971,
3045,
3027,
2952,
2890,
2885,
2954,
2905,
2925,
2946,
2902,
3011,
2838,
2909,
2930,
2822,
2651,
2609,
2800,
2720,
2790,
2849,
3120,
3560,
4344,
7664,
20010,
50089,
93485,
118688,
99456,
56067,
22194,
7437,
3521,
3093,
3758,
5783,
10058,
14912,
16478,
12875,
7912,
4139,
2557,
2105,
2005,
1918,
1897,
1906,
1883,
1995,
1858,
2200,
2904,
3858,
4667,
4444,
3528,
2554,
1906,
1782,
1785,
1655,
1674,
1729,
1821,
1733,
1888,
2190,
2511,
2542,
2296,
2031,
1745,
1692,
1632,
1643,
1628,
1727,
1745,
2164,
3272,
6755,
14350,
24521,
31995,
31196,
22285,
12309,
5559,
2657,
1618,
1494,
1410,
1425,
1469,
1398,
1496,
1497,
1805,
2439,
3652,
4653,
5394,
5028,
3775,
2482,
1751,
1460,
1273,
1206,
1194,
1197,
1174,
1295,
1629,
2047,
2573,
2857,
2867,
2288,
1738,
1386,
1183,
1159,
1125,
1103,
1067,
1067,
1060,
1048,
1033,
1059,
1024,
1056,
1040,
1023,
1103,
1186,
1215,
1196,
1188,
1150,
1035,
1066,
981,
933,
946,
944,
1017,
976,
971,
981,
969,
978,
978,
921,
907,
890,
863,
912,
880,
932,
871,
808,
797,
854,
878,
808,
798,
801,
808,
829,
856,
718,
770,
792,
802,
738,
746,
749,
766,
760,
710,
730,
764,
698,
761,
697,
701,
684,
687,
682,
654,
687,
694,
687,
625,
716,
676,
670,
634,
669,
663,
636,
633,
642,
661,
656,
579,
648,
630,
619,
593,
636,
583,
557,
606,
556,
564,
572,
594,
561,
580,
565,
563,
549,
565,
552,
558,
557,
576,
512,
531,
489,
516,
534,
526,
470,
498,
489,
437,
493,
495,
495,
472,
438,
458,
479,
472,
434,
466,
417,
430,
478,
452,
415,
434,
426,
445,
420,
386,
440,
418,
391,
419,
430,
409,
395,
401,
405,
430,
378,
356,
404,
397,
377,
356,
337,
375,
342,
392,
373,
365,
350,
382,
329,
347,
329,
331,
307,
310,
315,
318,
331,
336,
315,
305,
307,
329,
312,
274,
316,
294,
318,
289,
310,
287,
297,
292,
276,
274,
278,
253,
262,
251,
264,
282,
259,
253,
271,
254,
247,
250,
257,
236,
245,
224,
270,
223,
254,
232,
233,
212,
233,
215,
221,
214,
201,
213,
197,
197,
193,
186,
185,
183,
181,
188,
205,
163,
175,
171,
182,
156,
189,
156,
190,
171,
184,
170,
174,
154,
158,
155,
158,
184,
194,
162,
174,
177,
144,
130,
153,
157,
137,
152,
144,
148,
139,
142,
122,
146,
130,
110,
151,
133,
110,
121,
124,
119,
103,
120,
109,
116,
112,
120,
129,
117,
117,
134,
94,
89,
97,
99,
89,
115,
101,
95,
105,
102,
95,
94,
95,
87,
89,
100,
95,
91,
85,
88,
95,
79,
85,
87,
85,
66,
65,
69,
74,
62,
81,
79,
74,
80,
61,
69,
60,
48,
61,
80,
64,
64,
59,
61,
40,
58,
52,
64,
53,
66,
58,
41,
66,
47,
67,
53,
50,
47,
40,
58,
53,
54,
53,
44,
62,
32,
40,
45,
39,
47,
40,
40,
48,
38,
33,
38,
38,
31,
32,
32,
31,
39,
35,
31,
36,
36,
32,
35,
37,
21,
26,
24,
27,
31,
24,
36,
20,
21,
27,
29,
32,
20,
19,
19,
24,
21,
22,
16,
21,
19,
14,
20,
21,
12,
17,
8,
17,
15,
20,
12,
20,
21,
15,
12,
8,
12,
5,
9,
13,
11,
15,
11,
12,
10,
7,
10,
3,
7,
10,
13,
7,
9,
3,
2,
7,
11,
5,
3,
7,
6,
6,
3,
4,
8,
3,
4,
2,
3,
2,
3,
7,
1,
2,
2,
1,
3,
2,
0,
2,
0,
2,
0,
0,
1,
0,
0,
1,
0,
0,
1,
0,
0,
1,
1,
0,
1,
1,
0,
0,
0,
0,
1,
0,
0,
0,
1,
0,
1,
0,
0,
0,
0,
0,
0,
0,
0,
0,
1,
0,
1,
0,
0,
0,
1,
0,
1,
0,
1,
2,
0,
0,
0,
1,
2,
0,
0,
0,
2,
0,
0,
1,
0,
0,
0,
0,
0,
0,
0,
0,
0,
0,
0,
1,
0,
0,
0,
0,
0,
0,
0,
0,
1,
0,
0,
0,
1,
0,
0,
0,
0,
0,
0,
0,
0,
0,
0,
1,
0,
0,
0,
1,
0,
0,
0,
0,
0,
0,
0,
0,
0,
0,
0,
0,
0,
0,
0,
0,
0,
0,
0,
0,
0,
0,
0,
0,
0,
0,
0,
0,
0,
0,
0,
0,
0,
0,
0,
0,
0,
0,
0,
0,
0,
0,
0,
0,
0,
0,
0,
0,
0,
0,
0,
0,
0,
0,
0,
0,
0,
1,
0,
1,
0,
0,
0,
0,
0,
0,
0,
0,
0,
0,
1,
0,
0,
0,
0,
0,
0,
0,
0,
0,
0,
0,
0,
0,
0,
0,
0,
0,
0,
0,
0,
0,
0,
0,
0,
0,
0,
0,
0,
0,
0,
0,
0,
0,
0,
0,
0,
0,
0,
0,
0,
0,
0,
0,
0,
0,
0,
0,
0,
0,
0,
0,
0,
0,
0,
0,
0,
0,
0,
0,
0,
0,
0,
0,
0,
0,
0,
0,
0,
0,
0,
0,
0,
0,
0,
0,
0,
0,
0,
0,
0,
0,
0,
0,
0,
0,
0,
0,
0,
0,
0,
0,
0,
0,
0,
0,
0,
0,
0,
0,
0,
0,
0,
0,
0,
0,
0,
0,
0,
0,
0,
0,
0,
0,
0,
0,
0,
0,
0,
0,
0,
0,
0,
0,
0,
0,
0,
0,
0,
0,
0,
0,
0,
0,
0,
0,
0,
0,
0,
0,
0,
0,
0,
0,
0,
0,
0,
0,
0,
0,
0,
0,
0,
0,
0,
0,
0,
0,
0,
0,
0,
0,
0,
0,
0,
0,
0,
0,
0,
0,
0,
0,
0,
0,
0,
0,
0,
0,
0,
0,
0,
0,
1,
0,
0,
0,
0,
0,
0,
0,
0,
0,
0,
0,
0,
0,
0,
0,
0,
0,
0,
0,
0,
0,
0,
0,
0,
0,
0,
0,
0,
0,
0,
0,
0,
0,
0,
0,
0,
0,
0,
0,
0,
1,
0,
0,
0,
0,
0,
0,
0,
0,
0,
0,
0,
0,
0,
0,
0,
0,
0,
0,
0,
0,
0,
0,
0,
0,
0,
0,
0,
0,
0,
0,
0,
0,
0,
0,
0,
0,
0,
0,
0,
0,
0,
0,
0,
0,
0,
0,
0,
0,
0,
0,
0,
0,
0,
0,
0,
0,
0,
0,
0,
0,
0,
0,
0,
0,
0,
0,
0,
0,
0,
0,
0,
0,
0,
0,
0,
0,
0,
0,
0,
0,
0,
0,
0,
0,
0,
0,
0,
0,
0,
0,
0,
0,
0,
0,
0,
0,
0,
0,
0,
0,
0,
0,
0,
0,
0,
0,
0,
0,
0,
0,
0,
0,
0,
0,
0,
0,
0,
0,
0,
0,
0,
0,
0,
0,
0,
0,
0,
0,
0,
0,
0,
0,
0,
0,
0,
0,
0,
0,
0,
0,
0,
0,
0,
0,
0,
0,
0,
0,
0,
0,
0,
0,
0,
0,
0,
0,
0,
0,
0,
0,
0,
0,
0,
0,
0,
0,
0,
0,
0,
0,
0,
0,
0,
0,
0,
0,
0,
0,
0,
0,
0,
0,
0,
0,
0,
0,
0,
0,
0,
0,
0,
0,
0,
0,
0,
0,
0,
0,
0,
0,
0,
0,
0,
0,
0,
0,
0,
0,
0,
0,
0,
0,
0,
0,
0,
0,
0,
0,
0,
0,
0,
0,
0,
0,
0,
0,
0,
0,
0,
0,
0,
0,
0,
0,
0,
0,
0,
0,
0,
0,
0,
0,
0,
0,
0,
0,
0,
0,
0,
0,
0,
0,
0,
0,
0,
0,
0,
0,
0,
0,
0,
0,
0,
0,
0,
0,
0,
0,
0,
0,
0,
0,
0,
0,
0,
0,
0,
0,
0,
0,
0,
0,
0,
0,
0,
0,
0,
0,
0,
0,
0,
0,
0,
0,
0,
0,
0,
0,
0,
0,
0,
0,
0,
0,
0,
0,
#ENDOFDATA   :