File: N132962/Quantification/20 keV/MMM2/SPI MM2 SPI Olivine[3][4].msa
#FORMAT      : EMSA/MAS Spectral Data File
#VERSION     : 1.0
#TITLE       : SPI MM2 SPI Olivine[3][all]
#DATE        : 13-MAR-2025
#TIME        : 09:49
#OWNER       : Unknown
#NPOINTS     : 4096
#NCOLUMNS    : 1
#XUNITS      : eV
#YUNITS      : counts
#DATATYPE    : Y
#XPERCHAN    : 9.99778
#OFFSET      : 1.69135
#BEAMKV      : 20
#SIGNALTYPE  : EDS
#ELEVANGLE   : 35
#AZIMANGLE   : 0
#LIVETIME    : 239.519
#REALTIME    : 255.605
#PROBECUR    : 1.02627
#TAUWIND     : 0
#TDEADLYR    : 0
#TACTLYR     : 0.045
#TALWIND     : 0.025
#CHOFFSET    : 0.0
#XLABEL      : Energy (eV)
#YLABEL      : Counts
#XPOSITION   : -3.18523
#YPOSITION   : -2.0859
#ZPOSITION   : 31.0351
#EDSDET      : SD
##SPECIMEN   : SPI MM2 SPI Olivine[3][all]
##D2STDCMP   : SPI Olivine,(O:43.96),(Mg:30.26),(Si:19.14),(Mn:0.089),(Fe:6.35),(Ni:0.278),5.0
##DET_HASH   : 12273538-fd48-a23f-0a19-f1e6fa85caef
##CALIB_HASH : 6abaa72c-aa41-8738-0be9-f592914732f3
##WORKING    : 15.0 mm
##DET_NAME   : EDAX All
##DET_MODE   : MediumLE
#SPECTRUM    :
31,
32,
9,
14,
65,
283,
937,
2582,
7347,
9660,
5150,
2707,
2783,
3517,
6679,
25406,
101732,
200789,
147722,
39101,
5873,
2920,
4260,
6677,
6732,
4150,
2933,
2813,
3177,
3239,
3091,
3044,
3317,
3635,
4023,
4469,
4838,
5318,
7191,
19159,
78155,
197686,
238659,
133406,
37033,
7566,
3245,
2669,
2840,
2966,
3155,
3255,
3353,
3297,
4215,
10680,
39367,
100560,
136653,
96863,
39409,
14078,
6853,
3742,
2529,
2274,
2234,
2209,
2195,
2278,
2230,
2320,
2343,
2443,
2622,
2779,
2604,
2544,
2407,
2354,
2338,
2384,
2513,
2777,
2629,
2472,
2477,
2278,
2315,
2281,
2335,
2240,
2304,
2318,
2185,
2248,
2202,
2171,
2392,
2584,
2630,
2415,
2309,
2238,
2229,
2141,
2115,
2107,
2109,
2044,
1993,
2060,
2050,
2052,
1992,
2005,
2088,
2032,
1972,
1968,
1906,
1867,
1880,
1901,
1929,
1878,
1889,
1800,
1777,
1794,
1705,
1795,
1756,
1810,
1706,
1750,
1710,
1644,
1690,
1739,
1650,
1671,
1558,
1611,
1607,
1562,
1568,
1559,
1494,
1573,
1527,
1506,
1555,
1564,
1531,
1599,
1496,
1449,
1459,
1471,
1444,
1430,
1369,
1392,
1310,
1350,
1393,
1366,
1311,
1333,
1348,
1252,
1269,
1331,
1298,
1325,
1231,
1300,
1228,
1279,
1300,
1253,
1270,
1235,
1267,
1230,
1159,
1148,
1207,
1159,
1118,
1139,
1170,
1130,
1213,
1269,
1264,
1232,
1207,
1136,
1080,
1012,
1109,
997,
1036,
1010,
1051,
1105,
1327,
1953,
3662,
6571,
9967,
11816,
10937,
8163,
4923,
2645,
1547,
1065,
929,
923,
888,
923,
898,
919,
917,
876,
917,
879,
974,
1137,
1267,
1749,
2096,
2236,
2071,
1631,
1225,
971,
887,
785,
785,
718,
730,
848,
844,
1047,
1045,
1115,
1088,
964,
861,
772,
705,
713,
710,
690,
688,
620,
703,
619,
665,
640,
647,
630,
657,
629,
652,
636,
645,
640,
634,
649,
668,
622,
670,
620,
645,
597,
594,
551,
571,
535,
586,
554,
534,
556,
533,
518,
558,
509,
578,
502,
505,
514,
526,
521,
475,
513,
466,
519,
496,
522,
473,
517,
485,
492,
456,
425,
448,
504,
455,
470,
442,
428,
464,
444,
440,
429,
447,
417,
444,
400,
423,
413,
394,
447,
378,
403,
371,
389,
402,
370,
372,
379,
379,
382,
336,
355,
364,
368,
339,
367,
364,
357,
359,
360,
340,
346,
322,
330,
323,
319,
346,
361,
316,
311,
355,
312,
279,
321,
299,
316,
287,
308,
301,
305,
303,
309,
252,
300,
272,
256,
276,
285,
295,
288,
286,
294,
269,
307,
255,
258,
232,
278,
275,
253,
252,
232,
248,
212,
253,
226,
218,
241,
234,
208,
227,
213,
209,
211,
207,
198,
203,
227,
202,
233,
195,
223,
195,
195,
190,
194,
177,
179,
198,
191,
173,
180,
147,
192,
196,
185,
155,
174,
164,
171,
168,
166,
165,
144,
148,
157,
165,
187,
161,
131,
157,
140,
144,
147,
141,
127,
145,
142,
136,
133,
146,
133,
148,
135,
131,
119,
114,
154,
125,
130,
122,
137,
126,
101,
128,
119,
96,
132,
118,
97,
114,
98,
117,
99,
104,
114,
93,
118,
96,
96,
99,
78,
108,
96,
87,
86,
90,
85,
82,
100,
77,
81,
77,
96,
79,
89,
74,
94,
84,
79,
84,
79,
81,
65,
81,
79,
65,
68,
69,
71,
58,
72,
49,
62,
62,
51,
55,
64,
65,
58,
53,
55,
72,
55,
51,
46,
59,
44,
51,
42,
55,
54,
41,
42,
56,
58,
58,
42,
53,
40,
38,
47,
46,
40,
49,
40,
48,
35,
31,
28,
34,
44,
51,
38,
46,
36,
36,
30,
25,
41,
36,
33,
19,
38,
30,
31,
30,
27,
26,
31,
24,
29,
33,
33,
32,
24,
19,
24,
30,
30,
18,
25,
21,
21,
21,
20,
22,
21,
21,
16,
11,
17,
22,
27,
18,
14,
26,
19,
14,
19,
22,
17,
20,
16,
15,
11,
15,
11,
15,
15,
14,
13,
10,
11,
15,
11,
10,
12,
7,
11,
11,
9,
11,
11,
7,
6,
2,
6,
13,
11,
8,
6,
2,
9,
4,
4,
6,
3,
2,
4,
2,
5,
5,
5,
3,
3,
6,
3,
4,
0,
3,
2,
4,
2,
2,
2,
5,
0,
2,
1,
2,
1,
1,
1,
0,
1,
0,
0,
0,
0,
0,
1,
0,
0,
0,
0,
0,
0,
0,
0,
0,
0,
0,
0,
1,
0,
0,
0,
1,
0,
0,
0,
0,
0,
1,
0,
0,
0,
0,
0,
1,
0,
0,
1,
0,
0,
0,
0,
0,
0,
0,
0,
0,
1,
0,
0,
0,
0,
1,
1,
0,
0,
0,
0,
0,
0,
0,
0,
0,
1,
0,
0,
0,
0,
0,
0,
0,
0,
0,
0,
0,
0,
0,
0,
0,
0,
0,
0,
0,
0,
0,
0,
0,
0,
0,
0,
0,
0,
0,
0,
0,
0,
0,
0,
0,
0,
0,
0,
0,
0,
0,
0,
0,
0,
0,
0,
0,
1,
0,
0,
0,
0,
0,
0,
0,
0,
0,
0,
0,
0,
0,
0,
0,
0,
0,
0,
0,
0,
0,
0,
0,
0,
0,
0,
0,
0,
0,
0,
0,
0,
0,
0,
0,
0,
0,
0,
0,
0,
0,
0,
0,
0,
0,
0,
0,
0,
0,
0,
0,
0,
0,
0,
0,
0,
0,
0,
0,
0,
0,
0,
0,
0,
0,
0,
0,
0,
0,
1,
0,
0,
0,
0,
0,
0,
0,
0,
0,
0,
0,
0,
0,
0,
0,
0,
0,
0,
0,
0,
0,
0,
0,
0,
0,
0,
0,
0,
0,
0,
0,
0,
0,
0,
0,
0,
0,
0,
0,
0,
0,
0,
0,
0,
0,
0,
0,
0,
0,
0,
0,
0,
0,
0,
0,
0,
0,
0,
0,
0,
0,
0,
0,
0,
0,
0,
0,
0,
0,
0,
0,
0,
0,
0,
0,
0,
0,
0,
0,
0,
0,
0,
0,
0,
0,
0,
0,
0,
0,
0,
0,
0,
0,
0,
0,
0,
0,
0,
0,
0,
0,
0,
0,
0,
0,
0,
0,
0,
0,
0,
0,
0,
0,
0,
0,
0,
0,
0,
0,
0,
0,
0,
0,
0,
0,
0,
0,
0,
0,
0,
0,
0,
0,
0,
0,
0,
0,
0,
0,
0,
0,
0,
0,
0,
0,
0,
0,
0,
0,
0,
0,
0,
0,
0,
0,
0,
0,
0,
0,
0,
0,
0,
0,
0,
0,
0,
0,
0,
0,
0,
0,
0,
0,
0,
0,
0,
0,
0,
0,
0,
0,
0,
0,
0,
0,
0,
0,
0,
0,
0,
0,
0,
0,
0,
0,
0,
0,
0,
0,
0,
0,
0,
0,
0,
0,
0,
0,
0,
0,
0,
0,
0,
0,
0,
0,
0,
0,
0,
0,
0,
0,
0,
0,
0,
0,
0,
0,
0,
0,
0,
0,
0,
0,
0,
0,
0,
0,
0,
0,
0,
0,
0,
0,
0,
0,
0,
0,
0,
0,
0,
0,
0,
0,
0,
0,
0,
0,
0,
0,
0,
0,
0,
0,
0,
0,
0,
0,
0,
0,
0,
0,
0,
0,
0,
0,
0,
0,
0,
0,
0,
0,
0,
0,
0,
0,
0,
0,
0,
0,
0,
0,
0,
0,
0,
0,
0,
0,
0,
0,
0,
0,
0,
0,
0,
0,
0,
0,
0,
0,
0,
0,
0,
0,
0,
0,
0,
0,
0,
0,
0,
0,
0,
0,
0,
0,
0,
0,
0,
0,
0,
0,
0,
0,
0,
0,
0,
0,
0,
0,
0,
0,
0,
0,
0,
0,
0,
0,
0,
0,
0,
0,
0,
0,
0,
0,
0,
0,
0,
0,
0,
0,
0,
0,
0,
0,
0,
0,
0,
0,
0,
0,
0,
0,
0,
0,
0,
0,
0,
0,
0,
0,
0,
0,
0,
0,
0,
0,
0,
0,
0,
0,
0,
0,
0,
0,
0,
0,
0,
0,
0,
0,
0,
0,
0,
0,
0,
0,
0,
0,
0,
0,
0,
0,
0,
0,
0,
0,
0,
0,
0,
0,
0,
0,
0,
0,
0,
0,
0,
0,
0,
0,
0,
0,
0,
0,
0,
0,
0,
0,
0,
0,
0,
0,
0,
0,
0,
0,
0,
0,
0,
0,
0,
0,
0,
0,
0,
0,
0,
0,
0,
0,
0,
0,
0,
0,
0,
0,
0,
0,
0,
0,
0,
0,
0,
0,
0,
0,
0,
0,
0,
0,
0,
0,
0,
0,
0,
0,
0,
0,
0,
0,
0,
0,
0,
0,
0,
0,
0,
0,
0,
0,
0,
0,
0,
0,
0,
0,
0,
0,
0,
0,
0,
0,
0,
0,
0,
0,
0,
0,
0,
#ENDOFDATA   :