File: N132962/Quantification/20 keV/MMM2/SPI MM2 C[6][4].msa
#FORMAT      : EMSA/MAS Spectral Data File
#VERSION     : 1.0
#TITLE       : SPI MM2 C[6][all]
#DATE        : 13-MAR-2025
#TIME        : 14:28
#OWNER       : Unknown
#NPOINTS     : 4096
#NCOLUMNS    : 1
#XUNITS      : eV
#YUNITS      : counts
#DATATYPE    : Y
#XPERCHAN    : 9.99778
#OFFSET      : 1.69135
#BEAMKV      : 20
#SIGNALTYPE  : EDS
#ELEVANGLE   : 35
#AZIMANGLE   : 0
#LIVETIME    : 240.017
#REALTIME    : 250.916
#PROBECUR    : 1.02609
#TAUWIND     : 0
#TDEADLYR    : 0
#TACTLYR     : 0.045
#TALWIND     : 0.025
#CHOFFSET    : 0.0
#XLABEL      : Energy (eV)
#YLABEL      : Counts
#XPOSITION   : 3.27774
#YPOSITION   : 8.96736
#ZPOSITION   : 31.03511
#EDSDET      : SD
##SPECIMEN   : SPI MM2 C[6][all]
##D2STDCMP   : C,(C:100.0)
##DET_HASH   : 12273538-fd48-a23f-0a19-f1e6fa85caef
##CALIB_HASH : 6abaa72c-aa41-8738-0be9-f592914732f3
##WORKING    : 15.0 mm
##DET_NAME   : EDAX All
##DET_MODE   : MediumLE
#SPECTRUM    :
14,
29,
10,
57,
302,
1681,
11274,
91183,
379814,
521085,
216328,
27664,
1714,
494,
555,
784,
1674,
3233,
3220,
1800,
1051,
947,
1036,
1145,
1307,
1310,
1404,
1438,
1582,
1670,
1697,
1782,
1879,
1953,
1997,
2036,
2186,
2260,
2326,
2419,
2416,
2536,
2400,
2548,
2603,
2587,
2547,
2559,
2655,
2509,
2664,
2619,
2501,
2671,
2496,
2567,
2657,
2508,
2685,
2551,
2416,
2478,
2156,
2103,
2135,
2066,
2054,
1914,
1939,
1957,
1923,
1929,
1889,
1779,
1869,
1865,
1865,
1760,
1710,
1677,
1718,
1646,
1646,
1577,
1636,
1585,
1561,
1566,
1528,
1501,
1425,
1460,
1366,
1392,
1364,
1319,
1368,
1333,
1382,
1266,
1280,
1300,
1239,
1307,
1257,
1231,
1189,
1209,
1217,
1148,
1069,
1218,
1103,
1109,
1198,
1061,
1016,
1134,
1060,
1013,
1024,
1038,
1013,
956,
960,
1014,
966,
922,
908,
875,
930,
882,
854,
895,
895,
874,
847,
846,
842,
834,
849,
769,
853,
740,
793,
781,
740,
753,
757,
812,
722,
752,
691,
696,
716,
714,
671,
685,
759,
611,
665,
663,
664,
629,
632,
627,
675,
610,
630,
585,
591,
606,
595,
544,
643,
600,
589,
558,
531,
593,
608,
553,
506,
524,
597,
569,
509,
493,
504,
524,
515,
505,
536,
493,
512,
498,
474,
453,
453,
500,
442,
479,
448,
445,
441,
418,
461,
479,
427,
440,
453,
462,
478,
482,
479,
476,
429,
425,
444,
392,
397,
368,
380,
405,
355,
354,
352,
342,
354,
375,
397,
378,
325,
351,
320,
350,
343,
337,
353,
339,
336,
330,
293,
330,
318,
335,
320,
345,
364,
317,
310,
314,
279,
332,
310,
278,
285,
252,
306,
273,
284,
278,
258,
285,
262,
266,
251,
281,
250,
278,
270,
222,
267,
234,
260,
256,
255,
245,
274,
226,
237,
241,
244,
231,
219,
216,
240,
223,
240,
210,
226,
189,
202,
225,
188,
225,
198,
210,
202,
233,
237,
184,
195,
202,
204,
203,
186,
191,
191,
189,
205,
199,
183,
169,
178,
187,
165,
177,
177,
159,
168,
187,
163,
166,
162,
186,
176,
163,
156,
159,
160,
164,
163,
143,
140,
165,
168,
133,
140,
142,
135,
137,
135,
134,
146,
144,
136,
125,
143,
128,
139,
144,
111,
142,
137,
154,
107,
116,
136,
125,
123,
122,
118,
127,
128,
110,
114,
109,
115,
124,
96,
97,
98,
110,
104,
109,
98,
106,
103,
100,
102,
103,
115,
84,
86,
102,
110,
92,
98,
105,
93,
104,
82,
86,
78,
87,
100,
99,
73,
78,
70,
85,
72,
77,
95,
76,
83,
75,
76,
89,
64,
76,
85,
58,
51,
62,
70,
75,
75,
53,
62,
56,
53,
62,
54,
60,
66,
71,
62,
60,
54,
60,
71,
56,
61,
48,
42,
88,
54,
58,
62,
56,
50,
48,
55,
54,
47,
42,
53,
55,
53,
57,
52,
49,
45,
46,
39,
42,
37,
39,
54,
39,
35,
36,
43,
28,
46,
31,
33,
38,
49,
35,
41,
30,
31,
33,
31,
37,
35,
25,
38,
38,
30,
47,
35,
39,
31,
27,
26,
34,
30,
37,
24,
34,
38,
23,
23,
29,
27,
34,
25,
33,
27,
13,
25,
21,
20,
19,
20,
20,
19,
26,
18,
15,
19,
18,
9,
16,
15,
27,
22,
20,
12,
16,
19,
24,
17,
21,
28,
18,
19,
18,
17,
19,
19,
13,
9,
22,
15,
13,
14,
9,
11,
15,
15,
16,
11,
5,
10,
9,
11,
12,
11,
19,
7,
14,
6,
10,
10,
10,
9,
6,
6,
6,
12,
8,
7,
7,
11,
10,
7,
8,
10,
6,
8,
10,
10,
4,
10,
4,
8,
3,
14,
8,
7,
6,
3,
11,
5,
7,
11,
3,
6,
6,
1,
5,
5,
8,
6,
5,
3,
2,
6,
5,
4,
1,
5,
3,
2,
0,
4,
2,
5,
3,
4,
2,
6,
2,
6,
2,
3,
4,
1,
4,
4,
3,
2,
6,
3,
2,
5,
4,
0,
0,
2,
1,
3,
1,
3,
2,
2,
2,
0,
1,
0,
2,
1,
0,
1,
0,
0,
2,
0,
0,
0,
0,
1,
1,
1,
0,
0,
0,
0,
1,
0,
0,
0,
0,
0,
0,
0,
0,
0,
0,
0,
0,
0,
0,
0,
0,
0,
0,
0,
0,
1,
0,
0,
0,
0,
0,
0,
0,
0,
0,
0,
0,
0,
0,
0,
0,
0,
0,
0,
0,
0,
0,
0,
0,
0,
0,
0,
0,
0,
0,
0,
0,
0,
0,
0,
0,
0,
0,
0,
0,
0,
0,
0,
0,
0,
0,
0,
0,
0,
0,
0,
0,
0,
0,
0,
0,
0,
0,
0,
0,
0,
0,
0,
0,
0,
0,
0,
0,
0,
0,
0,
0,
0,
0,
0,
0,
0,
0,
0,
0,
0,
0,
0,
0,
0,
0,
0,
0,
0,
0,
0,
0,
0,
0,
0,
0,
0,
0,
0,
0,
0,
0,
0,
0,
0,
0,
0,
0,
0,
0,
0,
0,
0,
0,
0,
0,
0,
0,
0,
0,
0,
0,
0,
0,
0,
0,
0,
0,
0,
0,
0,
0,
0,
0,
0,
0,
0,
0,
0,
0,
0,
0,
0,
0,
0,
0,
0,
0,
0,
0,
0,
0,
0,
0,
0,
0,
0,
0,
0,
0,
0,
0,
0,
0,
0,
0,
0,
0,
0,
0,
0,
0,
0,
0,
0,
0,
0,
0,
0,
0,
0,
0,
0,
0,
0,
0,
0,
0,
0,
0,
0,
0,
0,
0,
0,
0,
0,
0,
0,
0,
0,
0,
0,
0,
0,
0,
0,
0,
0,
0,
0,
0,
0,
0,
0,
0,
0,
0,
0,
0,
0,
0,
0,
0,
0,
0,
0,
0,
0,
0,
0,
0,
0,
0,
0,
0,
0,
0,
0,
0,
0,
0,
0,
0,
0,
0,
0,
0,
0,
0,
0,
0,
0,
0,
0,
0,
0,
0,
0,
0,
0,
0,
0,
0,
0,
0,
0,
0,
0,
0,
0,
0,
0,
0,
0,
0,
0,
0,
0,
0,
0,
0,
0,
0,
0,
0,
0,
0,
0,
0,
0,
0,
0,
0,
0,
0,
0,
0,
0,
0,
0,
0,
0,
0,
0,
0,
0,
0,
0,
0,
0,
0,
0,
0,
0,
0,
0,
0,
0,
0,
0,
0,
0,
0,
0,
0,
0,
0,
0,
0,
0,
0,
0,
0,
0,
0,
0,
0,
0,
0,
0,
0,
0,
0,
0,
0,
0,
0,
0,
0,
0,
0,
0,
0,
0,
0,
0,
0,
0,
0,
0,
0,
0,
0,
0,
0,
0,
0,
0,
0,
0,
0,
0,
0,
0,
0,
0,
0,
0,
0,
0,
0,
0,
0,
0,
0,
0,
0,
0,
0,
0,
0,
0,
0,
0,
0,
0,
0,
0,
0,
0,
0,
0,
0,
0,
0,
0,
0,
0,
0,
0,
0,
0,
0,
0,
0,
0,
0,
0,
0,
0,
0,
0,
0,
0,
0,
0,
0,
0,
0,
0,
0,
0,
0,
0,
0,
0,
0,
0,
0,
0,
0,
0,
0,
0,
0,
0,
0,
0,
0,
0,
0,
0,
0,
0,
0,
0,
0,
0,
0,
0,
0,
0,
0,
0,
0,
0,
0,
0,
0,
0,
0,
0,
0,
0,
0,
0,
0,
0,
0,
0,
0,
0,
0,
0,
0,
0,
0,
0,
0,
0,
0,
0,
0,
0,
0,
0,
0,
0,
0,
0,
0,
0,
0,
0,
0,
0,
0,
0,
0,
0,
0,
0,
0,
0,
0,
0,
0,
0,
0,
0,
0,
0,
0,
0,
0,
0,
0,
0,
0,
0,
0,
0,
0,
0,
0,
0,
0,
0,
0,
0,
0,
0,
0,
0,
0,
0,
0,
0,
0,
0,
0,
0,
0,
0,
0,
0,
0,
0,
0,
0,
0,
0,
0,
0,
0,
0,
0,
0,
0,
0,
0,
0,
0,
0,
0,
0,
0,
0,
0,
0,
0,
0,
0,
0,
0,
0,
0,
0,
0,
0,
0,
0,
0,
0,
0,
0,
0,
0,
0,
0,
0,
0,
0,
0,
0,
0,
0,
0,
0,
0,
0,
0,
0,
0,
0,
0,
0,
0,
0,
0,
0,
0,
0,
0,
0,
0,
0,
0,
0,
0,
0,
0,
0,
0,
0,
0,
0,
0,
0,
0,
0,
0,
0,
0,
0,
0,
0,
0,
0,
0,
0,
0,
0,
0,
0,
0,
0,
0,
0,
0,
0,
0,
0,
0,
0,
0,
0,
0,
0,
0,
0,
0,
0,
0,
0,
0,
0,
0,
0,
0,
0,
#ENDOFDATA   :