File: N132962/Quantification/20 keV/MMM2/SPI MM2 Uvarovite[7][4].msa
#FORMAT      : EMSA/MAS Spectral Data File
#VERSION     : 1.0
#TITLE       : SPI MM2 Uvarovite[7][all]
#DATE        : 13-MAR-2025
#TIME        : 14:20
#OWNER       : Unknown
#NPOINTS     : 4096
#NCOLUMNS    : 1
#XUNITS      : eV
#YUNITS      : counts
#DATATYPE    : Y
#XPERCHAN    : 9.99778
#OFFSET      : 1.69135
#BEAMKV      : 20
#SIGNALTYPE  : EDS
#ELEVANGLE   : 35
#AZIMANGLE   : 0
#LIVETIME    : 239.901
#REALTIME    : 255.398
#PROBECUR    : 1.02609
#TAUWIND     : 0
#TDEADLYR    : 0
#TACTLYR     : 0.045
#TALWIND     : 0.025
#CHOFFSET    : 0.0
#XLABEL      : Energy (eV)
#YLABEL      : Counts
#XPOSITION   : 5.73154
#YPOSITION   : 6.40336
#ZPOSITION   : 31.03511
#EDSDET      : SD
##SPECIMEN   : SPI MM2 Uvarovite[7][all]
##DET_HASH   : 12273538-fd48-a23f-0a19-f1e6fa85caef
##CALIB_HASH : 6abaa72c-aa41-8738-0be9-f592914732f3
##WORKING    : 15.0 mm
##DET_NAME   : EDAX All
##DET_MODE   : MediumLE
#SPECTRUM    :
23,
29,
10,
12,
63,
292,
1012,
3145,
9426,
14102,
9737,
5052,
3186,
2814,
4126,
12668,
46323,
88858,
65650,
20019,
4612,
2281,
2173,
2580,
2624,
2223,
2195,
2214,
2447,
2634,
2615,
2699,
2848,
3015,
3201,
3301,
3374,
3418,
3573,
3702,
4004,
4044,
4246,
4263,
4518,
4397,
4905,
7159,
15113,
27365,
27742,
16559,
8380,
5869,
6032,
12625,
43610,
109015,
148301,
104961,
43435,
15881,
8380,
5345,
4696,
4616,
4271,
3635,
3437,
3347,
3318,
3251,
3273,
3471,
3460,
3608,
3624,
3457,
3469,
3298,
3177,
3198,
3314,
3223,
3250,
3204,
3132,
3202,
3064,
3191,
3100,
3078,
3061,
3094,
3087,
2988,
2888,
2992,
2998,
2888,
2911,
2886,
2936,
2885,
2969,
2836,
2840,
2940,
2895,
2873,
2847,
2688,
2645,
2654,
2703,
2882,
3125,
3528,
4372,
7639,
19845,
50270,
94107,
118648,
100026,
56192,
22123,
7477,
3485,
3030,
3694,
5872,
9989,
14962,
16454,
13081,
7878,
4094,
2500,
2094,
2054,
1981,
1972,
1866,
1729,
1848,
1880,
2308,
2993,
4075,
4846,
4662,
3602,
2626,
1995,
1815,
1740,
1654,
1770,
1723,
1694,
1765,
2023,
2170,
2582,
2605,
2333,
2100,
1822,
1677,
1618,
1620,
1707,
1600,
1820,
2038,
3324,
6902,
14491,
24907,
32261,
31164,
22595,
12285,
5591,
2745,
1724,
1528,
1546,
1368,
1418,
1464,
1434,
1594,
1912,
2497,
3516,
4736,
5208,
5059,
3751,
2593,
1744,
1438,
1239,
1138,
1095,
1184,
1240,
1299,
1581,
1995,
2511,
2795,
2847,
2268,
1703,
1366,
1221,
1113,
1099,
1061,
1050,
1047,
1036,
1032,
1062,
1039,
1042,
1023,
1084,
1069,
1076,
1123,
1200,
1219,
1192,
1147,
1122,
1089,
993,
910,
942,
915,
976,
1013,
1000,
960,
976,
1005,
937,
917,
896,
884,
868,
916,
834,
904,
843,
806,
862,
797,
836,
827,
845,
780,
787,
775,
836,
764,
769,
749,
803,
770,
752,
792,
770,
771,
735,
758,
744,
731,
760,
706,
709,
661,
695,
738,
735,
689,
707,
661,
671,
629,
685,
666,
650,
651,
658,
681,
645,
656,
612,
668,
636,
644,
643,
626,
601,
619,
640,
577,
571,
598,
576,
563,
574,
623,
583,
595,
552,
560,
585,
540,
508,
541,
535,
503,
496,
512,
539,
493,
536,
510,
473,
488,
468,
497,
465,
467,
469,
471,
468,
448,
409,
458,
440,
466,
461,
474,
404,
436,
438,
449,
443,
402,
429,
413,
398,
407,
393,
445,
377,
399,
371,
392,
422,
408,
361,
380,
390,
329,
397,
383,
381,
343,
334,
384,
361,
390,
377,
324,
340,
378,
337,
328,
331,
335,
300,
301,
331,
312,
304,
314,
284,
297,
289,
306,
260,
294,
289,
297,
250,
279,
269,
289,
290,
269,
232,
275,
266,
261,
268,
254,
236,
241,
250,
276,
255,
246,
229,
258,
247,
229,
248,
206,
226,
243,
216,
210,
240,
214,
205,
214,
210,
225,
224,
189,
209,
220,
203,
174,
192,
189,
190,
192,
184,
185,
186,
174,
219,
164,
186,
175,
183,
175,
174,
186,
167,
179,
151,
137,
139,
148,
144,
164,
165,
148,
147,
142,
147,
123,
138,
141,
126,
155,
129,
110,
141,
120,
156,
118,
133,
130,
136,
123,
124,
117,
122,
100,
102,
110,
104,
97,
95,
106,
136,
102,
83,
109,
87,
95,
101,
98,
97,
89,
104,
93,
98,
86,
89,
97,
98,
91,
66,
62,
92,
89,
79,
73,
91,
85,
78,
73,
60,
67,
70,
62,
73,
56,
82,
77,
67,
85,
65,
76,
71,
51,
66,
59,
57,
69,
58,
53,
57,
60,
62,
63,
41,
50,
46,
47,
50,
45,
47,
49,
45,
49,
45,
34,
59,
46,
34,
42,
53,
37,
46,
34,
34,
34,
39,
42,
43,
35,
40,
54,
37,
35,
26,
28,
41,
34,
33,
23,
29,
19,
35,
26,
28,
25,
28,
34,
27,
25,
17,
27,
28,
25,
32,
18,
25,
24,
16,
25,
20,
20,
19,
21,
24,
15,
23,
19,
20,
22,
19,
14,
9,
16,
17,
14,
14,
12,
16,
16,
10,
16,
15,
6,
11,
8,
6,
8,
7,
9,
7,
8,
14,
10,
12,
10,
6,
5,
8,
10,
4,
7,
3,
4,
6,
2,
0,
3,
3,
4,
1,
0,
5,
3,
1,
3,
1,
5,
6,
1,
2,
2,
0,
2,
1,
0,
0,
1,
0,
0,
0,
0,
2,
0,
1,
0,
0,
0,
1,
0,
0,
0,
0,
0,
1,
0,
2,
0,
0,
0,
2,
0,
0,
0,
0,
1,
1,
0,
1,
0,
0,
0,
0,
0,
0,
0,
0,
0,
0,
0,
0,
0,
1,
1,
0,
1,
0,
1,
0,
0,
0,
0,
0,
0,
0,
0,
0,
0,
0,
1,
0,
0,
0,
1,
0,
0,
0,
0,
0,
0,
0,
0,
0,
0,
0,
0,
0,
0,
0,
0,
0,
0,
0,
0,
0,
0,
0,
0,
0,
0,
0,
1,
1,
0,
0,
0,
0,
1,
0,
0,
0,
0,
0,
0,
0,
0,
0,
0,
0,
0,
0,
0,
0,
1,
0,
0,
0,
0,
0,
0,
0,
0,
0,
0,
0,
0,
1,
0,
0,
0,
0,
0,
0,
0,
0,
0,
0,
0,
0,
0,
0,
0,
0,
0,
0,
0,
0,
0,
0,
0,
0,
0,
0,
0,
0,
0,
0,
0,
0,
0,
0,
0,
0,
0,
0,
0,
0,
0,
0,
0,
0,
0,
0,
0,
0,
0,
0,
0,
1,
0,
0,
0,
0,
0,
0,
0,
0,
0,
0,
0,
0,
0,
0,
0,
0,
0,
0,
0,
0,
0,
0,
0,
0,
0,
0,
0,
0,
0,
0,
0,
0,
0,
0,
0,
0,
0,
0,
0,
0,
0,
0,
0,
0,
0,
0,
0,
0,
0,
0,
0,
0,
0,
0,
0,
0,
0,
0,
0,
0,
0,
0,
0,
0,
0,
0,
0,
0,
0,
0,
0,
0,
0,
0,
0,
0,
0,
0,
0,
1,
0,
0,
0,
0,
0,
0,
0,
0,
0,
0,
0,
0,
0,
0,
0,
0,
0,
0,
0,
0,
0,
0,
0,
0,
0,
0,
0,
0,
0,
0,
0,
0,
0,
0,
0,
0,
0,
0,
0,
0,
0,
0,
0,
0,
0,
0,
0,
0,
0,
1,
0,
0,
0,
0,
0,
0,
0,
0,
0,
0,
0,
0,
0,
0,
0,
0,
0,
0,
0,
0,
0,
0,
0,
0,
0,
0,
0,
0,
0,
0,
0,
0,
0,
0,
0,
0,
0,
0,
0,
0,
0,
0,
0,
0,
0,
0,
0,
0,
0,
0,
0,
0,
0,
0,
0,
0,
0,
0,
0,
0,
0,
0,
0,
0,
0,
0,
0,
0,
0,
0,
0,
0,
0,
0,
0,
0,
0,
0,
0,
0,
0,
0,
0,
0,
0,
0,
0,
0,
1,
0,
0,
0,
0,
0,
0,
0,
0,
0,
0,
0,
0,
0,
0,
0,
0,
0,
0,
0,
0,
0,
0,
0,
0,
0,
0,
0,
0,
0,
0,
0,
0,
0,
0,
0,
0,
0,
0,
0,
0,
0,
0,
0,
0,
0,
0,
0,
0,
0,
0,
0,
0,
0,
0,
0,
0,
0,
0,
0,
0,
0,
0,
0,
0,
0,
0,
0,
0,
0,
0,
0,
0,
0,
0,
0,
0,
0,
0,
0,
0,
0,
0,
0,
0,
0,
0,
0,
0,
0,
0,
0,
0,
0,
0,
0,
0,
0,
0,
0,
0,
0,
0,
0,
0,
0,
0,
0,
0,
0,
0,
0,
0,
0,
0,
0,
0,
0,
0,
0,
0,
0,
0,
0,
0,
0,
0,
0,
0,
0,
0,
0,
0,
0,
0,
0,
0,
0,
0,
0,
0,
0,
0,
0,
0,
0,
0,
0,
0,
0,
0,
0,
0,
0,
0,
0,
0,
0,
0,
0,
0,
0,
0,
0,
0,
0,
0,
0,
0,
0,
0,
0,
0,
0,
0,
0,
0,
0,
0,
0,
0,
0,
0,
0,
0,
0,
0,
0,
0,
0,
0,
0,
0,
0,
0,
0,
0,
0,
0,
0,
0,
0,
0,
0,
0,
0,
0,
0,
0,
0,
0,
0,
0,
0,
0,
0,
0,
0,
0,
0,
0,
0,
0,
0,
0,
0,
0,
0,
0,
0,
0,
0,
0,
0,
0,
0,
0,
0,
0,
0,
0,
0,
0,
0,
0,
0,
0,
0,
0,
0,
0,
0,
0,
0,
0,
0,
0,
0,
0,
0,
0,
0,
0,
0,
0,
0,
0,
0,
0,
0,
0,
0,
0,
0,
0,
0,
0,
0,
0,
0,
0,
0,
0,
0,
0,
0,
0,
0,
0,
0,
0,
0,
0,
0,
0,
#ENDOFDATA   :