File: N132962/Quantification/20 keV/MMM2/SPI MM2 Sphene[6][4].msa
#FORMAT      : EMSA/MAS Spectral Data File
#VERSION     : 1.0
#TITLE       : SPI MM2 Sphene[6][all]
#DATE        : 13-MAR-2025
#TIME        : 13:05
#OWNER       : Unknown
#NPOINTS     : 4096
#NCOLUMNS    : 1
#XUNITS      : eV
#YUNITS      : counts
#DATATYPE    : Y
#XPERCHAN    : 9.99778
#OFFSET      : 1.69135
#BEAMKV      : 20
#SIGNALTYPE  : EDS
#ELEVANGLE   : 35
#AZIMANGLE   : 0
#LIVETIME    : 239.906
#REALTIME    : 254.889
#PROBECUR    : 1.0263
#TAUWIND     : 0
#TDEADLYR    : 0
#TACTLYR     : 0.045
#TALWIND     : 0.025
#CHOFFSET    : 0.0
#XLABEL      : Energy (eV)
#YLABEL      : Counts
#XPOSITION   : 6.15798
#YPOSITION   : 3.81345
#ZPOSITION   : 31.03512
#EDSDET      : SD
##SPECIMEN   : SPI MM2 Sphene[6][all]
##DET_HASH   : 12273538-fd48-a23f-0a19-f1e6fa85caef
##CALIB_HASH : 6abaa72c-aa41-8738-0be9-f592914732f3
##WORKING    : 15.0 mm
##DET_NAME   : EDAX All
##DET_MODE   : MediumLE
#SPECTRUM    :
24,
21,
4,
13,
59,
283,
955,
3226,
9407,
14145,
9952,
6069,
5982,
7070,
7881,
12581,
33773,
63400,
46477,
12916,
2550,
1725,
1979,
2382,
2241,
2137,
2102,
2208,
2416,
2520,
2538,
2618,
2843,
2912,
3038,
3241,
3311,
3375,
3520,
3643,
3698,
3939,
4075,
4085,
4259,
4304,
4490,
5127,
6973,
9749,
9912,
7452,
5851,
5357,
5747,
11453,
38147,
95396,
130157,
92470,
38163,
14599,
8062,
5505,
4674,
4849,
4454,
3887,
3675,
3476,
3673,
3759,
3809,
3885,
3855,
3668,
3706,
3665,
3564,
3446,
3415,
3326,
3252,
3340,
3264,
3443,
3295,
3402,
3202,
3329,
3394,
3733,
3712,
3656,
3347,
3263,
3018,
3049,
3095,
3036,
2983,
3021,
2999,
2912,
2960,
2950,
2935,
2958,
2960,
2846,
2836,
2711,
2698,
2840,
2752,
2733,
3059,
3351,
4105,
7086,
17534,
43174,
81053,
102363,
86070,
49005,
19599,
6707,
3389,
2950,
3537,
5484,
8809,
13146,
14445,
11563,
6976,
3898,
2555,
2051,
2054,
1983,
2111,
2117,
2295,
2867,
5001,
11953,
28645,
53975,
72412,
67384,
44606,
21616,
8320,
3381,
2087,
1922,
1911,
2099,
2420,
3481,
5521,
8708,
11036,
10681,
8178,
4892,
2824,
1806,
1528,
1512,
1442,
1494,
1360,
1476,
1386,
1412,
1465,
1489,
1575,
1632,
1572,
1503,
1441,
1420,
1373,
1328,
1334,
1358,
1350,
1333,
1305,
1298,
1347,
1331,
1349,
1296,
1265,
1277,
1214,
1291,
1249,
1162,
1234,
1169,
1217,
1285,
1266,
1412,
1422,
1672,
1905,
2053,
2097,
1696,
1478,
1260,
1119,
1114,
1131,
1127,
1087,
1099,
1072,
1066,
1084,
1000,
1062,
1010,
1055,
1007,
1082,
1098,
1135,
1086,
1148,
1001,
1026,
984,
966,
977,
990,
1003,
958,
984,
1018,
963,
967,
914,
988,
968,
889,
899,
868,
907,
847,
844,
880,
855,
800,
783,
847,
856,
798,
831,
827,
746,
743,
815,
774,
776,
804,
866,
870,
844,
807,
771,
775,
752,
733,
717,
773,
789,
726,
749,
709,
748,
766,
678,
670,
736,
689,
699,
677,
673,
672,
664,
652,
661,
683,
656,
653,
618,
656,
620,
623,
581,
608,
598,
569,
595,
564,
556,
582,
600,
599,
613,
593,
553,
545,
593,
522,
569,
574,
532,
520,
531,
551,
539,
499,
563,
510,
492,
501,
497,
495,
473,
495,
476,
485,
480,
479,
488,
481,
478,
462,
432,
456,
456,
449,
459,
397,
436,
461,
411,
450,
467,
452,
394,
416,
418,
434,
387,
403,
413,
383,
378,
420,
416,
366,
375,
404,
361,
369,
374,
331,
363,
369,
331,
352,
349,
326,
341,
319,
322,
352,
336,
301,
326,
333,
300,
284,
336,
319,
298,
295,
292,
294,
294,
281,
308,
318,
314,
281,
250,
299,
267,
296,
268,
263,
277,
265,
281,
240,
234,
298,
261,
262,
246,
214,
236,
246,
247,
258,
210,
263,
227,
226,
205,
195,
217,
231,
209,
217,
212,
214,
184,
198,
217,
221,
197,
193,
197,
224,
187,
193,
177,
190,
206,
159,
180,
157,
173,
175,
162,
166,
165,
166,
197,
152,
175,
168,
169,
158,
160,
135,
134,
136,
125,
131,
136,
154,
166,
129,
122,
135,
118,
125,
108,
144,
133,
123,
139,
144,
123,
110,
145,
145,
119,
107,
129,
120,
113,
119,
105,
108,
110,
113,
109,
100,
112,
109,
92,
109,
96,
80,
85,
105,
102,
92,
101,
100,
84,
87,
91,
82,
77,
95,
82,
88,
74,
66,
81,
73,
82,
71,
61,
76,
73,
68,
65,
82,
55,
54,
69,
61,
59,
73,
54,
62,
62,
58,
54,
46,
51,
49,
54,
43,
57,
54,
60,
69,
38,
52,
54,
53,
52,
65,
43,
44,
42,
39,
45,
55,
30,
47,
43,
35,
32,
45,
46,
39,
37,
30,
25,
28,
44,
32,
26,
37,
33,
26,
26,
18,
32,
27,
35,
30,
29,
20,
33,
28,
31,
25,
24,
23,
25,
25,
23,
22,
19,
14,
19,
22,
24,
18,
23,
27,
13,
11,
14,
19,
10,
13,
12,
20,
9,
9,
20,
10,
11,
17,
7,
13,
10,
10,
11,
14,
8,
10,
8,
8,
6,
11,
7,
6,
4,
10,
4,
10,
8,
6,
8,
7,
3,
4,
6,
6,
1,
2,
5,
3,
4,
5,
0,
5,
1,
2,
3,
0,
3,
1,
2,
0,
1,
1,
1,
0,
0,
0,
5,
0,
0,
0,
1,
0,
0,
1,
0,
0,
1,
0,
0,
0,
1,
1,
1,
0,
0,
0,
1,
1,
0,
0,
2,
0,
2,
0,
0,
0,
0,
0,
0,
0,
0,
0,
0,
1,
1,
1,
1,
0,
0,
0,
0,
0,
0,
0,
0,
0,
0,
0,
1,
0,
0,
0,
0,
0,
0,
0,
0,
0,
0,
0,
0,
0,
0,
0,
1,
0,
0,
0,
0,
0,
0,
0,
0,
0,
1,
0,
0,
2,
0,
0,
0,
0,
0,
0,
0,
0,
0,
0,
0,
0,
0,
1,
0,
0,
0,
0,
0,
0,
0,
0,
1,
0,
0,
0,
0,
0,
0,
0,
0,
0,
0,
0,
0,
0,
0,
0,
0,
0,
0,
0,
0,
0,
0,
0,
0,
0,
0,
1,
0,
0,
0,
0,
0,
0,
0,
0,
0,
0,
0,
0,
0,
1,
0,
0,
0,
0,
0,
0,
0,
0,
0,
0,
0,
0,
0,
0,
0,
0,
0,
0,
0,
0,
0,
0,
0,
0,
0,
0,
0,
0,
0,
0,
0,
0,
0,
0,
0,
0,
0,
0,
0,
0,
0,
0,
0,
0,
0,
0,
0,
0,
0,
0,
0,
0,
0,
0,
0,
0,
0,
0,
0,
0,
0,
0,
0,
0,
0,
0,
0,
0,
0,
0,
0,
0,
0,
0,
0,
0,
0,
0,
0,
0,
0,
0,
0,
0,
0,
0,
0,
0,
1,
0,
0,
0,
0,
0,
0,
0,
0,
0,
0,
0,
0,
0,
0,
0,
0,
0,
0,
0,
0,
0,
0,
0,
0,
0,
0,
0,
0,
0,
0,
0,
0,
0,
0,
0,
0,
0,
0,
0,
0,
0,
0,
0,
0,
0,
0,
0,
0,
1,
0,
0,
0,
0,
0,
0,
0,
0,
0,
0,
0,
0,
0,
0,
0,
0,
0,
0,
0,
0,
0,
0,
0,
0,
0,
0,
0,
0,
0,
0,
0,
0,
0,
0,
0,
0,
0,
0,
0,
0,
1,
0,
0,
0,
0,
0,
0,
0,
0,
0,
0,
0,
0,
0,
0,
0,
0,
0,
0,
0,
0,
0,
0,
0,
0,
0,
0,
0,
0,
0,
0,
0,
0,
0,
0,
0,
0,
0,
0,
0,
0,
0,
0,
0,
0,
0,
0,
0,
0,
0,
0,
0,
0,
0,
0,
0,
0,
0,
0,
0,
0,
0,
0,
0,
0,
0,
0,
0,
0,
0,
0,
0,
0,
0,
0,
0,
0,
0,
0,
0,
0,
0,
0,
0,
0,
0,
0,
0,
0,
0,
0,
0,
0,
0,
0,
0,
0,
0,
0,
0,
0,
0,
0,
0,
0,
0,
0,
0,
0,
0,
0,
0,
0,
0,
0,
0,
0,
0,
0,
0,
0,
0,
0,
0,
0,
0,
0,
0,
0,
0,
0,
0,
0,
0,
0,
0,
0,
0,
0,
0,
0,
0,
0,
0,
0,
0,
0,
0,
0,
0,
0,
0,
0,
0,
0,
0,
0,
0,
0,
0,
0,
0,
0,
0,
0,
0,
0,
0,
0,
0,
0,
0,
0,
0,
0,
0,
0,
0,
0,
0,
0,
0,
0,
0,
0,
0,
0,
0,
0,
0,
0,
0,
0,
0,
0,
0,
0,
0,
0,
0,
0,
0,
0,
0,
0,
0,
0,
0,
0,
0,
0,
0,
0,
0,
0,
0,
0,
0,
0,
0,
0,
0,
0,
0,
0,
0,
0,
0,
0,
0,
0,
0,
0,
0,
0,
0,
0,
0,
0,
0,
0,
0,
0,
0,
0,
0,
0,
0,
0,
0,
0,
0,
0,
0,
0,
0,
0,
0,
0,
0,
0,
0,
0,
0,
0,
0,
0,
0,
0,
0,
0,
0,
0,
0,
0,
0,
0,
0,
0,
0,
0,
0,
0,
0,
0,
0,
0,
0,
0,
0,
0,
0,
0,
0,
0,
0,
0,
0,
0,
0,
0,
0,
0,
0,
0,
0,
0,
0,
0,
0,
0,
0,
0,
0,
0,
0,
0,
0,
0,
0,
0,
0,
0,
0,
0,
0,
0,
0,
0,
0,
0,
0,
0,
0,
0,
0,
0,
0,
0,
0,
0,
0,
0,
0,
0,
0,
0,
0,
0,
0,
0,
0,
0,
0,
0,
0,
0,
0,
0,
0,
0,
0,
0,
0,
0,
0,
0,
0,
0,
0,
0,
#ENDOFDATA   :