File: N132962/Quantification/20 keV/MMM2/SPI MM2 SPI Phlogpite[1][4].msa
#FORMAT      : EMSA/MAS Spectral Data File
#VERSION     : 1.0
#TITLE       : SPI MM2 SPI Phlogpite[1][all]
#DATE        : 13-MAR-2025
#TIME        : 10:42
#OWNER       : Unknown
#NPOINTS     : 4096
#NCOLUMNS    : 1
#XUNITS      : eV
#YUNITS      : counts
#DATATYPE    : Y
#XPERCHAN    : 9.99778
#OFFSET      : 1.69135
#BEAMKV      : 20
#SIGNALTYPE  : EDS
#ELEVANGLE   : 35
#AZIMANGLE   : 0
#LIVETIME    : 239.785
#REALTIME    : 254.637
#PROBECUR    : 1.02606
#TAUWIND     : 0
#TDEADLYR    : 0
#TACTLYR     : 0.045
#TALWIND     : 0.025
#CHOFFSET    : 0.0
#XLABEL      : Energy (eV)
#YLABEL      : Counts
#XPOSITION   : 1.49522
#YPOSITION   : -0.38196
#ZPOSITION   : 31.0351
#EDSDET      : SD
##SPECIMEN   : SPI MM2 SPI Phlogpite[1][all]
##D2STDCMP   : SPI Phlogpite,(H:0.48),(O:46.01),(Mg:17.47),(Al:6.47),(Si:20.19),(K:9.37)
##DET_HASH   : 12273538-fd48-a23f-0a19-f1e6fa85caef
##CALIB_HASH : 6abaa72c-aa41-8738-0be9-f592914732f3
##WORKING    : 15.0 mm
##DET_NAME   : EDAX All
##DET_MODE   : MediumLE
#SPECTRUM    :
25,
18,
9,
18,
71,
310,
935,
3219,
9038,
11550,
5771,
2624,
2432,
2998,
5192,
19209,
77711,
151542,
111133,
29751,
4993,
3429,
4944,
6893,
6365,
3704,
2695,
2685,
2798,
2854,
2853,
2989,
3412,
4478,
6427,
6954,
5376,
4528,
5150,
10479,
36658,
90305,
108639,
61929,
18977,
5878,
4690,
8446,
24461,
47285,
48234,
26484,
10512,
5720,
5142,
10979,
40235,
102874,
139326,
99283,
40577,
14419,
6972,
4078,
2757,
2470,
2513,
2484,
2583,
2439,
2444,
2468,
2537,
2545,
2693,
2828,
2735,
2589,
2608,
2568,
2368,
2493,
2499,
2446,
2557,
2592,
2485,
2461,
2409,
2491,
2426,
2485,
2399,
2376,
2499,
2373,
2481,
2415,
2364,
2459,
2506,
2487,
2338,
2373,
2382,
2706,
3088,
5170,
11878,
24506,
37045,
37353,
24720,
11552,
4676,
2628,
2590,
3179,
4501,
5787,
6246,
5007,
3363,
2506,
2004,
1928,
1842,
1843,
1797,
1826,
1806,
1764,
1760,
1720,
1728,
1638,
1776,
1737,
1721,
1636,
1670,
1635,
1641,
1652,
1569,
1681,
1712,
2041,
2509,
2672,
2607,
2319,
1945,
1768,
1546,
1583,
1535,
1396,
1560,
1686,
1853,
1826,
1808,
1658,
1634,
1471,
1542,
1413,
1453,
1464,
1392,
1566,
1468,
1383,
1321,
1239,
1317,
1234,
1293,
1210,
1276,
1319,
1263,
1271,
1199,
1214,
1201,
1217,
1122,
1073,
1153,
1183,
1131,
1161,
1278,
1373,
1365,
1351,
1329,
1200,
1128,
1085,
1085,
1007,
1029,
1055,
966,
1106,
1292,
1846,
3172,
5561,
8149,
9735,
9079,
6923,
4111,
2283,
1379,
1075,
1048,
948,
894,
922,
902,
906,
919,
921,
893,
924,
960,
1094,
1281,
1567,
1803,
1915,
1805,
1500,
1162,
1003,
843,
770,
793,
782,
792,
821,
798,
832,
839,
852,
795,
841,
794,
718,
724,
668,
658,
661,
709,
687,
697,
737,
632,
702,
659,
671,
689,
660,
657,
624,
657,
614,
667,
670,
638,
650,
655,
581,
607,
598,
617,
582,
632,
574,
563,
597,
595,
580,
565,
554,
562,
541,
545,
582,
492,
505,
547,
515,
522,
533,
494,
513,
498,
501,
491,
508,
463,
505,
473,
483,
484,
493,
452,
476,
452,
476,
427,
425,
437,
457,
443,
471,
463,
450,
408,
448,
468,
426,
427,
430,
453,
421,
452,
432,
405,
420,
398,
443,
394,
400,
400,
390,
376,
387,
380,
370,
353,
357,
371,
330,
304,
297,
328,
326,
326,
322,
335,
343,
322,
301,
299,
316,
303,
294,
324,
281,
302,
290,
326,
307,
290,
288,
295,
275,
280,
294,
278,
277,
287,
266,
285,
279,
268,
263,
265,
242,
261,
252,
269,
252,
261,
217,
258,
258,
235,
237,
223,
226,
222,
200,
216,
187,
216,
214,
220,
228,
198,
203,
229,
218,
215,
218,
188,
235,
207,
208,
218,
179,
174,
165,
195,
194,
177,
191,
194,
172,
184,
182,
159,
178,
170,
167,
181,
155,
183,
138,
155,
183,
152,
131,
148,
143,
136,
144,
158,
132,
136,
146,
135,
155,
123,
132,
129,
138,
135,
125,
127,
124,
118,
124,
124,
134,
103,
105,
103,
125,
123,
105,
121,
131,
105,
105,
130,
111,
91,
109,
76,
100,
108,
91,
100,
91,
93,
93,
94,
100,
88,
84,
82,
84,
76,
89,
87,
68,
91,
71,
74,
84,
79,
83,
72,
74,
85,
70,
69,
86,
70,
65,
76,
67,
66,
69,
79,
68,
74,
58,
57,
60,
62,
66,
61,
70,
51,
53,
56,
78,
47,
58,
62,
59,
55,
51,
47,
54,
53,
54,
36,
29,
39,
50,
55,
40,
42,
35,
43,
45,
46,
34,
34,
43,
39,
38,
35,
50,
43,
30,
26,
33,
52,
25,
29,
44,
29,
30,
40,
46,
28,
36,
36,
29,
23,
30,
21,
30,
18,
26,
25,
20,
19,
23,
22,
20,
20,
18,
21,
22,
11,
19,
24,
24,
24,
16,
20,
19,
17,
24,
15,
11,
19,
15,
16,
13,
12,
13,
14,
16,
13,
9,
18,
12,
8,
16,
7,
14,
12,
16,
13,
11,
12,
8,
17,
10,
10,
8,
7,
3,
5,
7,
6,
9,
5,
13,
10,
4,
9,
6,
6,
9,
6,
12,
6,
5,
3,
4,
5,
1,
4,
1,
7,
2,
6,
2,
4,
2,
2,
0,
3,
1,
1,
1,
3,
0,
0,
2,
2,
0,
0,
0,
0,
0,
0,
0,
1,
0,
1,
0,
0,
1,
0,
0,
0,
0,
0,
1,
0,
0,
0,
0,
0,
0,
0,
0,
0,
0,
0,
0,
1,
0,
0,
0,
0,
0,
0,
0,
0,
0,
1,
0,
0,
0,
0,
0,
0,
0,
0,
0,
0,
0,
0,
0,
0,
0,
0,
0,
0,
0,
0,
0,
0,
0,
0,
0,
0,
0,
0,
0,
1,
0,
0,
0,
0,
0,
0,
0,
0,
0,
0,
0,
0,
0,
0,
0,
0,
0,
0,
0,
0,
0,
0,
0,
0,
0,
0,
1,
0,
0,
0,
0,
0,
0,
0,
0,
1,
0,
0,
0,
0,
0,
0,
0,
0,
0,
1,
0,
0,
1,
0,
0,
0,
0,
0,
0,
0,
0,
0,
0,
0,
0,
0,
0,
0,
0,
0,
0,
0,
0,
0,
0,
0,
0,
0,
0,
0,
0,
0,
0,
0,
0,
0,
0,
0,
0,
1,
0,
0,
0,
0,
0,
0,
0,
0,
0,
0,
0,
0,
0,
0,
0,
0,
0,
0,
0,
0,
0,
0,
0,
0,
0,
0,
0,
0,
0,
0,
0,
0,
0,
0,
0,
0,
0,
0,
0,
0,
0,
0,
0,
0,
0,
0,
0,
0,
0,
0,
0,
0,
0,
0,
0,
0,
0,
0,
0,
0,
0,
0,
0,
0,
0,
0,
0,
0,
0,
0,
0,
0,
0,
0,
0,
0,
0,
0,
0,
0,
0,
0,
0,
0,
0,
0,
0,
0,
0,
0,
0,
0,
0,
0,
0,
0,
0,
0,
0,
0,
0,
0,
0,
0,
0,
0,
0,
0,
0,
0,
0,
0,
0,
0,
0,
0,
0,
0,
0,
0,
0,
0,
0,
0,
0,
0,
0,
0,
0,
0,
0,
0,
0,
0,
0,
0,
1,
0,
0,
0,
0,
0,
0,
0,
0,
0,
0,
0,
0,
0,
0,
0,
0,
0,
0,
0,
0,
0,
0,
0,
0,
0,
0,
0,
0,
0,
0,
0,
0,
0,
0,
0,
0,
0,
0,
0,
0,
0,
0,
0,
0,
0,
0,
0,
0,
0,
0,
0,
0,
0,
0,
0,
0,
0,
0,
0,
0,
0,
0,
0,
0,
0,
0,
0,
0,
0,
0,
0,
0,
0,
0,
0,
0,
0,
0,
0,
0,
0,
0,
0,
0,
0,
0,
0,
0,
0,
0,
0,
0,
0,
0,
0,
0,
0,
0,
0,
0,
0,
0,
0,
0,
0,
0,
0,
0,
0,
0,
0,
0,
0,
0,
0,
0,
0,
0,
0,
0,
0,
0,
0,
0,
0,
0,
0,
0,
0,
0,
0,
0,
0,
0,
0,
0,
0,
0,
0,
0,
0,
0,
0,
0,
0,
0,
0,
0,
0,
0,
0,
0,
0,
0,
0,
0,
0,
0,
0,
0,
0,
0,
0,
0,
0,
0,
0,
0,
0,
0,
0,
0,
0,
0,
0,
0,
0,
0,
0,
0,
0,
0,
0,
0,
0,
0,
0,
0,
0,
0,
0,
0,
0,
0,
0,
0,
0,
0,
0,
0,
0,
0,
0,
0,
0,
0,
0,
0,
0,
0,
0,
0,
0,
0,
0,
0,
0,
0,
0,
0,
0,
0,
0,
0,
0,
0,
0,
0,
0,
0,
0,
0,
0,
0,
0,
0,
0,
0,
0,
0,
0,
0,
0,
0,
0,
0,
0,
0,
0,
0,
0,
0,
0,
0,
0,
0,
0,
0,
0,
0,
0,
0,
0,
0,
0,
0,
0,
0,
0,
0,
0,
0,
0,
0,
0,
0,
0,
0,
0,
0,
0,
0,
0,
0,
0,
0,
0,
0,
0,
0,
0,
0,
0,
0,
0,
0,
0,
0,
0,
0,
0,
0,
0,
0,
0,
0,
0,
0,
0,
0,
0,
0,
0,
0,
0,
0,
0,
0,
0,
0,
0,
0,
0,
0,
0,
0,
0,
0,
0,
0,
0,
0,
0,
0,
0,
0,
0,
0,
0,
0,
0,
0,
0,
0,
0,
0,
0,
0,
0,
0,
0,
0,
0,
0,
0,
0,
0,
0,
0,
0,
0,
0,
0,
0,
0,
0,
0,
0,
0,
0,
0,
0,
0,
0,
0,
0,
0,
0,
0,
0,
0,
0,
0,
0,
0,
0,
0,
0,
0,
0,
0,
0,
0,
0,
0,
0,
0,
0,
0,
0,
0,
0,
0,
0,
0,
0,
#ENDOFDATA   :