File: N132962/Quantification/20 keV/MMM2/SPI MM2 SPI Magnetite[7][4].msa
#FORMAT      : EMSA/MAS Spectral Data File
#VERSION     : 1.0
#TITLE       : SPI MM2 SPI Magnetite[7][all]
#DATE        : 13-MAR-2025
#TIME        : 09:26
#OWNER       : Unknown
#NPOINTS     : 4096
#NCOLUMNS    : 1
#XUNITS      : eV
#YUNITS      : counts
#DATATYPE    : Y
#XPERCHAN    : 9.99778
#OFFSET      : 1.69135
#BEAMKV      : 20
#SIGNALTYPE  : EDS
#ELEVANGLE   : 35
#AZIMANGLE   : 0
#LIVETIME    : 239.868
#REALTIME    : 256.75
#PROBECUR    : 1.02582
#TAUWIND     : 0
#TDEADLYR    : 0
#TACTLYR     : 0.045
#TALWIND     : 0.025
#CHOFFSET    : 0.0
#XLABEL      : Energy (eV)
#YLABEL      : Counts
#XPOSITION   : 3.90276
#YPOSITION   : -4.09581
#ZPOSITION   : 31.03509
#EDSDET      : SD
##SPECIMEN   : SPI MM2 SPI Magnetite[7][all]
##D2STDCMP   : SPI Magnetite,(O:27.53),(Si:0.01),(Mn:0.18),(Fe:71.88)
##DET_HASH   : 12273538-fd48-a23f-0a19-f1e6fa85caef
##CALIB_HASH : 6abaa72c-aa41-8738-0be9-f592914732f3
##WORKING    : 15.0 mm
##DET_NAME   : EDAX All
##DET_MODE   : MediumLE
#SPECTRUM    :
23,
25,
9,
17,
102,
454,
1335,
3827,
10348,
13191,
7489,
4589,
5141,
6070,
9416,
26494,
94245,
179830,
132008,
42869,
23503,
22643,
29317,
48721,
42144,
16585,
4894,
2736,
2283,
2241,
2133,
2182,
2573,
3471,
3930,
3407,
3024,
2872,
2958,
2986,
3161,
3302,
3337,
3369,
3398,
3563,
3717,
4122,
5006,
6269,
6258,
5248,
4433,
4389,
4252,
4438,
4587,
4750,
5070,
5032,
5025,
4769,
4391,
4240,
4303,
4298,
4306,
4342,
4321,
4262,
4312,
4333,
4292,
4450,
4343,
4488,
4308,
4293,
4321,
4274,
4414,
4266,
4250,
4354,
4223,
4290,
4305,
4312,
4248,
4196,
4080,
4168,
4164,
4183,
4178,
4043,
4093,
4105,
4030,
3991,
3877,
3971,
3914,
3978,
3945,
3822,
3898,
3774,
3810,
3780,
3742,
3684,
3736,
3693,
3693,
3697,
3603,
3538,
3545,
3472,
3493,
3445,
3482,
3375,
3390,
3493,
3285,
3233,
3241,
3257,
3247,
3238,
3191,
3252,
3193,
3225,
3114,
3033,
3099,
2985,
3006,
3024,
2996,
2995,
2970,
2923,
2934,
2872,
2993,
3039,
3114,
3118,
3125,
3115,
3183,
3231,
3049,
2921,
2781,
2728,
2718,
2672,
2638,
2608,
2605,
2692,
2646,
2559,
2534,
2495,
2424,
2430,
2499,
2436,
2427,
2415,
2375,
2376,
2487,
2372,
2407,
2386,
2414,
2330,
2307,
2373,
2298,
2187,
2167,
2159,
2121,
2133,
2195,
2197,
2350,
2598,
2694,
2720,
2560,
2253,
2142,
2116,
2146,
2192,
2203,
2341,
2596,
3317,
5997,
14679,
35698,
72347,
115231,
140758,
131419,
94854,
52650,
23173,
8830,
3673,
2232,
1915,
1915,
1915,
1846,
1850,
1885,
1992,
2181,
2479,
3129,
4772,
7713,
12515,
17139,
19433,
17431,
12804,
7806,
4152,
2261,
1576,
1320,
1215,
1239,
1234,
1241,
1311,
1301,
1320,
1301,
1334,
1269,
1258,
1233,
1140,
1227,
1173,
1129,
1154,
1188,
1116,
1159,
1158,
1212,
1169,
1114,
1085,
1090,
1060,
1092,
1150,
1066,
1106,
1062,
1041,
1033,
1018,
990,
1045,
1032,
1033,
1009,
1038,
1119,
1173,
1162,
1237,
1240,
1233,
1114,
1040,
1067,
1036,
930,
935,
997,
953,
902,
933,
893,
930,
911,
921,
961,
905,
897,
915,
854,
845,
843,
876,
885,
817,
838,
812,
869,
846,
890,
782,
863,
879,
848,
846,
813,
804,
800,
802,
812,
751,
733,
763,
759,
747,
734,
751,
732,
750,
776,
713,
805,
744,
705,
722,
643,
694,
646,
696,
689,
643,
666,
689,
697,
661,
672,
655,
627,
663,
611,
609,
592,
565,
614,
637,
636,
606,
661,
555,
616,
552,
594,
620,
604,
580,
586,
549,
537,
559,
558,
569,
516,
545,
544,
553,
552,
532,
520,
484,
520,
514,
509,
483,
462,
484,
482,
467,
497,
469,
469,
464,
490,
432,
471,
430,
429,
437,
423,
415,
408,
405,
398,
421,
390,
385,
401,
396,
377,
389,
422,
391,
401,
423,
376,
421,
428,
437,
429,
473,
407,
409,
403,
347,
355,
371,
335,
357,
325,
363,
296,
341,
311,
298,
315,
346,
345,
301,
317,
317,
326,
290,
325,
310,
275,
297,
273,
285,
284,
240,
277,
296,
259,
249,
236,
258,
237,
217,
244,
245,
265,
254,
232,
208,
252,
215,
246,
209,
244,
235,
207,
203,
222,
228,
213,
213,
192,
221,
187,
183,
215,
195,
178,
187,
192,
188,
197,
175,
207,
213,
147,
180,
195,
147,
150,
155,
163,
190,
159,
131,
159,
151,
152,
137,
148,
134,
135,
148,
139,
149,
151,
129,
147,
141,
126,
154,
135,
109,
136,
98,
122,
90,
134,
132,
115,
137,
98,
108,
116,
114,
91,
100,
105,
90,
88,
99,
111,
99,
86,
94,
103,
104,
95,
94,
83,
84,
84,
66,
84,
78,
84,
83,
69,
62,
71,
69,
67,
70,
67,
58,
69,
83,
71,
60,
71,
72,
59,
61,
67,
72,
58,
53,
51,
55,
53,
45,
65,
50,
54,
46,
43,
55,
52,
39,
49,
41,
48,
35,
49,
36,
44,
39,
35,
37,
35,
38,
39,
26,
33,
37,
22,
46,
21,
25,
25,
34,
24,
31,
20,
32,
34,
21,
29,
16,
24,
25,
17,
22,
17,
22,
20,
22,
21,
17,
18,
17,
15,
12,
9,
14,
17,
6,
10,
4,
13,
8,
11,
14,
12,
7,
8,
9,
8,
6,
6,
5,
5,
6,
3,
7,
8,
3,
5,
1,
1,
4,
3,
1,
1,
1,
3,
1,
0,
4,
2,
1,
1,
2,
2,
1,
1,
1,
0,
0,
1,
1,
3,
1,
0,
1,
0,
0,
2,
1,
0,
2,
0,
3,
0,
2,
1,
0,
0,
1,
1,
0,
2,
0,
0,
0,
1,
0,
0,
0,
0,
0,
1,
0,
0,
2,
0,
1,
1,
0,
2,
0,
0,
0,
0,
1,
0,
0,
1,
0,
1,
1,
0,
0,
0,
0,
1,
0,
0,
0,
1,
0,
1,
0,
1,
0,
0,
2,
0,
0,
0,
0,
1,
1,
0,
1,
0,
1,
0,
1,
1,
0,
0,
0,
0,
3,
0,
0,
0,
0,
0,
0,
0,
0,
0,
0,
3,
0,
1,
2,
0,
0,
0,
0,
0,
0,
0,
0,
1,
0,
2,
0,
1,
0,
1,
0,
0,
0,
2,
0,
0,
0,
0,
0,
0,
0,
0,
0,
0,
0,
0,
0,
0,
0,
0,
0,
0,
0,
0,
1,
0,
0,
0,
0,
0,
1,
0,
1,
0,
1,
0,
0,
0,
0,
0,
0,
0,
0,
0,
0,
0,
0,
0,
0,
0,
0,
0,
0,
1,
1,
0,
0,
1,
1,
0,
0,
0,
1,
1,
0,
0,
0,
0,
0,
0,
1,
0,
0,
0,
0,
0,
0,
1,
0,
0,
1,
0,
0,
0,
0,
1,
0,
1,
0,
0,
0,
0,
0,
0,
0,
0,
1,
0,
0,
0,
0,
0,
1,
0,
0,
0,
0,
0,
0,
0,
0,
0,
0,
0,
0,
0,
0,
0,
0,
0,
0,
0,
0,
0,
0,
0,
0,
0,
0,
0,
0,
0,
0,
0,
0,
0,
0,
0,
0,
0,
0,
0,
0,
0,
0,
0,
0,
0,
0,
0,
0,
0,
0,
0,
0,
0,
0,
0,
0,
0,
0,
0,
0,
0,
1,
0,
0,
0,
0,
0,
0,
0,
0,
0,
0,
0,
0,
0,
0,
0,
0,
0,
0,
0,
0,
0,
0,
0,
0,
0,
0,
0,
0,
0,
0,
0,
0,
0,
0,
0,
0,
0,
0,
0,
0,
0,
0,
0,
0,
0,
0,
0,
0,
0,
0,
0,
0,
0,
0,
0,
0,
0,
0,
0,
0,
0,
0,
0,
0,
0,
0,
0,
0,
0,
0,
0,
0,
0,
0,
0,
0,
0,
0,
0,
0,
0,
0,
0,
0,
0,
0,
0,
0,
0,
0,
0,
0,
0,
0,
0,
0,
0,
0,
0,
0,
0,
0,
0,
0,
0,
0,
0,
0,
0,
0,
0,
0,
0,
0,
0,
0,
0,
0,
0,
0,
0,
0,
0,
0,
0,
0,
0,
0,
0,
0,
0,
0,
0,
0,
0,
0,
0,
0,
0,
0,
0,
0,
0,
0,
0,
0,
0,
0,
0,
0,
0,
0,
0,
0,
0,
0,
0,
0,
0,
0,
0,
0,
0,
0,
0,
0,
0,
0,
0,
0,
0,
0,
0,
0,
0,
0,
0,
0,
0,
0,
0,
0,
0,
0,
0,
0,
0,
0,
0,
0,
0,
0,
0,
0,
0,
0,
0,
0,
0,
0,
0,
0,
0,
0,
0,
0,
0,
0,
0,
0,
0,
0,
0,
0,
0,
0,
0,
0,
0,
0,
0,
0,
0,
0,
0,
0,
0,
0,
0,
0,
0,
0,
0,
0,
0,
0,
0,
0,
0,
0,
0,
0,
0,
0,
0,
0,
0,
0,
0,
0,
0,
0,
0,
0,
0,
0,
0,
0,
0,
0,
0,
0,
0,
0,
0,
0,
0,
0,
0,
0,
0,
0,
0,
0,
0,
0,
0,
0,
0,
0,
0,
0,
0,
0,
0,
0,
0,
0,
0,
0,
0,
0,
0,
0,
0,
0,
0,
0,
0,
0,
0,
0,
0,
0,
0,
0,
0,
0,
0,
0,
0,
0,
0,
0,
0,
0,
0,
0,
0,
0,
0,
0,
0,
0,
0,
0,
0,
0,
0,
0,
0,
0,
0,
0,
0,
0,
0,
0,
0,
0,
0,
0,
0,
0,
0,
0,
0,
0,
0,
0,
0,
0,
0,
0,
0,
0,
0,
0,
0,
0,
0,
0,
0,
0,
0,
0,
0,
0,
0,
0,
0,
0,
0,
0,
0,
0,
0,
0,
0,
0,
0,
0,
0,
0,
0,
0,
0,
0,
0,
0,
0,
0,
0,
0,
0,
0,
0,
0,
0,
0,
0,
0,
0,
0,
#ENDOFDATA   :