File: N132962/Quantification/20 keV/MMM2/SPI MM2 Stibnite[1][4].msa
#FORMAT      : EMSA/MAS Spectral Data File
#VERSION     : 1.0
#TITLE       : SPI MM2 Stibnite[1][all]
#DATE        : 13-MAR-2025
#TIME        : 13:17
#OWNER       : Unknown
#NPOINTS     : 4096
#NCOLUMNS    : 1
#XUNITS      : eV
#YUNITS      : counts
#DATATYPE    : Y
#XPERCHAN    : 9.99778
#OFFSET      : 1.69135
#BEAMKV      : 20
#SIGNALTYPE  : EDS
#ELEVANGLE   : 35
#AZIMANGLE   : 0
#LIVETIME    : 239.927
#REALTIME    : 263.398
#PROBECUR    : 1.0263
#TAUWIND     : 0
#TDEADLYR    : 0
#TACTLYR     : 0.045
#TALWIND     : 0.025
#CHOFFSET    : 0.0
#XLABEL      : Energy (eV)
#YLABEL      : Counts
#XPOSITION   : 1.52422
#YPOSITION   : 4.41016
#ZPOSITION   : 31.03511
#EDSDET      : SD
##SPECIMEN   : SPI MM2 Stibnite[1][all]
##DET_HASH   : 12273538-fd48-a23f-0a19-f1e6fa85caef
##CALIB_HASH : 6abaa72c-aa41-8738-0be9-f592914732f3
##WORKING    : 15.0 mm
##DET_NAME   : EDAX All
##DET_MODE   : MediumLE
#SPECTRUM    :
34,
22,
12,
133,
1116,
2208,
2529,
5328,
14588,
19059,
9664,
4529,
6071,
12373,
16232,
11914,
8301,
9010,
9961,
8575,
5749,
4268,
4236,
5240,
6044,
5933,
5381,
4791,
4860,
4578,
4388,
4441,
4594,
4779,
4758,
4944,
5048,
5298,
5313,
5389,
5639,
6009,
6099,
6154,
6277,
6442,
6607,
6658,
6933,
7164,
7237,
7113,
7395,
7223,
7409,
7386,
7917,
8522,
8814,
8997,
8896,
9176,
9079,
8399,
7812,
7373,
7630,
7723,
7840,
8175,
8571,
8703,
10225,
14982,
31828,
82002,
164948,
205672,
150419,
67536,
26019,
19479,
21245,
18156,
11840,
7837,
5916,
5744,
5703,
5649,
5589,
5567,
5587,
5602,
5656,
5542,
5638,
5605,
5570,
5533,
5540,
5525,
5627,
6001,
6919,
8593,
9933,
9842,
8075,
6772,
5963,
5701,
6149,
6747,
7674,
8669,
11595,
23068,
53845,
101927,
135138,
119692,
72414,
31842,
14564,
15075,
27747,
49998,
66988,
66052,
50832,
34460,
22385,
15528,
12914,
15969,
20870,
22379,
18189,
11992,
7167,
5445,
5569,
7042,
9207,
10146,
9230,
6833,
4871,
4101,
4264,
4987,
6168,
6647,
6431,
5337,
4353,
3722,
3450,
3320,
3198,
3172,
3326,
3214,
3164,
3134,
3148,
3236,
3205,
3222,
3285,
3164,
3082,
3267,
3253,
3120,
3222,
3216,
3236,
3164,
3141,
3163,
3258,
3133,
3098,
3109,
3067,
2995,
3074,
3047,
3024,
2994,
2995,
2968,
2995,
3116,
3165,
3255,
3182,
2968,
2953,
3001,
2887,
2983,
2915,
2943,
2991,
2941,
2860,
2928,
3001,
3165,
3220,
3075,
3207,
3139,
2919,
2816,
2801,
2731,
2626,
2625,
2709,
2624,
2633,
2659,
2579,
2602,
2653,
2548,
2617,
2496,
2548,
2471,
2630,
2540,
2590,
2539,
2480,
2456,
2477,
2436,
2543,
2451,
2384,
2438,
2389,
2579,
2662,
2654,
2510,
2437,
2366,
2393,
2381,
2320,
2254,
2380,
2244,
2222,
2226,
2299,
2196,
2213,
2210,
2160,
2036,
2256,
2225,
2134,
2100,
2022,
2117,
2039,
2090,
2017,
2071,
2122,
2024,
2063,
1986,
1960,
1976,
1968,
1939,
1874,
1944,
1901,
1927,
1842,
1859,
1816,
1922,
1858,
1909,
1809,
1815,
1821,
1829,
1749,
1757,
1754,
1821,
1712,
1680,
1650,
1800,
1704,
1686,
1635,
1662,
1672,
1633,
1620,
1648,
1697,
1628,
1535,
1632,
1573,
1585,
1615,
1533,
1539,
1556,
1586,
1499,
1544,
1430,
1477,
1512,
1478,
1422,
1466,
1492,
1522,
1431,
1480,
1432,
1387,
1428,
1370,
1340,
1269,
1355,
1366,
1399,
1319,
1445,
1352,
1275,
1326,
1272,
1361,
1362,
1234,
1219,
1247,
1268,
1255,
1265,
1206,
1206,
1199,
1219,
1181,
1172,
1221,
1215,
1176,
1134,
1136,
1180,
1131,
1171,
1104,
1032,
1106,
1113,
1061,
1122,
1022,
1081,
1037,
1049,
1041,
1039,
1012,
997,
1029,
952,
964,
1035,
974,
979,
920,
951,
974,
934,
933,
952,
898,
889,
924,
907,
886,
884,
860,
840,
916,
839,
884,
796,
805,
808,
842,
787,
828,
762,
771,
774,
806,
725,
793,
731,
780,
759,
723,
721,
761,
731,
750,
694,
686,
723,
710,
647,
729,
630,
661,
656,
662,
644,
643,
676,
600,
605,
617,
585,
606,
561,
563,
587,
643,
554,
602,
563,
529,
534,
534,
525,
526,
544,
545,
550,
529,
528,
476,
528,
521,
453,
475,
500,
493,
478,
471,
445,
451,
439,
458,
466,
468,
460,
444,
423,
421,
423,
405,
389,
415,
387,
398,
405,
422,
399,
415,
363,
363,
374,
342,
372,
367,
365,
349,
391,
350,
353,
323,
321,
343,
347,
305,
351,
304,
312,
350,
300,
271,
305,
322,
246,
302,
238,
273,
267,
289,
277,
264,
267,
283,
275,
251,
254,
253,
243,
226,
229,
249,
256,
232,
205,
221,
224,
239,
202,
223,
199,
215,
218,
211,
212,
198,
172,
202,
187,
151,
170,
185,
169,
180,
188,
151,
170,
166,
160,
160,
177,
155,
150,
157,
165,
159,
166,
137,
141,
157,
151,
121,
130,
144,
123,
117,
127,
133,
126,
108,
135,
113,
121,
115,
95,
126,
94,
82,
95,
89,
103,
99,
89,
95,
101,
85,
69,
76,
66,
78,
95,
81,
85,
85,
76,
75,
77,
75,
79,
70,
44,
64,
67,
54,
62,
56,
42,
49,
61,
63,
52,
42,
33,
42,
40,
38,
42,
51,
38,
48,
50,
30,
46,
34,
25,
33,
25,
32,
26,
26,
32,
35,
26,
29,
29,
18,
20,
14,
6,
10,
18,
12,
15,
9,
14,
5,
8,
8,
4,
5,
3,
0,
5,
3,
2,
3,
0,
1,
2,
1,
3,
0,
2,
2,
0,
2,
1,
0,
1,
4,
2,
0,
1,
3,
1,
1,
1,
3,
2,
4,
1,
2,
0,
1,
2,
0,
3,
0,
2,
1,
1,
1,
1,
4,
2,
1,
1,
1,
2,
2,
0,
1,
1,
1,
1,
0,
1,
2,
1,
2,
0,
0,
0,
1,
1,
0,
1,
1,
0,
2,
0,
2,
1,
0,
2,
1,
2,
1,
0,
0,
0,
1,
0,
2,
2,
0,
0,
1,
1,
1,
1,
0,
0,
2,
1,
0,
1,
0,
2,
1,
2,
1,
1,
1,
2,
1,
0,
1,
1,
0,
0,
2,
0,
0,
0,
0,
0,
1,
0,
0,
0,
0,
1,
0,
0,
1,
0,
0,
1,
0,
2,
1,
1,
0,
2,
1,
0,
0,
0,
0,
0,
1,
1,
1,
0,
0,
1,
2,
0,
0,
1,
0,
0,
0,
2,
0,
0,
1,
1,
0,
1,
0,
1,
0,
0,
1,
0,
2,
2,
0,
1,
0,
1,
0,
1,
0,
0,
0,
0,
0,
0,
0,
0,
0,
0,
0,
0,
2,
0,
0,
0,
0,
0,
1,
1,
0,
1,
0,
0,
1,
1,
0,
0,
0,
1,
0,
0,
0,
0,
0,
1,
0,
0,
1,
0,
1,
0,
1,
0,
0,
0,
2,
1,
0,
2,
0,
0,
0,
0,
0,
0,
1,
0,
0,
0,
0,
0,
0,
0,
2,
0,
1,
0,
0,
0,
0,
0,
1,
0,
0,
0,
0,
0,
0,
0,
0,
1,
1,
0,
0,
0,
0,
0,
0,
0,
1,
0,
0,
0,
0,
0,
0,
0,
1,
0,
0,
0,
0,
0,
0,
0,
1,
0,
0,
0,
0,
0,
0,
0,
0,
0,
0,
0,
0,
0,
0,
0,
0,
0,
0,
0,
0,
0,
0,
0,
0,
0,
0,
0,
0,
1,
0,
0,
0,
0,
0,
0,
0,
0,
0,
0,
0,
1,
0,
1,
0,
0,
0,
0,
0,
0,
0,
0,
0,
0,
0,
0,
0,
0,
0,
0,
0,
0,
0,
0,
0,
0,
0,
0,
0,
0,
0,
0,
0,
0,
0,
0,
0,
0,
0,
0,
0,
0,
0,
0,
0,
0,
0,
0,
0,
0,
0,
0,
0,
0,
0,
0,
0,
1,
0,
0,
0,
0,
0,
0,
0,
0,
0,
0,
0,
0,
1,
0,
0,
0,
0,
0,
0,
0,
0,
0,
0,
0,
0,
0,
0,
0,
0,
0,
0,
0,
0,
0,
0,
0,
0,
0,
0,
0,
0,
0,
0,
0,
1,
0,
0,
0,
0,
0,
0,
0,
0,
0,
0,
0,
0,
0,
0,
0,
0,
0,
0,
0,
0,
0,
0,
0,
0,
0,
0,
0,
0,
0,
0,
0,
0,
0,
0,
0,
0,
0,
0,
0,
0,
0,
0,
0,
0,
0,
0,
0,
0,
0,
0,
0,
1,
0,
0,
0,
0,
0,
0,
0,
0,
0,
0,
0,
0,
0,
0,
0,
0,
0,
0,
0,
0,
0,
0,
0,
0,
0,
0,
0,
0,
0,
0,
0,
0,
0,
0,
0,
0,
0,
0,
0,
0,
0,
0,
0,
0,
0,
0,
0,
0,
0,
0,
0,
0,
0,
0,
0,
0,
0,
0,
0,
0,
0,
0,
0,
0,
0,
0,
0,
0,
0,
0,
0,
0,
0,
0,
0,
0,
0,
0,
0,
0,
0,
0,
0,
0,
0,
0,
0,
0,
0,
0,
0,
0,
0,
0,
0,
0,
0,
0,
0,
0,
0,
0,
0,
0,
0,
0,
0,
0,
0,
0,
0,
0,
0,
0,
0,
0,
0,
0,
0,
0,
0,
0,
0,
0,
0,
0,
0,
0,
0,
0,
0,
0,
0,
0,
0,
0,
0,
0,
0,
0,
0,
0,
0,
0,
0,
0,
0,
0,
0,
0,
0,
0,
0,
0,
0,
0,
0,
0,
0,
0,
0,
0,
0,
0,
0,
0,
0,
0,
0,
0,
0,
0,
0,
0,
0,
0,
0,
0,
0,
0,
0,
0,
0,
0,
0,
0,
0,
0,
0,
0,
0,
0,
0,
0,
0,
0,
0,
0,
0,
0,
0,
0,
0,
0,
0,
0,
0,
0,
0,
0,
0,
0,
0,
0,
0,
0,
0,
0,
0,
0,
0,
0,
0,
0,
#ENDOFDATA   :