File: N132962/Quantification/20 keV/MMM2/SPI MM2 SPI Pollucite[4][4].msa
#FORMAT      : EMSA/MAS Spectral Data File
#VERSION     : 1.0
#TITLE       : SPI MM2 SPI Pollucite[4][all]
#DATE        : 13-MAR-2025
#TIME        : 11:04
#OWNER       : Unknown
#NPOINTS     : 4096
#NCOLUMNS    : 1
#XUNITS      : eV
#YUNITS      : counts
#DATATYPE    : Y
#XPERCHAN    : 9.99778
#OFFSET      : 1.69135
#BEAMKV      : 20
#SIGNALTYPE  : EDS
#ELEVANGLE   : 35
#AZIMANGLE   : 0
#LIVETIME    : 239.454
#REALTIME    : 256.554
#PROBECUR    : 1.02609
#TAUWIND     : 0
#TDEADLYR    : 0
#TACTLYR     : 0.045
#TALWIND     : 0.025
#CHOFFSET    : 0.0
#XLABEL      : Energy (eV)
#YLABEL      : Counts
#XPOSITION   : -4.09173
#YPOSITION   : -1.10824
#ZPOSITION   : 31.0351
#EDSDET      : SD
##SPECIMEN   : SPI MM2 SPI Pollucite[4][all]
##D2STDCMP   : SPI Pollucite,(Li:0.05),(O:35.94),(Na:1.5),(Al:9.06),(Si:22.2),(K:0.05),(Rb:0.17),(Cs:32.3)
##DET_HASH   : 12273538-fd48-a23f-0a19-f1e6fa85caef
##CALIB_HASH : 6abaa72c-aa41-8738-0be9-f592914732f3
##WORKING    : 15.0 mm
##DET_NAME   : EDAX All
##DET_MODE   : MediumLE
#SPECTRUM    :
26,
24,
7,
20,
91,
378,
1184,
3432,
9780,
12821,
6989,
3699,
3887,
4753,
7634,
24617,
93198,
180922,
135419,
38196,
6722,
3227,
3515,
4578,
5149,
4492,
3522,
3226,
3383,
3652,
4371,
4766,
4968,
6372,
9045,
9134,
6395,
4147,
3788,
3853,
4146,
4195,
4310,
4349,
4617,
4879,
5711,
10586,
28978,
55416,
55805,
30714,
12345,
6765,
6468,
12988,
44917,
112231,
151230,
107967,
44634,
16484,
8461,
5087,
3937,
3677,
3878,
4232,
3991,
3799,
3543,
3547,
3582,
3657,
3935,
3884,
4081,
3901,
3712,
3770,
3733,
3631,
3780,
4010,
4029,
4052,
3907,
3742,
3667,
3735,
3699,
3545,
3814,
3624,
3674,
3751,
3755,
3675,
3578,
3602,
3560,
3554,
3603,
3463,
3449,
3419,
3635,
3620,
3518,
3559,
3565,
3574,
3525,
3388,
3386,
3471,
3365,
3408,
3301,
3204,
3215,
3238,
3333,
3322,
3625,
4285,
4681,
4747,
4388,
3677,
3238,
3064,
2996,
3053,
3139,
3064,
3328,
3759,
4374,
6672,
13433,
26921,
42606,
48663,
39207,
23234,
10675,
5116,
3403,
3294,
4077,
6837,
12555,
19960,
24698,
23077,
17426,
12141,
8201,
5887,
4510,
4178,
5227,
7260,
9373,
9520,
7588,
5355,
3381,
2638,
2498,
2341,
2494,
2789,
3697,
4560,
5060,
4507,
3674,
2710,
2251,
2280,
2453,
2754,
3047,
3246,
2942,
2514,
2224,
2119,
2019,
2069,
2009,
1842,
1884,
1824,
1781,
1784,
1841,
1797,
1829,
1809,
1846,
1786,
1677,
1744,
1723,
1704,
1658,
1695,
1719,
1784,
1835,
1928,
1882,
1778,
1745,
1669,
1607,
1567,
1588,
1564,
1526,
1560,
1479,
1567,
1572,
1542,
1527,
1500,
1464,
1464,
1440,
1493,
1555,
1475,
1424,
1442,
1363,
1427,
1366,
1327,
1421,
1376,
1371,
1351,
1449,
1419,
1447,
1445,
1417,
1409,
1386,
1311,
1286,
1232,
1285,
1285,
1239,
1285,
1271,
1235,
1240,
1277,
1262,
1188,
1219,
1202,
1223,
1204,
1142,
1219,
1221,
1117,
1156,
1108,
1139,
1153,
1103,
1159,
1113,
1087,
1060,
1022,
1076,
1064,
1052,
1067,
1005,
1103,
1011,
1043,
1029,
1084,
1038,
946,
1030,
1020,
935,
995,
974,
948,
1016,
939,
974,
948,
958,
968,
967,
929,
915,
919,
866,
933,
884,
903,
874,
874,
880,
862,
830,
814,
872,
860,
840,
839,
817,
822,
837,
820,
802,
801,
791,
858,
783,
846,
780,
712,
760,
746,
736,
737,
739,
778,
741,
760,
766,
682,
712,
736,
742,
705,
676,
699,
720,
629,
652,
694,
662,
678,
691,
655,
648,
671,
663,
625,
632,
610,
624,
638,
579,
644,
555,
619,
588,
616,
572,
574,
557,
565,
602,
599,
543,
547,
570,
550,
512,
503,
514,
512,
539,
536,
485,
486,
512,
507,
517,
468,
500,
511,
483,
480,
461,
453,
471,
443,
452,
442,
483,
454,
408,
409,
425,
440,
418,
433,
439,
403,
399,
402,
422,
422,
385,
414,
411,
367,
366,
370,
397,
347,
404,
336,
357,
366,
332,
372,
366,
342,
351,
346,
335,
340,
355,
330,
332,
305,
337,
299,
302,
339,
311,
277,
274,
317,
309,
289,
292,
299,
272,
289,
255,
246,
269,
257,
243,
263,
285,
244,
263,
248,
241,
251,
234,
256,
208,
227,
246,
222,
221,
237,
221,
217,
220,
245,
216,
213,
231,
223,
214,
171,
223,
214,
209,
202,
188,
173,
180,
189,
175,
169,
170,
166,
199,
167,
161,
163,
150,
169,
160,
175,
156,
142,
146,
147,
156,
144,
159,
160,
148,
138,
132,
135,
150,
129,
129,
139,
123,
96,
134,
129,
127,
144,
135,
119,
101,
121,
102,
121,
108,
96,
116,
84,
102,
127,
114,
94,
118,
86,
109,
83,
88,
75,
82,
114,
93,
99,
76,
82,
77,
91,
85,
77,
81,
87,
83,
82,
72,
90,
70,
76,
59,
70,
67,
68,
62,
69,
56,
51,
51,
63,
51,
67,
53,
58,
47,
52,
49,
58,
46,
55,
64,
49,
51,
52,
47,
38,
55,
46,
45,
39,
46,
36,
28,
42,
45,
37,
33,
34,
43,
44,
29,
33,
35,
27,
26,
25,
30,
23,
32,
30,
26,
27,
22,
20,
21,
21,
20,
23,
19,
20,
20,
21,
16,
15,
14,
18,
16,
16,
11,
8,
13,
10,
10,
8,
14,
15,
8,
9,
11,
8,
9,
12,
9,
9,
1,
6,
7,
2,
4,
4,
3,
1,
1,
3,
1,
0,
4,
0,
0,
1,
1,
0,
1,
0,
0,
1,
0,
1,
1,
0,
0,
1,
0,
0,
0,
0,
1,
0,
1,
0,
1,
0,
0,
1,
0,
0,
0,
1,
1,
0,
0,
0,
1,
0,
2,
0,
0,
1,
1,
0,
1,
1,
0,
1,
0,
0,
1,
0,
0,
0,
0,
1,
0,
1,
0,
0,
0,
0,
0,
0,
0,
0,
0,
0,
0,
0,
0,
1,
0,
0,
0,
1,
0,
0,
1,
0,
0,
0,
0,
0,
0,
0,
1,
0,
1,
0,
0,
0,
0,
0,
0,
1,
0,
0,
0,
0,
0,
0,
0,
0,
0,
0,
1,
1,
0,
0,
1,
0,
0,
0,
0,
0,
0,
0,
0,
0,
0,
1,
0,
0,
1,
0,
0,
1,
0,
0,
0,
0,
0,
0,
0,
0,
0,
0,
0,
0,
0,
0,
0,
0,
0,
0,
0,
0,
0,
0,
0,
0,
0,
0,
0,
0,
0,
0,
0,
0,
0,
0,
0,
0,
0,
0,
0,
0,
0,
0,
0,
0,
1,
0,
0,
0,
0,
1,
0,
0,
1,
1,
0,
0,
0,
0,
1,
0,
0,
0,
0,
0,
0,
0,
0,
0,
0,
0,
0,
0,
0,
0,
0,
0,
0,
0,
0,
1,
0,
0,
0,
0,
1,
0,
0,
0,
0,
0,
0,
0,
0,
0,
0,
0,
0,
0,
0,
0,
0,
0,
0,
0,
0,
1,
0,
0,
0,
0,
0,
0,
0,
0,
0,
0,
0,
0,
0,
0,
1,
0,
0,
0,
0,
0,
0,
0,
0,
0,
0,
0,
0,
0,
0,
0,
0,
0,
0,
0,
1,
0,
0,
0,
0,
0,
0,
0,
0,
0,
0,
0,
0,
0,
0,
0,
0,
0,
0,
0,
0,
0,
0,
0,
0,
0,
0,
0,
0,
0,
0,
0,
0,
0,
0,
0,
0,
0,
0,
0,
0,
0,
0,
0,
0,
0,
0,
0,
0,
0,
0,
0,
0,
0,
0,
0,
0,
0,
0,
0,
0,
0,
0,
0,
0,
0,
0,
0,
0,
0,
0,
0,
0,
0,
0,
0,
0,
0,
0,
0,
0,
0,
0,
0,
0,
0,
0,
0,
0,
0,
0,
0,
0,
0,
0,
0,
0,
0,
0,
0,
0,
0,
0,
0,
0,
0,
0,
0,
0,
0,
0,
0,
0,
0,
0,
0,
0,
0,
0,
0,
0,
0,
0,
0,
0,
0,
0,
0,
0,
0,
0,
0,
0,
0,
0,
0,
0,
0,
0,
0,
0,
0,
0,
0,
0,
0,
0,
0,
0,
0,
0,
0,
0,
0,
0,
0,
0,
0,
1,
0,
0,
0,
0,
0,
0,
0,
0,
0,
0,
0,
0,
0,
0,
0,
0,
0,
0,
0,
0,
0,
0,
0,
0,
0,
0,
0,
0,
0,
0,
0,
0,
0,
0,
0,
0,
0,
0,
0,
0,
0,
0,
0,
0,
0,
0,
0,
0,
0,
0,
0,
0,
0,
0,
0,
0,
0,
0,
0,
0,
0,
0,
0,
0,
0,
0,
0,
0,
0,
0,
0,
0,
0,
0,
0,
0,
0,
0,
0,
0,
0,
0,
0,
0,
0,
0,
0,
0,
0,
0,
0,
0,
0,
0,
0,
0,
0,
0,
0,
0,
0,
0,
0,
0,
0,
0,
0,
0,
0,
0,
0,
0,
0,
0,
0,
0,
0,
0,
0,
0,
0,
0,
0,
0,
0,
0,
0,
0,
0,
0,
0,
0,
0,
0,
0,
0,
0,
0,
0,
0,
0,
0,
0,
0,
0,
0,
0,
0,
0,
0,
0,
0,
0,
0,
0,
0,
0,
0,
0,
0,
0,
0,
0,
0,
0,
0,
0,
0,
0,
0,
0,
0,
0,
0,
0,
0,
0,
0,
0,
0,
0,
0,
0,
0,
0,
0,
0,
0,
0,
0,
0,
0,
0,
0,
0,
0,
0,
0,
0,
0,
0,
0,
0,
0,
0,
0,
0,
0,
0,
0,
0,
0,
0,
0,
0,
0,
0,
0,
0,
0,
0,
0,
0,
0,
0,
0,
0,
0,
0,
0,
0,
0,
0,
0,
0,
0,
0,
0,
0,
0,
0,
0,
0,
0,
0,
0,
0,
0,
0,
0,
0,
0,
0,
0,
0,
0,
0,
0,
0,
0,
0,
0,
0,
0,
0,
0,
0,
0,
0,
0,
0,
0,
0,
#ENDOFDATA   :