File: N132962/Quantification/20 keV/MMM2/SPI MM2 Spessartine[5][4].msa
#FORMAT      : EMSA/MAS Spectral Data File
#VERSION     : 1.0
#TITLE       : SPI MM2 Spessartine[5][all]
#DATE        : 13-MAR-2025
#TIME        : 12:08
#OWNER       : Unknown
#NPOINTS     : 4096
#NCOLUMNS    : 1
#XUNITS      : eV
#YUNITS      : counts
#DATATYPE    : Y
#XPERCHAN    : 9.99778
#OFFSET      : 1.69135
#BEAMKV      : 20
#SIGNALTYPE  : EDS
#ELEVANGLE   : 35
#AZIMANGLE   : 0
#LIVETIME    : 239.868
#REALTIME    : 256.24
#PROBECUR    : 1.02616
#TAUWIND     : 0
#TDEADLYR    : 0
#TACTLYR     : 0.045
#TALWIND     : 0.025
#CHOFFSET    : 0.0
#XLABEL      : Energy (eV)
#YLABEL      : Counts
#XPOSITION   : -5.77917
#YPOSITION   : 1.56153
#ZPOSITION   : 31.03511
#EDSDET      : SD
##SPECIMEN   : SPI MM2 Spessartine[5][all]
##DET_HASH   : 12273538-fd48-a23f-0a19-f1e6fa85caef
##CALIB_HASH : 6abaa72c-aa41-8738-0be9-f592914732f3
##WORKING    : 15.0 mm
##DET_NAME   : EDAX All
##DET_MODE   : MediumLE
#SPECTRUM    :
15,
25,
9,
16,
83,
287,
999,
2990,
8309,
10835,
6064,
3281,
3447,
4429,
7600,
26523,
103741,
202531,
150931,
43052,
14068,
16801,
13845,
6885,
3561,
2238,
2028,
2156,
2300,
2380,
2334,
2412,
2694,
2863,
3141,
3296,
3152,
3196,
3348,
3571,
3656,
3953,
3981,
4137,
4252,
4435,
5708,
12716,
38793,
77362,
78316,
41681,
14971,
6597,
5611,
10975,
37040,
92762,
125704,
89527,
36898,
13603,
7242,
4502,
3409,
3141,
3377,
3526,
3354,
3287,
3139,
3124,
3220,
3186,
3390,
3425,
3377,
3154,
3240,
3088,
3138,
3084,
3100,
3035,
3087,
3041,
3133,
2996,
3052,
3084,
2993,
2988,
3000,
3003,
2978,
2896,
2835,
2948,
2980,
2907,
2863,
2923,
2864,
2836,
2841,
2774,
2901,
2807,
2867,
2806,
2778,
2678,
2712,
2707,
2739,
2843,
2800,
2741,
2654,
2600,
2698,
3165,
3734,
3772,
3574,
3066,
2745,
2449,
2349,
2405,
2364,
2398,
2498,
2448,
2489,
2437,
2455,
2532,
2527,
2484,
2300,
2237,
2196,
2147,
2157,
2176,
2038,
2086,
2076,
2152,
2073,
1976,
2125,
2066,
1979,
1945,
2029,
1989,
1983,
1975,
1975,
1821,
1968,
1833,
1861,
1784,
1781,
1769,
1777,
1832,
1730,
1801,
1797,
1744,
1732,
1779,
1712,
1670,
1613,
1723,
1657,
1726,
1658,
1653,
1558,
1703,
1595,
1683,
1764,
1855,
1909,
2871,
5957,
14044,
30956,
53222,
70122,
69256,
51839,
29584,
13298,
5206,
2332,
1685,
1552,
1482,
1376,
1516,
1478,
1679,
2040,
2941,
4221,
5996,
8181,
10292,
11066,
9747,
7272,
4418,
2537,
1655,
1172,
1125,
1111,
1117,
1092,
1062,
1112,
1037,
1111,
1098,
1107,
1149,
1253,
1261,
1227,
1109,
1077,
1049,
1058,
1012,
945,
964,
940,
1022,
986,
1007,
1016,
1028,
1019,
1043,
972,
942,
955,
983,
935,
895,
983,
829,
903,
838,
886,
866,
875,
853,
780,
826,
882,
844,
788,
785,
765,
816,
784,
828,
774,
787,
782,
751,
838,
770,
795,
740,
744,
723,
737,
692,
709,
719,
721,
717,
714,
720,
727,
684,
719,
692,
667,
660,
648,
625,
623,
658,
657,
650,
629,
653,
621,
602,
636,
633,
596,
599,
573,
616,
586,
589,
557,
600,
601,
619,
556,
587,
592,
522,
584,
538,
494,
574,
575,
539,
574,
574,
502,
500,
526,
531,
557,
524,
501,
506,
515,
446,
494,
522,
493,
480,
525,
507,
510,
476,
446,
443,
426,
460,
459,
425,
433,
430,
423,
448,
397,
410,
402,
427,
374,
403,
398,
428,
406,
400,
414,
378,
412,
392,
390,
370,
381,
388,
387,
356,
358,
362,
348,
348,
330,
387,
338,
326,
352,
364,
364,
360,
343,
326,
353,
349,
327,
322,
343,
298,
296,
313,
296,
317,
268,
303,
280,
299,
295,
289,
298,
301,
289,
277,
269,
265,
250,
257,
240,
241,
263,
236,
252,
264,
213,
282,
240,
239,
237,
252,
215,
227,
254,
235,
217,
215,
251,
228,
249,
216,
204,
190,
208,
198,
184,
191,
212,
186,
191,
181,
181,
195,
201,
183,
171,
173,
172,
170,
173,
145,
188,
199,
168,
168,
163,
157,
138,
173,
135,
157,
148,
140,
146,
163,
153,
139,
141,
134,
150,
129,
158,
118,
121,
144,
132,
136,
127,
133,
126,
125,
147,
127,
127,
143,
95,
115,
110,
108,
109,
114,
106,
114,
98,
109,
92,
141,
105,
99,
102,
102,
89,
82,
93,
93,
89,
82,
94,
96,
85,
92,
83,
82,
84,
84,
84,
81,
85,
83,
73,
72,
73,
71,
67,
79,
75,
63,
58,
62,
66,
65,
55,
74,
57,
64,
76,
66,
56,
55,
61,
47,
64,
54,
52,
48,
67,
56,
47,
63,
51,
49,
64,
41,
49,
43,
52,
56,
31,
31,
40,
47,
39,
28,
35,
46,
34,
47,
37,
29,
46,
53,
35,
23,
30,
30,
27,
31,
26,
25,
28,
25,
27,
22,
35,
16,
27,
28,
25,
31,
21,
22,
24,
21,
19,
20,
15,
27,
23,
21,
27,
10,
26,
22,
20,
21,
13,
15,
20,
16,
12,
10,
14,
14,
15,
11,
8,
10,
12,
8,
8,
10,
11,
7,
9,
7,
6,
10,
5,
5,
12,
5,
8,
6,
7,
7,
9,
1,
2,
4,
1,
4,
4,
4,
8,
1,
1,
5,
3,
4,
3,
1,
2,
0,
0,
0,
0,
1,
3,
0,
0,
1,
0,
1,
0,
0,
0,
0,
1,
2,
0,
0,
0,
0,
0,
0,
0,
1,
0,
0,
0,
0,
1,
1,
0,
0,
0,
1,
0,
1,
0,
0,
0,
0,
0,
0,
0,
0,
0,
0,
2,
0,
0,
1,
0,
0,
0,
0,
0,
0,
1,
1,
1,
0,
0,
0,
0,
0,
0,
1,
0,
0,
1,
0,
0,
0,
0,
0,
0,
1,
0,
0,
0,
0,
0,
0,
0,
0,
0,
1,
0,
2,
0,
0,
0,
0,
0,
1,
0,
0,
0,
0,
0,
0,
0,
0,
0,
0,
0,
0,
0,
0,
0,
0,
1,
0,
0,
0,
0,
0,
0,
0,
0,
0,
0,
0,
0,
0,
0,
1,
0,
0,
0,
0,
0,
0,
0,
0,
0,
0,
0,
0,
0,
0,
0,
0,
0,
0,
0,
0,
0,
0,
0,
0,
0,
0,
0,
1,
0,
0,
0,
0,
0,
0,
0,
0,
0,
0,
0,
0,
0,
0,
0,
0,
0,
0,
0,
0,
0,
0,
0,
0,
0,
0,
0,
0,
0,
0,
0,
0,
0,
0,
0,
1,
0,
0,
0,
0,
0,
0,
0,
0,
0,
0,
0,
0,
0,
0,
0,
0,
0,
0,
0,
0,
0,
0,
0,
0,
0,
0,
0,
0,
0,
0,
0,
0,
0,
0,
0,
0,
0,
0,
0,
0,
0,
0,
0,
0,
0,
0,
0,
0,
0,
0,
0,
0,
0,
0,
0,
0,
0,
0,
0,
0,
0,
0,
0,
0,
0,
0,
0,
0,
0,
0,
0,
0,
0,
0,
0,
0,
0,
0,
0,
0,
0,
0,
0,
0,
0,
0,
0,
0,
0,
0,
0,
0,
1,
0,
0,
0,
0,
0,
0,
0,
0,
0,
0,
0,
0,
0,
0,
0,
0,
0,
0,
0,
0,
0,
0,
0,
0,
0,
0,
1,
0,
0,
0,
0,
0,
0,
0,
0,
0,
0,
0,
0,
0,
0,
0,
0,
0,
0,
0,
0,
0,
0,
0,
0,
0,
0,
0,
0,
0,
0,
0,
0,
0,
0,
0,
0,
0,
0,
0,
0,
0,
0,
0,
0,
0,
0,
0,
0,
0,
0,
0,
0,
0,
0,
0,
0,
0,
0,
0,
0,
0,
0,
0,
0,
0,
0,
0,
0,
0,
0,
0,
0,
0,
0,
0,
0,
0,
0,
0,
0,
0,
0,
0,
0,
0,
0,
0,
0,
0,
0,
0,
0,
0,
0,
0,
0,
0,
0,
0,
0,
0,
0,
0,
0,
0,
0,
0,
0,
0,
0,
0,
0,
0,
0,
0,
0,
0,
0,
0,
0,
0,
0,
0,
0,
0,
0,
0,
0,
0,
0,
0,
0,
0,
0,
0,
0,
0,
0,
0,
0,
0,
0,
0,
0,
0,
0,
0,
0,
0,
0,
0,
0,
0,
0,
0,
0,
0,
0,
0,
0,
0,
0,
0,
0,
0,
0,
0,
0,
0,
0,
0,
0,
0,
0,
0,
0,
0,
0,
0,
0,
0,
0,
0,
0,
0,
0,
0,
0,
0,
0,
0,
0,
0,
0,
0,
0,
0,
0,
0,
0,
0,
0,
0,
0,
0,
0,
0,
0,
0,
0,
0,
0,
0,
0,
0,
0,
0,
0,
0,
0,
0,
0,
0,
0,
0,
0,
0,
0,
0,
0,
0,
0,
0,
0,
0,
0,
0,
0,
0,
0,
0,
0,
0,
0,
0,
0,
0,
0,
0,
0,
0,
0,
0,
0,
0,
0,
0,
0,
0,
0,
0,
0,
0,
0,
0,
0,
0,
0,
0,
0,
0,
0,
0,
0,
0,
0,
0,
0,
0,
0,
0,
0,
0,
0,
0,
0,
0,
0,
0,
0,
0,
0,
0,
0,
0,
0,
0,
0,
0,
0,
0,
0,
0,
0,
0,
0,
0,
0,
0,
0,
0,
0,
0,
0,
0,
0,
0,
0,
0,
0,
0,
0,
0,
0,
0,
0,
0,
0,
0,
0,
0,
0,
0,
0,
0,
0,
0,
0,
0,
0,
0,
0,
0,
0,
0,
0,
0,
0,
0,
0,
0,
0,
0,
0,
0,
0,
0,
0,
0,
0,
0,
0,
0,
0,
0,
0,
0,
0,
0,
0,
0,
0,
0,
0,
0,
0,
0,
0,
0,
0,
0,
0,
0,
0,
0,
0,
0,
0,
0,
0,
0,
0,
#ENDOFDATA   :