File: N132962/Quantification/20 keV/MMM2/SPI MM2 SPI Phlogpite[0][4].msa
#FORMAT      : EMSA/MAS Spectral Data File
#VERSION     : 1.0
#TITLE       : SPI MM2 SPI Phlogpite[0][all]
#DATE        : 13-MAR-2025
#TIME        : 10:41
#OWNER       : Unknown
#NPOINTS     : 4096
#NCOLUMNS    : 1
#XUNITS      : eV
#YUNITS      : counts
#DATATYPE    : Y
#XPERCHAN    : 9.99778
#OFFSET      : 1.69135
#BEAMKV      : 20
#SIGNALTYPE  : EDS
#ELEVANGLE   : 35
#AZIMANGLE   : 0
#LIVETIME    : 239.878
#REALTIME    : 254.756
#PROBECUR    : 1.02606
#TAUWIND     : 0
#TDEADLYR    : 0
#TACTLYR     : 0.045
#TALWIND     : 0.025
#CHOFFSET    : 0.0
#XLABEL      : Energy (eV)
#YLABEL      : Counts
#XPOSITION   : 1.50754
#YPOSITION   : -0.33326
#ZPOSITION   : 31.0351
#EDSDET      : SD
##SPECIMEN   : SPI MM2 SPI Phlogpite[0][all]
##D2STDCMP   : SPI Phlogpite,(H:0.48),(O:46.01),(Mg:17.47),(Al:6.47),(Si:20.19),(K:9.37)
##DET_HASH   : 12273538-fd48-a23f-0a19-f1e6fa85caef
##CALIB_HASH : 6abaa72c-aa41-8738-0be9-f592914732f3
##WORKING    : 15.0 mm
##DET_NAME   : EDAX All
##DET_MODE   : MediumLE
#SPECTRUM    :
27,
24,
4,
10,
69,
319,
954,
3139,
9057,
11579,
5890,
2543,
2418,
3158,
5297,
19169,
77529,
151698,
111671,
29565,
4915,
3263,
5128,
7060,
6351,
3850,
2811,
2730,
2835,
2791,
2884,
3036,
3400,
4414,
6470,
6871,
5544,
4556,
5213,
10608,
36966,
90683,
109457,
61373,
19076,
5853,
4640,
8455,
24543,
47438,
48408,
26209,
10413,
5566,
5094,
10924,
39888,
102972,
139308,
98897,
40729,
14319,
6998,
4038,
2768,
2501,
2522,
2478,
2470,
2430,
2495,
2471,
2443,
2539,
2656,
2713,
2772,
2656,
2619,
2482,
2592,
2531,
2508,
2452,
2585,
2526,
2480,
2525,
2434,
2472,
2500,
2497,
2414,
2490,
2442,
2459,
2337,
2375,
2454,
2453,
2464,
2415,
2339,
2362,
2506,
2640,
3138,
5321,
11674,
24376,
36882,
37179,
24619,
11403,
4663,
2819,
2647,
3117,
4448,
5897,
6163,
5208,
3616,
2504,
2031,
1900,
1873,
1864,
1892,
1854,
1804,
1751,
1846,
1786,
1737,
1732,
1658,
1722,
1619,
1643,
1619,
1641,
1531,
1630,
1662,
1693,
1804,
1944,
2498,
2665,
2622,
2480,
1994,
1737,
1559,
1503,
1497,
1494,
1595,
1651,
1730,
1804,
1748,
1757,
1555,
1561,
1449,
1404,
1439,
1449,
1422,
1498,
1394,
1447,
1329,
1266,
1322,
1228,
1282,
1265,
1270,
1270,
1197,
1230,
1247,
1236,
1204,
1182,
1183,
1185,
1176,
1105,
1163,
1161,
1219,
1302,
1437,
1328,
1249,
1203,
1090,
1063,
1100,
1089,
1031,
1027,
1081,
1161,
1299,
1873,
3084,
5415,
8264,
9772,
9442,
6827,
4177,
2335,
1408,
1100,
977,
937,
974,
931,
942,
887,
886,
906,
940,
889,
939,
1035,
1265,
1534,
1788,
1989,
1903,
1598,
1199,
1007,
815,
803,
823,
755,
745,
759,
771,
791,
878,
872,
825,
762,
740,
745,
706,
703,
696,
685,
645,
664,
668,
694,
674,
691,
620,
623,
625,
624,
649,
639,
654,
649,
631,
627,
621,
612,
647,
635,
620,
623,
558,
584,
610,
567,
594,
589,
616,
587,
613,
594,
516,
547,
518,
567,
523,
547,
548,
478,
518,
492,
517,
530,
507,
505,
488,
485,
507,
435,
477,
491,
495,
437,
447,
472,
489,
483,
462,
398,
453,
443,
449,
410,
451,
431,
443,
421,
426,
421,
444,
379,
435,
404,
418,
403,
381,
391,
400,
372,
354,
395,
436,
377,
392,
355,
394,
367,
363,
367,
363,
364,
330,
360,
350,
322,
320,
347,
340,
314,
337,
326,
321,
336,
314,
332,
316,
336,
281,
322,
299,
310,
308,
332,
305,
282,
278,
275,
278,
281,
281,
285,
258,
295,
264,
279,
254,
284,
254,
249,
239,
236,
267,
229,
241,
232,
225,
217,
221,
244,
224,
228,
239,
249,
234,
240,
212,
199,
226,
238,
211,
190,
213,
209,
215,
200,
208,
180,
179,
196,
177,
186,
187,
185,
170,
175,
187,
162,
169,
180,
194,
152,
148,
144,
176,
153,
148,
159,
160,
145,
167,
172,
158,
147,
165,
160,
145,
115,
143,
136,
152,
152,
163,
133,
133,
136,
113,
126,
138,
106,
128,
111,
110,
130,
119,
115,
125,
103,
105,
121,
99,
96,
111,
118,
107,
108,
118,
92,
105,
90,
108,
106,
107,
104,
99,
105,
110,
90,
94,
98,
104,
88,
82,
87,
84,
82,
80,
90,
80,
84,
77,
79,
78,
88,
80,
84,
83,
73,
65,
56,
82,
72,
54,
66,
71,
54,
63,
67,
64,
48,
66,
66,
48,
53,
72,
62,
61,
67,
65,
51,
54,
56,
52,
51,
49,
49,
50,
46,
50,
52,
40,
53,
48,
36,
41,
52,
39,
40,
33,
43,
35,
47,
34,
44,
39,
34,
39,
26,
42,
27,
45,
29,
35,
35,
26,
30,
34,
31,
28,
27,
24,
24,
30,
33,
34,
27,
27,
22,
23,
30,
29,
27,
21,
23,
24,
14,
29,
18,
22,
12,
17,
21,
18,
17,
21,
23,
11,
28,
13,
17,
16,
9,
13,
13,
14,
15,
13,
18,
15,
16,
8,
12,
16,
15,
14,
9,
12,
9,
8,
14,
4,
19,
15,
7,
6,
7,
7,
12,
3,
6,
9,
5,
9,
1,
9,
3,
3,
6,
5,
3,
4,
2,
2,
1,
9,
3,
4,
2,
5,
2,
3,
9,
1,
0,
0,
2,
4,
2,
3,
2,
1,
1,
1,
0,
1,
1,
1,
0,
1,
2,
1,
0,
0,
1,
0,
1,
1,
0,
0,
0,
1,
0,
1,
0,
0,
0,
0,
0,
0,
1,
0,
0,
0,
0,
0,
0,
0,
0,
0,
0,
0,
1,
0,
0,
0,
0,
0,
1,
0,
0,
0,
0,
0,
0,
0,
0,
0,
0,
0,
0,
0,
0,
1,
0,
0,
0,
0,
0,
0,
0,
0,
0,
0,
0,
0,
0,
0,
0,
0,
0,
0,
0,
0,
0,
0,
0,
0,
0,
0,
1,
0,
0,
0,
0,
0,
0,
0,
0,
0,
0,
0,
0,
0,
0,
0,
0,
0,
0,
0,
0,
0,
0,
0,
0,
0,
0,
0,
0,
0,
0,
0,
0,
0,
0,
0,
0,
0,
1,
0,
0,
0,
0,
0,
0,
1,
0,
0,
0,
0,
0,
0,
1,
0,
0,
0,
0,
0,
0,
0,
0,
0,
0,
0,
1,
0,
0,
0,
0,
0,
0,
0,
0,
0,
0,
0,
0,
0,
0,
0,
0,
0,
0,
0,
0,
0,
0,
0,
0,
0,
0,
0,
0,
0,
0,
0,
0,
0,
0,
0,
0,
0,
0,
0,
0,
0,
0,
0,
0,
0,
0,
0,
0,
0,
0,
0,
0,
0,
0,
0,
0,
0,
0,
0,
0,
0,
0,
0,
0,
0,
0,
0,
1,
0,
0,
0,
0,
0,
0,
0,
0,
0,
0,
0,
0,
0,
0,
0,
0,
0,
0,
0,
0,
0,
0,
0,
0,
0,
0,
0,
0,
0,
0,
0,
0,
0,
0,
0,
0,
0,
0,
0,
0,
0,
0,
0,
0,
0,
0,
0,
0,
0,
0,
0,
0,
0,
0,
0,
0,
0,
0,
0,
0,
0,
0,
0,
0,
0,
0,
0,
0,
0,
0,
0,
0,
0,
0,
0,
0,
0,
0,
0,
0,
0,
0,
0,
0,
0,
0,
0,
0,
0,
0,
0,
0,
0,
0,
0,
0,
0,
0,
0,
0,
0,
0,
0,
0,
0,
0,
0,
0,
0,
0,
0,
0,
0,
0,
0,
0,
0,
0,
0,
0,
0,
0,
0,
0,
0,
0,
0,
0,
0,
0,
0,
0,
0,
0,
0,
0,
0,
0,
0,
0,
1,
0,
0,
0,
0,
0,
0,
0,
0,
0,
0,
0,
0,
0,
0,
0,
0,
0,
0,
0,
0,
0,
0,
0,
0,
0,
0,
0,
0,
0,
0,
0,
0,
0,
0,
0,
0,
0,
0,
0,
0,
0,
0,
0,
0,
0,
0,
0,
0,
0,
0,
0,
0,
0,
0,
0,
0,
0,
0,
0,
0,
0,
0,
0,
0,
0,
0,
0,
0,
0,
0,
0,
0,
0,
0,
0,
0,
0,
0,
0,
0,
0,
0,
0,
0,
0,
0,
0,
0,
0,
0,
0,
0,
0,
0,
0,
0,
0,
0,
0,
0,
0,
0,
0,
0,
0,
0,
0,
0,
0,
0,
0,
0,
0,
0,
0,
0,
0,
0,
0,
0,
0,
0,
0,
0,
0,
0,
0,
0,
0,
0,
0,
0,
0,
0,
0,
0,
0,
0,
0,
0,
0,
0,
0,
0,
0,
0,
0,
0,
0,
0,
0,
0,
0,
0,
0,
0,
0,
0,
0,
0,
0,
0,
0,
0,
0,
0,
0,
0,
0,
0,
0,
0,
0,
0,
0,
0,
0,
0,
0,
0,
0,
0,
0,
0,
0,
0,
0,
0,
0,
0,
0,
0,
0,
0,
0,
0,
0,
0,
0,
0,
0,
0,
0,
0,
0,
0,
0,
0,
0,
0,
0,
0,
0,
0,
0,
0,
0,
0,
0,
0,
0,
0,
0,
0,
0,
0,
0,
0,
0,
0,
0,
0,
0,
0,
0,
0,
0,
0,
0,
0,
0,
0,
0,
0,
0,
0,
0,
0,
0,
0,
0,
0,
0,
0,
0,
0,
0,
0,
0,
0,
0,
0,
0,
0,
0,
0,
0,
0,
0,
0,
0,
0,
0,
0,
0,
0,
0,
0,
0,
0,
0,
0,
0,
0,
0,
0,
0,
0,
0,
0,
0,
0,
0,
0,
0,
0,
0,
0,
0,
0,
0,
0,
0,
0,
0,
0,
0,
0,
0,
0,
0,
0,
0,
0,
0,
0,
0,
0,
0,
0,
0,
0,
0,
0,
0,
0,
0,
0,
0,
0,
0,
0,
0,
0,
0,
0,
0,
0,
0,
0,
0,
0,
0,
0,
0,
#ENDOFDATA   :