File: N132962/Quantification/20 keV/MMM2/SPI MM2 SPI Magnetite[4][4].msa
#FORMAT      : EMSA/MAS Spectral Data File
#VERSION     : 1.0
#TITLE       : SPI MM2 SPI Magnetite[4][all]
#DATE        : 13-MAR-2025
#TIME        : 09:22
#OWNER       : Unknown
#NPOINTS     : 4096
#NCOLUMNS    : 1
#XUNITS      : eV
#YUNITS      : counts
#DATATYPE    : Y
#XPERCHAN    : 9.99778
#OFFSET      : 1.69135
#BEAMKV      : 20
#SIGNALTYPE  : EDS
#ELEVANGLE   : 35
#AZIMANGLE   : 0
#LIVETIME    : 239.903
#REALTIME    : 256.867
#PROBECUR    : 1.02582
#TAUWIND     : 0
#TDEADLYR    : 0
#TACTLYR     : 0.045
#TALWIND     : 0.025
#CHOFFSET    : 0.0
#XLABEL      : Energy (eV)
#YLABEL      : Counts
#XPOSITION   : 3.88913
#YPOSITION   : -4.19607
#ZPOSITION   : 31.03509
#EDSDET      : SD
##SPECIMEN   : SPI MM2 SPI Magnetite[4][all]
##D2STDCMP   : SPI Magnetite,(O:27.53),(Si:0.01),(Mn:0.18),(Fe:71.88)
##DET_HASH   : 12273538-fd48-a23f-0a19-f1e6fa85caef
##CALIB_HASH : 6abaa72c-aa41-8738-0be9-f592914732f3
##WORKING    : 15.0 mm
##DET_NAME   : EDAX All
##DET_MODE   : MediumLE
#SPECTRUM    :
36,
30,
14,
18,
105,
452,
1340,
3873,
10362,
13375,
7820,
4767,
5073,
6255,
9444,
27028,
96156,
181571,
133626,
43362,
24133,
23313,
30870,
50043,
43091,
16837,
4945,
2835,
2385,
2181,
2149,
2184,
2205,
2396,
2622,
2738,
2667,
2848,
3000,
3071,
3118,
3325,
3435,
3474,
3529,
3522,
3713,
3866,
3937,
4278,
4364,
4295,
4181,
4329,
4312,
4403,
4578,
4851,
5147,
4988,
4897,
4622,
4449,
4226,
4342,
4278,
4240,
4401,
4519,
4397,
4472,
4417,
4492,
4436,
4484,
4354,
4361,
4433,
4367,
4517,
4414,
4332,
4406,
4479,
4300,
4262,
4367,
4335,
4194,
4255,
4301,
4269,
4266,
4298,
4110,
4203,
3998,
3979,
3943,
4046,
4016,
4053,
3905,
3880,
3809,
3787,
3934,
3737,
3724,
3665,
3742,
3655,
3766,
3511,
3684,
3539,
3482,
3587,
3589,
3496,
3545,
3455,
3402,
3317,
3395,
3332,
3276,
3424,
3173,
3309,
3285,
3294,
3244,
3199,
3121,
3146,
3186,
3069,
2959,
3077,
2938,
3058,
2921,
3025,
2978,
2957,
2941,
2951,
3058,
3204,
3192,
3296,
3122,
3106,
3303,
3272,
3248,
2948,
2777,
2763,
2694,
2624,
2669,
2658,
2742,
2683,
2602,
2561,
2484,
2515,
2488,
2455,
2461,
2465,
2383,
2362,
2476,
2284,
2458,
2481,
2403,
2319,
2379,
2270,
2411,
2285,
2131,
2272,
2197,
2139,
2055,
2131,
2132,
2163,
2357,
2577,
2675,
2679,
2464,
2380,
2192,
2148,
2106,
2056,
2218,
2390,
2615,
3411,
6172,
14845,
35695,
73029,
116536,
141783,
132777,
95586,
53365,
23222,
8812,
3667,
2248,
1931,
1901,
1855,
1858,
1909,
1874,
1974,
2173,
2497,
3164,
4753,
7956,
12560,
17212,
19678,
17923,
12863,
7840,
4179,
2259,
1570,
1326,
1226,
1243,
1261,
1161,
1255,
1279,
1367,
1328,
1249,
1265,
1280,
1199,
1195,
1168,
1192,
1140,
1174,
1134,
1162,
1212,
1095,
1132,
1129,
1091,
1125,
1121,
1118,
1076,
1102,
1146,
1039,
1095,
1135,
1079,
1071,
1029,
1015,
1046,
993,
1017,
1043,
1031,
1024,
1030,
1012,
1063,
1031,
1005,
994,
970,
966,
952,
956,
912,
989,
989,
863,
945,
929,
905,
887,
861,
909,
878,
852,
915,
854,
867,
886,
843,
884,
851,
857,
867,
823,
850,
802,
879,
834,
801,
846,
885,
806,
816,
815,
730,
773,
816,
815,
762,
736,
786,
789,
739,
737,
701,
736,
709,
724,
701,
711,
719,
704,
694,
705,
648,
687,
693,
652,
706,
648,
659,
684,
626,
621,
671,
608,
615,
566,
671,
586,
610,
590,
612,
583,
573,
575,
611,
627,
563,
590,
607,
573,
569,
566,
550,
519,
554,
557,
531,
531,
475,
527,
545,
539,
483,
484,
474,
485,
453,
479,
466,
519,
491,
502,
459,
455,
452,
429,
439,
436,
435,
399,
450,
442,
431,
403,
445,
431,
434,
414,
414,
411,
365,
381,
349,
407,
412,
339,
424,
432,
415,
451,
426,
443,
501,
407,
423,
374,
336,
344,
359,
315,
323,
359,
338,
336,
329,
295,
325,
295,
346,
316,
323,
320,
305,
280,
325,
287,
291,
315,
293,
253,
291,
237,
263,
278,
266,
258,
272,
247,
243,
263,
235,
253,
230,
241,
264,
233,
237,
228,
231,
214,
236,
236,
235,
201,
195,
215,
202,
215,
199,
172,
176,
218,
189,
209,
189,
186,
163,
174,
156,
177,
176,
163,
162,
179,
156,
176,
124,
163,
157,
175,
157,
157,
151,
141,
124,
149,
139,
139,
154,
135,
168,
148,
145,
148,
146,
135,
147,
132,
116,
117,
129,
125,
100,
118,
103,
136,
123,
86,
116,
104,
128,
104,
109,
118,
104,
103,
92,
93,
95,
95,
76,
95,
95,
89,
99,
102,
99,
87,
87,
73,
77,
67,
61,
68,
80,
79,
68,
74,
73,
78,
81,
68,
56,
65,
66,
63,
56,
64,
53,
62,
60,
72,
56,
53,
44,
68,
50,
61,
59,
54,
52,
49,
48,
42,
53,
57,
51,
42,
50,
31,
47,
42,
44,
44,
25,
38,
36,
39,
45,
32,
36,
33,
37,
25,
27,
28,
32,
18,
27,
27,
24,
29,
25,
23,
22,
20,
24,
18,
19,
19,
18,
22,
20,
24,
17,
14,
22,
12,
20,
22,
12,
11,
20,
13,
14,
15,
11,
11,
8,
15,
9,
9,
10,
9,
6,
3,
5,
4,
8,
2,
3,
3,
6,
6,
3,
0,
2,
2,
2,
0,
2,
1,
0,
0,
4,
0,
0,
0,
1,
1,
0,
0,
0,
1,
1,
1,
0,
0,
0,
1,
0,
2,
0,
1,
1,
1,
2,
0,
1,
0,
0,
2,
1,
1,
0,
1,
0,
0,
0,
0,
1,
1,
0,
1,
2,
0,
2,
1,
0,
1,
0,
0,
1,
0,
1,
0,
0,
1,
0,
0,
0,
1,
0,
0,
0,
1,
0,
0,
1,
0,
1,
0,
0,
1,
1,
1,
0,
0,
0,
1,
2,
0,
0,
1,
2,
1,
1,
0,
0,
0,
1,
0,
0,
0,
1,
0,
1,
1,
0,
0,
0,
1,
1,
0,
0,
1,
0,
0,
0,
1,
1,
0,
0,
0,
0,
0,
0,
0,
0,
0,
1,
0,
0,
1,
0,
0,
0,
0,
0,
0,
0,
1,
0,
0,
0,
0,
0,
0,
0,
1,
1,
0,
0,
0,
0,
0,
0,
0,
0,
1,
0,
0,
0,
1,
0,
0,
0,
0,
0,
0,
1,
0,
0,
0,
0,
0,
0,
0,
0,
0,
0,
0,
0,
0,
1,
0,
0,
0,
0,
0,
1,
0,
0,
0,
0,
0,
0,
0,
0,
0,
0,
1,
0,
0,
0,
0,
1,
0,
0,
0,
0,
0,
1,
0,
0,
1,
0,
0,
0,
0,
0,
0,
0,
0,
0,
0,
0,
0,
0,
0,
0,
0,
0,
0,
0,
0,
0,
0,
0,
0,
0,
0,
0,
0,
0,
0,
0,
0,
0,
0,
0,
0,
0,
0,
0,
0,
0,
0,
0,
0,
0,
0,
0,
0,
0,
0,
0,
0,
0,
0,
0,
0,
0,
1,
0,
0,
0,
0,
0,
0,
0,
0,
0,
0,
0,
0,
0,
0,
0,
0,
0,
0,
0,
0,
0,
0,
0,
0,
0,
0,
0,
0,
0,
0,
0,
0,
0,
0,
0,
0,
0,
0,
0,
0,
0,
0,
0,
0,
0,
0,
0,
1,
0,
0,
0,
0,
0,
0,
0,
0,
0,
0,
0,
0,
0,
0,
0,
0,
0,
0,
0,
0,
0,
0,
0,
0,
0,
0,
0,
0,
0,
0,
0,
0,
0,
0,
0,
0,
0,
0,
0,
0,
0,
0,
0,
0,
0,
0,
0,
0,
0,
0,
0,
0,
0,
0,
0,
0,
0,
0,
0,
0,
0,
0,
0,
0,
0,
0,
0,
0,
0,
0,
0,
0,
0,
0,
0,
0,
0,
0,
0,
0,
0,
0,
0,
0,
0,
0,
0,
0,
0,
0,
0,
0,
0,
0,
0,
0,
0,
0,
0,
0,
0,
0,
0,
0,
0,
0,
0,
0,
0,
0,
0,
0,
0,
0,
0,
0,
0,
0,
0,
0,
0,
0,
0,
0,
0,
0,
0,
0,
0,
0,
0,
0,
0,
0,
0,
0,
0,
0,
0,
0,
0,
0,
0,
0,
0,
0,
0,
0,
0,
0,
0,
0,
0,
0,
0,
0,
0,
0,
0,
0,
0,
0,
0,
0,
0,
0,
0,
0,
0,
0,
0,
0,
0,
0,
0,
0,
0,
0,
0,
0,
0,
0,
0,
0,
0,
0,
0,
0,
0,
0,
0,
0,
0,
0,
0,
0,
0,
0,
0,
0,
0,
0,
0,
0,
0,
0,
0,
0,
0,
0,
0,
0,
0,
0,
0,
0,
0,
0,
0,
0,
0,
0,
0,
0,
0,
0,
0,
0,
0,
0,
0,
0,
0,
0,
0,
0,
0,
0,
0,
0,
0,
0,
0,
0,
0,
0,
0,
0,
0,
0,
0,
0,
0,
0,
0,
0,
0,
0,
0,
0,
0,
0,
0,
0,
0,
0,
0,
0,
0,
0,
0,
0,
0,
0,
0,
0,
0,
0,
0,
0,
0,
0,
0,
0,
0,
0,
0,
0,
0,
0,
0,
0,
0,
0,
0,
0,
0,
0,
0,
0,
0,
0,
0,
0,
0,
0,
0,
0,
0,
0,
0,
0,
0,
0,
0,
0,
0,
0,
0,
0,
0,
0,
0,
0,
0,
0,
0,
0,
0,
0,
0,
0,
0,
0,
0,
0,
0,
0,
0,
0,
0,
0,
0,
0,
0,
0,
0,
0,
0,
0,
0,
0,
0,
0,
0,
0,
0,
0,
0,
0,
0,
0,
0,
0,
0,
0,
0,
0,
0,
0,
0,
0,
0,
0,
0,
0,
0,
0,
0,
0,
0,
0,
0,
0,
0,
0,
0,
0,
#ENDOFDATA   :