File: N132962/Quantification/20 keV/MMM2/SPI MM2 SPI Molybdenite[6][4].msa
#FORMAT      : EMSA/MAS Spectral Data File
#VERSION     : 1.0
#TITLE       : SPI MM2 SPI Molybdenite[6][all]
#DATE        : 13-MAR-2025
#TIME        : 10:20
#OWNER       : Unknown
#NPOINTS     : 4096
#NCOLUMNS    : 1
#XUNITS      : eV
#YUNITS      : counts
#DATATYPE    : Y
#XPERCHAN    : 9.99778
#OFFSET      : 1.69135
#BEAMKV      : 20
#SIGNALTYPE  : EDS
#ELEVANGLE   : 35
#AZIMANGLE   : 0
#LIVETIME    : 239.349
#REALTIME    : 265.712
#PROBECUR    : 1.02606
#TAUWIND     : 0
#TDEADLYR    : 0
#TACTLYR     : 0.045
#TALWIND     : 0.025
#CHOFFSET    : 0.0
#XLABEL      : Energy (eV)
#YLABEL      : Counts
#XPOSITION   : 5.79096
#YPOSITION   : -3.29739
#ZPOSITION   : 31.0351
#EDSDET      : SD
##SPECIMEN   : SPI MM2 SPI Molybdenite[6][all]
##D2STDCMP   : SPI Molybdenite,(S:39.84),(Mo:59.29),5.0
##DET_HASH   : 12273538-fd48-a23f-0a19-f1e6fa85caef
##CALIB_HASH : 6abaa72c-aa41-8738-0be9-f592914732f3
##WORKING    : 15.0 mm
##DET_NAME   : EDAX All
##DET_MODE   : MediumLE
#SPECTRUM    :
21,
31,
19,
192,
1327,
3054,
4226,
6001,
13422,
17242,
8410,
2976,
2377,
2454,
2576,
3213,
4679,
8357,
13971,
13592,
7960,
5714,
5840,
5719,
5662,
5261,
5103,
5439,
5800,
6076,
6132,
6335,
6438,
6815,
6978,
6927,
7466,
7242,
7575,
7563,
7787,
7984,
7893,
8113,
8578,
8463,
8602,
8746,
8993,
9007,
9087,
9048,
8947,
8819,
9083,
9086,
9283,
10077,
10616,
10460,
9890,
9198,
8746,
8470,
9177,
10770,
14024,
16755,
16121,
13404,
12884,
13859,
18595,
34776,
92033,
245432,
458304,
528066,
378990,
206164,
128129,
91866,
65094,
43266,
24005,
12491,
7356,
5844,
4965,
3991,
3437,
3281,
3413,
3953,
4312,
4199,
3820,
3333,
3139,
3171,
3101,
3087,
3057,
3151,
3212,
3188,
3166,
3174,
3137,
3241,
3273,
3255,
3299,
3315,
3450,
3319,
3227,
3346,
3305,
3321,
3310,
3336,
3350,
3297,
3303,
3384,
3283,
3341,
3291,
3315,
3378,
3368,
3424,
3368,
3255,
3430,
3299,
3315,
3261,
3308,
3193,
3210,
3345,
3380,
3307,
3298,
3276,
3270,
3266,
3297,
3440,
3750,
4162,
4695,
4804,
4647,
4154,
3882,
3701,
3571,
3376,
3172,
3096,
3035,
2957,
3050,
2999,
2981,
2971,
2865,
2925,
2900,
2882,
2950,
2836,
2841,
2794,
2837,
2815,
2841,
2746,
2917,
2716,
2863,
2782,
2757,
2576,
2773,
2701,
2658,
2705,
2669,
2612,
2678,
2576,
2691,
2602,
2619,
2578,
2626,
2488,
2495,
2508,
2505,
2429,
2445,
2439,
2387,
2363,
2432,
2490,
2535,
2680,
2739,
2678,
2542,
2506,
2460,
2405,
2244,
2280,
2320,
2208,
2221,
2162,
2193,
2155,
2173,
2134,
2164,
2245,
2078,
2158,
2124,
2087,
2131,
2184,
2078,
2132,
2123,
1982,
2080,
2016,
1980,
2075,
2095,
1946,
1963,
2035,
2069,
2059,
1991,
1914,
1867,
1832,
1854,
1901,
1856,
1753,
1802,
1725,
1764,
1739,
1790,
1692,
1748,
1776,
1707,
1719,
1701,
1764,
1654,
1724,
1678,
1625,
1714,
1602,
1605,
1636,
1600,
1580,
1583,
1562,
1631,
1576,
1616,
1625,
1560,
1493,
1478,
1514,
1475,
1479,
1475,
1482,
1520,
1449,
1454,
1433,
1473,
1398,
1432,
1434,
1417,
1405,
1325,
1361,
1404,
1480,
1392,
1352,
1312,
1259,
1320,
1255,
1313,
1318,
1304,
1247,
1363,
1314,
1262,
1203,
1318,
1264,
1212,
1244,
1226,
1254,
1180,
1179,
1218,
1127,
1163,
1141,
1101,
1076,
1145,
1086,
1085,
1109,
1100,
1057,
1081,
1147,
1107,
1077,
1046,
1117,
1040,
1006,
1032,
1031,
1041,
1044,
1013,
1017,
975,
1008,
955,
957,
966,
896,
999,
958,
898,
926,
901,
951,
864,
865,
868,
894,
873,
825,
910,
852,
847,
819,
846,
804,
848,
850,
764,
765,
755,
785,
773,
748,
747,
746,
746,
735,
764,
759,
749,
752,
719,
706,
713,
718,
724,
723,
686,
656,
681,
658,
639,
705,
649,
666,
640,
660,
654,
591,
623,
622,
647,
638,
573,
585,
555,
600,
569,
613,
579,
560,
556,
550,
543,
555,
535,
583,
496,
522,
543,
511,
505,
495,
513,
552,
529,
485,
500,
471,
502,
449,
440,
462,
470,
432,
404,
447,
427,
422,
448,
392,
420,
432,
439,
413,
384,
370,
381,
403,
351,
367,
401,
385,
364,
383,
345,
347,
325,
339,
350,
325,
360,
390,
351,
343,
327,
346,
297,
281,
320,
314,
319,
297,
259,
283,
280,
279,
278,
311,
299,
256,
303,
280,
271,
245,
262,
276,
271,
270,
226,
264,
239,
245,
224,
212,
227,
232,
245,
231,
219,
236,
203,
243,
215,
230,
202,
205,
218,
191,
190,
189,
199,
188,
210,
202,
179,
191,
167,
182,
183,
162,
168,
162,
148,
147,
150,
156,
166,
158,
161,
138,
135,
133,
146,
156,
142,
137,
137,
134,
134,
131,
117,
114,
119,
123,
140,
149,
122,
110,
129,
117,
109,
106,
102,
88,
116,
98,
105,
88,
113,
89,
102,
84,
102,
96,
111,
87,
84,
102,
92,
82,
72,
82,
80,
73,
77,
64,
65,
66,
78,
57,
64,
70,
49,
64,
61,
52,
61,
58,
68,
54,
68,
56,
41,
43,
60,
46,
53,
43,
47,
44,
42,
42,
37,
31,
41,
39,
32,
38,
26,
40,
37,
29,
33,
31,
34,
29,
25,
39,
21,
23,
37,
29,
28,
30,
20,
27,
17,
18,
16,
21,
17,
13,
9,
12,
12,
15,
7,
9,
14,
10,
6,
5,
3,
4,
11,
3,
5,
0,
3,
3,
2,
1,
1,
1,
0,
2,
0,
5,
1,
1,
1,
3,
1,
1,
0,
1,
2,
1,
2,
1,
3,
2,
2,
1,
0,
1,
0,
4,
0,
1,
0,
2,
0,
0,
0,
1,
1,
1,
1,
1,
2,
1,
1,
0,
0,
0,
1,
0,
2,
1,
1,
1,
0,
0,
0,
1,
1,
2,
1,
0,
0,
1,
1,
0,
0,
0,
0,
0,
0,
2,
0,
0,
0,
0,
1,
0,
2,
0,
0,
0,
1,
0,
1,
0,
2,
0,
0,
1,
1,
1,
0,
0,
1,
0,
0,
1,
0,
1,
2,
0,
0,
0,
0,
0,
1,
0,
0,
0,
1,
1,
0,
1,
1,
1,
1,
0,
0,
1,
1,
1,
1,
0,
0,
0,
0,
0,
0,
0,
0,
0,
1,
0,
0,
0,
0,
0,
0,
1,
0,
0,
0,
0,
1,
0,
0,
0,
1,
0,
0,
0,
0,
0,
0,
0,
0,
0,
0,
1,
0,
0,
1,
0,
0,
0,
1,
0,
0,
0,
0,
0,
0,
0,
1,
0,
1,
0,
0,
0,
2,
0,
0,
0,
1,
0,
0,
1,
0,
0,
0,
0,
0,
0,
0,
0,
1,
0,
0,
0,
0,
0,
0,
0,
0,
0,
0,
0,
0,
0,
0,
0,
0,
0,
0,
0,
0,
0,
0,
0,
0,
0,
0,
0,
0,
0,
0,
0,
0,
0,
0,
0,
0,
0,
0,
0,
1,
0,
0,
0,
0,
0,
0,
0,
0,
0,
0,
0,
0,
0,
0,
0,
0,
0,
0,
0,
0,
0,
0,
1,
0,
0,
0,
0,
0,
0,
0,
0,
0,
0,
0,
0,
0,
0,
0,
0,
0,
0,
0,
0,
0,
0,
0,
0,
0,
0,
0,
0,
0,
0,
0,
0,
0,
0,
0,
0,
0,
0,
0,
0,
0,
0,
0,
0,
0,
0,
0,
0,
0,
0,
0,
0,
0,
0,
0,
0,
0,
0,
0,
1,
0,
0,
0,
0,
0,
0,
0,
0,
0,
0,
0,
0,
0,
0,
0,
0,
0,
0,
0,
0,
0,
0,
0,
0,
0,
0,
0,
0,
0,
0,
0,
0,
0,
0,
0,
0,
0,
0,
0,
0,
0,
0,
0,
0,
0,
0,
0,
0,
0,
0,
0,
0,
0,
0,
0,
0,
0,
0,
0,
0,
0,
0,
0,
0,
0,
0,
0,
0,
0,
0,
0,
0,
0,
0,
0,
0,
0,
0,
0,
0,
0,
0,
0,
0,
0,
0,
0,
0,
0,
0,
0,
0,
0,
0,
0,
0,
0,
0,
0,
0,
0,
0,
0,
0,
0,
0,
0,
0,
0,
0,
0,
0,
0,
0,
0,
0,
0,
0,
0,
0,
0,
0,
0,
0,
0,
0,
0,
0,
0,
0,
0,
0,
0,
0,
0,
0,
0,
0,
0,
0,
0,
0,
0,
0,
0,
0,
0,
0,
0,
0,
0,
0,
0,
0,
0,
0,
0,
0,
0,
0,
0,
0,
0,
0,
0,
0,
0,
0,
0,
0,
0,
0,
0,
0,
0,
0,
0,
0,
0,
0,
0,
0,
0,
0,
0,
0,
0,
0,
0,
0,
0,
0,
0,
0,
0,
0,
0,
0,
0,
0,
0,
0,
0,
0,
0,
0,
0,
0,
0,
0,
0,
0,
0,
0,
0,
0,
0,
0,
0,
0,
0,
0,
0,
0,
0,
0,
0,
0,
0,
0,
0,
0,
0,
0,
0,
0,
0,
0,
0,
0,
0,
0,
0,
0,
0,
0,
0,
0,
0,
0,
0,
0,
0,
0,
0,
0,
0,
0,
0,
0,
0,
0,
0,
0,
0,
0,
0,
0,
0,
0,
0,
0,
0,
0,
0,
0,
0,
0,
0,
0,
0,
0,
0,
0,
0,
0,
0,
0,
0,
0,
0,
0,
0,
0,
0,
0,
0,
0,
0,
0,
0,
0,
0,
0,
0,
0,
0,
0,
0,
0,
0,
0,
0,
0,
0,
0,
0,
0,
0,
0,
0,
0,
0,
0,
0,
0,
0,
0,
0,
0,
0,
0,
0,
0,
0,
0,
0,
0,
0,
0,
0,
0,
0,
0,
0,
0,
0,
0,
0,
0,
0,
0,
0,
0,
0,
0,
0,
0,
0,
0,
0,
0,
0,
0,
0,
0,
0,
0,
0,
0,
0,
0,
0,
0,
0,
0,
0,
0,
0,
0,
0,
#ENDOFDATA   :