File: N132962/Quantification/20 keV/MMM2/SPI MM2 SPI Orthoclaise[3][4].msa
#FORMAT      : EMSA/MAS Spectral Data File
#VERSION     : 1.0
#TITLE       : SPI MM2 SPI Orthoclaise[3][all]
#DATE        : 13-MAR-2025
#TIME        : 10:26
#OWNER       : Unknown
#NPOINTS     : 4096
#NCOLUMNS    : 1
#XUNITS      : eV
#YUNITS      : counts
#DATATYPE    : Y
#XPERCHAN    : 9.99778
#OFFSET      : 1.69135
#BEAMKV      : 20
#SIGNALTYPE  : EDS
#ELEVANGLE   : 35
#AZIMANGLE   : 0
#LIVETIME    : 239.856
#REALTIME    : 255.978
#PROBECUR    : 1.02606
#TAUWIND     : 0
#TDEADLYR    : 0
#TACTLYR     : 0.045
#TALWIND     : 0.025
#CHOFFSET    : 0.0
#XLABEL      : Energy (eV)
#YLABEL      : Counts
#XPOSITION   : 6.16898
#YPOSITION   : 0.18017
#ZPOSITION   : 31.0351
#EDSDET      : SD
##SPECIMEN   : SPI MM2 SPI Orthoclaise[3][all]
##D2STDCMP   : SPI Orthoclaise,(O:45.86),(Na:0.67),(Al:8.85),(Si:30.29),(K:12.85),(Fe:1.4),(Ba:0.04),5.0
##DET_HASH   : 12273538-fd48-a23f-0a19-f1e6fa85caef
##CALIB_HASH : 6abaa72c-aa41-8738-0be9-f592914732f3
##WORKING    : 15.0 mm
##DET_NAME   : EDAX All
##DET_MODE   : MediumLE
#SPECTRUM    :
33,
28,
10,
7,
58,
257,
891,
3106,
8836,
10889,
5374,
2223,
2079,
2675,
4348,
16149,
63815,
126056,
92410,
24200,
3868,
2084,
2524,
3448,
3534,
2695,
2327,
2409,
2651,
2719,
2731,
2885,
3120,
3551,
4234,
4513,
4046,
3850,
3874,
3923,
4104,
4322,
4481,
4548,
4835,
5128,
6199,
12899,
38339,
74613,
75943,
41147,
16028,
8115,
7469,
18588,
74389,
191988,
261457,
184499,
73720,
24749,
10891,
5281,
3026,
2531,
2651,
2590,
2480,
2408,
2429,
2426,
2564,
2554,
2789,
2869,
2889,
2718,
2603,
2536,
2478,
2543,
2546,
2526,
2473,
2458,
2458,
2412,
2455,
2387,
2438,
2473,
2411,
2487,
2418,
2500,
2397,
2404,
2378,
2419,
2391,
2343,
2262,
2314,
2517,
2911,
3842,
7454,
18460,
41010,
62673,
62899,
41307,
18355,
6777,
3377,
3252,
4301,
6286,
8661,
9320,
7268,
4514,
2596,
2095,
1776,
1852,
1831,
1885,
1829,
1806,
1744,
1714,
1685,
1723,
1657,
1671,
1689,
1629,
1669,
1576,
1556,
1606,
1623,
1513,
1553,
1495,
1603,
1614,
1625,
1575,
1581,
1498,
1525,
1500,
1468,
1472,
1490,
1503,
1502,
1630,
1433,
1468,
1460,
1402,
1371,
1440,
1536,
1510,
1545,
1472,
1416,
1303,
1379,
1335,
1265,
1356,
1341,
1265,
1290,
1222,
1229,
1263,
1205,
1173,
1214,
1194,
1177,
1173,
1171,
1117,
1119,
1167,
1110,
1118,
1142,
1138,
1099,
1014,
1020,
1098,
1019,
1056,
1050,
1073,
1103,
998,
1122,
1075,
1302,
1833,
2633,
3866,
4363,
4152,
3366,
2307,
1494,
1133,
1002,
946,
903,
954,
966,
991,
928,
907,
880,
924,
934,
952,
997,
974,
1085,
1232,
1312,
1241,
1095,
939,
859,
791,
765,
816,
723,
775,
779,
745,
779,
768,
786,
789,
755,
724,
730,
773,
703,
754,
682,
719,
720,
724,
691,
700,
707,
682,
650,
647,
663,
682,
652,
674,
693,
620,
659,
643,
620,
612,
652,
593,
569,
605,
589,
565,
595,
563,
555,
583,
630,
571,
591,
550,
535,
583,
546,
556,
537,
529,
534,
532,
502,
550,
534,
552,
548,
499,
514,
501,
500,
456,
483,
487,
472,
476,
503,
497,
443,
478,
501,
443,
446,
452,
440,
420,
452,
444,
468,
440,
434,
422,
426,
426,
417,
407,
393,
444,
364,
421,
392,
422,
387,
374,
408,
393,
360,
381,
383,
338,
347,
371,
325,
332,
358,
352,
329,
344,
383,
345,
307,
322,
326,
325,
316,
310,
311,
322,
302,
326,
293,
331,
294,
291,
266,
295,
280,
320,
293,
303,
302,
291,
281,
274,
251,
288,
260,
262,
277,
255,
263,
256,
248,
250,
256,
248,
250,
248,
229,
269,
212,
244,
252,
207,
219,
256,
196,
213,
242,
209,
226,
216,
214,
232,
205,
225,
223,
178,
210,
189,
179,
183,
202,
190,
174,
198,
194,
182,
190,
170,
168,
191,
165,
188,
168,
174,
200,
182,
175,
185,
158,
143,
173,
167,
133,
153,
128,
155,
156,
153,
155,
146,
135,
125,
158,
154,
130,
112,
133,
135,
117,
122,
128,
135,
125,
130,
117,
109,
109,
120,
102,
126,
114,
99,
114,
107,
106,
109,
125,
104,
92,
93,
89,
115,
81,
107,
99,
99,
76,
114,
92,
84,
92,
94,
99,
87,
94,
74,
73,
76,
96,
75,
78,
71,
85,
62,
92,
64,
78,
61,
73,
76,
60,
79,
64,
67,
67,
60,
66,
75,
66,
61,
65,
56,
67,
73,
47,
52,
56,
47,
61,
61,
41,
58,
46,
53,
47,
50,
50,
47,
60,
52,
48,
51,
41,
62,
40,
42,
40,
49,
42,
48,
47,
51,
47,
47,
39,
48,
38,
40,
32,
38,
47,
35,
35,
29,
33,
30,
21,
33,
36,
27,
28,
26,
25,
25,
25,
29,
20,
27,
28,
20,
17,
19,
22,
20,
25,
32,
22,
28,
32,
15,
24,
19,
23,
14,
17,
18,
18,
27,
17,
9,
13,
15,
18,
15,
19,
13,
13,
19,
10,
16,
19,
11,
15,
16,
11,
13,
8,
9,
13,
7,
11,
12,
11,
11,
6,
6,
5,
15,
15,
6,
5,
10,
14,
4,
9,
5,
7,
4,
9,
8,
3,
3,
4,
5,
4,
3,
1,
2,
1,
5,
4,
5,
2,
3,
1,
4,
4,
1,
1,
5,
3,
1,
1,
1,
0,
2,
1,
1,
0,
1,
1,
0,
0,
0,
0,
1,
0,
0,
0,
0,
0,
0,
1,
0,
0,
0,
0,
0,
0,
0,
0,
0,
0,
2,
0,
0,
0,
0,
0,
0,
0,
0,
0,
0,
0,
0,
0,
0,
0,
0,
0,
0,
0,
0,
0,
0,
0,
0,
0,
0,
0,
0,
0,
0,
0,
0,
0,
0,
0,
0,
0,
0,
0,
0,
0,
0,
0,
0,
0,
0,
0,
0,
0,
0,
0,
0,
0,
0,
0,
0,
0,
0,
0,
0,
0,
0,
0,
0,
0,
0,
0,
0,
0,
0,
0,
0,
0,
0,
0,
0,
0,
0,
0,
0,
0,
0,
0,
0,
1,
0,
0,
0,
0,
0,
0,
0,
0,
0,
0,
0,
0,
0,
0,
0,
0,
0,
0,
0,
0,
0,
0,
0,
0,
0,
1,
0,
0,
0,
0,
0,
0,
0,
0,
0,
0,
0,
0,
0,
0,
0,
0,
0,
0,
0,
0,
0,
1,
0,
0,
0,
0,
0,
0,
0,
0,
0,
0,
0,
0,
0,
0,
0,
0,
0,
0,
0,
0,
0,
0,
0,
0,
0,
0,
0,
0,
0,
0,
0,
0,
0,
0,
0,
0,
0,
0,
0,
0,
0,
0,
0,
0,
0,
0,
0,
0,
0,
0,
0,
0,
0,
0,
0,
0,
0,
0,
0,
0,
0,
0,
0,
0,
0,
0,
0,
0,
0,
0,
0,
0,
0,
0,
0,
0,
0,
0,
0,
0,
0,
0,
0,
0,
0,
0,
0,
0,
0,
0,
0,
0,
0,
0,
0,
0,
0,
0,
0,
0,
0,
0,
0,
0,
0,
0,
0,
0,
0,
0,
0,
0,
0,
0,
0,
0,
0,
0,
0,
0,
0,
0,
0,
0,
0,
0,
0,
0,
0,
0,
0,
0,
0,
0,
0,
0,
0,
0,
0,
0,
0,
0,
0,
0,
0,
0,
0,
0,
0,
0,
0,
0,
0,
0,
0,
0,
0,
0,
0,
0,
0,
0,
0,
0,
0,
0,
0,
0,
0,
0,
0,
0,
0,
0,
0,
0,
0,
0,
0,
0,
0,
0,
0,
0,
0,
0,
0,
0,
0,
0,
0,
0,
0,
0,
0,
0,
0,
0,
0,
0,
0,
0,
0,
0,
0,
0,
0,
0,
0,
0,
0,
0,
0,
0,
0,
0,
0,
0,
0,
0,
0,
0,
0,
0,
0,
0,
0,
0,
0,
0,
0,
0,
0,
0,
0,
0,
0,
0,
0,
0,
0,
0,
0,
0,
0,
0,
0,
0,
0,
0,
0,
0,
0,
0,
0,
0,
0,
0,
0,
0,
0,
0,
0,
0,
0,
0,
0,
0,
0,
0,
0,
0,
0,
0,
0,
0,
0,
0,
0,
0,
0,
0,
0,
0,
0,
0,
0,
0,
0,
0,
0,
0,
0,
0,
0,
0,
0,
0,
0,
0,
0,
0,
0,
0,
0,
0,
0,
0,
0,
0,
0,
0,
0,
0,
0,
0,
0,
0,
0,
0,
0,
0,
0,
0,
0,
0,
0,
0,
0,
0,
0,
0,
0,
0,
0,
0,
0,
0,
0,
0,
0,
0,
0,
0,
0,
0,
0,
0,
0,
0,
0,
0,
0,
0,
0,
0,
0,
0,
0,
0,
0,
0,
0,
0,
0,
0,
0,
0,
0,
0,
0,
0,
0,
0,
0,
0,
0,
0,
0,
0,
0,
0,
0,
0,
0,
0,
0,
0,
0,
0,
0,
0,
0,
0,
0,
0,
0,
0,
0,
0,
0,
0,
0,
0,
0,
0,
0,
0,
0,
0,
0,
0,
0,
0,
0,
0,
0,
0,
0,
0,
0,
0,
0,
0,
0,
0,
0,
0,
0,
0,
0,
0,
0,
0,
0,
0,
0,
0,
0,
0,
0,
0,
0,
0,
0,
0,
0,
0,
0,
0,
0,
0,
0,
0,
0,
0,
0,
0,
0,
0,
0,
0,
0,
0,
0,
0,
0,
0,
0,
0,
0,
0,
0,
0,
0,
0,
0,
0,
0,
0,
0,
0,
0,
0,
0,
0,
0,
0,
0,
0,
0,
0,
0,
0,
0,
0,
0,
0,
0,
0,
0,
0,
0,
0,
0,
0,
0,
0,
0,
0,
0,
0,
0,
0,
0,
0,
0,
0,
0,
0,
0,
0,
0,
0,
0,
0,
0,
0,
0,
0,
0,
0,
0,
0,
0,
0,
0,
0,
0,
0,
#ENDOFDATA   :