File: N132962/Quantification/20 keV/MMM2/SPI MM2 Pyrope[3][4].msa
#FORMAT      : EMSA/MAS Spectral Data File
#VERSION     : 1.0
#TITLE       : SPI MM2 Pyrope[3][all]
#DATE        : 13-MAR-2025
#TIME        : 12:43
#OWNER       : Unknown
#NPOINTS     : 4096
#NCOLUMNS    : 1
#XUNITS      : eV
#YUNITS      : counts
#DATATYPE    : Y
#XPERCHAN    : 9.99778
#OFFSET      : 1.69135
#BEAMKV      : 20
#SIGNALTYPE  : EDS
#ELEVANGLE   : 35
#AZIMANGLE   : 0
#LIVETIME    : 239.931
#REALTIME    : 255.142
#PROBECUR    : 1.02627
#TAUWIND     : 0
#TDEADLYR    : 0
#TACTLYR     : 0.045
#TALWIND     : 0.025
#CHOFFSET    : 0.0
#XLABEL      : Energy (eV)
#YLABEL      : Counts
#XPOSITION   : 4.57482
#YPOSITION   : 1.52165
#ZPOSITION   : 31.03511
#EDSDET      : SD
##SPECIMEN   : SPI MM2 Pyrope[3][all]
##D2STDCMP   : Pyrope,(O:47.6258),(Mg:18.0873),(Al:13.3861),(Si:20.9007),5.0
##DET_HASH   : 12273538-fd48-a23f-0a19-f1e6fa85caef
##CALIB_HASH : 6abaa72c-aa41-8738-0be9-f592914732f3
##WORKING    : 15.0 mm
##DET_NAME   : EDAX All
##DET_MODE   : MediumLE
#SPECTRUM    :
14,
22,
8,
12,
67,
299,
874,
2567,
7702,
10490,
5705,
2752,
2736,
3407,
6087,
22297,
89183,
175004,
128257,
33600,
5497,
3037,
4096,
6796,
6714,
4132,
2650,
2511,
2595,
2648,
2727,
2793,
3076,
3363,
3901,
4137,
3984,
4173,
4965,
9623,
32196,
78215,
94672,
54218,
17034,
5887,
5297,
12207,
39054,
78723,
80465,
42388,
14570,
6092,
5128,
11061,
40743,
104700,
141901,
100262,
40651,
14664,
6979,
4044,
2784,
2603,
2679,
2636,
2524,
2412,
2300,
2423,
2413,
2515,
2626,
2794,
2822,
2486,
2477,
2454,
2418,
2370,
2391,
2527,
2464,
2466,
2471,
2452,
2412,
2429,
2522,
2471,
2379,
2423,
2317,
2422,
2292,
2313,
2430,
2542,
2463,
2380,
2274,
2314,
2270,
2286,
2310,
2261,
2362,
2239,
2168,
2154,
2038,
2143,
2009,
2227,
2254,
2174,
2374,
2586,
4019,
7580,
12755,
15668,
13419,
8217,
4206,
2488,
2062,
1975,
2037,
2204,
2791,
3335,
3532,
3083,
2459,
1964,
1817,
1741,
1718,
1744,
1692,
1758,
1604,
1637,
1656,
1773,
2022,
2399,
2580,
2517,
2213,
1850,
1716,
1577,
1573,
1494,
1531,
1481,
1527,
1511,
1497,
1568,
1635,
1587,
1570,
1473,
1404,
1375,
1403,
1373,
1337,
1375,
1353,
1387,
1431,
1649,
2124,
2777,
3292,
3146,
2637,
1981,
1372,
1303,
1251,
1249,
1168,
1167,
1133,
1184,
1193,
1299,
1365,
1585,
1735,
1899,
1757,
1594,
1313,
1164,
1131,
1096,
1049,
1088,
1062,
1093,
1389,
2099,
3910,
7132,
10824,
12931,
12480,
9144,
5462,
2953,
1562,
1081,
1001,
962,
968,
912,
944,
940,
868,
870,
863,
1032,
989,
1217,
1408,
1718,
2164,
2346,
2249,
1802,
1355,
1028,
897,
804,
817,
743,
800,
754,
834,
781,
808,
815,
794,
752,
722,
721,
701,
724,
739,
663,
736,
673,
700,
668,
684,
682,
675,
661,
680,
686,
596,
648,
643,
613,
656,
707,
631,
675,
634,
653,
581,
580,
633,
631,
581,
592,
584,
552,
596,
550,
593,
591,
571,
574,
541,
539,
519,
549,
559,
520,
536,
501,
509,
527,
515,
528,
499,
491,
454,
495,
480,
453,
462,
472,
520,
477,
465,
472,
422,
445,
452,
448,
440,
457,
458,
433,
451,
441,
407,
426,
430,
466,
430,
449,
396,
409,
409,
364,
380,
362,
381,
389,
382,
392,
417,
371,
351,
359,
402,
353,
347,
363,
327,
335,
351,
378,
347,
361,
372,
313,
318,
300,
313,
350,
345,
319,
311,
305,
308,
308,
341,
340,
348,
279,
288,
300,
294,
268,
305,
292,
278,
264,
296,
288,
278,
275,
265,
262,
233,
264,
256,
278,
259,
270,
244,
248,
266,
224,
229,
260,
227,
226,
265,
247,
204,
238,
240,
232,
222,
218,
228,
223,
200,
215,
194,
213,
211,
241,
205,
208,
182,
202,
196,
179,
203,
183,
173,
171,
157,
191,
180,
180,
191,
173,
160,
172,
183,
169,
151,
157,
147,
159,
140,
166,
157,
151,
163,
152,
149,
151,
144,
146,
133,
124,
130,
141,
131,
147,
132,
143,
123,
142,
124,
126,
114,
114,
130,
111,
114,
118,
108,
103,
123,
103,
104,
74,
108,
93,
117,
108,
104,
109,
97,
106,
91,
94,
88,
89,
66,
85,
87,
99,
115,
97,
71,
82,
82,
92,
98,
82,
81,
76,
81,
71,
81,
77,
78,
74,
76,
85,
70,
74,
70,
54,
76,
68,
71,
64,
67,
73,
70,
74,
60,
51,
56,
60,
52,
48,
67,
69,
40,
53,
51,
52,
49,
48,
55,
43,
40,
47,
46,
62,
41,
43,
45,
49,
41,
31,
43,
45,
36,
33,
42,
49,
42,
33,
34,
34,
38,
41,
42,
34,
36,
29,
38,
36,
40,
40,
34,
28,
38,
25,
25,
31,
30,
29,
23,
25,
20,
29,
29,
30,
22,
23,
19,
37,
26,
16,
18,
22,
18,
24,
24,
15,
14,
23,
15,
19,
23,
21,
16,
18,
12,
12,
22,
23,
15,
16,
10,
11,
13,
9,
17,
15,
10,
10,
11,
15,
9,
13,
9,
14,
7,
8,
10,
12,
8,
11,
6,
11,
11,
4,
8,
6,
7,
8,
5,
2,
8,
11,
3,
5,
10,
5,
6,
4,
5,
7,
4,
8,
2,
1,
5,
2,
1,
3,
3,
2,
1,
1,
1,
2,
2,
3,
1,
1,
0,
0,
0,
0,
1,
0,
0,
0,
0,
0,
1,
0,
1,
0,
1,
0,
0,
0,
1,
0,
0,
0,
0,
0,
0,
0,
0,
0,
0,
0,
0,
0,
0,
0,
0,
0,
0,
0,
0,
0,
0,
0,
0,
0,
0,
0,
0,
0,
0,
0,
0,
0,
0,
0,
1,
0,
0,
0,
0,
0,
0,
0,
0,
0,
0,
0,
0,
0,
1,
0,
0,
0,
0,
0,
0,
0,
0,
1,
0,
0,
0,
0,
0,
0,
0,
0,
0,
0,
0,
0,
0,
0,
0,
0,
0,
0,
0,
0,
0,
0,
0,
0,
0,
0,
0,
0,
0,
0,
0,
0,
0,
0,
0,
0,
0,
0,
0,
0,
0,
0,
0,
0,
0,
0,
0,
0,
0,
0,
0,
0,
0,
0,
0,
0,
0,
0,
0,
0,
0,
0,
0,
0,
0,
0,
0,
0,
0,
0,
0,
0,
0,
0,
0,
0,
0,
0,
1,
0,
0,
0,
0,
0,
0,
0,
0,
0,
0,
0,
0,
0,
0,
0,
1,
0,
0,
0,
0,
0,
0,
0,
0,
0,
0,
0,
0,
0,
0,
0,
0,
0,
0,
0,
0,
0,
0,
0,
0,
0,
0,
0,
0,
0,
0,
0,
0,
0,
0,
0,
0,
1,
0,
0,
0,
0,
0,
0,
0,
0,
0,
0,
0,
0,
0,
0,
0,
0,
0,
0,
0,
0,
0,
0,
0,
0,
0,
0,
0,
0,
0,
0,
0,
0,
0,
0,
0,
0,
0,
0,
0,
0,
1,
0,
0,
0,
0,
0,
0,
0,
0,
0,
0,
1,
0,
0,
0,
0,
0,
0,
0,
0,
0,
0,
0,
0,
0,
0,
0,
0,
0,
0,
0,
0,
0,
0,
0,
0,
0,
0,
0,
0,
0,
0,
0,
0,
0,
0,
0,
0,
0,
0,
0,
0,
0,
0,
0,
0,
0,
0,
0,
0,
0,
0,
0,
0,
0,
0,
0,
0,
0,
0,
0,
0,
0,
0,
0,
0,
0,
0,
0,
0,
0,
0,
0,
0,
0,
0,
0,
0,
0,
0,
0,
0,
0,
0,
0,
0,
0,
0,
0,
0,
0,
0,
0,
0,
0,
0,
0,
0,
0,
0,
0,
0,
0,
0,
0,
0,
0,
0,
0,
0,
0,
0,
0,
0,
0,
0,
0,
0,
0,
0,
0,
0,
0,
0,
0,
0,
0,
0,
0,
0,
0,
0,
0,
0,
0,
0,
0,
0,
0,
0,
0,
0,
0,
0,
0,
0,
0,
0,
0,
0,
0,
0,
0,
0,
0,
0,
0,
0,
0,
0,
0,
0,
0,
0,
0,
0,
0,
0,
0,
0,
0,
0,
0,
0,
0,
0,
0,
0,
0,
0,
0,
0,
0,
0,
0,
0,
0,
0,
0,
0,
0,
0,
0,
0,
0,
0,
0,
0,
0,
0,
0,
0,
0,
0,
0,
0,
0,
0,
0,
0,
0,
0,
0,
0,
0,
0,
0,
0,
0,
0,
0,
0,
0,
0,
0,
0,
0,
0,
0,
0,
0,
0,
0,
0,
0,
0,
0,
0,
0,
0,
0,
0,
0,
0,
0,
0,
0,
0,
0,
0,
0,
0,
0,
0,
0,
0,
0,
0,
0,
0,
0,
0,
0,
0,
0,
0,
0,
0,
0,
0,
0,
0,
0,
0,
0,
0,
0,
0,
0,
0,
0,
0,
0,
0,
0,
0,
0,
0,
0,
0,
0,
0,
0,
0,
0,
0,
0,
0,
0,
0,
0,
0,
0,
0,
0,
0,
0,
0,
0,
0,
0,
0,
0,
0,
0,
0,
0,
0,
0,
0,
0,
0,
0,
0,
0,
0,
0,
0,
0,
0,
0,
0,
0,
0,
0,
0,
0,
0,
0,
0,
0,
0,
0,
0,
0,
0,
0,
0,
0,
0,
0,
0,
0,
0,
0,
0,
0,
0,
0,
0,
0,
0,
0,
0,
0,
0,
0,
0,
0,
0,
0,
0,
0,
0,
0,
0,
0,
0,
0,
0,
0,
0,
0,
0,
0,
0,
0,
0,
0,
0,
0,
0,
0,
0,
0,
0,
0,
0,
0,
0,
0,
0,
0,
0,
0,
0,
0,
0,
0,
0,
0,
0,
0,
0,
0,
0,
0,
0,
0,
0,
0,
0,
0,
0,
0,
0,
0,
0,
0,
0,
0,
0,
0,
0,
0,
0,
0,
0,
0,
0,
0,
0,
#ENDOFDATA   :