File: N132962/Quantification/20 keV/MMM2/SPI MM2 SPI Phlogpite[4][4].msa
#FORMAT      : EMSA/MAS Spectral Data File
#VERSION     : 1.0
#TITLE       : SPI MM2 SPI Phlogpite[4][all]
#DATE        : 13-MAR-2025
#TIME        : 10:45
#OWNER       : Unknown
#NPOINTS     : 4096
#NCOLUMNS    : 1
#XUNITS      : eV
#YUNITS      : counts
#DATATYPE    : Y
#XPERCHAN    : 9.99778
#OFFSET      : 1.69135
#BEAMKV      : 20
#SIGNALTYPE  : EDS
#ELEVANGLE   : 35
#AZIMANGLE   : 0
#LIVETIME    : 239.793
#REALTIME    : 254.625
#PROBECUR    : 1.02606
#TAUWIND     : 0
#TDEADLYR    : 0
#TACTLYR     : 0.045
#TALWIND     : 0.025
#CHOFFSET    : 0.0
#XLABEL      : Energy (eV)
#YLABEL      : Counts
#XPOSITION   : 1.46386
#YPOSITION   : -0.50064
#ZPOSITION   : 31.0351
#EDSDET      : SD
##SPECIMEN   : SPI MM2 SPI Phlogpite[4][all]
##D2STDCMP   : SPI Phlogpite,(H:0.48),(O:46.01),(Mg:17.47),(Al:6.47),(Si:20.19),(K:9.37)
##DET_HASH   : 12273538-fd48-a23f-0a19-f1e6fa85caef
##CALIB_HASH : 6abaa72c-aa41-8738-0be9-f592914732f3
##WORKING    : 15.0 mm
##DET_NAME   : EDAX All
##DET_MODE   : MediumLE
#SPECTRUM    :
24,
31,
9,
15,
70,
287,
950,
3214,
9138,
11950,
5901,
2575,
2526,
3178,
5388,
19375,
76748,
151106,
110694,
29268,
4845,
3300,
5158,
7091,
6337,
3875,
2770,
2621,
2807,
2879,
2770,
2971,
3265,
4660,
6501,
7028,
5457,
4580,
5226,
10522,
36522,
89794,
108446,
61688,
18888,
5962,
4504,
8302,
24176,
47384,
48034,
26397,
10370,
5654,
5038,
10901,
40419,
101987,
139289,
98992,
40507,
14263,
7052,
4010,
2725,
2507,
2535,
2605,
2532,
2394,
2475,
2510,
2458,
2558,
2654,
2637,
2644,
2653,
2487,
2471,
2556,
2512,
2567,
2583,
2599,
2511,
2489,
2457,
2370,
2456,
2468,
2488,
2484,
2520,
2400,
2447,
2350,
2389,
2437,
2559,
2513,
2345,
2344,
2259,
2335,
2544,
3099,
5229,
11483,
23978,
36880,
36781,
24618,
11323,
4556,
2731,
2631,
3159,
4463,
5666,
6175,
5070,
3469,
2593,
2145,
1970,
1881,
1827,
1856,
1823,
1795,
1873,
1753,
1771,
1666,
1710,
1692,
1649,
1690,
1676,
1647,
1704,
1699,
1642,
1585,
1713,
1779,
1963,
2392,
2638,
2557,
2222,
2053,
1748,
1559,
1529,
1500,
1552,
1507,
1620,
1744,
1801,
1740,
1606,
1575,
1497,
1482,
1424,
1424,
1359,
1387,
1497,
1474,
1399,
1319,
1306,
1285,
1263,
1312,
1249,
1229,
1193,
1250,
1203,
1208,
1248,
1242,
1194,
1119,
1189,
1182,
1078,
1146,
1228,
1259,
1257,
1352,
1391,
1234,
1152,
1083,
1096,
1037,
1040,
1059,
1068,
1073,
1079,
1200,
1775,
3186,
5518,
8217,
9901,
9157,
6899,
4286,
2351,
1451,
1079,
989,
917,
963,
919,
920,
861,
856,
838,
948,
971,
945,
1062,
1212,
1529,
1881,
2021,
1790,
1595,
1161,
970,
830,
775,
746,
768,
775,
766,
804,
807,
827,
861,
826,
744,
737,
760,
690,
745,
699,
707,
688,
681,
686,
679,
669,
655,
646,
730,
637,
648,
654,
604,
672,
640,
624,
603,
651,
592,
594,
605,
600,
579,
619,
572,
600,
588,
566,
551,
597,
604,
583,
616,
592,
531,
557,
542,
585,
476,
538,
474,
529,
513,
527,
470,
526,
474,
489,
484,
505,
468,
491,
464,
466,
477,
505,
433,
467,
475,
416,
463,
451,
455,
402,
428,
449,
422,
451,
457,
421,
396,
439,
403,
410,
400,
377,
447,
386,
398,
420,
386,
394,
365,
385,
397,
369,
414,
335,
390,
380,
362,
354,
389,
335,
365,
297,
377,
366,
330,
352,
301,
342,
339,
317,
326,
345,
309,
321,
319,
330,
309,
289,
281,
299,
292,
288,
315,
278,
288,
265,
293,
264,
228,
266,
270,
328,
280,
259,
274,
256,
239,
259,
274,
237,
274,
226,
216,
211,
248,
245,
247,
236,
238,
202,
221,
221,
182,
218,
198,
197,
231,
205,
212,
231,
214,
208,
186,
177,
227,
209,
179,
216,
191,
209,
159,
157,
199,
209,
189,
197,
167,
162,
168,
164,
154,
168,
172,
152,
170,
160,
158,
150,
158,
153,
128,
146,
138,
143,
160,
143,
138,
154,
154,
133,
134,
131,
129,
148,
104,
112,
151,
131,
114,
122,
124,
124,
114,
107,
123,
94,
90,
117,
119,
109,
110,
116,
108,
104,
98,
90,
102,
103,
101,
121,
87,
87,
101,
104,
85,
94,
104,
82,
60,
108,
96,
85,
90,
82,
91,
93,
69,
72,
83,
71,
66,
97,
74,
83,
73,
83,
75,
72,
55,
83,
80,
62,
65,
70,
62,
67,
50,
70,
55,
50,
71,
64,
59,
55,
53,
59,
62,
66,
50,
47,
55,
41,
53,
51,
60,
52,
46,
43,
55,
54,
39,
42,
42,
44,
54,
39,
52,
32,
27,
38,
35,
39,
42,
49,
39,
37,
37,
30,
28,
31,
44,
31,
36,
34,
28,
29,
39,
26,
27,
29,
26,
30,
29,
31,
28,
23,
17,
24,
24,
22,
15,
19,
12,
20,
27,
18,
23,
22,
25,
15,
20,
21,
12,
15,
24,
13,
13,
11,
20,
16,
15,
13,
17,
12,
13,
15,
15,
19,
10,
16,
13,
11,
9,
7,
11,
10,
5,
6,
10,
5,
5,
10,
8,
8,
16,
7,
5,
8,
3,
6,
7,
3,
7,
3,
13,
8,
5,
5,
2,
8,
10,
6,
4,
5,
4,
6,
4,
3,
5,
5,
6,
1,
3,
6,
2,
1,
1,
1,
2,
1,
0,
0,
3,
1,
1,
2,
0,
0,
0,
0,
0,
0,
1,
0,
1,
0,
0,
0,
0,
0,
0,
0,
0,
0,
0,
0,
1,
0,
0,
0,
0,
0,
0,
0,
0,
0,
0,
0,
1,
0,
1,
0,
0,
0,
0,
0,
0,
0,
0,
0,
0,
1,
0,
0,
1,
0,
0,
0,
0,
0,
0,
0,
0,
1,
0,
0,
0,
0,
0,
0,
0,
0,
0,
0,
0,
0,
0,
0,
0,
0,
0,
0,
0,
0,
0,
0,
0,
0,
1,
0,
0,
0,
0,
0,
1,
0,
0,
0,
0,
0,
0,
0,
0,
0,
0,
0,
0,
0,
0,
0,
0,
0,
0,
0,
0,
0,
0,
0,
0,
0,
0,
0,
0,
0,
0,
0,
0,
0,
0,
0,
0,
0,
0,
0,
0,
0,
0,
0,
0,
0,
0,
0,
0,
0,
0,
1,
0,
0,
0,
0,
0,
0,
0,
0,
0,
0,
0,
0,
0,
0,
0,
0,
0,
1,
0,
0,
0,
0,
0,
0,
0,
0,
0,
0,
0,
0,
0,
0,
0,
0,
0,
0,
0,
0,
0,
0,
0,
0,
0,
0,
0,
0,
0,
0,
0,
0,
0,
0,
0,
0,
0,
0,
0,
0,
0,
0,
0,
0,
0,
0,
0,
0,
0,
0,
0,
0,
0,
0,
0,
0,
0,
0,
0,
0,
0,
0,
0,
0,
0,
0,
0,
0,
0,
0,
0,
0,
0,
0,
0,
0,
0,
0,
0,
0,
0,
0,
0,
0,
0,
0,
0,
0,
0,
0,
0,
0,
0,
0,
0,
0,
0,
0,
0,
0,
0,
0,
0,
0,
0,
0,
0,
0,
0,
0,
0,
0,
0,
0,
0,
0,
0,
0,
0,
0,
0,
0,
0,
0,
0,
0,
0,
0,
0,
0,
0,
0,
0,
0,
0,
0,
0,
0,
0,
0,
0,
0,
0,
0,
0,
0,
0,
0,
0,
0,
0,
0,
0,
0,
0,
0,
0,
0,
0,
0,
0,
0,
0,
0,
0,
0,
0,
0,
0,
0,
0,
0,
0,
0,
0,
0,
0,
0,
0,
0,
0,
0,
0,
0,
0,
0,
0,
0,
0,
0,
0,
0,
0,
0,
0,
0,
0,
0,
0,
0,
0,
0,
0,
0,
0,
0,
0,
0,
0,
0,
0,
0,
0,
0,
0,
0,
0,
0,
0,
0,
0,
0,
0,
0,
0,
0,
0,
0,
0,
0,
0,
0,
0,
0,
0,
0,
0,
0,
0,
0,
0,
0,
0,
0,
0,
0,
0,
0,
0,
0,
0,
0,
0,
0,
0,
0,
0,
0,
0,
0,
0,
0,
0,
0,
0,
0,
0,
0,
0,
0,
0,
0,
0,
0,
0,
0,
0,
0,
0,
0,
0,
0,
0,
0,
0,
0,
0,
0,
0,
0,
0,
0,
0,
0,
0,
0,
0,
0,
0,
0,
0,
0,
0,
0,
0,
0,
0,
0,
0,
0,
0,
0,
0,
0,
0,
0,
0,
0,
0,
0,
0,
0,
0,
0,
0,
0,
0,
0,
0,
0,
0,
0,
0,
0,
0,
0,
0,
0,
0,
0,
0,
0,
0,
0,
0,
0,
0,
0,
0,
0,
0,
0,
0,
0,
0,
0,
0,
0,
0,
0,
0,
0,
0,
0,
0,
0,
0,
0,
0,
0,
0,
0,
0,
0,
0,
0,
0,
0,
0,
0,
0,
0,
0,
0,
0,
0,
0,
0,
0,
0,
0,
0,
0,
0,
0,
0,
0,
0,
0,
0,
0,
0,
0,
0,
0,
0,
0,
0,
0,
0,
0,
0,
0,
0,
0,
0,
0,
0,
0,
0,
0,
0,
0,
0,
0,
0,
0,
0,
0,
0,
0,
0,
0,
0,
0,
0,
0,
0,
0,
0,
0,
0,
0,
0,
0,
0,
0,
0,
0,
0,
0,
0,
0,
0,
0,
0,
0,
0,
0,
0,
0,
0,
0,
0,
0,
0,
0,
0,
0,
0,
0,
0,
0,
0,
0,
0,
0,
0,
0,
0,
0,
0,
0,
0,
0,
0,
0,
0,
0,
0,
0,
0,
0,
0,
0,
0,
0,
0,
0,
0,
0,
0,
0,
0,
0,
0,
0,
0,
0,
0,
0,
0,
0,
0,
0,
0,
0,
0,
0,
0,
0,
0,
0,
0,
0,
0,
0,
0,
0,
0,
0,
0,
0,
0,
0,
0,
0,
0,
0,
0,
0,
#ENDOFDATA   :