File: N132962/Quantification/20 keV/MMM2/SPI MM2 Rhodonite[0][4].msa
#FORMAT      : EMSA/MAS Spectral Data File
#VERSION     : 1.0
#TITLE       : SPI MM2 Rhodonite[0][all]
#DATE        : 13-MAR-2025
#TIME        : 12:21
#OWNER       : Unknown
#NPOINTS     : 4096
#NCOLUMNS    : 1
#XUNITS      : eV
#YUNITS      : counts
#DATATYPE    : Y
#XPERCHAN    : 9.99778
#OFFSET      : 1.69135
#BEAMKV      : 20
#SIGNALTYPE  : EDS
#ELEVANGLE   : 35
#AZIMANGLE   : 0
#LIVETIME    : 240.075
#REALTIME    : 256.614
#PROBECUR    : 1.02616
#TAUWIND     : 0
#TDEADLYR    : 0
#TACTLYR     : 0.045
#TALWIND     : 0.025
#CHOFFSET    : 0.0
#XLABEL      : Energy (eV)
#YLABEL      : Counts
#XPOSITION   : 0.04892
#YPOSITION   : 1.23429
#ZPOSITION   : 31.03511
#EDSDET      : SD
##SPECIMEN   : SPI MM2 Rhodonite[0][all]
##DET_HASH   : 12273538-fd48-a23f-0a19-f1e6fa85caef
##CALIB_HASH : 6abaa72c-aa41-8738-0be9-f592914732f3
##WORKING    : 15.0 mm
##DET_NAME   : EDAX All
##DET_MODE   : MediumLE
#SPECTRUM    :
22,
27,
9,
9,
87,
378,
1092,
3208,
9203,
12208,
6878,
3605,
3585,
4173,
7090,
23400,
91824,
179933,
133897,
38769,
13987,
16600,
13049,
7207,
4543,
2820,
2302,
2112,
2407,
2375,
2489,
2550,
2752,
2960,
3251,
3298,
3317,
3296,
3458,
3874,
5541,
8816,
9959,
7345,
4803,
4231,
4230,
4537,
4723,
5154,
5337,
5235,
5176,
5381,
6183,
14706,
53214,
135597,
183737,
130177,
53325,
18719,
9078,
5398,
3736,
3451,
3232,
3352,
3276,
3327,
3312,
3185,
3306,
3327,
3670,
3787,
3757,
3637,
3428,
3398,
3389,
3337,
3321,
3225,
3275,
3181,
3171,
3175,
3185,
3180,
3177,
3162,
3100,
3131,
3074,
3027,
3015,
2957,
2919,
3043,
3068,
3080,
2944,
3143,
2923,
2877,
2898,
2894,
2795,
2832,
2847,
2821,
2749,
2796,
2727,
2815,
2909,
3034,
3088,
3323,
4927,
9112,
14986,
18320,
15709,
9700,
5096,
3201,
2709,
2516,
2734,
2900,
3477,
4153,
4237,
3820,
3280,
2894,
2690,
2510,
2501,
2324,
2183,
2183,
2056,
2186,
2074,
2144,
2113,
2029,
2034,
2115,
2062,
2015,
2081,
2102,
2028,
2069,
2027,
2112,
2024,
1914,
1864,
1980,
1891,
1826,
1975,
1863,
1844,
1902,
1754,
1816,
1796,
1774,
1707,
1756,
1763,
1693,
1699,
1769,
1743,
1742,
1650,
1664,
1648,
1670,
1718,
1716,
1716,
1933,
2092,
2898,
5873,
14272,
30943,
53752,
70573,
70439,
52380,
29694,
13270,
5123,
2389,
1697,
1473,
1546,
1540,
1453,
1630,
2118,
3152,
5104,
7563,
10377,
12229,
13415,
12565,
10607,
7572,
4576,
2742,
1675,
1287,
1112,
1103,
1091,
1092,
1115,
1181,
1139,
1140,
1192,
1303,
1538,
1713,
1806,
1774,
1576,
1331,
1108,
1010,
1005,
978,
983,
1036,
1022,
1031,
1022,
1022,
1048,
1035,
1029,
1008,
1066,
1059,
1037,
1000,
1004,
950,
927,
877,
867,
895,
882,
825,
878,
836,
876,
784,
865,
853,
849,
892,
874,
872,
876,
850,
828,
795,
775,
829,
791,
744,
775,
787,
760,
819,
783,
775,
759,
739,
733,
744,
725,
714,
752,
699,
715,
667,
662,
709,
629,
731,
677,
722,
632,
665,
705,
646,
670,
634,
635,
683,
647,
611,
629,
648,
643,
656,
612,
628,
608,
575,
573,
611,
590,
553,
590,
601,
568,
567,
548,
567,
550,
531,
540,
527,
532,
552,
522,
513,
545,
542,
476,
557,
534,
477,
515,
497,
503,
498,
504,
507,
472,
511,
480,
479,
453,
478,
491,
434,
425,
447,
448,
436,
454,
454,
426,
413,
396,
407,
405,
406,
411,
421,
403,
387,
393,
377,
398,
405,
412,
372,
400,
375,
371,
379,
368,
360,
373,
379,
373,
375,
394,
363,
377,
325,
349,
313,
330,
307,
349,
338,
319,
319,
320,
282,
324,
309,
324,
295,
275,
306,
319,
268,
303,
302,
288,
259,
271,
275,
250,
243,
282,
249,
261,
253,
261,
242,
264,
259,
259,
251,
226,
225,
203,
225,
221,
238,
236,
212,
205,
204,
209,
208,
222,
211,
186,
204,
220,
213,
211,
214,
206,
209,
182,
163,
174,
163,
180,
166,
172,
193,
174,
211,
158,
173,
172,
170,
180,
156,
154,
180,
159,
139,
130,
161,
164,
146,
179,
142,
157,
147,
147,
144,
151,
137,
133,
132,
110,
124,
158,
124,
130,
107,
118,
111,
120,
123,
104,
124,
96,
118,
110,
103,
103,
114,
117,
114,
82,
118,
112,
111,
98,
84,
96,
101,
92,
85,
84,
88,
93,
82,
83,
98,
76,
77,
77,
82,
66,
86,
80,
95,
62,
82,
66,
65,
90,
69,
73,
75,
66,
61,
84,
74,
61,
63,
67,
72,
46,
56,
77,
69,
51,
45,
49,
61,
50,
65,
59,
45,
52,
59,
39,
45,
48,
46,
44,
56,
29,
36,
34,
25,
39,
41,
40,
42,
44,
36,
31,
36,
41,
29,
28,
18,
44,
21,
32,
32,
28,
30,
41,
32,
23,
37,
34,
32,
25,
18,
30,
20,
29,
20,
27,
17,
23,
36,
23,
22,
24,
22,
15,
26,
24,
20,
28,
22,
12,
21,
20,
12,
19,
13,
16,
12,
11,
17,
9,
16,
6,
14,
12,
11,
9,
12,
10,
2,
11,
11,
8,
5,
3,
6,
2,
7,
9,
5,
5,
7,
7,
2,
1,
8,
2,
6,
3,
6,
1,
3,
5,
4,
3,
2,
3,
1,
0,
0,
0,
1,
1,
0,
0,
0,
1,
0,
1,
2,
0,
1,
0,
0,
0,
0,
0,
0,
0,
1,
1,
1,
3,
1,
2,
0,
1,
1,
0,
0,
1,
0,
0,
0,
1,
0,
1,
0,
0,
0,
0,
1,
0,
0,
0,
0,
0,
0,
0,
0,
0,
0,
1,
0,
0,
0,
1,
0,
0,
0,
0,
0,
0,
0,
0,
0,
0,
1,
0,
0,
0,
0,
0,
0,
0,
0,
0,
1,
0,
0,
0,
0,
1,
1,
0,
0,
0,
0,
0,
0,
0,
0,
1,
0,
0,
0,
0,
0,
1,
0,
0,
0,
0,
0,
0,
0,
0,
0,
0,
0,
0,
1,
0,
1,
0,
0,
0,
0,
0,
0,
0,
0,
0,
0,
0,
0,
0,
0,
1,
0,
0,
0,
1,
0,
0,
0,
0,
0,
0,
0,
0,
0,
0,
0,
0,
0,
0,
0,
0,
0,
0,
1,
0,
0,
1,
0,
0,
0,
0,
0,
0,
0,
0,
0,
0,
0,
0,
0,
0,
0,
1,
0,
0,
0,
0,
0,
0,
0,
0,
0,
0,
0,
0,
0,
0,
0,
0,
0,
0,
0,
0,
0,
0,
0,
0,
0,
0,
0,
0,
0,
0,
0,
0,
0,
0,
0,
0,
0,
0,
0,
0,
0,
0,
0,
0,
0,
0,
0,
0,
0,
0,
1,
0,
0,
0,
0,
0,
0,
0,
0,
0,
0,
0,
0,
0,
0,
0,
0,
0,
0,
0,
0,
0,
0,
0,
0,
0,
0,
0,
0,
0,
0,
0,
0,
0,
0,
0,
0,
0,
0,
0,
0,
0,
0,
0,
0,
0,
0,
0,
0,
0,
0,
0,
0,
0,
0,
0,
0,
0,
0,
0,
0,
0,
0,
0,
0,
0,
0,
0,
0,
0,
0,
0,
0,
0,
0,
0,
0,
0,
0,
0,
0,
0,
0,
0,
0,
0,
0,
0,
0,
0,
0,
0,
0,
0,
0,
0,
0,
0,
0,
0,
0,
0,
0,
0,
0,
0,
0,
0,
0,
0,
0,
0,
0,
0,
0,
0,
0,
0,
0,
0,
0,
0,
0,
0,
0,
0,
0,
0,
0,
0,
0,
0,
0,
0,
0,
0,
0,
0,
0,
0,
0,
0,
0,
0,
0,
0,
0,
0,
0,
0,
0,
0,
0,
0,
0,
0,
0,
0,
0,
0,
0,
0,
0,
0,
0,
0,
0,
0,
0,
0,
0,
0,
0,
0,
0,
0,
0,
0,
0,
0,
0,
0,
0,
0,
0,
0,
0,
0,
0,
0,
0,
0,
0,
0,
0,
0,
0,
0,
0,
0,
0,
0,
0,
0,
0,
0,
0,
0,
0,
0,
0,
0,
0,
0,
0,
0,
0,
0,
0,
0,
0,
0,
0,
0,
0,
0,
0,
0,
0,
0,
0,
0,
0,
0,
0,
0,
0,
0,
0,
0,
0,
0,
0,
0,
0,
0,
0,
0,
0,
0,
0,
0,
0,
0,
0,
0,
0,
0,
0,
0,
0,
0,
0,
0,
0,
0,
0,
0,
0,
0,
0,
0,
0,
0,
0,
0,
0,
0,
0,
0,
0,
0,
0,
0,
0,
0,
0,
0,
0,
0,
0,
0,
0,
0,
0,
0,
0,
0,
0,
0,
0,
0,
0,
0,
0,
0,
0,
0,
0,
0,
0,
0,
0,
0,
0,
0,
0,
0,
0,
0,
0,
0,
0,
0,
0,
0,
0,
0,
0,
0,
0,
0,
0,
0,
0,
0,
0,
0,
0,
0,
0,
0,
0,
0,
0,
0,
0,
0,
0,
0,
0,
0,
0,
0,
0,
0,
0,
0,
0,
0,
0,
0,
0,
0,
0,
0,
0,
0,
0,
0,
0,
0,
0,
0,
0,
0,
0,
0,
0,
0,
0,
0,
0,
0,
0,
0,
0,
0,
0,
0,
0,
0,
0,
0,
0,
0,
0,
0,
0,
0,
0,
0,
0,
0,
0,
0,
0,
0,
0,
0,
0,
0,
0,
0,
0,
0,
0,
0,
0,
0,
0,
0,
0,
0,
0,
0,
0,
0,
0,
0,
0,
0,
0,
0,
0,
0,
0,
0,
0,
0,
0,
0,
0,
0,
0,
0,
0,
0,
0,
0,
0,
0,
0,
0,
0,
0,
0,
0,
0,
0,
0,
0,
0,
0,
0,
0,
0,
0,
0,
0,
0,
0,
0,
0,
0,
0,
0,
0,
#ENDOFDATA   :