File: N132962/Quantification/20 keV/MMM2/SPI MM2 SPI Obsidian[0][4].msa
#FORMAT      : EMSA/MAS Spectral Data File
#VERSION     : 1.0
#TITLE       : SPI MM2 SPI Obsidian[0][all]
#DATE        : 13-MAR-2025
#TIME        : 09:54
#OWNER       : Unknown
#NPOINTS     : 4096
#NCOLUMNS    : 1
#XUNITS      : eV
#YUNITS      : counts
#DATATYPE    : Y
#XPERCHAN    : 9.99778
#OFFSET      : 1.69135
#BEAMKV      : 20
#SIGNALTYPE  : EDS
#ELEVANGLE   : 35
#AZIMANGLE   : 0
#LIVETIME    : 239.8575
#REALTIME    : 256.3
#PROBECUR    : 1.02627
#TAUWIND     : 0
#TDEADLYR    : 0
#TACTLYR     : 0.045
#TALWIND     : 0.025
#CHOFFSET    : 0.0
#XLABEL      : Energy (eV)
#YLABEL      : Counts
#XPOSITION   : 0.0269
#YPOSITION   : -2.97551
#ZPOSITION   : 31.03509
#EDSDET      : SD
##SPECIMEN   : SPI MM2 SPI Obsidian[0][all]
##D2STDCMP   : SPI Obsidian,(O:49.01),(Na:2.77),(Mg:0.06),(Al:6.9),(Si:35.66),(K:3.58),(Ca:0.63),(Ti:0.06),(Mn:0.04),(Fe:0.59),5.0
##DET_HASH   : 12273538-fd48-a23f-0a19-f1e6fa85caef
##CALIB_HASH : 6abaa72c-aa41-8738-0be9-f592914732f3
##WORKING    : 15.0 mm
##DET_NAME   : EDAX All
##DET_MODE   : MediumLE
#SPECTRUM    :
23,
23,
3,
19,
68,
298,
832,
2551,
7430,
9684,
5261,
2476,
2448,
3104,
5652,
21898,
88184,
172673,
126696,
32948,
4546,
1906,
2173,
2541,
2573,
2322,
2450,
2382,
2616,
2751,
2856,
3142,
4165,
8625,
17209,
18944,
10890,
4905,
3782,
3723,
3983,
4325,
4591,
4508,
4447,
4800,
5659,
11180,
31046,
61138,
62000,
33829,
13664,
7323,
7476,
21155,
89040,
230468,
314078,
221796,
88267,
28161,
12010,
5487,
2918,
2298,
2313,
2363,
2313,
2288,
2266,
2262,
2261,
2404,
2766,
2973,
2856,
2545,
2355,
2316,
2283,
2229,
2265,
2194,
2254,
2340,
2276,
2385,
2285,
2236,
2270,
2275,
2272,
2233,
2218,
2140,
2116,
2124,
2184,
2201,
2071,
2163,
2010,
2092,
2146,
2283,
2604,
3538,
6380,
12127,
17754,
17756,
12154,
6274,
3403,
2611,
2825,
2905,
3272,
3868,
4194,
4284,
4605,
4613,
3899,
2965,
2184,
1909,
1684,
1758,
1787,
1785,
1816,
1941,
1931,
1910,
1715,
1608,
1597,
1586,
1605,
1589,
1550,
1575,
1434,
1552,
1505,
1543,
1698,
1860,
1843,
1644,
1625,
1504,
1504,
1405,
1445,
1430,
1367,
1405,
1471,
1399,
1433,
1441,
1392,
1288,
1362,
1379,
1278,
1382,
1310,
1301,
1307,
1318,
1242,
1208,
1249,
1217,
1174,
1200,
1147,
1191,
1137,
1185,
1113,
1104,
1122,
1100,
1127,
1127,
1086,
1011,
1045,
1087,
1108,
1096,
1123,
1045,
1087,
1118,
1047,
1021,
1002,
1016,
988,
955,
961,
921,
1021,
1042,
1199,
1545,
1899,
2094,
2077,
1738,
1335,
1008,
963,
844,
868,
910,
862,
901,
906,
791,
809,
837,
828,
808,
801,
809,
790,
927,
929,
850,
901,
816,
827,
719,
702,
762,
694,
709,
721,
715,
727,
722,
746,
746,
712,
662,
683,
666,
719,
672,
672,
664,
591,
670,
668,
611,
635,
676,
618,
610,
631,
592,
632,
598,
576,
572,
613,
582,
610,
553,
586,
611,
582,
584,
526,
578,
560,
522,
589,
529,
569,
562,
549,
547,
536,
492,
515,
475,
503,
532,
493,
473,
453,
507,
480,
494,
471,
507,
466,
501,
413,
457,
470,
456,
438,
437,
403,
393,
479,
445,
444,
456,
413,
436,
418,
412,
429,
385,
438,
390,
407,
387,
374,
382,
409,
353,
354,
398,
379,
383,
402,
376,
379,
354,
346,
354,
298,
353,
324,
340,
325,
342,
352,
344,
332,
326,
316,
290,
329,
342,
311,
338,
287,
295,
333,
286,
295,
305,
268,
295,
299,
267,
261,
279,
285,
284,
286,
276,
211,
286,
290,
263,
246,
233,
246,
266,
232,
239,
264,
249,
248,
260,
240,
250,
229,
234,
244,
240,
242,
230,
217,
244,
208,
190,
228,
214,
209,
201,
195,
199,
230,
204,
174,
206,
199,
174,
173,
177,
179,
176,
180,
186,
176,
179,
174,
172,
186,
176,
180,
173,
158,
174,
147,
169,
152,
150,
152,
150,
153,
152,
160,
130,
148,
180,
142,
142,
125,
148,
150,
128,
128,
136,
154,
120,
130,
127,
124,
146,
121,
115,
124,
134,
125,
106,
119,
108,
112,
105,
107,
114,
112,
112,
106,
108,
116,
95,
99,
85,
83,
91,
97,
86,
76,
102,
91,
75,
85,
111,
100,
103,
83,
89,
82,
107,
86,
67,
67,
81,
75,
83,
74,
70,
71,
63,
72,
74,
74,
62,
81,
72,
55,
57,
63,
66,
65,
56,
73,
45,
58,
56,
62,
54,
72,
70,
53,
58,
62,
64,
45,
48,
49,
41,
44,
53,
44,
39,
46,
44,
39,
50,
50,
47,
42,
40,
49,
47,
43,
48,
51,
35,
47,
31,
35,
43,
33,
38,
24,
31,
27,
31,
25,
27,
25,
19,
28,
28,
26,
28,
29,
29,
31,
32,
18,
31,
35,
17,
18,
29,
23,
22,
27,
21,
21,
21,
22,
20,
28,
25,
22,
23,
22,
22,
17,
19,
24,
20,
19,
7,
19,
15,
16,
13,
17,
10,
13,
12,
11,
10,
13,
13,
4,
17,
12,
9,
12,
10,
12,
8,
13,
12,
6,
8,
9,
11,
10,
6,
3,
10,
5,
9,
6,
8,
9,
8,
7,
16,
6,
7,
8,
2,
1,
2,
5,
6,
1,
3,
1,
7,
3,
3,
3,
3,
4,
3,
1,
1,
2,
1,
2,
0,
1,
3,
1,
2,
1,
1,
1,
0,
0,
2,
1,
0,
0,
0,
0,
1,
0,
0,
1,
0,
0,
0,
0,
0,
0,
0,
0,
0,
0,
0,
0,
0,
0,
0,
0,
0,
0,
0,
0,
0,
0,
0,
0,
0,
0,
0,
0,
0,
0,
0,
0,
0,
0,
0,
0,
0,
0,
0,
0,
0,
0,
1,
0,
1,
0,
0,
1,
0,
0,
0,
0,
0,
0,
0,
0,
0,
0,
0,
0,
0,
0,
0,
0,
0,
0,
0,
0,
0,
0,
0,
0,
0,
0,
0,
0,
0,
0,
0,
0,
0,
0,
0,
0,
0,
0,
0,
0,
0,
0,
0,
0,
0,
0,
0,
0,
0,
0,
0,
0,
0,
0,
0,
0,
0,
0,
0,
0,
0,
0,
0,
0,
0,
0,
0,
0,
0,
0,
0,
0,
0,
0,
0,
0,
0,
0,
0,
0,
0,
0,
0,
0,
0,
0,
0,
0,
0,
0,
0,
0,
0,
0,
0,
0,
1,
0,
0,
0,
0,
0,
0,
0,
0,
0,
0,
0,
0,
0,
0,
0,
0,
0,
0,
0,
0,
0,
0,
0,
0,
0,
0,
0,
0,
0,
0,
0,
0,
0,
0,
0,
0,
0,
0,
1,
0,
0,
0,
0,
0,
0,
0,
0,
0,
0,
0,
0,
0,
0,
0,
0,
0,
0,
0,
0,
0,
0,
0,
0,
0,
0,
0,
0,
0,
0,
0,
0,
0,
0,
0,
0,
0,
0,
0,
0,
0,
0,
0,
0,
0,
0,
0,
0,
0,
0,
0,
0,
0,
0,
0,
0,
0,
0,
0,
0,
0,
0,
0,
0,
0,
0,
0,
0,
0,
0,
0,
0,
0,
0,
0,
0,
0,
0,
0,
0,
0,
0,
0,
0,
0,
0,
0,
0,
0,
0,
0,
0,
0,
0,
0,
0,
0,
0,
0,
0,
0,
0,
0,
0,
0,
0,
0,
0,
0,
0,
0,
0,
0,
0,
0,
0,
0,
0,
0,
0,
0,
0,
0,
0,
0,
0,
0,
0,
0,
0,
0,
0,
0,
0,
0,
0,
0,
0,
0,
0,
0,
0,
0,
0,
0,
0,
0,
0,
0,
0,
0,
0,
0,
0,
0,
0,
0,
0,
0,
0,
0,
0,
0,
0,
0,
0,
0,
0,
0,
0,
0,
0,
0,
0,
0,
0,
0,
0,
0,
0,
0,
0,
0,
0,
0,
0,
0,
0,
0,
0,
0,
0,
0,
0,
0,
0,
0,
0,
0,
0,
0,
0,
0,
0,
0,
0,
0,
0,
0,
0,
0,
0,
0,
0,
0,
0,
0,
0,
0,
0,
0,
0,
0,
0,
0,
0,
0,
0,
0,
0,
0,
0,
0,
0,
0,
0,
0,
0,
0,
0,
0,
0,
0,
0,
0,
0,
0,
0,
0,
0,
0,
0,
0,
0,
0,
0,
0,
0,
0,
0,
0,
0,
0,
0,
0,
0,
0,
0,
0,
0,
0,
0,
0,
0,
0,
0,
0,
0,
0,
0,
0,
0,
0,
0,
0,
0,
0,
0,
0,
0,
0,
0,
0,
0,
0,
0,
0,
0,
0,
0,
0,
0,
0,
0,
0,
0,
0,
0,
0,
0,
0,
0,
0,
0,
0,
0,
0,
0,
0,
0,
0,
0,
0,
0,
0,
0,
0,
0,
0,
0,
0,
0,
0,
0,
0,
0,
0,
0,
0,
0,
0,
0,
0,
0,
0,
0,
0,
0,
0,
0,
0,
0,
0,
0,
0,
0,
0,
0,
0,
0,
0,
0,
0,
0,
0,
0,
0,
0,
0,
0,
0,
0,
0,
0,
0,
0,
0,
0,
0,
0,
0,
0,
0,
0,
0,
0,
0,
0,
0,
0,
0,
0,
0,
0,
0,
0,
0,
0,
0,
0,
0,
0,
0,
0,
0,
0,
0,
0,
0,
0,
0,
0,
0,
0,
0,
0,
0,
0,
0,
0,
0,
0,
0,
0,
0,
0,
0,
0,
0,
0,
0,
0,
0,
0,
0,
0,
0,
0,
0,
0,
0,
0,
0,
0,
0,
0,
0,
0,
0,
0,
0,
0,
0,
0,
0,
0,
0,
0,
0,
0,
0,
0,
0,
0,
0,
0,
0,
0,
0,
0,
0,
0,
0,
0,
0,
0,
0,
0,
0,
0,
0,
0,
0,
0,
0,
0,
0,
0,
0,
0,
0,
0,
0,
0,
0,
0,
0,
0,
0,
0,
0,
0,
0,
0,
0,
0,
0,
#ENDOFDATA   :