File: N132962/Quantification/20 keV/MMM2/SPI MM2 Wollastonite[0][4].msa
#FORMAT      : EMSA/MAS Spectral Data File
#VERSION     : 1.0
#TITLE       : SPI MM2 Wollastonite[0][all]
#DATE        : 13-MAR-2025
#TIME        : 13:53
#OWNER       : Unknown
#NPOINTS     : 4096
#NCOLUMNS    : 1
#XUNITS      : eV
#YUNITS      : counts
#DATATYPE    : Y
#XPERCHAN    : 9.99778
#OFFSET      : 1.69135
#BEAMKV      : 20
#SIGNALTYPE  : EDS
#ELEVANGLE   : 35
#AZIMANGLE   : 0
#LIVETIME    : 239.856
#REALTIME    : 256.175
#PROBECUR    : 1.0264
#TAUWIND     : 0
#TDEADLYR    : 0
#TACTLYR     : 0.045
#TALWIND     : 0.025
#CHOFFSET    : 0.0
#XLABEL      : Energy (eV)
#YLABEL      : Counts
#XPOSITION   : 0.00405
#YPOSITION   : 6.24225
#ZPOSITION   : 31.03511
#EDSDET      : SD
##SPECIMEN   : SPI MM2 Wollastonite[0][all]
##DET_HASH   : 12273538-fd48-a23f-0a19-f1e6fa85caef
##CALIB_HASH : 6abaa72c-aa41-8738-0be9-f592914732f3
##WORKING    : 15.0 mm
##DET_NAME   : EDAX All
##DET_MODE   : MediumLE
#SPECTRUM    :
23,
29,
12,
13,
69,
292,
908,
2984,
9341,
14413,
10323,
5436,
3003,
2346,
3097,
9166,
35799,
70422,
51789,
14164,
2690,
1743,
1837,
2102,
2171,
2164,
2299,
2435,
2701,
2726,
2882,
2846,
3004,
3211,
3431,
3511,
3594,
3758,
3740,
3884,
3911,
4181,
4362,
4395,
4557,
4624,
4699,
4969,
4955,
5410,
5467,
5549,
5763,
5769,
7102,
17503,
66269,
168618,
229105,
161877,
64989,
22636,
10660,
6360,
4959,
5013,
4379,
3545,
3230,
3112,
3095,
3177,
3154,
3260,
3279,
3579,
3546,
3251,
3126,
3118,
3156,
3102,
3143,
3009,
3076,
3068,
3013,
2943,
2964,
3031,
2879,
3005,
3053,
2950,
2916,
2896,
2860,
2905,
2866,
2716,
2739,
2778,
2750,
2793,
2861,
2794,
2853,
2704,
2698,
2694,
2687,
2588,
2592,
2633,
2774,
2897,
3282,
3767,
5080,
9437,
25995,
68120,
127130,
161109,
135382,
75954,
29395,
9136,
3783,
3177,
4184,
7059,
12750,
19519,
21459,
17029,
9826,
4599,
2490,
1870,
1877,
1865,
1737,
1660,
1710,
1633,
1682,
1597,
1669,
1590,
1563,
1630,
1552,
1572,
1545,
1544,
1603,
1547,
1568,
1537,
1526,
1513,
1468,
1464,
1527,
1501,
1464,
1502,
1458,
1521,
1481,
1444,
1483,
1431,
1443,
1406,
1469,
1400,
1476,
1620,
1674,
1744,
1710,
1572,
1486,
1383,
1376,
1275,
1271,
1290,
1314,
1282,
1271,
1316,
1289,
1347,
1309,
1309,
1228,
1225,
1207,
1190,
1098,
1169,
1150,
1105,
1104,
1098,
1148,
1107,
1129,
1179,
1155,
1251,
1160,
1140,
1118,
1077,
1133,
1022,
1035,
1026,
1074,
1034,
1005,
1035,
1038,
1011,
961,
1045,
993,
955,
973,
923,
988,
934,
960,
931,
963,
933,
886,
870,
913,
956,
943,
1082,
1047,
1026,
1003,
956,
932,
874,
838,
829,
873,
879,
883,
832,
869,
798,
834,
826,
814,
794,
794,
780,
725,
755,
750,
712,
776,
767,
779,
731,
747,
752,
765,
705,
720,
702,
650,
664,
670,
645,
667,
706,
678,
616,
665,
645,
659,
668,
650,
655,
607,
611,
624,
672,
637,
583,
606,
587,
606,
606,
585,
602,
549,
559,
567,
579,
587,
559,
544,
552,
505,
558,
544,
522,
550,
510,
496,
550,
514,
502,
508,
454,
533,
538,
510,
485,
529,
469,
488,
480,
466,
472,
463,
484,
439,
412,
475,
457,
482,
452,
435,
425,
456,
446,
465,
406,
396,
383,
367,
455,
398,
412,
406,
428,
388,
380,
372,
377,
369,
350,
412,
388,
372,
372,
420,
358,
358,
345,
391,
342,
337,
355,
331,
360,
328,
301,
318,
302,
326,
346,
333,
305,
306,
340,
305,
270,
292,
293,
295,
317,
295,
291,
296,
239,
279,
280,
275,
277,
298,
266,
267,
280,
260,
279,
267,
280,
273,
227,
256,
215,
239,
257,
274,
221,
208,
228,
232,
217,
206,
219,
226,
212,
219,
209,
190,
216,
194,
197,
200,
214,
195,
198,
215,
204,
201,
179,
194,
209,
178,
175,
208,
173,
177,
153,
160,
180,
149,
168,
161,
163,
167,
161,
156,
157,
139,
146,
138,
136,
150,
131,
135,
147,
135,
134,
149,
145,
147,
121,
126,
133,
113,
144,
128,
117,
137,
127,
116,
130,
126,
128,
134,
107,
113,
110,
122,
120,
120,
120,
110,
99,
88,
105,
98,
106,
100,
116,
96,
94,
93,
75,
71,
88,
115,
90,
76,
74,
81,
93,
81,
76,
94,
85,
63,
92,
72,
102,
65,
61,
73,
70,
76,
60,
69,
61,
64,
62,
65,
57,
63,
66,
72,
63,
58,
62,
56,
63,
64,
54,
37,
48,
43,
48,
48,
46,
60,
54,
49,
58,
48,
47,
42,
44,
44,
40,
40,
48,
40,
49,
41,
32,
41,
27,
44,
41,
39,
34,
29,
30,
39,
24,
44,
39,
23,
33,
32,
39,
34,
33,
41,
28,
29,
26,
29,
23,
28,
21,
23,
26,
27,
21,
23,
21,
26,
16,
23,
26,
18,
14,
26,
16,
12,
21,
19,
25,
20,
20,
17,
14,
9,
14,
9,
14,
15,
17,
11,
6,
13,
8,
11,
15,
10,
16,
5,
14,
9,
5,
16,
10,
6,
8,
14,
11,
4,
8,
7,
8,
3,
4,
4,
9,
7,
9,
8,
5,
1,
3,
4,
5,
1,
1,
1,
4,
3,
1,
1,
3,
2,
1,
1,
2,
1,
1,
0,
0,
1,
0,
2,
1,
0,
0,
0,
0,
0,
2,
0,
0,
0,
0,
1,
0,
1,
0,
1,
0,
0,
0,
0,
0,
1,
0,
1,
0,
2,
1,
0,
0,
0,
0,
0,
0,
0,
0,
1,
0,
0,
0,
0,
0,
0,
0,
0,
0,
0,
0,
0,
1,
0,
0,
0,
1,
0,
0,
0,
0,
0,
0,
0,
0,
0,
0,
0,
0,
0,
0,
0,
1,
0,
0,
0,
0,
0,
0,
0,
0,
0,
0,
0,
0,
0,
0,
0,
0,
0,
0,
0,
0,
0,
0,
0,
0,
0,
0,
0,
0,
0,
0,
0,
0,
0,
0,
0,
0,
0,
0,
0,
0,
0,
0,
0,
0,
0,
0,
0,
0,
0,
0,
0,
0,
0,
0,
0,
0,
0,
0,
0,
0,
0,
0,
0,
0,
0,
1,
0,
0,
0,
0,
0,
0,
0,
0,
0,
0,
0,
0,
0,
0,
0,
0,
0,
0,
0,
0,
0,
0,
0,
0,
0,
0,
0,
0,
0,
0,
0,
1,
0,
0,
0,
0,
0,
0,
0,
0,
0,
0,
0,
0,
0,
0,
0,
0,
0,
0,
0,
0,
0,
0,
0,
0,
0,
0,
0,
0,
0,
0,
0,
0,
0,
0,
0,
0,
0,
0,
0,
0,
0,
0,
0,
0,
0,
1,
0,
0,
0,
0,
0,
0,
0,
0,
0,
0,
0,
0,
0,
0,
0,
0,
0,
0,
0,
0,
0,
0,
0,
0,
0,
0,
0,
0,
0,
0,
0,
0,
0,
0,
0,
0,
0,
0,
0,
0,
0,
0,
0,
0,
0,
0,
0,
0,
0,
0,
0,
0,
0,
0,
0,
0,
0,
0,
0,
0,
0,
0,
0,
0,
0,
0,
0,
0,
0,
0,
0,
0,
0,
0,
0,
0,
0,
0,
0,
0,
0,
0,
0,
0,
0,
0,
0,
0,
0,
0,
0,
0,
0,
0,
0,
0,
0,
0,
0,
0,
0,
0,
0,
0,
0,
0,
0,
0,
0,
0,
0,
0,
0,
0,
0,
0,
0,
0,
0,
0,
0,
0,
0,
0,
0,
0,
0,
0,
0,
0,
0,
0,
0,
0,
0,
0,
0,
0,
0,
0,
0,
0,
0,
0,
0,
0,
0,
0,
0,
0,
0,
0,
0,
0,
0,
0,
0,
0,
0,
0,
0,
0,
0,
0,
0,
0,
0,
0,
0,
0,
0,
0,
0,
0,
0,
0,
0,
0,
0,
0,
0,
0,
0,
0,
0,
0,
0,
0,
0,
0,
0,
0,
0,
0,
0,
0,
0,
0,
0,
0,
0,
0,
0,
0,
0,
0,
0,
0,
0,
0,
0,
0,
0,
0,
0,
0,
0,
0,
0,
0,
0,
0,
0,
0,
0,
0,
0,
0,
0,
0,
0,
0,
0,
0,
0,
0,
0,
0,
0,
0,
0,
0,
0,
0,
0,
0,
0,
0,
0,
0,
0,
0,
0,
0,
0,
0,
0,
0,
0,
0,
0,
0,
0,
0,
0,
0,
0,
0,
0,
0,
0,
0,
0,
0,
0,
0,
0,
0,
0,
0,
0,
0,
0,
0,
0,
0,
0,
0,
0,
0,
0,
0,
0,
0,
0,
0,
0,
0,
0,
0,
0,
0,
0,
0,
0,
0,
0,
0,
0,
0,
0,
0,
0,
0,
0,
0,
0,
0,
0,
0,
0,
0,
0,
0,
0,
0,
0,
0,
0,
0,
0,
0,
0,
0,
0,
0,
0,
0,
0,
0,
0,
0,
0,
0,
0,
0,
0,
0,
0,
0,
0,
0,
0,
0,
0,
0,
0,
0,
0,
0,
0,
0,
0,
0,
0,
0,
0,
0,
0,
0,
0,
0,
0,
0,
0,
0,
0,
0,
0,
0,
0,
0,
0,
0,
0,
0,
0,
0,
0,
0,
0,
0,
0,
0,
0,
0,
0,
0,
0,
0,
0,
0,
0,
0,
0,
0,
0,
0,
0,
0,
0,
0,
0,
0,
0,
0,
0,
0,
0,
0,
0,
0,
0,
0,
0,
0,
0,
0,
0,
0,
0,
0,
0,
0,
0,
0,
0,
0,
0,
0,
0,
0,
0,
0,
0,
0,
0,
0,
0,
0,
0,
0,
0,
0,
0,
0,
0,
0,
0,
0,
0,
0,
0,
0,
0,
0,
0,
0,
0,
0,
0,
0,
0,
0,
0,
0,
0,
0,
0,
0,
0,
0,
#ENDOFDATA   :