File: N132962/Quantification/20 keV/MMM2/SPI MM2 Wollastonite[6][4].msa
#FORMAT      : EMSA/MAS Spectral Data File
#VERSION     : 1.0
#TITLE       : SPI MM2 Wollastonite[6][all]
#DATE        : 13-MAR-2025
#TIME        : 14:00
#OWNER       : Unknown
#NPOINTS     : 4096
#NCOLUMNS    : 1
#XUNITS      : eV
#YUNITS      : counts
#DATATYPE    : Y
#XPERCHAN    : 9.99778
#OFFSET      : 1.69135
#BEAMKV      : 20
#SIGNALTYPE  : EDS
#ELEVANGLE   : 35
#AZIMANGLE   : 0
#LIVETIME    : 239.87
#REALTIME    : 256.165
#PROBECUR    : 1.0264
#TAUWIND     : 0
#TDEADLYR    : 0
#TACTLYR     : 0.045
#TALWIND     : 0.025
#CHOFFSET    : 0.0
#XLABEL      : Energy (eV)
#YLABEL      : Counts
#XPOSITION   : -0.03496
#YPOSITION   : 6.16508
#ZPOSITION   : 31.03511
#EDSDET      : SD
##SPECIMEN   : SPI MM2 Wollastonite[6][all]
##DET_HASH   : 12273538-fd48-a23f-0a19-f1e6fa85caef
##CALIB_HASH : 6abaa72c-aa41-8738-0be9-f592914732f3
##WORKING    : 15.0 mm
##DET_NAME   : EDAX All
##DET_MODE   : MediumLE
#SPECTRUM    :
23,
25,
10,
9,
46,
299,
930,
2954,
9514,
14361,
10301,
5407,
2987,
2389,
3077,
9279,
35850,
69987,
51730,
14232,
2694,
1647,
1827,
1967,
2099,
2122,
2340,
2456,
2729,
2716,
2803,
2889,
2927,
3257,
3436,
3524,
3556,
3724,
3844,
3991,
4026,
4225,
4353,
4356,
4480,
4646,
4806,
4845,
5050,
5323,
5578,
5607,
5804,
5818,
6800,
17378,
65982,
168595,
228859,
161014,
65410,
22673,
10847,
6287,
4994,
4920,
4391,
3500,
3256,
3118,
3053,
3210,
3167,
3125,
3284,
3661,
3433,
3221,
3200,
3179,
3109,
3107,
3040,
3040,
3049,
3140,
2985,
2991,
3043,
2918,
2992,
2994,
2892,
2857,
2894,
2790,
2865,
2745,
2867,
2835,
2842,
2797,
2807,
2750,
2810,
2832,
2785,
2716,
2822,
2722,
2617,
2556,
2688,
2621,
2678,
2973,
3265,
3697,
4877,
9412,
25949,
67991,
127519,
160434,
135274,
76288,
29047,
9171,
3850,
3180,
4201,
7130,
12766,
19359,
21268,
16946,
9604,
4559,
2574,
1904,
1804,
1742,
1817,
1689,
1604,
1573,
1564,
1610,
1693,
1587,
1671,
1595,
1619,
1528,
1563,
1578,
1548,
1532,
1531,
1520,
1468,
1558,
1514,
1538,
1522,
1475,
1525,
1507,
1516,
1417,
1419,
1397,
1404,
1396,
1424,
1487,
1461,
1409,
1532,
1582,
1726,
1785,
1703,
1526,
1496,
1385,
1341,
1307,
1272,
1311,
1286,
1333,
1307,
1244,
1229,
1318,
1345,
1281,
1310,
1340,
1187,
1198,
1256,
1201,
1200,
1185,
1115,
1097,
1148,
1094,
1170,
1163,
1215,
1209,
1265,
1166,
1092,
1077,
1084,
1067,
1042,
1004,
1031,
987,
1007,
1032,
1055,
991,
988,
962,
923,
1023,
998,
987,
980,
940,
936,
926,
947,
945,
902,
856,
867,
904,
973,
1041,
1031,
1011,
961,
965,
856,
874,
884,
783,
840,
842,
816,
822,
847,
853,
819,
854,
764,
788,
750,
789,
757,
811,
803,
727,
715,
797,
716,
726,
733,
676,
760,
773,
716,
689,
709,
717,
731,
670,
679,
655,
699,
684,
651,
669,
641,
671,
647,
689,
634,
633,
617,
647,
606,
647,
572,
630,
581,
622,
599,
606,
560,
567,
550,
560,
625,
567,
542,
591,
527,
533,
574,
532,
536,
558,
517,
541,
539,
527,
511,
529,
532,
498,
543,
458,
496,
494,
484,
488,
489,
461,
464,
476,
453,
430,
468,
447,
465,
450,
383,
425,
427,
416,
415,
466,
446,
425,
412,
425,
422,
405,
400,
345,
389,
378,
419,
370,
377,
383,
371,
349,
387,
381,
378,
359,
309,
352,
345,
348,
363,
332,
327,
345,
318,
336,
331,
307,
321,
322,
336,
312,
300,
270,
303,
318,
303,
289,
319,
272,
297,
295,
315,
282,
284,
251,
285,
239,
273,
283,
244,
285,
243,
266,
258,
270,
233,
250,
240,
256,
222,
253,
219,
218,
225,
227,
206,
229,
223,
225,
197,
193,
187,
222,
218,
211,
229,
234,
214,
195,
197,
205,
206,
171,
181,
181,
187,
194,
189,
181,
209,
162,
166,
175,
194,
185,
173,
186,
179,
185,
157,
158,
137,
151,
161,
163,
146,
129,
150,
137,
148,
155,
158,
125,
126,
147,
130,
146,
116,
118,
152,
136,
129,
117,
119,
123,
120,
118,
108,
115,
112,
117,
109,
126,
112,
94,
115,
113,
103,
103,
102,
111,
112,
112,
113,
96,
93,
77,
116,
111,
100,
100,
84,
96,
82,
90,
87,
93,
91,
80,
83,
75,
75,
79,
82,
61,
72,
80,
65,
64,
70,
61,
82,
68,
74,
51,
71,
68,
69,
56,
57,
62,
52,
55,
52,
47,
52,
49,
49,
52,
50,
62,
38,
58,
64,
57,
47,
44,
53,
47,
42,
36,
31,
48,
57,
37,
37,
39,
34,
36,
37,
49,
46,
34,
37,
31,
34,
36,
32,
36,
43,
46,
32,
30,
22,
31,
35,
29,
30,
39,
30,
20,
31,
35,
26,
16,
29,
15,
24,
28,
25,
22,
23,
19,
23,
13,
10,
13,
13,
22,
20,
14,
9,
19,
14,
13,
10,
22,
16,
15,
11,
19,
19,
12,
16,
8,
7,
12,
10,
12,
15,
7,
8,
9,
10,
8,
14,
12,
11,
7,
9,
8,
5,
6,
7,
6,
5,
4,
5,
4,
9,
8,
2,
5,
5,
3,
4,
2,
4,
4,
6,
3,
2,
7,
2,
1,
0,
0,
2,
2,
3,
0,
1,
1,
0,
0,
0,
0,
1,
0,
0,
0,
0,
0,
0,
0,
0,
2,
0,
0,
0,
0,
0,
0,
0,
0,
0,
0,
0,
1,
2,
0,
0,
0,
0,
0,
1,
1,
0,
0,
0,
0,
0,
0,
0,
0,
0,
1,
0,
0,
0,
0,
0,
0,
0,
0,
0,
0,
0,
0,
0,
0,
0,
0,
0,
0,
0,
0,
0,
0,
0,
0,
0,
0,
0,
0,
1,
0,
0,
0,
0,
0,
0,
1,
0,
0,
0,
0,
1,
1,
0,
0,
0,
0,
0,
0,
0,
0,
0,
1,
0,
0,
0,
0,
0,
0,
0,
0,
0,
0,
0,
0,
0,
1,
0,
0,
0,
0,
1,
0,
0,
0,
0,
0,
0,
0,
0,
0,
0,
0,
0,
0,
0,
0,
0,
0,
0,
0,
0,
0,
0,
0,
0,
0,
0,
0,
0,
0,
0,
0,
0,
0,
0,
0,
0,
0,
0,
0,
0,
0,
0,
0,
0,
0,
0,
0,
0,
0,
0,
0,
0,
0,
0,
0,
0,
0,
0,
0,
1,
0,
0,
0,
0,
0,
0,
0,
0,
0,
0,
0,
0,
0,
0,
0,
0,
0,
0,
0,
0,
0,
0,
0,
0,
0,
0,
0,
0,
0,
0,
0,
0,
0,
0,
0,
1,
0,
0,
0,
0,
0,
0,
0,
0,
0,
0,
0,
0,
0,
0,
0,
0,
0,
0,
0,
0,
0,
0,
0,
0,
0,
0,
0,
0,
0,
0,
0,
0,
0,
0,
0,
0,
0,
0,
0,
0,
0,
0,
0,
1,
0,
0,
0,
0,
0,
0,
0,
0,
0,
0,
0,
0,
0,
0,
0,
0,
0,
0,
0,
0,
0,
0,
0,
0,
0,
0,
0,
0,
0,
0,
0,
0,
0,
0,
0,
0,
0,
0,
0,
0,
0,
0,
0,
0,
0,
0,
0,
0,
0,
0,
0,
0,
0,
0,
0,
0,
0,
0,
0,
0,
0,
0,
0,
0,
0,
0,
0,
0,
0,
0,
0,
0,
0,
0,
0,
0,
0,
0,
0,
0,
0,
0,
0,
0,
0,
0,
0,
0,
0,
0,
0,
0,
0,
0,
0,
0,
0,
0,
0,
0,
0,
0,
0,
0,
0,
0,
0,
0,
0,
0,
0,
0,
0,
0,
0,
0,
0,
0,
0,
0,
0,
0,
0,
0,
0,
0,
0,
0,
0,
0,
0,
0,
0,
0,
0,
0,
0,
0,
0,
0,
0,
0,
0,
0,
0,
0,
0,
0,
0,
0,
0,
0,
0,
0,
0,
0,
0,
0,
0,
0,
0,
0,
0,
0,
0,
0,
0,
0,
0,
0,
0,
0,
0,
0,
0,
0,
0,
0,
0,
0,
0,
0,
0,
0,
0,
0,
0,
0,
0,
0,
0,
0,
0,
0,
0,
0,
0,
0,
0,
0,
0,
0,
0,
0,
0,
0,
0,
0,
0,
0,
0,
0,
0,
0,
0,
0,
0,
0,
0,
0,
0,
0,
0,
0,
0,
0,
0,
0,
0,
0,
0,
0,
0,
0,
0,
0,
0,
0,
0,
0,
0,
0,
0,
0,
0,
0,
0,
0,
0,
0,
0,
0,
0,
0,
0,
0,
0,
0,
0,
0,
0,
0,
0,
0,
0,
0,
0,
0,
0,
0,
0,
0,
0,
0,
0,
0,
0,
0,
0,
0,
0,
0,
0,
0,
0,
0,
0,
0,
0,
0,
0,
0,
0,
0,
0,
0,
0,
0,
0,
0,
0,
0,
0,
0,
0,
0,
0,
0,
0,
0,
0,
0,
0,
0,
0,
0,
0,
0,
0,
0,
0,
0,
0,
0,
0,
0,
0,
0,
0,
0,
0,
0,
0,
0,
0,
0,
0,
0,
0,
0,
0,
0,
0,
0,
0,
0,
0,
0,
0,
0,
0,
0,
0,
0,
0,
0,
0,
0,
0,
0,
0,
0,
0,
0,
0,
0,
0,
0,
0,
0,
0,
0,
0,
0,
0,
0,
0,
0,
0,
0,
0,
0,
0,
0,
0,
0,
0,
0,
0,
0,
0,
0,
0,
0,
0,
0,
0,
0,
0,
0,
0,
0,
0,
0,
0,
0,
0,
0,
0,
0,
0,
0,
0,
0,
0,
0,
0,
0,
0,
0,
0,
0,
0,
0,
0,
0,
0,
0,
0,
0,
0,
0,
0,
0,
0,
0,
0,
0,
0,
0,
0,
0,
0,
#ENDOFDATA   :