File: N132962/Quantification/20 keV/MMM2/SPI MM2 SPI Plagioclase[2][4].msa
#FORMAT      : EMSA/MAS Spectral Data File
#VERSION     : 1.0
#TITLE       : SPI MM2 SPI Plagioclase[2][all]
#DATE        : 13-MAR-2025
#TIME        : 10:52
#OWNER       : Unknown
#NPOINTS     : 4096
#NCOLUMNS    : 1
#XUNITS      : eV
#YUNITS      : counts
#DATATYPE    : Y
#XPERCHAN    : 9.99778
#OFFSET      : 1.69135
#BEAMKV      : 20
#SIGNALTYPE  : EDS
#ELEVANGLE   : 35
#AZIMANGLE   : 0
#LIVETIME    : 239.892
#REALTIME    : 255.469
#PROBECUR    : 1.02609
#TAUWIND     : 0
#TDEADLYR    : 0
#TACTLYR     : 0.045
#TALWIND     : 0.025
#CHOFFSET    : 0.0
#XLABEL      : Energy (eV)
#YLABEL      : Counts
#XPOSITION   : -1.30706
#YPOSITION   : -0.17278
#ZPOSITION   : 31.0351
#EDSDET      : SD
##SPECIMEN   : SPI MM2 SPI Plagioclase[2][all]
##D2STDCMP   : SPI Plagioclase,(O:46.79),(Na:3.24),(Al:15.54),(Si:24.83),(K:0.2),(Ca:8.53),(Fe:0.27)
##DET_HASH   : 12273538-fd48-a23f-0a19-f1e6fa85caef
##CALIB_HASH : 6abaa72c-aa41-8738-0be9-f592914732f3
##WORKING    : 15.0 mm
##DET_NAME   : EDAX All
##DET_MODE   : MediumLE
#SPECTRUM    :
24,
18,
10,
21,
72,
265,
824,
2669,
7546,
10620,
6005,
3105,
2575,
2931,
4774,
17896,
72511,
143383,
104972,
27781,
3949,
1709,
1970,
2151,
2411,
2187,
2247,
2473,
2798,
2864,
2908,
3294,
4371,
9337,
18803,
20827,
12012,
5276,
3771,
3816,
4043,
4413,
4742,
4794,
4937,
5248,
6902,
18902,
64501,
129166,
131721,
68214,
22379,
8366,
6242,
14365,
55228,
142747,
193156,
137650,
55417,
19191,
8933,
4736,
3116,
2882,
2861,
2661,
2523,
2344,
2389,
2377,
2392,
2447,
2654,
2779,
2673,
2533,
2349,
2427,
2421,
2392,
2355,
2364,
2391,
2399,
2477,
2267,
2347,
2319,
2335,
2347,
2310,
2388,
2221,
2180,
2284,
2330,
2386,
2351,
2359,
2296,
2270,
2214,
2204,
2192,
2395,
2515,
2807,
3261,
3624,
3492,
3041,
2492,
2275,
2296,
2404,
2548,
2812,
3921,
7745,
17925,
32082,
40149,
34248,
19752,
8527,
3515,
2221,
2030,
2254,
2881,
4288,
5799,
6440,
5406,
3591,
2418,
1909,
1665,
1632,
1710,
1615,
1589,
1525,
1519,
1510,
1553,
1524,
1661,
1648,
1524,
1588,
1450,
1424,
1481,
1496,
1441,
1316,
1417,
1407,
1325,
1348,
1386,
1313,
1367,
1362,
1336,
1317,
1295,
1291,
1266,
1315,
1347,
1217,
1330,
1193,
1252,
1228,
1298,
1279,
1278,
1229,
1241,
1202,
1216,
1081,
1127,
1136,
1138,
1035,
1143,
1090,
1039,
1106,
1074,
1036,
1019,
1031,
1049,
1052,
1012,
1025,
1073,
959,
1002,
1002,
1000,
1016,
1022,
1064,
1230,
1418,
1552,
1541,
1256,
1089,
1013,
917,
932,
909,
879,
902,
868,
872,
854,
852,
827,
834,
895,
780,
820,
846,
844,
853,
898,
884,
805,
893,
802,
753,
789,
746,
771,
765,
783,
712,
808,
752,
763,
736,
726,
734,
701,
689,
686,
673,
752,
668,
651,
701,
663,
672,
645,
655,
685,
640,
645,
606,
588,
584,
621,
620,
610,
622,
577,
602,
573,
606,
567,
572,
630,
588,
566,
591,
553,
563,
588,
545,
565,
537,
500,
545,
554,
526,
526,
564,
517,
524,
524,
468,
492,
522,
495,
501,
510,
473,
474,
486,
459,
442,
452,
457,
458,
480,
455,
429,
465,
400,
414,
460,
450,
429,
396,
431,
426,
409,
399,
423,
393,
380,
441,
403,
391,
411,
376,
405,
399,
408,
372,
359,
367,
419,
379,
364,
373,
368,
359,
356,
387,
338,
365,
340,
339,
315,
313,
315,
328,
313,
303,
307,
318,
306,
303,
306,
307,
269,
287,
309,
285,
289,
286,
290,
271,
288,
286,
276,
290,
299,
265,
248,
241,
293,
245,
268,
253,
239,
291,
258,
263,
239,
258,
255,
239,
244,
247,
249,
229,
222,
220,
205,
222,
235,
189,
244,
189,
220,
198,
192,
211,
187,
199,
192,
183,
206,
180,
184,
175,
215,
176,
208,
170,
189,
192,
175,
162,
181,
163,
156,
172,
166,
201,
182,
150,
158,
153,
152,
143,
146,
160,
167,
160,
154,
129,
162,
146,
126,
144,
150,
125,
142,
157,
134,
150,
135,
138,
138,
141,
127,
138,
130,
129,
110,
117,
132,
112,
105,
99,
126,
90,
119,
110,
101,
93,
118,
93,
112,
106,
107,
107,
101,
98,
98,
95,
92,
89,
93,
89,
90,
70,
68,
93,
88,
74,
100,
86,
89,
68,
84,
77,
67,
74,
55,
75,
79,
64,
64,
73,
64,
76,
65,
73,
64,
65,
58,
61,
76,
60,
55,
53,
64,
56,
59,
62,
59,
57,
46,
62,
60,
51,
55,
45,
56,
58,
49,
55,
42,
43,
42,
42,
45,
42,
33,
46,
53,
41,
50,
35,
39,
35,
36,
42,
27,
41,
38,
26,
47,
38,
21,
42,
46,
39,
38,
17,
33,
32,
36,
27,
22,
28,
32,
33,
28,
26,
20,
28,
37,
34,
32,
25,
29,
26,
23,
26,
22,
26,
23,
24,
23,
21,
25,
26,
17,
21,
16,
18,
20,
21,
23,
21,
11,
15,
14,
11,
12,
9,
10,
12,
18,
9,
10,
10,
7,
14,
11,
13,
19,
11,
11,
10,
9,
7,
7,
10,
4,
6,
12,
8,
5,
9,
12,
9,
8,
5,
11,
6,
9,
10,
6,
8,
4,
5,
6,
2,
4,
3,
4,
1,
3,
0,
6,
1,
4,
5,
2,
3,
2,
0,
0,
0,
2,
0,
0,
3,
0,
0,
0,
0,
1,
1,
0,
0,
0,
1,
0,
0,
0,
0,
0,
0,
0,
1,
0,
0,
0,
0,
0,
0,
0,
0,
0,
0,
0,
0,
0,
0,
0,
0,
0,
0,
0,
0,
0,
0,
0,
0,
0,
0,
0,
0,
0,
0,
0,
0,
0,
0,
1,
0,
0,
0,
0,
0,
0,
0,
0,
0,
0,
0,
0,
0,
0,
0,
0,
0,
0,
0,
0,
0,
0,
0,
0,
0,
0,
0,
0,
0,
0,
0,
0,
0,
0,
0,
0,
0,
0,
0,
0,
0,
0,
0,
0,
0,
0,
0,
0,
0,
0,
0,
0,
0,
0,
0,
0,
0,
1,
0,
0,
0,
0,
0,
0,
0,
0,
0,
0,
0,
0,
0,
0,
0,
0,
0,
0,
0,
0,
0,
1,
0,
0,
0,
0,
0,
0,
0,
0,
0,
0,
0,
0,
0,
0,
0,
0,
0,
0,
0,
0,
0,
0,
0,
0,
0,
0,
0,
0,
0,
0,
0,
0,
0,
0,
0,
0,
0,
0,
0,
0,
0,
0,
0,
0,
0,
0,
0,
0,
0,
0,
0,
0,
0,
0,
0,
0,
0,
0,
0,
0,
0,
0,
0,
0,
0,
0,
0,
0,
0,
0,
0,
0,
0,
0,
0,
0,
0,
0,
0,
0,
0,
0,
0,
0,
0,
0,
0,
0,
0,
0,
0,
0,
0,
0,
0,
0,
0,
0,
0,
0,
0,
0,
0,
0,
0,
0,
0,
0,
0,
0,
0,
0,
0,
0,
0,
0,
0,
0,
0,
0,
0,
0,
0,
0,
0,
1,
0,
0,
0,
0,
0,
0,
0,
0,
0,
0,
0,
0,
0,
0,
0,
0,
0,
0,
0,
0,
0,
0,
0,
0,
0,
0,
0,
0,
0,
0,
0,
0,
0,
0,
0,
0,
0,
0,
0,
0,
0,
0,
0,
0,
0,
0,
0,
0,
0,
0,
0,
0,
0,
0,
0,
0,
0,
0,
0,
0,
0,
0,
0,
0,
0,
0,
0,
0,
0,
0,
0,
0,
0,
0,
0,
0,
0,
0,
0,
0,
0,
0,
0,
0,
0,
0,
0,
0,
0,
0,
0,
0,
0,
0,
0,
0,
0,
0,
0,
0,
0,
0,
0,
0,
0,
0,
0,
0,
0,
0,
0,
0,
0,
0,
0,
0,
0,
0,
0,
0,
0,
0,
0,
0,
0,
0,
0,
0,
0,
0,
0,
0,
0,
0,
0,
0,
0,
0,
0,
0,
0,
0,
0,
0,
0,
0,
0,
0,
0,
0,
0,
0,
0,
0,
0,
0,
0,
0,
0,
0,
0,
0,
0,
0,
0,
0,
0,
0,
0,
0,
0,
0,
0,
0,
0,
0,
0,
0,
0,
0,
0,
0,
0,
0,
0,
0,
0,
0,
0,
0,
0,
0,
0,
0,
0,
0,
0,
0,
0,
0,
0,
0,
0,
0,
0,
0,
0,
0,
0,
0,
0,
0,
0,
0,
0,
0,
0,
0,
0,
0,
0,
0,
0,
0,
0,
0,
0,
0,
0,
0,
0,
0,
0,
0,
0,
0,
0,
0,
0,
0,
0,
0,
0,
0,
0,
0,
0,
0,
0,
0,
0,
0,
0,
0,
0,
0,
0,
0,
0,
0,
0,
0,
0,
0,
0,
0,
0,
0,
0,
0,
0,
0,
0,
0,
0,
0,
0,
0,
0,
0,
0,
0,
0,
0,
0,
0,
0,
0,
0,
0,
0,
0,
0,
0,
0,
0,
0,
0,
0,
0,
0,
0,
0,
0,
0,
0,
0,
0,
0,
0,
0,
0,
0,
0,
0,
0,
0,
0,
0,
0,
0,
0,
0,
0,
0,
0,
0,
0,
0,
0,
0,
0,
0,
0,
0,
0,
0,
0,
0,
0,
0,
0,
0,
0,
0,
0,
0,
0,
0,
0,
0,
0,
0,
0,
0,
0,
0,
0,
0,
0,
0,
0,
0,
0,
0,
0,
0,
0,
0,
0,
0,
0,
0,
0,
0,
0,
0,
0,
0,
0,
0,
0,
0,
0,
0,
0,
0,
0,
0,
0,
0,
0,
0,
0,
0,
0,
0,
0,
0,
0,
0,
0,
0,
0,
0,
0,
0,
0,
0,
0,
0,
0,
0,
0,
0,
0,
0,
0,
0,
0,
0,
0,
0,
0,
0,
0,
0,
0,
0,
0,
0,
0,
0,
0,
0,
0,
0,
0,
0,
0,
0,
0,
0,
#ENDOFDATA   :