File: N132962/Quantification/20 keV/MMM2/SPI MM2 SPI Monazite[3][4].msa
#FORMAT      : EMSA/MAS Spectral Data File
#VERSION     : 1.0
#TITLE       : SPI MM2 SPI Monazite[3][all]
#DATE        : 13-MAR-2025
#TIME        : 10:07
#OWNER       : Unknown
#NPOINTS     : 4096
#NCOLUMNS    : 1
#XUNITS      : eV
#YUNITS      : counts
#DATATYPE    : Y
#XPERCHAN    : 9.99778
#OFFSET      : 1.69135
#BEAMKV      : 20
#SIGNALTYPE  : EDS
#ELEVANGLE   : 35
#AZIMANGLE   : 0
#LIVETIME    : 239.948
#REALTIME    : 258.54
#PROBECUR    : 1.02627
#TAUWIND     : 0
#TDEADLYR    : 0
#TACTLYR     : 0.045
#TALWIND     : 0.025
#CHOFFSET    : 0.0
#XLABEL      : Energy (eV)
#YLABEL      : Counts
#XPOSITION   : 2.48359
#YPOSITION   : -2.72198
#ZPOSITION   : 31.03509
#EDSDET      : SD
##SPECIMEN   : SPI MM2 SPI Monazite[3][all]
##D2STDCMP   : SPI Monazite,(O:26.45),(Si:0.83),(P:11.85),(Ca:0.65),(Y:1.59),(La:7.84),(Ce:19.96),(Pr:2.47),(Nd:9.68),(Sm:3.7),(Eu:0.38),(Gd:2.89),(Tb:0.35),(Dy:1.21),(Pb:0.25),(Th:9.7),(U:0.16),5.0
##DET_HASH   : 12273538-fd48-a23f-0a19-f1e6fa85caef
##CALIB_HASH : 6abaa72c-aa41-8738-0be9-f592914732f3
##WORKING    : 15.0 mm
##DET_NAME   : EDAX All
##DET_MODE   : MediumLE
#SPECTRUM    :
20,
26,
13,
28,
139,
664,
2179,
6220,
15691,
19464,
11009,
6142,
5736,
6052,
7795,
18551,
62550,
118502,
86194,
24974,
7514,
8044,
10243,
9999,
8718,
7999,
7849,
8727,
10916,
12203,
11037,
9540,
9363,
9223,
8154,
7596,
7989,
7589,
7054,
7355,
7384,
6942,
6531,
6365,
6275,
5854,
5849,
5682,
5691,
5637,
5725,
5754,
5536,
5446,
5715,
6068,
7454,
10305,
12016,
10356,
8032,
7021,
7581,
10062,
15506,
28723,
55304,
72903,
58044,
28422,
12771,
9141,
7766,
6487,
5581,
5350,
5451,
5947,
6229,
6138,
5915,
5566,
5402,
5285,
5267,
5247,
5188,
5220,
5278,
5255,
5479,
5309,
5249,
5199,
5280,
5334,
5827,
7473,
11701,
17440,
21164,
17761,
12443,
11217,
13461,
14999,
12848,
8929,
6297,
5513,
5592,
5921,
6058,
5824,
5469,
4997,
4818,
4751,
4728,
4622,
4857,
5629,
6590,
7138,
6746,
5589,
4761,
4516,
4389,
4440,
4399,
4537,
4918,
4917,
4927,
4749,
4779,
4811,
4663,
4558,
4429,
4597,
4929,
4946,
4767,
4350,
4219,
4208,
4198,
4285,
4382,
4891,
6471,
9293,
13142,
15002,
13560,
10877,
10725,
15424,
23392,
29107,
27571,
19850,
12212,
8512,
8961,
10975,
12067,
11156,
9340,
9141,
11957,
17467,
23625,
25626,
22706,
17138,
12610,
9777,
8131,
6890,
6180,
6009,
6414,
7671,
9709,
11354,
12331,
11591,
10827,
9616,
8333,
7012,
6044,
5088,
4399,
3832,
3897,
4554,
5967,
7462,
8265,
7804,
6780,
5766,
5148,
4738,
4421,
4398,
4320,
4288,
4044,
3856,
3593,
3593,
3672,
3815,
3936,
4062,
4021,
3827,
3667,
3512,
3397,
3249,
2909,
2782,
2772,
2831,
2754,
2666,
2515,
2525,
2699,
2643,
2669,
2714,
2774,
2760,
2775,
2655,
2523,
2552,
2411,
2300,
2296,
2371,
2400,
2368,
2313,
2322,
2172,
2144,
2200,
2129,
2050,
2120,
2163,
2185,
2049,
2006,
2031,
1968,
1998,
1939,
1907,
1954,
1931,
1899,
1954,
1852,
1958,
1929,
1850,
1853,
1847,
1904,
1802,
1851,
1795,
1775,
1789,
1854,
1765,
1749,
1654,
1745,
1710,
1730,
1699,
1621,
1668,
1677,
1678,
1624,
1616,
1702,
1679,
1522,
1606,
1561,
1548,
1520,
1496,
1488,
1563,
1558,
1492,
1486,
1578,
1519,
1540,
1534,
1494,
1481,
1511,
1452,
1455,
1481,
1421,
1415,
1434,
1354,
1456,
1394,
1362,
1449,
1382,
1353,
1315,
1278,
1313,
1297,
1359,
1326,
1291,
1257,
1259,
1330,
1304,
1281,
1270,
1281,
1249,
1209,
1179,
1249,
1258,
1191,
1249,
1205,
1267,
1168,
1176,
1154,
1131,
1115,
1172,
1138,
1121,
1145,
1076,
1108,
1090,
1053,
1064,
1106,
1038,
1114,
1048,
1070,
1069,
1061,
1002,
1002,
1045,
978,
960,
1032,
942,
950,
949,
942,
933,
937,
959,
900,
894,
946,
927,
915,
931,
926,
864,
851,
842,
817,
852,
838,
799,
793,
782,
779,
794,
774,
752,
776,
759,
789,
772,
734,
764,
718,
738,
773,
796,
761,
699,
735,
707,
755,
693,
707,
718,
717,
724,
737,
778,
784,
805,
843,
863,
858,
823,
714,
718,
632,
636,
571,
651,
599,
562,
550,
623,
586,
579,
548,
571,
508,
555,
564,
528,
512,
531,
509,
554,
528,
504,
529,
487,
468,
448,
463,
470,
470,
483,
495,
436,
467,
473,
431,
427,
437,
358,
453,
458,
409,
396,
403,
361,
418,
387,
403,
432,
381,
388,
345,
352,
317,
374,
336,
352,
346,
377,
372,
360,
386,
369,
383,
359,
353,
355,
320,
325,
300,
307,
276,
304,
286,
295,
299,
273,
275,
288,
299,
289,
323,
303,
327,
307,
334,
275,
269,
252,
256,
234,
272,
214,
219,
228,
216,
218,
232,
212,
227,
221,
227,
229,
204,
216,
207,
171,
208,
184,
208,
170,
185,
160,
162,
156,
183,
170,
170,
194,
186,
171,
189,
197,
159,
168,
161,
152,
175,
169,
173,
163,
123,
153,
140,
154,
126,
139,
120,
118,
132,
124,
120,
132,
124,
113,
129,
105,
106,
105,
109,
98,
105,
112,
88,
102,
106,
98,
94,
95,
82,
95,
82,
86,
72,
94,
73,
72,
75,
80,
81,
65,
64,
86,
67,
62,
67,
52,
55,
42,
63,
65,
68,
65,
51,
47,
46,
50,
56,
39,
47,
37,
39,
39,
43,
32,
28,
42,
45,
41,
36,
33,
25,
28,
32,
26,
24,
16,
20,
24,
20,
21,
16,
18,
22,
10,
19,
17,
16,
16,
4,
20,
12,
4,
14,
11,
6,
2,
5,
1,
2,
3,
2,
3,
1,
3,
3,
0,
2,
1,
0,
4,
5,
4,
1,
4,
4,
3,
1,
3,
1,
1,
2,
1,
1,
2,
0,
1,
0,
1,
0,
2,
3,
1,
1,
1,
1,
1,
4,
2,
3,
1,
0,
0,
1,
1,
0,
0,
0,
1,
1,
0,
0,
1,
0,
3,
0,
2,
2,
0,
1,
1,
1,
0,
2,
0,
0,
0,
1,
1,
1,
0,
1,
1,
1,
0,
2,
2,
0,
1,
0,
1,
0,
2,
0,
0,
1,
3,
0,
0,
2,
1,
0,
1,
0,
0,
0,
1,
0,
1,
0,
0,
0,
0,
0,
2,
0,
0,
0,
0,
2,
0,
0,
0,
1,
0,
1,
0,
0,
1,
0,
0,
0,
1,
0,
1,
0,
1,
1,
0,
0,
0,
0,
0,
0,
0,
0,
1,
0,
1,
0,
0,
0,
2,
0,
0,
0,
1,
0,
1,
0,
0,
0,
0,
0,
0,
1,
1,
1,
2,
0,
0,
0,
0,
0,
0,
0,
1,
1,
0,
1,
1,
1,
1,
0,
1,
1,
0,
0,
0,
0,
1,
1,
0,
0,
0,
0,
0,
0,
0,
1,
0,
0,
0,
0,
0,
0,
0,
1,
0,
0,
0,
0,
0,
0,
0,
0,
1,
0,
0,
1,
1,
0,
0,
0,
0,
0,
1,
0,
0,
0,
0,
0,
0,
0,
0,
0,
0,
0,
0,
0,
0,
0,
0,
1,
0,
0,
1,
1,
0,
0,
0,
0,
1,
0,
0,
0,
0,
0,
0,
0,
1,
0,
0,
0,
0,
0,
0,
0,
0,
0,
0,
0,
0,
0,
0,
0,
0,
0,
0,
0,
0,
0,
0,
0,
0,
0,
0,
0,
0,
0,
0,
0,
0,
1,
0,
1,
0,
0,
0,
0,
0,
0,
0,
0,
0,
0,
1,
0,
0,
0,
0,
0,
0,
0,
0,
0,
0,
1,
0,
0,
0,
0,
0,
0,
0,
0,
0,
0,
0,
0,
0,
1,
0,
0,
0,
0,
0,
0,
0,
0,
0,
0,
0,
0,
0,
0,
0,
0,
1,
0,
0,
0,
1,
0,
0,
0,
0,
0,
0,
0,
0,
0,
0,
0,
0,
0,
0,
0,
0,
0,
0,
0,
0,
0,
0,
0,
0,
0,
0,
0,
0,
0,
0,
0,
0,
0,
0,
0,
0,
0,
0,
0,
0,
0,
0,
0,
0,
0,
0,
0,
0,
0,
0,
0,
0,
0,
0,
0,
0,
0,
0,
0,
0,
0,
0,
0,
0,
0,
0,
0,
0,
0,
0,
0,
0,
0,
0,
0,
0,
0,
0,
0,
1,
0,
0,
0,
0,
0,
0,
0,
0,
0,
0,
0,
0,
0,
0,
0,
0,
0,
0,
0,
0,
0,
0,
0,
0,
0,
0,
0,
0,
0,
0,
0,
0,
0,
0,
0,
0,
0,
0,
0,
0,
0,
0,
0,
0,
0,
0,
0,
0,
0,
0,
0,
0,
0,
0,
0,
0,
0,
0,
0,
0,
0,
0,
0,
0,
0,
0,
0,
0,
0,
0,
0,
0,
0,
0,
0,
0,
0,
0,
0,
0,
0,
0,
0,
0,
0,
0,
0,
0,
0,
0,
0,
0,
0,
0,
0,
0,
0,
0,
0,
0,
0,
0,
0,
0,
0,
0,
0,
0,
0,
0,
0,
0,
0,
0,
0,
0,
0,
0,
0,
0,
0,
0,
0,
0,
0,
0,
0,
0,
0,
0,
0,
0,
0,
0,
0,
0,
0,
0,
0,
0,
0,
0,
0,
0,
0,
0,
0,
0,
0,
0,
0,
0,
0,
0,
0,
0,
0,
0,
0,
0,
0,
0,
0,
0,
0,
0,
0,
0,
0,
0,
0,
0,
0,
0,
0,
0,
0,
0,
0,
0,
0,
0,
0,
0,
0,
0,
0,
0,
0,
0,
0,
0,
0,
0,
0,
0,
0,
0,
0,
0,
0,
0,
0,
0,
0,
0,
0,
0,
0,
0,
0,
0,
0,
0,
0,
0,
0,
0,
0,
0,
0,
0,
0,
0,
0,
0,
0,
0,
0,
0,
0,
0,
0,
0,
0,
0,
0,
0,
0,
0,
0,
0,
0,
0,
0,
0,
0,
0,
0,
0,
0,
0,
0,
0,
0,
0,
0,
0,
0,
0,
0,
0,
0,
0,
0,
0,
0,
0,
0,
0,
0,
0,
0,
0,
0,
0,
0,
#ENDOFDATA   :