File: N132962/Quantification/20 keV/MMM2/SPI MM2 Pyrope[0][4].msa
#FORMAT      : EMSA/MAS Spectral Data File
#VERSION     : 1.0
#TITLE       : SPI MM2 Pyrope[0][all]
#DATE        : 13-MAR-2025
#TIME        : 12:39
#OWNER       : Unknown
#NPOINTS     : 4096
#NCOLUMNS    : 1
#XUNITS      : eV
#YUNITS      : counts
#DATATYPE    : Y
#XPERCHAN    : 9.99778
#OFFSET      : 1.69135
#BEAMKV      : 20
#SIGNALTYPE  : EDS
#ELEVANGLE   : 35
#AZIMANGLE   : 0
#LIVETIME    : 239.853
#REALTIME    : 255.089
#PROBECUR    : 1.02627
#TAUWIND     : 0
#TDEADLYR    : 0
#TACTLYR     : 0.045
#TALWIND     : 0.025
#CHOFFSET    : 0.0
#XLABEL      : Energy (eV)
#YLABEL      : Counts
#XPOSITION   : 4.61007
#YPOSITION   : 1.53359
#ZPOSITION   : 31.03511
#EDSDET      : SD
##SPECIMEN   : SPI MM2 Pyrope[0][all]
##D2STDCMP   : Pyrope,(O:47.6258),(Mg:18.0873),(Al:13.3861),(Si:20.9007),5.0
##DET_HASH   : 12273538-fd48-a23f-0a19-f1e6fa85caef
##CALIB_HASH : 6abaa72c-aa41-8738-0be9-f592914732f3
##WORKING    : 15.0 mm
##DET_NAME   : EDAX All
##DET_MODE   : MediumLE
#SPECTRUM    :
19,
17,
9,
16,
73,
253,
852,
2765,
7845,
10390,
5888,
2773,
2648,
3410,
5949,
22410,
89284,
175306,
127976,
33785,
5571,
2986,
4100,
6800,
6755,
3991,
2666,
2478,
2620,
2551,
2744,
2887,
3148,
3389,
3890,
4094,
4030,
4278,
5028,
9553,
31875,
78589,
94763,
54225,
17153,
5878,
5343,
12352,
39804,
80012,
81264,
42415,
14504,
6229,
4922,
11096,
40997,
104623,
142130,
100335,
40674,
14294,
7088,
4003,
2823,
2594,
2605,
2708,
2510,
2454,
2416,
2363,
2481,
2455,
2581,
2747,
2728,
2524,
2463,
2464,
2461,
2461,
2535,
2491,
2431,
2329,
2449,
2393,
2419,
2439,
2450,
2573,
2471,
2376,
2287,
2334,
2408,
2379,
2344,
2447,
2519,
2430,
2348,
2272,
2220,
2249,
2158,
2308,
2424,
2263,
2282,
2153,
2130,
2034,
2115,
2186,
2210,
2140,
2335,
2656,
4037,
7605,
12524,
15547,
13448,
8316,
4297,
2433,
2019,
1915,
1969,
2225,
2726,
3229,
3460,
3137,
2492,
1937,
1781,
1798,
1710,
1708,
1689,
1700,
1564,
1667,
1667,
1742,
1952,
2298,
2612,
2518,
2196,
1849,
1642,
1643,
1610,
1546,
1479,
1470,
1450,
1547,
1524,
1543,
1618,
1639,
1558,
1505,
1468,
1353,
1318,
1325,
1383,
1312,
1350,
1428,
1503,
1699,
2209,
2738,
3256,
3127,
2547,
1935,
1534,
1285,
1274,
1272,
1217,
1182,
1191,
1179,
1169,
1260,
1384,
1514,
1785,
1760,
1754,
1550,
1286,
1184,
1142,
1033,
1006,
1109,
1009,
1149,
1356,
2058,
3886,
7126,
10826,
12969,
12292,
9029,
5469,
2911,
1541,
1097,
1005,
996,
942,
907,
910,
919,
946,
869,
945,
1000,
1012,
1172,
1418,
1815,
2199,
2280,
2257,
1789,
1389,
1085,
878,
841,
786,
793,
789,
802,
753,
785,
879,
762,
834,
785,
726,
738,
731,
729,
748,
700,
703,
732,
685,
691,
689,
698,
692,
670,
661,
642,
693,
655,
652,
683,
640,
664,
609,
642,
627,
586,
604,
604,
592,
583,
589,
576,
581,
539,
614,
563,
541,
557,
566,
569,
597,
527,
531,
540,
525,
534,
509,
522,
525,
511,
519,
510,
525,
495,
473,
496,
477,
514,
466,
477,
502,
469,
455,
458,
442,
487,
429,
480,
444,
492,
443,
445,
433,
459,
422,
442,
415,
413,
428,
408,
420,
401,
402,
414,
392,
387,
390,
404,
374,
385,
370,
375,
374,
366,
394,
336,
334,
383,
354,
344,
352,
329,
373,
351,
354,
345,
353,
321,
323,
347,
317,
291,
339,
311,
321,
347,
304,
288,
264,
295,
300,
294,
272,
301,
290,
282,
304,
274,
284,
285,
256,
289,
283,
279,
262,
249,
232,
262,
270,
256,
235,
244,
216,
223,
246,
238,
233,
246,
249,
211,
232,
242,
224,
242,
204,
233,
212,
194,
208,
177,
230,
208,
219,
195,
192,
196,
206,
192,
225,
192,
189,
211,
190,
196,
179,
196,
203,
183,
186,
185,
174,
151,
160,
157,
163,
168,
163,
165,
160,
173,
138,
161,
140,
146,
117,
140,
131,
146,
140,
164,
145,
154,
119,
135,
146,
146,
123,
125,
140,
112,
131,
120,
124,
113,
133,
136,
97,
118,
115,
122,
127,
127,
101,
94,
94,
109,
98,
120,
113,
107,
95,
86,
77,
109,
96,
89,
103,
98,
86,
102,
80,
97,
82,
78,
84,
81,
81,
79,
77,
96,
75,
78,
65,
82,
58,
54,
64,
66,
82,
66,
71,
69,
66,
76,
65,
52,
56,
74,
71,
69,
54,
61,
63,
66,
58,
56,
61,
54,
71,
36,
45,
53,
55,
39,
37,
47,
55,
41,
42,
54,
46,
47,
47,
42,
44,
52,
35,
47,
44,
34,
33,
34,
46,
37,
30,
26,
30,
33,
32,
26,
41,
27,
23,
30,
26,
30,
35,
37,
31,
30,
24,
30,
29,
34,
19,
20,
24,
29,
17,
19,
31,
24,
25,
24,
19,
28,
21,
16,
18,
24,
13,
26,
13,
23,
18,
13,
6,
15,
16,
21,
10,
12,
11,
22,
19,
15,
12,
18,
9,
8,
10,
8,
12,
10,
8,
13,
16,
14,
9,
10,
6,
11,
6,
8,
9,
6,
7,
8,
6,
9,
7,
5,
6,
6,
6,
8,
7,
8,
1,
6,
7,
8,
9,
5,
5,
3,
5,
3,
2,
2,
3,
3,
6,
1,
3,
1,
1,
0,
0,
1,
2,
0,
0,
0,
0,
0,
0,
0,
0,
0,
1,
1,
1,
0,
0,
0,
0,
0,
0,
0,
0,
0,
0,
0,
0,
0,
1,
1,
0,
0,
0,
1,
0,
0,
1,
0,
0,
0,
0,
0,
0,
0,
0,
0,
0,
0,
0,
0,
0,
0,
0,
0,
0,
1,
0,
0,
0,
0,
0,
0,
0,
0,
0,
0,
0,
0,
0,
0,
0,
2,
1,
0,
0,
0,
0,
0,
0,
0,
0,
0,
0,
0,
0,
0,
0,
0,
0,
0,
0,
0,
0,
0,
0,
0,
0,
0,
0,
0,
1,
0,
0,
0,
0,
0,
0,
0,
0,
0,
0,
0,
0,
0,
0,
0,
0,
0,
0,
0,
0,
0,
0,
1,
0,
0,
0,
0,
0,
0,
0,
0,
0,
0,
0,
0,
0,
0,
0,
0,
0,
0,
0,
0,
0,
0,
1,
1,
0,
0,
0,
0,
0,
0,
0,
0,
0,
0,
0,
0,
0,
0,
0,
1,
0,
0,
0,
0,
0,
0,
0,
0,
0,
0,
0,
0,
0,
0,
0,
0,
0,
0,
0,
0,
0,
0,
0,
0,
0,
0,
0,
0,
0,
0,
0,
0,
0,
0,
0,
0,
0,
0,
0,
0,
0,
0,
0,
0,
0,
0,
0,
0,
0,
0,
0,
0,
0,
0,
0,
0,
0,
0,
0,
0,
0,
0,
0,
0,
0,
0,
0,
0,
1,
1,
0,
0,
0,
0,
0,
0,
0,
0,
0,
0,
1,
0,
0,
0,
0,
0,
0,
0,
0,
0,
0,
0,
0,
0,
0,
0,
0,
0,
0,
0,
0,
0,
0,
0,
0,
0,
0,
0,
0,
0,
0,
0,
0,
0,
0,
0,
0,
0,
0,
0,
0,
0,
0,
0,
0,
0,
0,
0,
0,
0,
0,
0,
0,
0,
0,
0,
0,
0,
0,
0,
0,
0,
0,
0,
0,
0,
0,
0,
0,
0,
0,
0,
0,
0,
0,
0,
0,
0,
0,
0,
0,
0,
0,
0,
0,
0,
0,
0,
0,
0,
0,
0,
0,
0,
0,
0,
0,
0,
0,
0,
0,
0,
0,
0,
0,
0,
0,
0,
0,
0,
0,
0,
0,
0,
0,
0,
0,
0,
0,
0,
0,
0,
0,
0,
0,
0,
0,
0,
0,
0,
0,
0,
0,
0,
0,
0,
0,
0,
0,
0,
0,
0,
0,
0,
0,
0,
0,
0,
0,
0,
0,
0,
0,
0,
0,
0,
0,
0,
0,
0,
0,
0,
0,
0,
0,
0,
0,
0,
0,
0,
0,
0,
0,
0,
0,
0,
0,
0,
0,
0,
0,
0,
0,
0,
0,
0,
0,
0,
0,
0,
0,
0,
0,
0,
0,
0,
0,
0,
0,
0,
0,
0,
0,
0,
0,
0,
0,
0,
0,
0,
0,
0,
0,
0,
0,
0,
0,
0,
0,
0,
0,
0,
0,
0,
0,
0,
0,
0,
0,
0,
0,
0,
0,
0,
0,
0,
0,
0,
0,
0,
0,
0,
0,
0,
0,
0,
0,
0,
0,
0,
0,
0,
0,
0,
0,
0,
0,
0,
0,
0,
0,
0,
0,
0,
0,
0,
0,
0,
0,
0,
0,
0,
0,
0,
0,
0,
0,
0,
0,
0,
0,
0,
0,
0,
0,
0,
0,
0,
0,
0,
0,
0,
0,
0,
0,
0,
0,
0,
0,
0,
0,
0,
0,
0,
0,
0,
0,
0,
0,
0,
0,
0,
0,
0,
0,
0,
0,
0,
0,
0,
0,
0,
0,
0,
0,
0,
0,
0,
0,
0,
0,
0,
0,
0,
0,
0,
0,
0,
0,
0,
0,
0,
0,
0,
0,
0,
0,
0,
0,
0,
0,
0,
0,
0,
0,
0,
0,
0,
0,
0,
0,
0,
0,
0,
0,
0,
0,
0,
0,
0,
0,
0,
0,
0,
0,
0,
0,
0,
0,
0,
0,
0,
0,
0,
0,
0,
0,
0,
0,
0,
0,
0,
0,
0,
0,
0,
0,
0,
0,
0,
0,
0,
0,
0,
0,
0,
0,
0,
0,
0,
0,
0,
0,
0,
0,
0,
0,
0,
0,
0,
0,
0,
0,
0,
0,
0,
0,
0,
0,
0,
0,
0,
0,
0,
0,
0,
0,
0,
0,
0,
0,
0,
0,
0,
0,
0,
0,
0,
0,
0,
0,
0,
0,
0,
0,
0,
0,
0,
0,
0,
0,
0,
#ENDOFDATA   :