File: N132962/Quantification/20 keV/MMM2/SPI MM2 Zircon[4][4].msa
#FORMAT      : EMSA/MAS Spectral Data File
#VERSION     : 1.0
#TITLE       : SPI MM2 Zircon[4][all]
#DATE        : 13-MAR-2025
#TIME        : 13:49
#OWNER       : Unknown
#NPOINTS     : 4096
#NCOLUMNS    : 1
#XUNITS      : eV
#YUNITS      : counts
#DATATYPE    : Y
#XPERCHAN    : 9.99778
#OFFSET      : 1.69135
#BEAMKV      : 20
#SIGNALTYPE  : EDS
#ELEVANGLE   : 35
#AZIMANGLE   : 0
#LIVETIME    : 239.85
#REALTIME    : 257.455
#PROBECUR    : 1.0264
#TAUWIND     : 0
#TDEADLYR    : 0
#TACTLYR     : 0.045
#TALWIND     : 0.025
#CHOFFSET    : 0.0
#XLABEL      : Energy (eV)
#YLABEL      : Counts
#XPOSITION   : -2.60623
#YPOSITION   : 6.68041
#ZPOSITION   : 31.03511
#EDSDET      : SD
##SPECIMEN   : SPI MM2 Zircon[4][all]
##DET_HASH   : 12273538-fd48-a23f-0a19-f1e6fa85caef
##CALIB_HASH : 6abaa72c-aa41-8738-0be9-f592914732f3
##WORKING    : 15.0 mm
##DET_NAME   : EDAX All
##DET_MODE   : MediumLE
#SPECTRUM    :
24,
35,
11,
52,
316,
948,
1656,
3789,
10645,
15420,
10342,
4775,
3763,
4038,
4518,
11010,
37615,
72193,
53621,
15346,
3735,
2750,
2981,
3347,
3535,
3468,
3641,
4068,
4350,
4422,
4525,
4507,
4534,
4903,
5001,
5204,
5368,
5547,
5825,
5922,
6086,
6391,
6477,
6648,
6623,
6754,
6884,
7249,
7282,
7849,
7901,
8066,
8023,
8424,
10655,
18436,
51242,
120536,
161886,
120540,
56427,
25449,
14832,
11119,
12072,
21002,
51407,
110677,
154504,
137092,
102055,
79305,
54008,
31154,
17659,
10324,
6513,
4695,
3815,
3410,
3289,
3326,
3730,
4085,
4091,
3805,
3455,
3137,
3162,
3004,
3100,
2999,
2960,
3037,
3093,
3031,
3110,
3213,
3091,
3213,
3149,
3070,
3136,
3180,
3172,
3044,
3146,
3093,
3186,
3121,
3101,
3066,
3183,
3175,
3129,
3178,
3252,
3278,
3174,
3111,
3114,
3041,
3032,
3184,
3221,
3232,
3264,
3270,
3248,
3139,
3124,
3006,
2970,
3059,
3133,
2977,
3027,
3018,
3032,
2955,
2901,
2834,
2806,
2893,
2845,
2698,
2880,
2752,
2774,
2786,
2723,
2681,
2770,
2608,
2608,
2671,
2617,
2597,
2596,
2539,
2661,
2616,
2676,
2598,
2490,
2537,
2425,
2432,
2397,
2472,
2367,
2383,
2316,
2354,
2385,
2416,
2391,
2374,
2249,
2318,
2370,
2254,
2304,
2286,
2236,
2245,
2247,
2228,
2203,
2195,
2212,
2217,
2142,
2127,
2068,
2166,
2089,
2090,
2134,
2003,
2092,
2054,
2077,
2011,
1999,
1985,
1927,
1929,
1880,
2051,
1924,
2045,
2063,
2107,
2102,
2111,
2054,
1994,
1900,
1835,
1852,
1784,
1770,
1789,
1739,
1715,
1750,
1811,
1719,
1692,
1745,
1719,
1628,
1716,
1674,
1671,
1671,
1703,
1637,
1639,
1542,
1565,
1598,
1568,
1528,
1526,
1590,
1601,
1699,
1625,
1631,
1525,
1478,
1468,
1521,
1401,
1424,
1406,
1502,
1537,
1538,
1671,
1628,
1654,
1677,
1644,
1540,
1458,
1384,
1294,
1299,
1368,
1311,
1294,
1340,
1289,
1287,
1259,
1276,
1215,
1217,
1279,
1258,
1186,
1244,
1243,
1150,
1176,
1209,
1199,
1120,
1184,
1199,
1137,
1189,
1091,
1142,
1107,
1136,
1133,
1232,
1186,
1197,
1123,
1082,
1112,
1107,
1080,
1048,
1083,
1059,
1092,
1064,
1003,
972,
1022,
999,
1021,
915,
972,
1005,
992,
944,
977,
920,
925,
943,
871,
876,
860,
901,
882,
924,
904,
847,
854,
900,
912,
834,
822,
832,
829,
808,
825,
797,
830,
785,
769,
815,
816,
853,
822,
774,
759,
745,
767,
758,
734,
740,
690,
740,
751,
677,
766,
718,
681,
708,
700,
676,
728,
706,
603,
701,
677,
648,
654,
654,
611,
651,
656,
638,
625,
626,
602,
620,
630,
533,
566,
575,
549,
564,
556,
608,
571,
536,
551,
554,
556,
531,
515,
517,
538,
509,
526,
523,
489,
476,
549,
508,
509,
494,
513,
497,
470,
480,
433,
450,
417,
437,
447,
460,
470,
409,
423,
429,
394,
432,
400,
437,
419,
418,
387,
386,
421,
409,
395,
397,
371,
379,
395,
388,
381,
377,
386,
351,
334,
354,
348,
360,
354,
326,
332,
346,
296,
346,
305,
340,
329,
305,
329,
284,
304,
287,
295,
303,
268,
300,
289,
259,
289,
279,
263,
288,
276,
287,
246,
295,
255,
203,
255,
230,
206,
234,
249,
215,
226,
199,
222,
212,
230,
228,
228,
213,
233,
213,
210,
199,
185,
186,
193,
191,
194,
169,
167,
191,
212,
168,
159,
188,
181,
172,
158,
194,
172,
151,
172,
179,
205,
213,
258,
272,
369,
457,
485,
521,
528,
484,
421,
322,
251,
203,
161,
151,
138,
113,
128,
137,
143,
116,
113,
122,
114,
113,
124,
138,
110,
107,
105,
91,
120,
91,
97,
97,
85,
101,
108,
99,
79,
82,
82,
100,
85,
93,
87,
74,
71,
86,
84,
91,
90,
68,
91,
70,
70,
86,
64,
86,
56,
68,
76,
67,
84,
76,
63,
63,
87,
107,
97,
100,
106,
89,
91,
79,
64,
52,
62,
55,
67,
57,
53,
60,
49,
46,
40,
52,
27,
49,
36,
36,
38,
38,
50,
34,
20,
35,
32,
28,
24,
20,
32,
26,
31,
28,
21,
26,
23,
20,
24,
17,
26,
22,
33,
16,
20,
10,
15,
13,
18,
14,
19,
14,
13,
12,
8,
12,
13,
9,
13,
7,
14,
12,
5,
15,
10,
5,
5,
5,
5,
7,
3,
1,
4,
3,
1,
4,
4,
1,
0,
2,
1,
1,
1,
0,
0,
1,
1,
0,
0,
1,
0,
0,
0,
0,
2,
0,
1,
0,
1,
0,
0,
1,
0,
1,
0,
1,
1,
2,
0,
1,
0,
1,
0,
1,
0,
0,
2,
0,
1,
1,
0,
0,
1,
1,
0,
1,
0,
1,
0,
0,
0,
1,
0,
0,
0,
0,
0,
0,
0,
1,
0,
1,
0,
0,
0,
1,
0,
0,
0,
0,
0,
0,
0,
0,
1,
0,
0,
0,
1,
0,
1,
0,
1,
0,
0,
0,
0,
1,
1,
0,
1,
1,
0,
0,
0,
0,
0,
0,
0,
0,
0,
2,
0,
0,
0,
1,
0,
0,
0,
0,
0,
0,
0,
0,
0,
0,
0,
0,
0,
0,
0,
0,
0,
0,
0,
0,
0,
0,
0,
0,
0,
0,
0,
0,
0,
0,
0,
1,
0,
2,
0,
1,
1,
0,
0,
0,
1,
0,
0,
0,
0,
0,
0,
0,
0,
0,
0,
0,
0,
0,
0,
0,
0,
1,
0,
0,
0,
0,
0,
0,
1,
1,
0,
0,
0,
0,
1,
0,
0,
1,
0,
0,
0,
0,
0,
0,
0,
0,
1,
0,
0,
0,
0,
0,
0,
0,
0,
0,
0,
1,
0,
0,
0,
0,
0,
0,
0,
1,
0,
1,
0,
0,
0,
0,
0,
0,
0,
0,
0,
0,
0,
0,
0,
0,
0,
0,
0,
0,
0,
0,
0,
0,
0,
0,
0,
0,
0,
0,
0,
0,
0,
0,
0,
0,
0,
0,
0,
0,
0,
0,
0,
0,
0,
0,
0,
0,
0,
0,
0,
0,
0,
0,
0,
0,
0,
0,
0,
0,
0,
0,
0,
0,
0,
0,
0,
0,
0,
0,
0,
0,
0,
0,
0,
0,
0,
0,
0,
0,
0,
0,
0,
0,
0,
0,
0,
0,
0,
0,
0,
0,
0,
0,
0,
0,
0,
0,
0,
0,
1,
0,
0,
0,
0,
0,
0,
0,
0,
0,
0,
0,
0,
0,
0,
0,
1,
0,
0,
0,
0,
0,
0,
0,
0,
0,
0,
0,
0,
0,
0,
0,
0,
0,
0,
0,
0,
0,
1,
0,
0,
0,
0,
0,
0,
0,
0,
0,
0,
0,
0,
0,
0,
0,
0,
0,
0,
0,
0,
0,
0,
0,
0,
0,
0,
0,
0,
0,
0,
0,
0,
0,
0,
0,
0,
0,
0,
0,
0,
0,
0,
0,
0,
0,
0,
0,
0,
0,
0,
0,
0,
0,
0,
0,
0,
0,
0,
0,
0,
0,
0,
0,
0,
0,
0,
0,
0,
0,
0,
0,
0,
0,
0,
0,
0,
0,
0,
0,
0,
0,
0,
0,
0,
0,
0,
0,
0,
0,
0,
0,
0,
0,
0,
0,
0,
0,
0,
0,
0,
0,
0,
0,
0,
0,
0,
0,
0,
0,
0,
0,
0,
0,
0,
0,
0,
0,
0,
0,
0,
0,
0,
0,
0,
0,
0,
0,
0,
0,
0,
0,
0,
0,
0,
0,
0,
0,
0,
0,
0,
0,
0,
0,
0,
0,
0,
0,
0,
0,
0,
0,
0,
0,
0,
0,
0,
0,
0,
0,
0,
0,
0,
0,
0,
0,
0,
0,
0,
0,
0,
0,
0,
0,
0,
0,
0,
0,
0,
0,
0,
0,
0,
0,
0,
0,
0,
0,
0,
0,
0,
0,
0,
0,
0,
0,
0,
0,
0,
0,
0,
0,
0,
0,
0,
0,
0,
0,
0,
0,
0,
0,
0,
0,
0,
0,
0,
0,
0,
0,
0,
0,
0,
0,
0,
0,
0,
0,
0,
0,
0,
0,
0,
0,
0,
0,
0,
0,
0,
0,
0,
0,
0,
0,
0,
0,
0,
0,
0,
0,
0,
0,
0,
0,
0,
0,
0,
0,
0,
0,
0,
0,
0,
0,
0,
0,
0,
0,
0,
0,
0,
0,
0,
0,
0,
0,
0,
0,
0,
0,
0,
0,
0,
0,
0,
0,
0,
0,
0,
0,
0,
0,
0,
0,
0,
0,
0,
0,
0,
0,
0,
0,
0,
0,
0,
0,
0,
0,
0,
0,
0,
0,
0,
0,
0,
0,
0,
0,
0,
0,
0,
0,
0,
0,
0,
0,
0,
0,
0,
0,
0,
0,
0,
0,
0,
0,
0,
0,
0,
0,
0,
0,
0,
0,
0,
0,
0,
0,
0,
0,
0,
#ENDOFDATA   :