File: N132962/Quantification/20 keV/MMM2/SPI MM2 Pyrite[0][4].msa
#FORMAT      : EMSA/MAS Spectral Data File
#VERSION     : 1.0
#TITLE       : SPI MM2 Pyrite[0][all]
#DATE        : 13-MAR-2025
#TIME        : 12:49
#OWNER       : Unknown
#NPOINTS     : 4096
#NCOLUMNS    : 1
#XUNITS      : eV
#YUNITS      : counts
#DATATYPE    : Y
#XPERCHAN    : 9.99778
#OFFSET      : 1.69135
#BEAMKV      : 20
#SIGNALTYPE  : EDS
#ELEVANGLE   : 35
#AZIMANGLE   : 0
#LIVETIME    : 239.846
#REALTIME    : 262.003
#PROBECUR    : 1.02627
#TAUWIND     : 0
#TDEADLYR    : 0
#TACTLYR     : 0.045
#TALWIND     : 0.025
#CHOFFSET    : 0.0
#XLABEL      : Energy (eV)
#YLABEL      : Counts
#XPOSITION   : 7.85443
#YPOSITION   : 1.92288
#ZPOSITION   : 31.03511
#EDSDET      : SD
##SPECIMEN   : SPI MM2 Pyrite[0][all]
##DET_HASH   : 12273538-fd48-a23f-0a19-f1e6fa85caef
##CALIB_HASH : 6abaa72c-aa41-8738-0be9-f592914732f3
##WORKING    : 15.0 mm
##DET_NAME   : EDAX All
##DET_MODE   : MediumLE
#SPECTRUM    :
23,
34,
9,
64,
386,
858,
1206,
3249,
9573,
12548,
6313,
2541,
2281,
2485,
2658,
3624,
5219,
8430,
13172,
18332,
20276,
20617,
34218,
60580,
50545,
19007,
5977,
3989,
3467,
3448,
3415,
3555,
3655,
3729,
3803,
4059,
4077,
4244,
4300,
4586,
4706,
4749,
4907,
5111,
5103,
5302,
5351,
5550,
5578,
5787,
5830,
5898,
5786,
5800,
5989,
6048,
6188,
6635,
7090,
7079,
6805,
6334,
5971,
5787,
5771,
6010,
6128,
6082,
6290,
6331,
6411,
7306,
10729,
20412,
52819,
148564,
307374,
386386,
279996,
120246,
40451,
27683,
30932,
25467,
14229,
6441,
3771,
3283,
3092,
3153,
3089,
3276,
3150,
3168,
3198,
3250,
3177,
3390,
3256,
3333,
3455,
3449,
3242,
3258,
3170,
3196,
3095,
3070,
3139,
3042,
3196,
3007,
2986,
3187,
2979,
3132,
3040,
3070,
3050,
2967,
3014,
3106,
3071,
2981,
3009,
2968,
3038,
2918,
2914,
3016,
2855,
2845,
2749,
2804,
2828,
2910,
2833,
2803,
2691,
2727,
2791,
2692,
2653,
2792,
2677,
2733,
2660,
2682,
2688,
2665,
2738,
2845,
3098,
3464,
3701,
3553,
3280,
2858,
2732,
2635,
2654,
2533,
2466,
2353,
2375,
2414,
2362,
2377,
2349,
2404,
2309,
2325,
2337,
2229,
2294,
2271,
2330,
2343,
2209,
2280,
2235,
2228,
2193,
2151,
2078,
2127,
2095,
2088,
2076,
2043,
2016,
2044,
2030,
2001,
2070,
1976,
2011,
1966,
1894,
2025,
1990,
1988,
2025,
2036,
2040,
2104,
2192,
2703,
4359,
9910,
22778,
45880,
72147,
88653,
82704,
59816,
33133,
15139,
6104,
2915,
1929,
1798,
1758,
1666,
1753,
1705,
1707,
1881,
1806,
2038,
2406,
3308,
5263,
8485,
11212,
12737,
11613,
8758,
5345,
3218,
1982,
1523,
1406,
1278,
1322,
1272,
1299,
1323,
1381,
1355,
1315,
1357,
1282,
1289,
1205,
1164,
1225,
1274,
1175,
1219,
1210,
1223,
1199,
1243,
1197,
1216,
1187,
1176,
1132,
1157,
1196,
1120,
1169,
1181,
1151,
1110,
1074,
1126,
1112,
1100,
1035,
1075,
1075,
1080,
1107,
1090,
1125,
1182,
1250,
1284,
1299,
1283,
1200,
1159,
1099,
981,
952,
1004,
971,
953,
942,
935,
972,
932,
985,
970,
957,
885,
935,
981,
924,
927,
927,
913,
870,
872,
835,
879,
881,
887,
854,
837,
816,
799,
848,
807,
844,
747,
778,
837,
779,
765,
790,
772,
775,
743,
798,
700,
748,
765,
755,
770,
760,
765,
708,
739,
677,
695,
692,
715,
675,
707,
632,
672,
640,
642,
684,
650,
631,
636,
660,
603,
619,
655,
629,
583,
622,
580,
567,
625,
603,
601,
574,
577,
590,
549,
570,
540,
561,
579,
532,
562,
525,
521,
513,
547,
542,
504,
519,
498,
468,
527,
480,
524,
482,
488,
436,
482,
491,
482,
474,
435,
457,
450,
475,
423,
442,
411,
433,
442,
418,
394,
461,
398,
425,
416,
418,
422,
388,
385,
440,
408,
389,
361,
406,
420,
397,
404,
382,
405,
365,
341,
349,
363,
331,
335,
350,
332,
318,
298,
342,
338,
331,
287,
278,
294,
280,
302,
288,
299,
304,
297,
257,
262,
298,
294,
291,
261,
266,
252,
249,
257,
253,
262,
272,
265,
245,
249,
224,
248,
236,
221,
259,
227,
228,
225,
195,
256,
216,
213,
230,
238,
225,
232,
196,
214,
225,
207,
206,
211,
195,
185,
181,
166,
172,
187,
192,
176,
173,
139,
148,
145,
161,
180,
177,
154,
162,
167,
149,
150,
143,
142,
152,
129,
125,
157,
123,
120,
143,
129,
141,
124,
139,
120,
142,
129,
127,
119,
130,
109,
112,
100,
117,
131,
104,
102,
114,
103,
78,
95,
109,
87,
103,
97,
88,
109,
97,
92,
81,
89,
75,
74,
79,
66,
80,
77,
85,
84,
68,
71,
71,
85,
70,
73,
59,
87,
83,
65,
67,
74,
65,
86,
72,
67,
60,
59,
71,
50,
54,
54,
57,
44,
55,
60,
71,
37,
43,
51,
53,
49,
43,
47,
52,
44,
36,
42,
36,
36,
48,
34,
36,
31,
32,
44,
36,
40,
39,
32,
35,
32,
29,
36,
26,
31,
30,
25,
27,
16,
23,
26,
26,
17,
31,
22,
28,
28,
22,
16,
15,
20,
17,
15,
13,
7,
18,
14,
10,
14,
15,
18,
7,
17,
11,
13,
11,
10,
8,
5,
11,
3,
9,
4,
6,
5,
5,
10,
7,
2,
2,
4,
1,
2,
3,
0,
0,
1,
2,
2,
2,
0,
1,
1,
1,
0,
1,
2,
1,
0,
1,
1,
0,
0,
1,
0,
2,
2,
1,
0,
2,
1,
1,
1,
1,
0,
1,
0,
0,
0,
0,
1,
1,
0,
1,
2,
1,
0,
0,
0,
0,
1,
2,
0,
0,
0,
0,
0,
0,
1,
0,
0,
0,
1,
1,
0,
0,
0,
0,
0,
0,
0,
0,
2,
0,
1,
1,
2,
0,
0,
1,
2,
0,
0,
0,
0,
0,
0,
0,
0,
0,
0,
1,
1,
1,
0,
1,
0,
0,
0,
0,
0,
0,
0,
0,
0,
2,
0,
0,
0,
0,
0,
0,
0,
0,
0,
0,
0,
0,
0,
0,
0,
0,
0,
0,
0,
0,
0,
0,
0,
0,
0,
0,
0,
0,
0,
0,
0,
1,
0,
0,
0,
0,
0,
0,
0,
0,
0,
0,
0,
0,
0,
0,
0,
0,
0,
1,
0,
0,
0,
0,
0,
0,
0,
0,
0,
0,
0,
0,
0,
1,
0,
0,
0,
0,
0,
2,
0,
0,
0,
0,
0,
0,
0,
0,
0,
1,
1,
0,
0,
0,
0,
0,
0,
0,
0,
0,
0,
0,
0,
0,
0,
0,
0,
0,
0,
0,
0,
0,
0,
0,
0,
1,
0,
0,
0,
0,
0,
0,
0,
0,
0,
0,
0,
0,
0,
0,
0,
0,
0,
0,
0,
0,
0,
0,
0,
0,
0,
0,
0,
0,
0,
0,
0,
0,
0,
0,
0,
0,
0,
0,
0,
0,
0,
0,
0,
0,
0,
0,
0,
0,
0,
0,
0,
0,
0,
0,
0,
0,
0,
0,
0,
0,
0,
0,
0,
0,
0,
0,
0,
0,
0,
0,
0,
0,
0,
0,
0,
0,
0,
0,
0,
0,
0,
0,
0,
0,
0,
0,
0,
0,
0,
0,
0,
0,
0,
0,
0,
0,
0,
0,
0,
0,
0,
0,
0,
0,
0,
0,
0,
0,
0,
0,
0,
0,
0,
0,
0,
0,
0,
0,
0,
0,
0,
0,
0,
0,
0,
0,
0,
0,
0,
0,
0,
0,
0,
0,
0,
0,
0,
0,
0,
0,
0,
1,
0,
0,
0,
0,
0,
0,
0,
0,
0,
0,
0,
0,
0,
0,
0,
0,
0,
0,
0,
0,
0,
0,
0,
0,
0,
0,
0,
0,
0,
0,
0,
0,
0,
0,
0,
0,
0,
0,
0,
0,
0,
0,
0,
0,
0,
0,
0,
0,
0,
0,
0,
0,
0,
0,
0,
0,
0,
0,
0,
0,
0,
0,
0,
0,
0,
0,
0,
0,
0,
0,
0,
0,
0,
0,
0,
0,
0,
0,
0,
0,
0,
0,
0,
0,
0,
0,
0,
0,
0,
0,
0,
0,
0,
0,
0,
0,
0,
0,
0,
0,
0,
0,
0,
0,
0,
0,
0,
0,
0,
0,
0,
0,
0,
0,
0,
0,
0,
0,
0,
0,
0,
0,
0,
0,
0,
0,
0,
0,
0,
0,
0,
0,
0,
0,
0,
0,
0,
0,
0,
0,
0,
0,
0,
0,
0,
0,
0,
0,
0,
0,
0,
0,
0,
0,
0,
0,
0,
0,
0,
0,
0,
0,
0,
0,
0,
0,
0,
0,
0,
0,
0,
0,
0,
0,
0,
0,
0,
0,
0,
0,
0,
0,
0,
0,
0,
0,
0,
0,
0,
0,
0,
0,
0,
0,
0,
0,
0,
0,
0,
0,
0,
0,
0,
0,
0,
0,
0,
0,
0,
0,
0,
0,
0,
0,
0,
0,
0,
0,
0,
0,
0,
0,
0,
0,
0,
0,
0,
0,
0,
0,
0,
0,
0,
0,
0,
0,
0,
0,
0,
0,
0,
0,
0,
0,
0,
0,
0,
0,
0,
0,
0,
0,
0,
0,
0,
0,
0,
0,
0,
0,
0,
0,
0,
0,
0,
0,
0,
0,
0,
0,
0,
0,
0,
0,
0,
0,
0,
0,
0,
0,
0,
0,
0,
0,
0,
0,
0,
0,
0,
0,
0,
0,
0,
0,
0,
0,
0,
0,
0,
0,
0,
0,
0,
0,
0,
0,
0,
0,
0,
0,
0,
0,
0,
0,
0,
0,
0,
0,
0,
0,
0,
0,
0,
0,
0,
0,
0,
0,
0,
0,
0,
0,
0,
0,
0,
0,
0,
0,
0,
0,
0,
0,
0,
0,
0,
0,
0,
0,
0,
0,
0,
0,
0,
#ENDOFDATA   :