File: N132962/Quantification/20 keV/MMM2/SPI MM2 Stibnite[3][4].msa
#FORMAT      : EMSA/MAS Spectral Data File
#VERSION     : 1.0
#TITLE       : SPI MM2 Stibnite[3][all]
#DATE        : 13-MAR-2025
#TIME        : 13:20
#OWNER       : Unknown
#NPOINTS     : 4096
#NCOLUMNS    : 1
#XUNITS      : eV
#YUNITS      : counts
#DATATYPE    : Y
#XPERCHAN    : 9.99778
#OFFSET      : 1.69135
#BEAMKV      : 20
#SIGNALTYPE  : EDS
#ELEVANGLE   : 35
#AZIMANGLE   : 0
#LIVETIME    : 239.886
#REALTIME    : 263.338
#PROBECUR    : 1.0263
#TAUWIND     : 0
#TDEADLYR    : 0
#TACTLYR     : 0.045
#TALWIND     : 0.025
#CHOFFSET    : 0.0
#XLABEL      : Energy (eV)
#YLABEL      : Counts
#XPOSITION   : 1.5989
#YPOSITION   : 4.38171
#ZPOSITION   : 31.03511
#EDSDET      : SD
##SPECIMEN   : SPI MM2 Stibnite[3][all]
##DET_HASH   : 12273538-fd48-a23f-0a19-f1e6fa85caef
##CALIB_HASH : 6abaa72c-aa41-8738-0be9-f592914732f3
##WORKING    : 15.0 mm
##DET_NAME   : EDAX All
##DET_MODE   : MediumLE
#SPECTRUM    :
29,
23,
10,
158,
1092,
2346,
2417,
4903,
13170,
16927,
8864,
4555,
6233,
12399,
16951,
12316,
8384,
8914,
9815,
8760,
5744,
4233,
4165,
5083,
6282,
6151,
5259,
4923,
4825,
4618,
4386,
4402,
4436,
4629,
4715,
4848,
4980,
5346,
5350,
5601,
5701,
5795,
6042,
6234,
6203,
6701,
6558,
6843,
7006,
7252,
7233,
7241,
7215,
7220,
7330,
7605,
7773,
8240,
8935,
8924,
8856,
9029,
9033,
8450,
7817,
7451,
7453,
7790,
7859,
8129,
8477,
8865,
10580,
15225,
31877,
82410,
165698,
206998,
150691,
67301,
25825,
19376,
21710,
18129,
12154,
7536,
5966,
5730,
5685,
5667,
5590,
5547,
5501,
5578,
5557,
5559,
5543,
5497,
5528,
5665,
5590,
5492,
5702,
5931,
6998,
8429,
10000,
9692,
8205,
6818,
5907,
5788,
5974,
6538,
7683,
8798,
11387,
22939,
53677,
102197,
134747,
119140,
72607,
32035,
14671,
14834,
28217,
49959,
66969,
65716,
51108,
34284,
22766,
15267,
12857,
15702,
20923,
22661,
18148,
11830,
7252,
5412,
5535,
7050,
9175,
10353,
9157,
6988,
4921,
4086,
4197,
5073,
6156,
6602,
6410,
5309,
4315,
3824,
3417,
3309,
3202,
3247,
3102,
3265,
3166,
3245,
3257,
3258,
3152,
3178,
3113,
3208,
3163,
3097,
3168,
3132,
3178,
3148,
3101,
3172,
3164,
3171,
3167,
3043,
3131,
3060,
3049,
3044,
3077,
3066,
3043,
3121,
3067,
2971,
3038,
3057,
3165,
3255,
3175,
3036,
2982,
3014,
2908,
2974,
3015,
2878,
2984,
2908,
2937,
2894,
2905,
2966,
3202,
3300,
3183,
3071,
2897,
2810,
2745,
2653,
2625,
2610,
2682,
2596,
2640,
2528,
2626,
2698,
2561,
2552,
2419,
2468,
2541,
2554,
2626,
2490,
2614,
2618,
2441,
2524,
2492,
2540,
2474,
2549,
2459,
2366,
2521,
2652,
2626,
2611,
2674,
2517,
2411,
2350,
2362,
2261,
2228,
2347,
2242,
2248,
2176,
2195,
2157,
2188,
2149,
2269,
2171,
2212,
2139,
2004,
2131,
2117,
2080,
2102,
2053,
2142,
2049,
2172,
1985,
1981,
1965,
1948,
1943,
2012,
1881,
1928,
1826,
1959,
1861,
1873,
1850,
1849,
1862,
1940,
1876,
1841,
1769,
1824,
1805,
1805,
1807,
1936,
1770,
1725,
1686,
1764,
1744,
1710,
1757,
1680,
1699,
1642,
1652,
1666,
1698,
1638,
1639,
1630,
1610,
1609,
1625,
1630,
1559,
1577,
1599,
1593,
1580,
1570,
1530,
1466,
1501,
1491,
1447,
1473,
1514,
1447,
1397,
1414,
1397,
1416,
1373,
1395,
1409,
1375,
1331,
1380,
1448,
1380,
1322,
1335,
1354,
1333,
1263,
1287,
1236,
1309,
1318,
1234,
1285,
1247,
1215,
1232,
1216,
1250,
1169,
1147,
1158,
1197,
1158,
1166,
1118,
1132,
1147,
1125,
1148,
1107,
1040,
1075,
1063,
1069,
1090,
1097,
1039,
1093,
1073,
1019,
998,
997,
989,
1015,
1074,
987,
970,
924,
972,
990,
973,
911,
884,
899,
948,
932,
907,
928,
856,
874,
884,
929,
882,
871,
869,
896,
823,
882,
847,
831,
748,
800,
791,
803,
813,
700,
726,
791,
738,
787,
705,
733,
692,
735,
710,
744,
779,
703,
669,
697,
671,
658,
711,
687,
652,
690,
686,
675,
641,
600,
625,
602,
601,
624,
627,
595,
582,
610,
589,
548,
605,
560,
516,
539,
542,
496,
521,
521,
519,
526,
509,
523,
495,
515,
518,
471,
505,
487,
458,
442,
482,
468,
506,
462,
465,
423,
445,
469,
406,
393,
389,
388,
429,
402,
424,
429,
380,
375,
380,
405,
403,
370,
396,
380,
331,
393,
362,
375,
364,
321,
325,
333,
331,
344,
327,
312,
324,
352,
307,
331,
273,
315,
306,
299,
266,
277,
252,
290,
296,
264,
319,
298,
237,
248,
252,
272,
267,
260,
248,
226,
226,
234,
251,
237,
225,
255,
221,
185,
204,
221,
238,
211,
229,
190,
209,
202,
196,
186,
174,
171,
184,
154,
164,
171,
177,
188,
187,
176,
161,
161,
175,
162,
162,
176,
152,
169,
157,
158,
158,
165,
157,
129,
128,
138,
152,
146,
151,
122,
115,
111,
102,
107,
127,
123,
115,
100,
112,
114,
102,
109,
95,
86,
90,
97,
95,
82,
102,
82,
82,
83,
62,
69,
73,
92,
84,
74,
65,
72,
66,
68,
58,
55,
55,
53,
63,
63,
66,
66,
49,
45,
41,
51,
46,
49,
53,
44,
52,
47,
41,
46,
33,
22,
39,
38,
27,
35,
34,
26,
17,
31,
22,
25,
25,
20,
32,
19,
25,
20,
17,
13,
23,
7,
4,
6,
8,
9,
1,
4,
10,
3,
6,
2,
3,
6,
1,
4,
2,
3,
2,
4,
1,
3,
1,
2,
3,
4,
0,
4,
2,
0,
1,
4,
0,
2,
2,
2,
0,
1,
1,
3,
3,
4,
3,
1,
2,
1,
0,
1,
0,
2,
1,
1,
6,
0,
1,
3,
3,
2,
2,
0,
1,
0,
0,
2,
2,
2,
2,
1,
2,
1,
2,
1,
1,
0,
1,
0,
0,
0,
0,
2,
0,
2,
0,
2,
2,
0,
2,
0,
1,
3,
0,
1,
0,
2,
1,
1,
1,
0,
0,
1,
1,
0,
0,
0,
0,
0,
0,
3,
0,
0,
1,
0,
0,
0,
0,
2,
1,
0,
0,
1,
0,
0,
1,
0,
0,
0,
2,
0,
1,
0,
1,
0,
0,
0,
1,
1,
0,
2,
1,
1,
1,
0,
0,
1,
2,
0,
0,
1,
0,
0,
0,
0,
0,
0,
2,
1,
0,
1,
0,
1,
0,
1,
0,
0,
1,
0,
0,
0,
0,
1,
1,
0,
0,
0,
0,
1,
0,
2,
2,
2,
0,
0,
0,
0,
1,
1,
0,
1,
1,
0,
1,
0,
0,
1,
0,
0,
0,
1,
2,
1,
0,
0,
1,
2,
0,
0,
2,
0,
0,
2,
0,
0,
0,
0,
0,
0,
0,
0,
1,
1,
0,
0,
0,
0,
0,
0,
0,
0,
2,
1,
0,
0,
0,
0,
0,
0,
0,
0,
0,
0,
0,
0,
0,
0,
0,
0,
0,
2,
1,
0,
0,
0,
1,
0,
0,
0,
0,
0,
0,
0,
0,
0,
1,
1,
0,
0,
0,
1,
0,
0,
0,
1,
0,
0,
0,
0,
0,
0,
0,
0,
0,
0,
0,
1,
0,
0,
0,
0,
0,
0,
0,
0,
0,
0,
0,
1,
0,
0,
0,
0,
0,
0,
0,
0,
0,
0,
0,
0,
0,
0,
0,
0,
0,
0,
0,
0,
0,
0,
0,
0,
0,
0,
0,
0,
0,
0,
0,
0,
0,
0,
0,
1,
0,
0,
0,
0,
1,
0,
0,
0,
0,
0,
0,
0,
0,
0,
0,
0,
0,
0,
0,
0,
0,
0,
1,
0,
0,
0,
0,
0,
0,
0,
0,
0,
0,
0,
0,
0,
0,
0,
0,
0,
0,
0,
0,
0,
0,
0,
0,
0,
0,
0,
0,
0,
0,
0,
0,
0,
0,
0,
0,
0,
0,
0,
0,
0,
0,
0,
0,
0,
0,
0,
0,
0,
1,
0,
0,
0,
0,
0,
0,
0,
0,
0,
0,
0,
0,
0,
0,
0,
0,
0,
0,
0,
0,
0,
0,
0,
0,
0,
0,
0,
0,
1,
0,
0,
0,
0,
0,
0,
0,
0,
0,
0,
0,
0,
0,
0,
0,
0,
0,
0,
0,
0,
0,
0,
0,
0,
0,
0,
0,
0,
0,
0,
0,
0,
0,
0,
0,
0,
0,
0,
0,
0,
0,
0,
0,
0,
0,
0,
0,
0,
0,
0,
0,
0,
0,
0,
0,
0,
0,
0,
0,
0,
0,
0,
0,
0,
0,
0,
0,
0,
0,
0,
0,
0,
0,
0,
0,
0,
0,
0,
0,
0,
0,
0,
0,
0,
0,
0,
0,
0,
0,
0,
0,
0,
0,
0,
0,
0,
0,
0,
0,
0,
0,
0,
0,
0,
0,
0,
0,
0,
0,
0,
0,
0,
0,
0,
0,
0,
0,
0,
0,
0,
0,
0,
0,
0,
0,
0,
0,
0,
0,
0,
0,
0,
0,
0,
0,
0,
0,
0,
0,
0,
0,
0,
0,
0,
0,
0,
0,
0,
0,
0,
0,
0,
0,
0,
0,
0,
0,
0,
0,
0,
0,
0,
0,
0,
0,
0,
0,
0,
0,
0,
0,
0,
0,
0,
0,
0,
0,
0,
0,
0,
0,
0,
0,
0,
0,
0,
0,
0,
0,
0,
0,
0,
0,
0,
0,
0,
0,
0,
0,
0,
0,
0,
0,
0,
0,
0,
0,
0,
0,
0,
0,
0,
0,
0,
0,
0,
0,
0,
0,
0,
0,
0,
0,
0,
0,
0,
0,
0,
0,
0,
0,
0,
0,
0,
0,
0,
0,
0,
0,
0,
0,
0,
0,
0,
0,
0,
0,
0,
0,
0,
0,
0,
0,
0,
0,
0,
0,
0,
0,
0,
0,
0,
0,
0,
0,
0,
0,
0,
0,
0,
0,
0,
0,
0,
0,
0,
#ENDOFDATA   :