File: N132962/Quantification/20 keV/MMM2/SPI MM2 C[5][4].msa
#FORMAT      : EMSA/MAS Spectral Data File
#VERSION     : 1.0
#TITLE       : SPI MM2 C[5][all]
#DATE        : 13-MAR-2025
#TIME        : 14:26
#OWNER       : Unknown
#NPOINTS     : 4096
#NCOLUMNS    : 1
#XUNITS      : eV
#YUNITS      : counts
#DATATYPE    : Y
#XPERCHAN    : 9.99778
#OFFSET      : 1.69135
#BEAMKV      : 20
#SIGNALTYPE  : EDS
#ELEVANGLE   : 35
#AZIMANGLE   : 0
#LIVETIME    : 239.994
#REALTIME    : 250.918
#PROBECUR    : 1.02609
#TAUWIND     : 0
#TDEADLYR    : 0
#TACTLYR     : 0.045
#TALWIND     : 0.025
#CHOFFSET    : 0.0
#XLABEL      : Energy (eV)
#YLABEL      : Counts
#XPOSITION   : 3.27921
#YPOSITION   : 8.99253
#ZPOSITION   : 31.03511
#EDSDET      : SD
##SPECIMEN   : SPI MM2 C[5][all]
##D2STDCMP   : C,(C:100.0)
##DET_HASH   : 12273538-fd48-a23f-0a19-f1e6fa85caef
##CALIB_HASH : 6abaa72c-aa41-8738-0be9-f592914732f3
##WORKING    : 15.0 mm
##DET_NAME   : EDAX All
##DET_MODE   : MediumLE
#SPECTRUM    :
24,
18,
19,
56,
349,
1626,
11186,
91893,
378787,
522849,
216094,
28049,
1676,
528,
569,
727,
1687,
3258,
3347,
1791,
990,
944,
1068,
1218,
1212,
1252,
1406,
1474,
1547,
1706,
1640,
1795,
1861,
2073,
2126,
2124,
2235,
2296,
2348,
2464,
2386,
2556,
2539,
2650,
2619,
2600,
2792,
2610,
2481,
2597,
2659,
2597,
2556,
2577,
2450,
2599,
2622,
2507,
2594,
2610,
2540,
2328,
2137,
2114,
2046,
2064,
2049,
1978,
1944,
1859,
2011,
1903,
1862,
1842,
1817,
1805,
1728,
1821,
1688,
1717,
1659,
1611,
1618,
1669,
1533,
1578,
1512,
1491,
1517,
1456,
1466,
1484,
1431,
1453,
1372,
1335,
1334,
1350,
1361,
1262,
1298,
1216,
1200,
1271,
1206,
1203,
1130,
1140,
1170,
1112,
1155,
1093,
1153,
1084,
1179,
1027,
1061,
1068,
1089,
959,
1020,
1020,
1034,
931,
972,
970,
906,
941,
927,
911,
987,
869,
926,
916,
831,
859,
872,
865,
811,
779,
825,
765,
783,
802,
774,
792,
768,
748,
776,
705,
734,
732,
768,
699,
679,
693,
722,
655,
704,
696,
677,
622,
681,
620,
632,
648,
606,
670,
645,
609,
619,
569,
623,
602,
643,
576,
610,
569,
576,
563,
593,
571,
586,
539,
549,
559,
543,
503,
560,
538,
508,
524,
480,
457,
471,
469,
481,
490,
477,
483,
437,
467,
462,
438,
462,
460,
429,
465,
410,
395,
452,
500,
458,
491,
506,
503,
402,
385,
413,
360,
454,
378,
402,
385,
375,
371,
373,
370,
373,
344,
330,
407,
340,
361,
357,
385,
316,
352,
368,
353,
338,
329,
341,
341,
338,
334,
316,
340,
306,
318,
338,
313,
304,
320,
298,
261,
304,
317,
283,
310,
290,
305,
255,
268,
292,
292,
259,
260,
265,
253,
247,
284,
256,
299,
235,
265,
251,
260,
235,
233,
232,
232,
214,
216,
224,
263,
201,
234,
204,
242,
210,
216,
223,
215,
213,
224,
217,
211,
214,
221,
203,
215,
208,
202,
201,
184,
217,
170,
169,
193,
201,
205,
184,
180,
159,
172,
210,
184,
167,
164,
171,
183,
152,
197,
175,
182,
169,
168,
160,
160,
162,
167,
161,
146,
155,
139,
141,
146,
148,
145,
158,
136,
165,
138,
148,
146,
150,
124,
138,
141,
125,
147,
158,
147,
125,
123,
128,
123,
144,
144,
118,
128,
128,
101,
127,
115,
133,
138,
132,
120,
106,
112,
87,
104,
106,
97,
90,
126,
109,
91,
97,
127,
115,
108,
114,
72,
107,
88,
89,
75,
87,
94,
103,
88,
107,
92,
91,
81,
84,
80,
72,
96,
74,
80,
89,
88,
66,
90,
75,
98,
68,
86,
77,
73,
59,
72,
60,
66,
70,
84,
72,
69,
62,
57,
72,
64,
63,
65,
59,
49,
64,
44,
49,
68,
58,
47,
57,
52,
68,
60,
57,
59,
60,
47,
48,
56,
52,
48,
52,
51,
50,
42,
43,
43,
39,
63,
56,
45,
41,
47,
35,
49,
48,
37,
60,
41,
47,
32,
40,
26,
37,
26,
43,
34,
37,
33,
28,
34,
30,
21,
34,
45,
39,
36,
27,
37,
25,
35,
24,
25,
22,
35,
30,
31,
37,
16,
29,
20,
31,
32,
28,
25,
27,
22,
27,
24,
27,
20,
24,
19,
17,
27,
22,
24,
17,
27,
19,
31,
21,
24,
13,
24,
17,
9,
20,
24,
20,
10,
12,
16,
18,
7,
19,
22,
15,
18,
17,
21,
11,
23,
11,
16,
15,
14,
17,
7,
15,
18,
6,
11,
11,
8,
15,
12,
11,
7,
10,
11,
9,
12,
15,
6,
14,
9,
9,
8,
8,
9,
6,
10,
10,
12,
12,
8,
4,
5,
8,
7,
10,
5,
4,
8,
7,
6,
12,
8,
6,
4,
7,
9,
4,
3,
6,
6,
5,
6,
3,
7,
4,
6,
5,
4,
3,
2,
7,
0,
5,
5,
6,
3,
5,
1,
6,
4,
6,
5,
4,
1,
1,
4,
4,
8,
4,
2,
2,
2,
3,
2,
1,
3,
1,
2,
1,
2,
2,
1,
2,
2,
1,
0,
1,
1,
1,
3,
2,
2,
0,
0,
1,
0,
2,
0,
0,
0,
0,
1,
0,
1,
0,
2,
0,
0,
0,
0,
0,
0,
0,
0,
0,
0,
0,
0,
0,
0,
0,
0,
0,
0,
0,
0,
0,
0,
0,
0,
0,
0,
0,
0,
0,
0,
0,
0,
0,
0,
0,
0,
0,
0,
0,
0,
0,
0,
0,
0,
0,
0,
0,
0,
0,
0,
0,
0,
0,
0,
0,
0,
0,
0,
0,
0,
0,
0,
0,
0,
0,
0,
0,
0,
0,
0,
0,
0,
0,
0,
0,
0,
0,
0,
0,
0,
0,
0,
0,
0,
0,
0,
0,
0,
0,
0,
0,
0,
0,
0,
0,
0,
0,
0,
0,
0,
0,
0,
0,
0,
0,
0,
0,
0,
0,
0,
0,
0,
0,
0,
0,
0,
0,
0,
0,
0,
0,
0,
0,
0,
0,
0,
0,
0,
1,
0,
0,
0,
0,
0,
0,
0,
0,
0,
0,
0,
0,
0,
0,
0,
0,
0,
0,
0,
0,
0,
0,
0,
0,
0,
0,
0,
0,
0,
0,
0,
0,
0,
0,
0,
0,
0,
0,
0,
0,
0,
0,
0,
0,
0,
0,
0,
0,
0,
0,
0,
0,
0,
0,
0,
0,
0,
0,
0,
0,
0,
0,
0,
0,
0,
0,
0,
0,
0,
0,
0,
0,
0,
0,
0,
0,
0,
0,
0,
0,
0,
0,
0,
0,
0,
0,
0,
0,
0,
0,
0,
0,
0,
0,
0,
0,
0,
0,
0,
0,
0,
0,
0,
0,
0,
0,
0,
0,
0,
0,
0,
0,
0,
0,
0,
0,
0,
0,
0,
0,
0,
0,
0,
0,
0,
0,
0,
0,
0,
0,
0,
0,
0,
0,
0,
0,
0,
0,
0,
0,
0,
0,
0,
0,
0,
0,
0,
0,
0,
0,
0,
0,
0,
0,
0,
0,
0,
0,
0,
0,
0,
0,
0,
0,
0,
0,
0,
0,
0,
0,
0,
0,
0,
0,
0,
0,
0,
0,
0,
0,
0,
0,
0,
0,
0,
0,
0,
0,
0,
0,
0,
0,
0,
0,
0,
0,
0,
0,
0,
0,
0,
0,
0,
0,
0,
0,
0,
0,
0,
0,
0,
0,
0,
0,
0,
0,
0,
0,
0,
0,
0,
0,
0,
0,
0,
0,
0,
0,
0,
0,
0,
0,
0,
0,
0,
0,
0,
0,
0,
0,
0,
0,
0,
0,
0,
0,
0,
0,
0,
0,
0,
0,
0,
0,
0,
0,
0,
0,
0,
0,
0,
0,
0,
0,
0,
0,
0,
0,
0,
0,
0,
0,
0,
0,
0,
0,
0,
0,
0,
0,
0,
0,
0,
0,
0,
0,
0,
0,
0,
0,
0,
0,
0,
0,
0,
0,
0,
0,
0,
0,
0,
0,
0,
0,
0,
0,
0,
0,
0,
0,
0,
0,
0,
0,
0,
0,
0,
0,
0,
0,
0,
0,
0,
0,
0,
0,
0,
0,
0,
0,
0,
0,
0,
0,
0,
0,
0,
0,
0,
0,
0,
0,
0,
0,
0,
0,
0,
0,
0,
0,
0,
0,
0,
0,
0,
0,
0,
0,
0,
0,
0,
0,
0,
0,
0,
0,
0,
0,
0,
0,
0,
0,
0,
0,
0,
0,
0,
0,
0,
0,
0,
0,
0,
0,
0,
0,
0,
0,
0,
0,
0,
0,
0,
0,
0,
0,
0,
0,
0,
0,
0,
0,
0,
0,
0,
0,
0,
0,
0,
0,
0,
0,
0,
0,
0,
0,
0,
0,
0,
0,
0,
0,
0,
0,
0,
0,
0,
0,
0,
0,
0,
0,
0,
0,
0,
0,
0,
0,
0,
0,
0,
0,
0,
0,
0,
0,
0,
0,
0,
0,
0,
0,
0,
0,
0,
0,
0,
0,
0,
0,
0,
0,
0,
0,
0,
0,
0,
0,
0,
0,
0,
0,
0,
0,
0,
0,
0,
0,
0,
0,
0,
0,
0,
0,
0,
0,
0,
0,
0,
0,
0,
0,
0,
0,
0,
0,
0,
0,
0,
0,
0,
0,
0,
0,
0,
0,
0,
0,
0,
0,
0,
0,
0,
0,
0,
0,
0,
0,
0,
0,
0,
0,
0,
0,
0,
0,
0,
0,
0,
0,
0,
0,
0,
0,
0,
0,
0,
0,
0,
0,
0,
0,
0,
0,
0,
0,
0,
0,
0,
0,
0,
0,
0,
0,
0,
0,
0,
0,
0,
0,
0,
0,
0,
0,
0,
0,
0,
0,
0,
0,
0,
0,
0,
0,
0,
0,
0,
#ENDOFDATA   :