File: N132962/Quantification/20 keV/MMM2/SPI MM2 Tugtupite[4][4].msa
#FORMAT      : EMSA/MAS Spectral Data File
#VERSION     : 1.0
#TITLE       : SPI MM2 Tugtupite[4][all]
#DATE        : 13-MAR-2025
#TIME        : 13:40
#OWNER       : Unknown
#NPOINTS     : 4096
#NCOLUMNS    : 1
#XUNITS      : eV
#YUNITS      : counts
#DATATYPE    : Y
#XPERCHAN    : 9.99778
#OFFSET      : 1.69135
#BEAMKV      : 20
#SIGNALTYPE  : EDS
#ELEVANGLE   : 35
#AZIMANGLE   : 0
#LIVETIME    : 239.892
#REALTIME    : 255.475
#PROBECUR    : 1.0264
#TAUWIND     : 0
#TDEADLYR    : 0
#TACTLYR     : 0.045
#TALWIND     : 0.025
#CHOFFSET    : 0.0
#XLABEL      : Energy (eV)
#YLABEL      : Counts
#XPOSITION   : -4.38597
#YPOSITION   : 3.54127
#ZPOSITION   : 31.03511
#EDSDET      : SD
##SPECIMEN   : SPI MM2 Tugtupite[4][all]
##DET_HASH   : 12273538-fd48-a23f-0a19-f1e6fa85caef
##CALIB_HASH : 6abaa72c-aa41-8738-0be9-f592914732f3
##WORKING    : 15.0 mm
##DET_NAME   : EDAX All
##DET_MODE   : MediumLE
#SPECTRUM    :
24,
18,
11,
18,
74,
375,
946,
2510,
7078,
9799,
4977,
2371,
2354,
3016,
5259,
19405,
77912,
153327,
112314,
29423,
4290,
1936,
2051,
2303,
2355,
2438,
2840,
3059,
3769,
4331,
4620,
5548,
12394,
46240,
112074,
125586,
61552,
14630,
4032,
2966,
2940,
3188,
3187,
3428,
3496,
3644,
4339,
8548,
23050,
44457,
45520,
24994,
10193,
5746,
5739,
14275,
55805,
143427,
196519,
138982,
55205,
18904,
8833,
4518,
2751,
2357,
2375,
2307,
2401,
2362,
2397,
2374,
2444,
2417,
2661,
2734,
2785,
2561,
2462,
2479,
2390,
2440,
2677,
3345,
5335,
11747,
26462,
41293,
40226,
24052,
10026,
4616,
4395,
5585,
6098,
4986,
3428,
2488,
2151,
1936,
2019,
1975,
2000,
2001,
2089,
2041,
2045,
2004,
1969,
1986,
1966,
1951,
1985,
1895,
1955,
1966,
2091,
2049,
1915,
1693,
1830,
1940,
1807,
1844,
1749,
1771,
1726,
1703,
1594,
1685,
1675,
1621,
1610,
1596,
1652,
1617,
1601,
1654,
1639,
1569,
1534,
1548,
1524,
1554,
1515,
1592,
1517,
1538,
1429,
1390,
1419,
1397,
1474,
1385,
1382,
1440,
1401,
1420,
1408,
1340,
1306,
1326,
1320,
1284,
1229,
1291,
1256,
1252,
1283,
1248,
1254,
1209,
1269,
1196,
1237,
1232,
1237,
1140,
1071,
1181,
1159,
1170,
1151,
1077,
1061,
1097,
1184,
1062,
1083,
1070,
1023,
1000,
1014,
1073,
1015,
947,
978,
1076,
980,
1006,
973,
938,
945,
963,
951,
906,
899,
930,
935,
881,
969,
917,
1066,
1025,
1001,
994,
960,
899,
880,
886,
839,
852,
804,
785,
797,
871,
806,
817,
779,
786,
755,
830,
758,
776,
782,
719,
773,
767,
771,
687,
707,
694,
744,
781,
716,
682,
750,
698,
733,
741,
694,
720,
681,
677,
654,
630,
651,
658,
649,
692,
630,
652,
629,
601,
596,
601,
596,
604,
576,
618,
540,
614,
565,
541,
610,
590,
563,
539,
533,
530,
596,
570,
555,
590,
523,
502,
474,
487,
482,
520,
515,
538,
521,
502,
514,
484,
517,
448,
455,
471,
495,
502,
488,
460,
459,
470,
467,
466,
466,
462,
446,
427,
430,
433,
419,
448,
443,
423,
464,
398,
393,
410,
383,
410,
421,
386,
388,
371,
379,
346,
322,
374,
364,
373,
379,
365,
363,
377,
381,
359,
360,
345,
352,
350,
331,
296,
318,
322,
314,
332,
358,
334,
320,
324,
308,
306,
319,
269,
281,
304,
315,
310,
314,
275,
301,
290,
297,
267,
293,
262,
262,
269,
262,
265,
264,
252,
227,
248,
261,
265,
247,
251,
252,
203,
240,
237,
232,
229,
212,
252,
211,
226,
237,
228,
207,
201,
246,
197,
210,
224,
216,
202,
189,
217,
199,
195,
180,
196,
197,
184,
201,
181,
177,
195,
174,
196,
182,
148,
165,
194,
169,
178,
169,
150,
161,
144,
187,
165,
152,
180,
127,
143,
142,
138,
142,
162,
144,
153,
152,
142,
149,
146,
143,
166,
135,
162,
146,
127,
133,
141,
124,
140,
118,
135,
110,
124,
124,
120,
120,
118,
120,
114,
102,
98,
121,
97,
123,
88,
121,
103,
104,
98,
112,
91,
94,
107,
89,
95,
97,
88,
92,
104,
94,
83,
92,
80,
104,
101,
101,
96,
70,
68,
74,
76,
87,
71,
74,
75,
80,
78,
69,
55,
73,
81,
66,
65,
73,
55,
52,
56,
72,
63,
59,
46,
57,
64,
56,
65,
50,
57,
53,
55,
64,
50,
62,
56,
57,
51,
46,
46,
42,
49,
57,
37,
48,
49,
40,
29,
40,
42,
42,
40,
47,
46,
32,
43,
30,
32,
39,
36,
32,
37,
45,
36,
29,
27,
36,
48,
31,
29,
27,
30,
26,
31,
23,
24,
30,
29,
21,
27,
28,
19,
26,
31,
22,
24,
24,
14,
18,
18,
19,
27,
27,
25,
22,
20,
20,
13,
12,
13,
22,
21,
27,
23,
11,
17,
19,
12,
9,
18,
13,
4,
14,
12,
15,
10,
11,
15,
19,
15,
10,
11,
12,
12,
10,
9,
8,
11,
13,
6,
2,
6,
5,
11,
10,
3,
12,
7,
10,
4,
3,
1,
6,
8,
6,
9,
6,
6,
8,
5,
8,
4,
3,
1,
1,
4,
5,
2,
3,
2,
1,
0,
1,
5,
2,
1,
4,
2,
2,
0,
2,
0,
0,
1,
0,
0,
0,
0,
0,
0,
0,
0,
0,
0,
1,
1,
0,
0,
0,
0,
0,
0,
0,
0,
0,
0,
0,
0,
0,
0,
0,
0,
0,
0,
0,
0,
0,
0,
0,
0,
0,
0,
0,
0,
0,
0,
0,
0,
0,
0,
0,
0,
0,
0,
0,
0,
0,
0,
0,
0,
0,
0,
0,
0,
0,
0,
0,
0,
0,
0,
0,
0,
1,
0,
0,
0,
0,
0,
0,
0,
0,
0,
0,
0,
1,
0,
0,
0,
0,
0,
0,
0,
0,
0,
0,
0,
0,
0,
0,
0,
0,
0,
0,
0,
0,
0,
0,
0,
0,
0,
0,
0,
0,
0,
0,
0,
0,
0,
0,
0,
0,
0,
0,
0,
0,
0,
0,
0,
0,
0,
0,
0,
0,
0,
0,
0,
0,
0,
0,
0,
0,
0,
0,
0,
0,
0,
0,
0,
0,
0,
0,
0,
0,
0,
0,
0,
1,
0,
0,
0,
0,
0,
0,
0,
0,
0,
0,
0,
0,
0,
0,
0,
0,
0,
0,
0,
0,
0,
0,
0,
1,
0,
0,
0,
0,
0,
0,
0,
0,
0,
0,
0,
0,
0,
0,
0,
0,
0,
0,
0,
0,
0,
0,
0,
0,
0,
0,
0,
0,
0,
0,
0,
0,
0,
0,
0,
0,
0,
0,
0,
0,
0,
0,
0,
0,
0,
0,
0,
0,
0,
0,
0,
0,
0,
0,
0,
0,
0,
0,
0,
0,
0,
0,
0,
0,
0,
0,
0,
0,
0,
0,
0,
0,
0,
0,
0,
0,
0,
0,
0,
0,
0,
0,
0,
0,
0,
0,
0,
0,
0,
0,
0,
1,
0,
0,
0,
0,
0,
0,
0,
0,
0,
0,
0,
0,
0,
0,
0,
0,
0,
0,
0,
0,
0,
0,
0,
0,
0,
0,
0,
0,
0,
0,
0,
0,
0,
0,
0,
0,
0,
0,
0,
0,
0,
0,
0,
0,
0,
0,
0,
0,
0,
0,
0,
0,
0,
0,
0,
0,
0,
0,
0,
0,
0,
0,
0,
0,
0,
0,
0,
0,
0,
0,
0,
0,
0,
1,
0,
0,
0,
0,
0,
0,
0,
0,
0,
0,
0,
0,
0,
0,
0,
0,
0,
0,
0,
0,
0,
0,
0,
0,
0,
0,
0,
0,
0,
0,
0,
0,
0,
0,
0,
0,
0,
0,
0,
0,
0,
0,
0,
0,
0,
0,
0,
0,
0,
0,
0,
0,
0,
0,
0,
0,
0,
0,
0,
0,
0,
0,
0,
0,
0,
0,
0,
0,
0,
0,
0,
0,
0,
0,
0,
0,
0,
0,
0,
0,
0,
0,
0,
0,
0,
0,
0,
0,
0,
0,
0,
0,
0,
0,
0,
0,
0,
0,
0,
0,
0,
0,
0,
0,
0,
0,
0,
0,
0,
0,
0,
0,
0,
0,
0,
0,
0,
0,
0,
0,
0,
0,
0,
0,
0,
0,
0,
0,
0,
0,
0,
0,
0,
0,
0,
0,
0,
0,
0,
0,
0,
0,
0,
0,
0,
0,
0,
0,
0,
0,
0,
0,
0,
0,
0,
0,
0,
0,
0,
0,
0,
0,
0,
0,
0,
0,
0,
0,
0,
0,
0,
0,
0,
0,
0,
0,
0,
0,
0,
0,
0,
0,
0,
0,
0,
0,
0,
0,
0,
0,
0,
0,
0,
0,
0,
0,
0,
0,
0,
0,
0,
0,
0,
0,
0,
0,
0,
0,
0,
0,
0,
0,
0,
0,
0,
0,
0,
0,
0,
0,
0,
0,
0,
0,
0,
0,
0,
0,
0,
0,
0,
0,
0,
0,
0,
0,
0,
0,
0,
0,
0,
0,
0,
0,
0,
0,
0,
0,
0,
0,
0,
0,
0,
0,
0,
0,
0,
0,
0,
0,
0,
0,
0,
0,
0,
0,
0,
0,
0,
0,
0,
0,
0,
0,
0,
0,
0,
0,
0,
0,
0,
0,
0,
0,
0,
0,
0,
0,
0,
0,
0,
0,
0,
0,
0,
0,
0,
0,
0,
0,
0,
0,
0,
0,
0,
0,
0,
0,
0,
0,
0,
0,
0,
0,
0,
0,
0,
0,
0,
0,
0,
0,
0,
0,
0,
0,
0,
0,
0,
0,
0,
0,
0,
0,
0,
0,
0,
0,
0,
0,
0,
0,
0,
0,
0,
0,
0,
0,
0,
0,
0,
0,
0,
0,
0,
0,
0,
0,
0,
#ENDOFDATA   :