File: N132962/Quantification/20 keV/MMM2/SPI MM2 Sphodumene[3][4].msa
#FORMAT      : EMSA/MAS Spectral Data File
#VERSION     : 1.0
#TITLE       : SPI MM2 Sphodumene[3][all]
#DATE        : 13-MAR-2025
#TIME        : 13:11
#OWNER       : Unknown
#NPOINTS     : 4096
#NCOLUMNS    : 1
#XUNITS      : eV
#YUNITS      : counts
#DATATYPE    : Y
#XPERCHAN    : 9.99778
#OFFSET      : 1.69135
#BEAMKV      : 20
#SIGNALTYPE  : EDS
#ELEVANGLE   : 35
#AZIMANGLE   : 0
#LIVETIME    : 239.842
#REALTIME    : 255.7923
#PROBECUR    : 1.0263
#TAUWIND     : 0
#TDEADLYR    : 0
#TACTLYR     : 0.045
#TALWIND     : 0.025
#CHOFFSET    : 0.0
#XLABEL      : Energy (eV)
#YLABEL      : Counts
#XPOSITION   : 3.43687
#YPOSITION   : 3.45499
#ZPOSITION   : 31.03511
#EDSDET      : SD
##SPECIMEN   : SPI MM2 Sphodumene[3][all]
##DET_HASH   : 12273538-fd48-a23f-0a19-f1e6fa85caef
##CALIB_HASH : 6abaa72c-aa41-8738-0be9-f592914732f3
##WORKING    : 15.0 mm
##DET_NAME   : EDAX All
##DET_MODE   : MediumLE
#SPECTRUM    :
32,
20,
7,
10,
71,
273,
779,
2428,
7027,
9371,
4863,
2364,
2479,
3244,
6552,
26247,
107670,
211429,
154839,
40329,
4941,
1642,
1625,
1835,
1856,
1990,
2124,
2290,
2417,
2522,
2614,
2758,
2892,
3413,
4007,
4193,
3794,
3551,
3726,
3946,
3847,
4104,
4304,
4563,
4792,
5176,
6823,
18631,
63038,
128700,
130641,
68755,
22148,
8252,
6505,
17074,
68917,
180215,
246385,
174193,
69588,
23195,
10156,
4642,
2530,
2230,
2382,
2348,
2219,
2074,
2009,
2021,
2072,
2304,
2506,
2940,
2662,
2255,
2150,
2077,
2108,
2141,
2056,
2012,
1969,
2120,
2051,
2084,
2110,
2037,
2054,
1990,
1928,
1987,
1965,
2063,
1976,
1989,
2106,
2039,
2085,
1916,
2000,
1931,
1995,
1920,
2219,
2234,
2272,
2140,
1990,
1818,
1858,
1893,
2052,
2103,
2153,
2137,
1905,
1786,
1778,
1664,
1641,
1664,
1700,
1703,
1703,
1668,
1581,
1633,
1567,
1602,
1594,
1550,
1558,
1574,
1432,
1497,
1458,
1420,
1545,
1489,
1409,
1425,
1378,
1429,
1415,
1399,
1380,
1341,
1379,
1447,
1391,
1409,
1285,
1377,
1305,
1243,
1329,
1288,
1197,
1278,
1251,
1207,
1221,
1283,
1181,
1170,
1168,
1169,
1163,
1139,
1118,
1167,
1201,
1128,
1048,
1151,
1118,
1047,
1081,
1096,
1072,
1045,
1074,
995,
985,
1068,
1031,
1047,
951,
972,
1011,
1041,
998,
990,
986,
958,
952,
941,
965,
888,
883,
877,
934,
873,
965,
877,
876,
857,
973,
920,
981,
936,
934,
871,
888,
778,
732,
791,
857,
827,
773,
799,
773,
780,
793,
774,
732,
785,
745,
747,
757,
687,
737,
742,
694,
678,
723,
685,
681,
653,
687,
709,
644,
686,
672,
645,
695,
755,
709,
707,
620,
630,
621,
617,
607,
602,
609,
618,
645,
600,
573,
560,
551,
570,
576,
560,
589,
583,
519,
575,
541,
566,
585,
531,
555,
542,
515,
536,
508,
468,
498,
482,
532,
470,
485,
477,
476,
485,
487,
482,
453,
434,
489,
457,
418,
454,
466,
450,
426,
468,
419,
465,
450,
432,
423,
393,
439,
415,
375,
413,
387,
386,
384,
416,
407,
400,
376,
364,
341,
390,
420,
379,
353,
371,
390,
357,
373,
328,
377,
375,
378,
324,
342,
318,
347,
310,
311,
335,
342,
323,
334,
321,
333,
322,
301,
321,
301,
256,
295,
290,
283,
326,
288,
295,
313,
282,
265,
284,
287,
262,
262,
262,
274,
256,
249,
285,
265,
243,
278,
280,
282,
253,
254,
271,
220,
234,
228,
229,
233,
246,
229,
227,
221,
220,
226,
219,
224,
234,
223,
218,
216,
193,
206,
192,
225,
208,
181,
171,
204,
197,
195,
173,
216,
190,
183,
186,
196,
187,
170,
179,
182,
168,
174,
181,
145,
167,
147,
137,
147,
152,
161,
171,
155,
153,
154,
155,
150,
143,
144,
136,
130,
148,
153,
131,
145,
142,
137,
139,
130,
111,
115,
150,
114,
106,
107,
108,
126,
115,
107,
96,
125,
129,
116,
81,
111,
101,
97,
102,
104,
125,
103,
89,
111,
93,
98,
96,
94,
103,
101,
92,
108,
100,
89,
76,
95,
95,
88,
83,
98,
82,
78,
82,
66,
71,
77,
69,
74,
88,
71,
76,
63,
72,
61,
54,
62,
70,
61,
79,
55,
56,
75,
80,
55,
69,
66,
48,
60,
53,
65,
59,
50,
46,
44,
57,
63,
55,
59,
55,
56,
53,
49,
51,
43,
54,
42,
47,
47,
44,
28,
39,
31,
33,
46,
39,
48,
44,
41,
47,
28,
44,
29,
35,
35,
29,
34,
31,
33,
48,
36,
31,
25,
31,
35,
32,
27,
36,
31,
34,
30,
24,
45,
35,
25,
25,
25,
30,
27,
17,
20,
29,
28,
26,
23,
18,
21,
16,
12,
20,
15,
13,
22,
16,
16,
14,
26,
21,
16,
13,
20,
18,
16,
14,
15,
19,
12,
15,
14,
10,
23,
12,
14,
10,
11,
11,
17,
11,
8,
10,
16,
12,
8,
14,
7,
16,
12,
8,
9,
6,
7,
9,
16,
7,
3,
6,
14,
12,
5,
1,
4,
6,
9,
1,
5,
6,
4,
12,
5,
10,
5,
4,
2,
5,
5,
2,
4,
1,
2,
2,
2,
2,
3,
1,
3,
3,
2,
0,
2,
2,
2,
1,
1,
0,
1,
0,
1,
1,
0,
0,
0,
0,
0,
0,
0,
0,
0,
0,
1,
0,
0,
0,
0,
1,
0,
1,
0,
1,
0,
0,
0,
0,
0,
0,
0,
0,
0,
0,
0,
0,
0,
0,
0,
0,
0,
0,
0,
0,
0,
0,
0,
1,
0,
0,
0,
0,
0,
0,
0,
0,
0,
0,
0,
0,
0,
0,
0,
0,
0,
0,
0,
0,
0,
0,
0,
0,
0,
0,
0,
0,
0,
0,
1,
0,
0,
0,
0,
0,
0,
1,
0,
0,
0,
0,
0,
0,
0,
0,
0,
0,
0,
0,
0,
0,
0,
0,
0,
0,
0,
0,
0,
0,
0,
1,
0,
0,
0,
0,
0,
0,
0,
0,
0,
0,
0,
0,
0,
0,
0,
0,
0,
0,
0,
0,
0,
0,
0,
0,
0,
0,
0,
0,
0,
0,
0,
0,
0,
0,
0,
0,
0,
0,
0,
0,
0,
0,
0,
0,
0,
0,
0,
0,
0,
0,
0,
0,
0,
0,
0,
0,
0,
0,
0,
0,
0,
0,
0,
0,
0,
0,
0,
0,
0,
0,
0,
0,
0,
0,
0,
0,
0,
0,
0,
0,
0,
1,
0,
0,
0,
0,
0,
0,
1,
0,
0,
0,
0,
1,
0,
0,
0,
0,
0,
0,
0,
0,
0,
0,
0,
0,
0,
0,
0,
0,
0,
0,
0,
0,
0,
0,
0,
0,
0,
0,
0,
0,
0,
0,
0,
0,
0,
0,
0,
0,
0,
0,
0,
0,
0,
0,
0,
0,
0,
0,
0,
0,
0,
0,
0,
0,
0,
0,
0,
0,
0,
0,
0,
0,
0,
0,
0,
0,
0,
0,
0,
0,
0,
0,
0,
0,
0,
0,
0,
0,
0,
0,
0,
0,
0,
0,
0,
0,
0,
0,
0,
0,
0,
0,
0,
0,
0,
0,
0,
0,
0,
0,
0,
0,
0,
0,
0,
0,
0,
0,
0,
0,
0,
0,
0,
0,
0,
0,
0,
0,
0,
0,
0,
0,
0,
0,
0,
0,
0,
0,
0,
0,
0,
0,
0,
0,
0,
0,
0,
0,
0,
0,
0,
0,
0,
0,
0,
0,
0,
0,
0,
0,
0,
0,
0,
0,
0,
0,
0,
0,
0,
0,
0,
0,
0,
0,
0,
0,
0,
0,
0,
0,
0,
0,
0,
0,
0,
0,
0,
0,
0,
0,
0,
0,
0,
0,
0,
0,
0,
0,
0,
0,
0,
0,
0,
0,
0,
0,
0,
0,
0,
0,
0,
0,
0,
0,
0,
0,
0,
0,
0,
0,
0,
0,
0,
0,
0,
0,
0,
0,
0,
0,
0,
0,
0,
0,
0,
0,
0,
0,
0,
0,
0,
0,
0,
0,
0,
0,
0,
0,
0,
0,
0,
0,
0,
0,
0,
0,
0,
0,
0,
0,
0,
0,
0,
0,
0,
0,
0,
0,
0,
0,
0,
0,
0,
0,
0,
0,
0,
0,
0,
0,
0,
0,
0,
0,
0,
0,
0,
0,
0,
0,
0,
0,
0,
0,
0,
0,
0,
0,
0,
0,
0,
0,
0,
0,
0,
0,
0,
0,
0,
0,
0,
0,
0,
0,
0,
0,
0,
0,
0,
0,
0,
0,
0,
0,
0,
0,
0,
0,
0,
0,
0,
0,
0,
0,
0,
0,
0,
0,
0,
0,
0,
0,
0,
0,
0,
0,
0,
0,
0,
0,
0,
0,
0,
0,
0,
0,
0,
0,
0,
0,
0,
0,
0,
0,
0,
0,
0,
0,
0,
0,
0,
0,
0,
0,
0,
0,
0,
0,
0,
0,
0,
0,
0,
0,
0,
0,
0,
0,
0,
0,
0,
0,
0,
0,
0,
0,
0,
0,
0,
0,
0,
0,
0,
0,
0,
0,
0,
0,
0,
0,
0,
0,
0,
0,
0,
0,
0,
0,
0,
0,
0,
0,
0,
0,
0,
0,
0,
0,
0,
0,
0,
0,
0,
0,
0,
0,
0,
0,
0,
0,
0,
0,
0,
0,
0,
0,
0,
0,
0,
0,
0,
0,
0,
0,
0,
0,
0,
0,
0,
0,
0,
0,
0,
0,
0,
0,
0,
0,
0,
0,
0,
0,
0,
0,
0,
0,
0,
0,
0,
0,
0,
0,
0,
0,
0,
0,
0,
0,
0,
0,
0,
0,
0,
0,
0,
0,
0,
0,
0,
0,
0,
0,
0,
0,
0,
0,
0,
0,
0,
0,
#ENDOFDATA   :