File: N132962/Quantification/20 keV/MMM2/SPI MM2 Willemite[4][4].msa
#FORMAT      : EMSA/MAS Spectral Data File
#VERSION     : 1.0
#TITLE       : SPI MM2 Willemite[4][all]
#DATE        : 13-MAR-2025
#TIME        : 14:07
#OWNER       : Unknown
#NPOINTS     : 4096
#NCOLUMNS    : 1
#XUNITS      : eV
#YUNITS      : counts
#DATATYPE    : Y
#XPERCHAN    : 9.99778
#OFFSET      : 1.69135
#BEAMKV      : 20
#SIGNALTYPE  : EDS
#ELEVANGLE   : 35
#AZIMANGLE   : 0
#LIVETIME    : 239.802
#REALTIME    : 257.45
#PROBECUR    : 1.02609
#TAUWIND     : 0
#TDEADLYR    : 0
#TACTLYR     : 0.045
#TALWIND     : 0.025
#CHOFFSET    : 0.0
#XLABEL      : Energy (eV)
#YLABEL      : Counts
#XPOSITION   : 2.81352
#YPOSITION   : 6.24404
#ZPOSITION   : 31.03512
#EDSDET      : SD
##SPECIMEN   : SPI MM2 Willemite[4][all]
##DET_HASH   : 12273538-fd48-a23f-0a19-f1e6fa85caef
##CALIB_HASH : 6abaa72c-aa41-8738-0be9-f592914732f3
##WORKING    : 15.0 mm
##DET_NAME   : EDAX All
##DET_MODE   : MediumLE
#SPECTRUM    :
31,
29,
8,
21,
114,
383,
1217,
3623,
9992,
13275,
7094,
3381,
3323,
3971,
5954,
17314,
63299,
120596,
89662,
25511,
6362,
5604,
5303,
4876,
4740,
4746,
5278,
6993,
11634,
18796,
20229,
24663,
71665,
181312,
223734,
126737,
36350,
8603,
3846,
3017,
3386,
4382,
4810,
4005,
3196,
3174,
3061,
3399,
3747,
3861,
4236,
4294,
4313,
4202,
4563,
8241,
24408,
58901,
79120,
56618,
24686,
10354,
6099,
4348,
3679,
3545,
3509,
3704,
3811,
3809,
3578,
3633,
3473,
3581,
3539,
3672,
3872,
3640,
3741,
3662,
3701,
3697,
3808,
3727,
3609,
3835,
3699,
3830,
3759,
3679,
3758,
3989,
3817,
3790,
3785,
3676,
3673,
3650,
3552,
3598,
3554,
3559,
3465,
3695,
3598,
3463,
3422,
3529,
3399,
3409,
3522,
3327,
3371,
3271,
3336,
3295,
3334,
3334,
3290,
3338,
3103,
3224,
3216,
3189,
3111,
3154,
3091,
3089,
3108,
2995,
3096,
3012,
2968,
2927,
3033,
2956,
2994,
2854,
2894,
2853,
2838,
2775,
2726,
2787,
2794,
2790,
2687,
2750,
2801,
2608,
2603,
2616,
2643,
2561,
2621,
2626,
2576,
2489,
2520,
2517,
2534,
2390,
2460,
2520,
2554,
2440,
2414,
2383,
2405,
2375,
2353,
2287,
2292,
2219,
2221,
2304,
2280,
2174,
2181,
2270,
2238,
2225,
2150,
2199,
2113,
2063,
2077,
2145,
2045,
2165,
2045,
2149,
2477,
3310,
4951,
7167,
8801,
8806,
6949,
4729,
3174,
2299,
2004,
1864,
1893,
1920,
1818,
1819,
1755,
1787,
1889,
1953,
2116,
2285,
2404,
2687,
2660,
2597,
2296,
2064,
1752,
1643,
1721,
1565,
1632,
1585,
1620,
1607,
1675,
1622,
1650,
1678,
1573,
1612,
1530,
1520,
1507,
1512,
1458,
1488,
1491,
1489,
1443,
1450,
1474,
1358,
1449,
1561,
1574,
1498,
1390,
1417,
1398,
1313,
1300,
1368,
1332,
1351,
1339,
1334,
1308,
1340,
1365,
1248,
1315,
1218,
1277,
1238,
1235,
1238,
1207,
1265,
1235,
1229,
1263,
1290,
1312,
1273,
1266,
1296,
1448,
1923,
3313,
6600,
13442,
24272,
36152,
45209,
45695,
38059,
25844,
14618,
7372,
3284,
1752,
1285,
1072,
1025,
1018,
1053,
1092,
1023,
1037,
1023,
986,
1058,
1050,
1041,
967,
1043,
1010,
1027,
1105,
1286,
1658,
2478,
3702,
5147,
6505,
6766,
6139,
4825,
3275,
2095,
1419,
999,
877,
797,
727,
693,
743,
753,
703,
711,
745,
763,
693,
740,
713,
725,
731,
668,
744,
739,
708,
715,
704,
721,
704,
688,
666,
669,
681,
655,
673,
653,
637,
604,
607,
634,
615,
586,
594,
592,
629,
588,
573,
609,
597,
590,
571,
563,
544,
561,
532,
570,
580,
539,
507,
518,
506,
519,
479,
559,
471,
521,
490,
437,
450,
494,
512,
506,
470,
504,
483,
472,
451,
464,
481,
453,
470,
457,
471,
421,
430,
434,
427,
461,
444,
389,
402,
411,
410,
416,
376,
359,
364,
362,
351,
348,
400,
427,
406,
414,
380,
356,
316,
371,
364,
328,
354,
331,
374,
312,
341,
309,
292,
299,
320,
335,
321,
301,
328,
350,
293,
273,
318,
285,
312,
301,
302,
246,
263,
261,
274,
273,
254,
264,
288,
260,
279,
260,
249,
215,
231,
245,
227,
227,
203,
253,
232,
238,
211,
230,
245,
212,
236,
194,
234,
229,
185,
213,
213,
196,
223,
211,
178,
207,
190,
184,
189,
165,
169,
183,
187,
174,
176,
188,
182,
155,
135,
161,
147,
167,
171,
169,
156,
146,
144,
148,
128,
137,
134,
122,
137,
141,
149,
118,
145,
139,
139,
137,
131,
120,
144,
116,
129,
135,
110,
101,
103,
103,
116,
105,
98,
104,
106,
101,
95,
88,
93,
95,
99,
98,
96,
101,
106,
90,
82,
95,
84,
86,
79,
89,
91,
85,
69,
73,
91,
72,
98,
82,
58,
74,
77,
76,
73,
62,
73,
68,
62,
75,
60,
72,
80,
65,
55,
78,
72,
59,
67,
57,
57,
50,
50,
54,
39,
48,
48,
51,
63,
39,
59,
40,
44,
47,
40,
44,
38,
51,
39,
27,
40,
30,
35,
36,
40,
45,
25,
28,
25,
32,
27,
28,
32,
30,
27,
29,
30,
30,
26,
20,
23,
11,
26,
29,
21,
17,
23,
15,
20,
14,
31,
20,
22,
16,
16,
11,
13,
14,
14,
12,
14,
15,
2,
10,
10,
12,
14,
2,
7,
13,
11,
3,
5,
4,
5,
9,
4,
6,
8,
3,
5,
3,
1,
4,
1,
2,
2,
2,
1,
1,
4,
1,
1,
0,
0,
0,
1,
1,
1,
1,
0,
0,
0,
1,
0,
2,
0,
0,
0,
1,
1,
0,
3,
0,
0,
1,
3,
1,
0,
1,
0,
1,
2,
1,
0,
0,
1,
2,
0,
3,
0,
1,
0,
0,
0,
2,
1,
1,
0,
2,
0,
0,
0,
1,
2,
0,
0,
3,
2,
1,
0,
0,
0,
1,
0,
0,
2,
0,
0,
0,
0,
1,
0,
2,
0,
1,
0,
0,
1,
0,
0,
0,
0,
0,
2,
0,
1,
0,
0,
1,
3,
0,
0,
0,
0,
0,
1,
0,
0,
0,
0,
0,
0,
0,
0,
0,
0,
1,
0,
0,
1,
0,
0,
0,
0,
1,
0,
0,
0,
0,
0,
0,
1,
0,
0,
0,
0,
0,
0,
0,
0,
0,
0,
0,
1,
0,
0,
0,
0,
1,
0,
1,
0,
0,
0,
0,
0,
0,
0,
0,
0,
1,
0,
0,
0,
0,
0,
1,
0,
0,
0,
0,
1,
1,
0,
0,
0,
1,
0,
0,
0,
0,
0,
0,
1,
0,
0,
0,
0,
0,
0,
0,
0,
0,
0,
0,
0,
0,
0,
0,
0,
0,
0,
0,
0,
0,
1,
0,
1,
0,
0,
0,
0,
0,
1,
0,
1,
0,
0,
0,
0,
0,
0,
0,
0,
1,
0,
0,
0,
0,
0,
0,
0,
0,
0,
0,
0,
0,
0,
0,
0,
0,
1,
0,
0,
0,
0,
0,
0,
0,
0,
0,
0,
0,
0,
0,
0,
0,
0,
0,
0,
0,
0,
0,
0,
0,
0,
0,
0,
0,
0,
0,
0,
0,
0,
0,
0,
0,
0,
0,
0,
0,
0,
0,
0,
0,
0,
0,
0,
0,
1,
0,
0,
0,
0,
0,
0,
0,
0,
0,
0,
0,
0,
0,
0,
0,
0,
0,
0,
0,
0,
0,
0,
0,
0,
0,
0,
0,
0,
0,
0,
0,
0,
0,
0,
0,
0,
0,
0,
0,
0,
0,
0,
0,
0,
0,
0,
0,
0,
0,
0,
0,
0,
0,
0,
0,
0,
0,
0,
0,
0,
0,
0,
0,
0,
0,
0,
0,
0,
0,
0,
0,
0,
0,
0,
0,
0,
0,
0,
0,
0,
0,
0,
0,
0,
0,
0,
0,
0,
0,
0,
0,
0,
0,
0,
0,
0,
0,
0,
0,
0,
0,
0,
0,
0,
0,
0,
0,
0,
0,
0,
0,
0,
0,
0,
0,
0,
0,
0,
0,
0,
0,
0,
0,
0,
0,
0,
0,
0,
0,
0,
0,
0,
0,
0,
0,
0,
0,
0,
0,
0,
0,
0,
0,
0,
0,
0,
0,
0,
0,
0,
0,
0,
0,
0,
0,
0,
0,
0,
0,
0,
0,
0,
0,
0,
0,
0,
0,
0,
0,
0,
0,
0,
0,
0,
0,
0,
0,
0,
0,
0,
0,
0,
0,
0,
0,
0,
0,
0,
0,
0,
0,
0,
0,
0,
0,
0,
0,
0,
0,
0,
0,
0,
0,
0,
0,
0,
0,
0,
0,
0,
0,
0,
0,
0,
0,
0,
0,
0,
0,
0,
0,
0,
0,
0,
0,
0,
0,
0,
0,
0,
0,
0,
0,
0,
0,
0,
0,
0,
0,
0,
0,
0,
0,
0,
0,
0,
0,
0,
0,
0,
0,
0,
0,
0,
0,
0,
0,
0,
0,
0,
0,
0,
0,
0,
0,
0,
0,
0,
0,
0,
0,
0,
0,
0,
0,
0,
0,
0,
0,
0,
0,
0,
0,
0,
0,
0,
0,
0,
0,
0,
0,
0,
0,
0,
0,
0,
0,
0,
0,
0,
0,
0,
0,
0,
0,
0,
0,
0,
0,
0,
0,
0,
0,
0,
0,
0,
0,
0,
0,
0,
0,
0,
0,
0,
0,
0,
0,
0,
0,
0,
0,
0,
0,
0,
0,
0,
0,
0,
0,
0,
0,
0,
0,
0,
0,
0,
0,
0,
0,
0,
0,
0,
0,
0,
0,
0,
0,
0,
0,
0,
0,
0,
0,
0,
0,
0,
0,
0,
0,
0,
0,
0,
0,
0,
0,
0,
0,
0,
0,
0,
0,
0,
0,
0,
0,
0,
0,
0,
0,
0,
0,
0,
0,
0,
0,
0,
0,
0,
0,
0,
0,
0,
0,
0,
0,
0,
0,
0,
0,
0,
0,
0,
0,
#ENDOFDATA   :