File: N132962/Quantification/20 keV/MMM2/SPI MM2 SPI Mangotantalite[7][4].msa
#FORMAT      : EMSA/MAS Spectral Data File
#VERSION     : 1.0
#TITLE       : SPI MM2 SPI Mangotantalite[7][all]
#DATE        : 13-MAR-2025
#TIME        : 09:44
#OWNER       : Unknown
#NPOINTS     : 4096
#NCOLUMNS    : 1
#XUNITS      : eV
#YUNITS      : counts
#DATATYPE    : Y
#XPERCHAN    : 9.99778
#OFFSET      : 1.69135
#BEAMKV      : 20
#SIGNALTYPE  : EDS
#ELEVANGLE   : 35
#AZIMANGLE   : 0
#LIVETIME    : 239.84
#REALTIME    : 261.737
#PROBECUR    : 1.02582
#TAUWIND     : 0
#TDEADLYR    : 0
#TACTLYR     : 0.045
#TALWIND     : 0.025
#CHOFFSET    : 0.0
#XLABEL      : Energy (eV)
#YLABEL      : Counts
#XPOSITION   : -1.60897
#YPOSITION   : -4.5705
#ZPOSITION   : 31.03509
#EDSDET      : SD
##SPECIMEN   : SPI MM2 SPI Mangotantalite[7][all]
##DET_HASH   : 12273538-fd48-a23f-0a19-f1e6fa85caef
##CALIB_HASH : 6abaa72c-aa41-8738-0be9-f592914732f3
##WORKING    : 15.0 mm
##DET_NAME   : EDAX All
##DET_MODE   : MediumLE
#SPECTRUM    :
18,
33,
7,
38,
248,
1144,
2969,
6114,
13487,
16547,
9073,
4582,
4195,
4939,
6122,
11688,
34382,
63662,
48301,
16954,
9120,
10654,
9973,
7998,
7206,
5723,
5091,
5359,
5557,
5782,
5836,
5952,
6110,
6387,
6774,
6812,
6899,
7268,
7401,
7447,
8004,
8301,
10021,
14274,
19251,
17863,
13296,
10380,
9440,
9781,
9724,
9758,
10324,
12278,
20933,
56377,
132700,
192068,
170820,
110504,
54294,
20649,
9188,
7645,
9060,
9846,
9488,
7890,
6720,
8103,
13426,
24327,
33543,
31510,
24155,
20027,
16414,
11975,
8997,
7075,
6067,
5317,
5023,
5025,
4797,
4650,
4616,
4732,
5022,
5107,
5000,
4752,
4618,
4670,
4662,
4507,
4712,
4782,
4719,
4707,
4750,
4813,
4667,
4720,
4959,
4816,
4817,
4851,
4788,
4777,
4761,
4881,
4919,
4931,
5091,
5014,
5069,
4962,
4845,
4833,
4822,
4754,
4805,
4788,
4657,
4679,
4704,
4650,
4852,
4719,
4818,
4697,
4736,
4718,
4573,
4621,
4517,
4655,
4602,
4712,
4729,
4543,
4511,
4506,
4498,
4453,
4455,
4652,
4863,
5439,
5346,
5472,
5149,
4667,
4461,
4413,
4365,
4337,
4207,
4151,
4235,
4148,
4179,
4300,
4242,
4354,
4252,
4131,
4059,
4065,
3944,
3992,
3903,
3997,
4062,
3976,
3924,
4014,
3936,
3984,
3948,
3922,
3846,
3836,
4047,
3799,
3788,
3620,
3869,
3690,
3907,
4217,
5220,
8069,
14024,
21753,
27913,
27930,
21258,
13455,
7713,
4797,
3786,
3531,
3530,
3408,
3448,
3423,
3508,
3818,
4631,
5833,
7428,
8787,
9355,
9268,
8076,
6940,
5481,
4276,
3557,
3334,
3048,
2946,
3045,
3014,
3100,
2987,
2871,
3037,
2996,
2963,
3146,
3158,
3466,
3687,
3819,
3783,
4006,
3968,
3798,
3423,
3156,
2935,
2853,
2792,
2860,
2823,
2952,
3021,
2833,
2777,
2652,
2692,
2744,
2650,
2625,
2593,
2662,
2568,
2523,
2631,
2642,
2600,
2799,
3192,
4179,
6424,
10761,
16267,
22486,
26245,
24686,
20014,
13109,
7811,
4781,
3322,
2717,
2639,
2473,
2554,
2476,
2265,
2302,
2248,
2224,
2222,
2221,
2147,
2177,
2127,
2112,
2138,
2085,
2128,
2117,
2007,
2042,
2063,
2026,
2088,
2055,
2227,
2545,
2869,
3520,
4512,
5924,
7732,
9560,
10664,
10321,
8901,
6874,
5279,
4384,
3947,
4158,
4761,
5412,
6056,
5926,
5065,
4175,
3197,
2369,
2146,
2012,
1831,
1848,
1746,
1663,
1674,
1583,
1545,
1457,
1551,
1441,
1472,
1519,
1449,
1480,
1587,
1483,
1401,
1435,
1466,
1451,
1461,
1459,
1430,
1432,
1439,
1358,
1462,
1405,
1470,
1494,
1813,
2056,
2390,
2593,
2611,
2604,
2241,
1983,
1685,
1434,
1425,
1478,
1358,
1449,
1655,
1626,
1569,
1631,
1547,
1435,
1384,
1216,
1280,
1145,
1140,
1193,
1073,
1238,
1153,
1200,
1116,
1055,
1104,
1038,
1065,
1056,
1026,
1017,
970,
1020,
1034,
1011,
995,
983,
941,
993,
919,
939,
904,
919,
901,
865,
897,
937,
867,
903,
928,
896,
904,
857,
835,
881,
815,
861,
830,
853,
805,
813,
817,
751,
870,
859,
770,
784,
815,
758,
803,
768,
743,
781,
756,
743,
706,
678,
705,
751,
673,
662,
642,
648,
673,
666,
646,
633,
651,
636,
651,
601,
620,
576,
628,
558,
631,
587,
590,
557,
569,
534,
557,
563,
582,
547,
583,
537,
573,
513,
492,
504,
496,
499,
527,
535,
493,
485,
457,
494,
461,
487,
451,
452,
465,
463,
414,
434,
415,
429,
410,
384,
410,
375,
387,
408,
392,
385,
379,
372,
377,
368,
360,
396,
402,
358,
404,
346,
357,
354,
356,
346,
358,
336,
318,
332,
375,
343,
370,
328,
324,
288,
328,
340,
296,
260,
294,
251,
283,
259,
264,
265,
262,
279,
264,
268,
255,
258,
237,
256,
230,
253,
236,
233,
257,
269,
212,
291,
229,
250,
232,
224,
242,
192,
212,
225,
210,
193,
173,
196,
177,
179,
186,
148,
187,
149,
165,
182,
164,
149,
164,
156,
153,
141,
158,
147,
152,
163,
152,
157,
157,
150,
135,
137,
125,
147,
130,
115,
130,
129,
122,
119,
107,
109,
107,
112,
80,
105,
110,
95,
92,
97,
102,
100,
90,
86,
96,
91,
80,
76,
70,
76,
85,
72,
78,
79,
77,
72,
57,
52,
50,
62,
54,
50,
54,
61,
54,
36,
63,
67,
53,
48,
40,
43,
37,
30,
39,
34,
29,
30,
27,
26,
28,
15,
27,
18,
23,
28,
23,
25,
21,
17,
20,
16,
10,
13,
7,
14,
12,
9,
4,
6,
0,
1,
4,
2,
3,
2,
0,
2,
5,
4,
5,
7,
5,
1,
4,
3,
5,
4,
3,
5,
2,
1,
3,
5,
7,
6,
3,
1,
2,
2,
3,
3,
5,
4,
2,
1,
2,
5,
8,
0,
1,
5,
1,
0,
1,
1,
1,
3,
1,
5,
1,
4,
0,
5,
1,
1,
4,
1,
2,
4,
0,
1,
1,
1,
3,
3,
2,
1,
0,
3,
2,
3,
2,
3,
3,
3,
0,
1,
2,
0,
3,
1,
1,
0,
5,
1,
1,
1,
2,
0,
0,
2,
0,
1,
2,
0,
0,
1,
3,
1,
3,
0,
1,
2,
0,
2,
2,
1,
0,
2,
0,
1,
0,
0,
0,
0,
0,
1,
0,
1,
1,
1,
0,
0,
1,
1,
1,
2,
1,
3,
0,
1,
1,
0,
0,
1,
1,
1,
0,
0,
1,
1,
0,
0,
0,
0,
1,
0,
1,
1,
0,
1,
1,
0,
1,
2,
1,
0,
0,
0,
2,
1,
1,
1,
0,
1,
1,
1,
1,
0,
2,
0,
3,
0,
1,
0,
0,
0,
0,
0,
0,
1,
0,
1,
0,
1,
1,
2,
1,
0,
0,
0,
0,
1,
0,
1,
1,
0,
1,
0,
0,
2,
1,
0,
1,
0,
0,
0,
0,
1,
0,
0,
0,
0,
1,
0,
1,
0,
0,
0,
0,
0,
0,
0,
0,
1,
1,
0,
0,
0,
0,
0,
0,
0,
0,
1,
0,
0,
0,
0,
0,
1,
0,
0,
0,
0,
0,
0,
0,
0,
0,
0,
1,
0,
0,
0,
0,
0,
0,
0,
0,
0,
0,
0,
0,
0,
0,
0,
2,
0,
0,
0,
0,
0,
0,
0,
0,
0,
0,
0,
0,
0,
0,
0,
0,
0,
0,
0,
0,
1,
0,
0,
0,
0,
0,
0,
0,
0,
1,
1,
0,
0,
1,
1,
0,
0,
0,
0,
0,
0,
0,
0,
0,
0,
1,
0,
1,
0,
0,
0,
0,
0,
0,
0,
0,
1,
0,
0,
0,
0,
0,
0,
0,
0,
0,
0,
1,
0,
0,
0,
0,
0,
0,
0,
0,
0,
0,
0,
0,
0,
0,
0,
0,
0,
0,
0,
0,
0,
0,
0,
0,
0,
0,
1,
0,
0,
0,
0,
0,
0,
0,
0,
0,
0,
0,
0,
0,
0,
0,
0,
0,
1,
0,
0,
0,
0,
0,
0,
0,
0,
0,
0,
0,
0,
0,
0,
0,
0,
0,
0,
0,
0,
0,
0,
0,
0,
0,
0,
0,
0,
0,
0,
0,
0,
0,
0,
0,
0,
0,
0,
0,
0,
0,
0,
0,
0,
0,
0,
0,
0,
0,
0,
0,
0,
0,
0,
0,
0,
0,
0,
0,
0,
0,
0,
0,
0,
0,
0,
0,
0,
0,
0,
0,
0,
0,
0,
0,
0,
0,
0,
0,
0,
0,
0,
0,
1,
0,
0,
0,
0,
0,
0,
0,
0,
0,
0,
0,
0,
0,
0,
0,
0,
0,
0,
0,
0,
0,
0,
0,
0,
0,
0,
0,
0,
0,
0,
0,
0,
0,
0,
0,
0,
0,
0,
0,
0,
0,
0,
0,
0,
0,
0,
0,
0,
0,
0,
0,
0,
0,
0,
0,
0,
0,
0,
0,
0,
0,
0,
0,
0,
0,
0,
0,
0,
0,
0,
0,
0,
0,
0,
0,
0,
0,
0,
0,
0,
0,
0,
0,
0,
0,
0,
0,
0,
0,
0,
0,
0,
0,
0,
0,
0,
0,
0,
0,
0,
0,
0,
0,
0,
0,
0,
0,
0,
0,
0,
0,
0,
0,
0,
0,
0,
0,
0,
0,
0,
0,
0,
0,
0,
0,
0,
0,
0,
0,
0,
0,
0,
0,
0,
0,
0,
0,
0,
0,
0,
0,
0,
0,
0,
0,
0,
0,
0,
0,
0,
0,
0,
0,
0,
0,
0,
0,
0,
0,
1,
0,
0,
0,
0,
0,
0,
0,
0,
0,
0,
0,
0,
0,
0,
0,
0,
0,
0,
0,
0,
0,
0,
0,
0,
0,
0,
0,
0,
0,
0,
0,
0,
0,
0,
0,
0,
0,
0,
0,
0,
0,
0,
0,
0,
0,
0,
0,
0,
0,
0,
0,
0,
0,
0,
0,
0,
0,
0,
0,
0,
0,
0,
0,
0,
0,
0,
0,
0,
0,
0,
0,
0,
0,
#ENDOFDATA   :