File: N132962/Quantification/20 keV/MMM2/SPI MM2 Stibnite[2][4].msa
#FORMAT      : EMSA/MAS Spectral Data File
#VERSION     : 1.0
#TITLE       : SPI MM2 Stibnite[2][all]
#DATE        : 13-MAR-2025
#TIME        : 13:19
#OWNER       : Unknown
#NPOINTS     : 4096
#NCOLUMNS    : 1
#XUNITS      : eV
#YUNITS      : counts
#DATATYPE    : Y
#XPERCHAN    : 9.99778
#OFFSET      : 1.69135
#BEAMKV      : 20
#SIGNALTYPE  : EDS
#ELEVANGLE   : 35
#AZIMANGLE   : 0
#LIVETIME    : 239.846
#REALTIME    : 263.281
#PROBECUR    : 1.0263
#TAUWIND     : 0
#TDEADLYR    : 0
#TACTLYR     : 0.045
#TALWIND     : 0.025
#CHOFFSET    : 0.0
#XLABEL      : Energy (eV)
#YLABEL      : Counts
#XPOSITION   : 1.52695
#YPOSITION   : 4.36426
#ZPOSITION   : 31.03511
#EDSDET      : SD
##SPECIMEN   : SPI MM2 Stibnite[2][all]
##DET_HASH   : 12273538-fd48-a23f-0a19-f1e6fa85caef
##CALIB_HASH : 6abaa72c-aa41-8738-0be9-f592914732f3
##WORKING    : 15.0 mm
##DET_NAME   : EDAX All
##DET_MODE   : MediumLE
#SPECTRUM    :
24,
21,
18,
160,
1081,
2364,
2433,
5027,
13087,
16853,
8907,
4502,
6402,
12279,
16706,
12236,
8347,
8916,
9834,
8521,
5814,
4221,
4207,
5137,
6139,
6060,
5329,
4721,
4780,
4635,
4562,
4436,
4567,
4612,
4751,
4934,
5094,
5207,
5282,
5560,
5752,
5763,
5878,
6152,
6287,
6319,
6577,
6735,
6911,
7131,
7251,
7214,
7216,
7244,
7384,
7518,
7915,
8490,
8859,
8910,
8847,
9058,
9014,
8479,
7776,
7462,
7506,
7603,
7923,
8133,
8456,
8786,
10385,
15020,
31980,
81736,
165078,
205943,
150286,
67505,
25968,
19214,
20902,
18153,
11948,
7411,
5994,
5684,
5627,
5538,
5749,
5540,
5530,
5659,
5640,
5623,
5598,
5587,
5716,
5451,
5574,
5444,
5651,
6005,
6805,
8488,
9950,
9800,
8177,
6681,
5945,
5737,
6106,
6682,
7532,
8739,
11557,
22629,
53647,
101645,
135033,
120004,
71917,
32087,
14514,
14764,
27595,
49973,
66813,
65927,
50862,
34359,
22574,
15288,
12803,
15884,
20760,
22458,
18260,
11710,
7186,
5479,
5392,
7003,
9221,
10220,
9163,
6788,
4945,
4029,
4193,
4978,
6120,
6809,
6351,
5422,
4322,
3774,
3557,
3342,
3308,
3229,
3219,
3232,
3106,
3133,
3192,
3160,
3257,
3191,
3198,
3203,
3107,
3086,
3193,
3138,
3129,
3144,
3150,
3210,
3136,
3111,
3158,
3074,
3054,
3085,
2926,
2986,
3005,
2946,
2999,
3056,
3027,
3077,
2992,
3026,
3129,
3257,
3139,
3087,
3063,
3088,
2914,
2980,
3019,
2954,
2894,
2926,
2932,
2956,
2962,
2957,
3100,
3146,
3183,
3074,
3002,
2789,
2721,
2708,
2699,
2734,
2661,
2679,
2610,
2552,
2563,
2528,
2666,
2481,
2593,
2539,
2523,
2573,
2539,
2587,
2471,
2489,
2482,
2509,
2447,
2514,
2557,
2455,
2420,
2412,
2582,
2495,
2565,
2476,
2620,
2524,
2415,
2417,
2308,
2360,
2324,
2202,
2145,
2309,
2196,
2178,
2178,
2201,
2127,
2212,
2168,
2145,
2145,
2103,
2073,
2161,
2122,
2112,
2134,
2086,
2059,
2076,
2031,
2002,
1959,
2036,
1894,
1945,
1859,
1922,
1890,
1913,
1910,
1891,
1834,
1876,
1853,
1813,
1895,
1851,
1871,
1790,
1754,
1777,
1849,
1849,
1785,
1750,
1716,
1752,
1691,
1653,
1719,
1739,
1698,
1703,
1672,
1660,
1639,
1630,
1634,
1632,
1636,
1653,
1603,
1585,
1569,
1661,
1628,
1490,
1521,
1496,
1539,
1559,
1518,
1551,
1490,
1449,
1459,
1450,
1464,
1449,
1497,
1419,
1399,
1352,
1413,
1366,
1369,
1399,
1335,
1345,
1327,
1353,
1348,
1370,
1263,
1303,
1264,
1229,
1289,
1284,
1253,
1251,
1185,
1186,
1219,
1160,
1198,
1212,
1181,
1235,
1213,
1208,
1194,
1219,
1070,
1089,
1166,
1053,
1079,
1105,
1065,
1112,
1093,
1055,
1072,
1076,
1034,
1037,
1013,
1020,
1003,
999,
1008,
1016,
965,
975,
902,
984,
944,
932,
964,
937,
946,
889,
869,
879,
909,
901,
835,
850,
860,
830,
906,
886,
829,
794,
856,
785,
852,
825,
818,
789,
769,
782,
764,
784,
761,
744,
718,
710,
785,
727,
768,
737,
689,
703,
702,
650,
650,
650,
660,
628,
671,
614,
645,
627,
603,
656,
659,
620,
636,
614,
598,
598,
586,
585,
618,
626,
575,
549,
599,
563,
552,
563,
543,
547,
551,
545,
509,
493,
497,
528,
490,
496,
469,
507,
517,
487,
449,
444,
483,
480,
459,
486,
449,
441,
434,
460,
401,
412,
423,
364,
445,
429,
411,
422,
404,
378,
379,
384,
327,
422,
375,
394,
350,
358,
383,
331,
356,
353,
329,
309,
331,
313,
309,
309,
292,
297,
293,
305,
309,
274,
278,
300,
300,
281,
253,
273,
232,
258,
260,
264,
243,
252,
252,
226,
256,
241,
231,
228,
242,
211,
216,
230,
230,
203,
230,
203,
209,
193,
211,
194,
198,
167,
196,
167,
187,
187,
198,
182,
171,
175,
191,
176,
175,
169,
179,
156,
173,
161,
151,
183,
158,
149,
143,
160,
141,
131,
138,
139,
149,
144,
110,
134,
114,
127,
112,
114,
99,
122,
128,
126,
100,
110,
113,
103,
100,
103,
129,
105,
92,
86,
110,
77,
80,
96,
78,
87,
83,
81,
67,
82,
78,
81,
67,
83,
70,
76,
72,
85,
57,
74,
64,
58,
61,
48,
54,
48,
58,
53,
54,
43,
49,
49,
38,
34,
42,
41,
23,
47,
33,
33,
44,
29,
32,
34,
33,
18,
18,
28,
22,
25,
23,
18,
23,
28,
20,
16,
15,
18,
12,
7,
13,
12,
7,
7,
13,
6,
1,
4,
3,
4,
6,
4,
3,
2,
3,
2,
2,
2,
1,
0,
1,
2,
2,
5,
2,
0,
0,
3,
3,
2,
2,
1,
0,
3,
2,
3,
2,
1,
2,
2,
2,
3,
1,
1,
4,
1,
2,
2,
0,
1,
0,
1,
2,
0,
0,
2,
1,
2,
0,
1,
1,
1,
3,
2,
0,
1,
0,
1,
0,
1,
2,
1,
1,
0,
1,
3,
1,
1,
0,
3,
0,
1,
2,
3,
1,
1,
0,
1,
2,
0,
2,
2,
1,
1,
2,
1,
1,
1,
0,
1,
0,
0,
0,
0,
1,
0,
1,
0,
0,
1,
0,
1,
0,
0,
2,
0,
0,
1,
0,
1,
0,
0,
2,
0,
1,
0,
0,
0,
0,
0,
0,
0,
0,
0,
0,
0,
1,
0,
1,
0,
0,
0,
2,
0,
0,
0,
0,
0,
0,
0,
0,
1,
0,
0,
0,
0,
0,
0,
0,
0,
0,
1,
1,
0,
1,
0,
1,
0,
1,
0,
1,
1,
1,
0,
0,
0,
1,
0,
0,
2,
1,
1,
0,
0,
0,
1,
0,
0,
0,
0,
1,
1,
0,
0,
1,
0,
0,
0,
0,
0,
0,
0,
0,
0,
0,
0,
0,
0,
0,
0,
0,
0,
0,
3,
0,
0,
0,
0,
0,
0,
0,
0,
0,
1,
0,
0,
0,
0,
0,
0,
0,
1,
0,
0,
0,
0,
0,
0,
0,
0,
1,
0,
1,
0,
0,
0,
1,
0,
0,
0,
1,
1,
0,
1,
0,
0,
0,
0,
0,
0,
0,
0,
0,
1,
0,
0,
0,
0,
0,
0,
0,
0,
0,
0,
0,
0,
0,
0,
1,
0,
0,
1,
0,
1,
0,
0,
0,
0,
0,
0,
0,
0,
0,
0,
0,
0,
0,
0,
0,
0,
0,
0,
0,
0,
0,
0,
0,
0,
1,
0,
0,
0,
0,
0,
0,
0,
0,
0,
0,
0,
0,
0,
0,
0,
0,
0,
0,
0,
0,
0,
0,
0,
0,
0,
0,
0,
0,
0,
0,
0,
0,
0,
0,
0,
0,
0,
0,
0,
0,
0,
0,
0,
0,
0,
0,
0,
0,
0,
0,
0,
0,
0,
0,
0,
0,
0,
0,
0,
0,
0,
0,
0,
0,
1,
0,
0,
0,
0,
0,
0,
0,
0,
0,
0,
0,
0,
0,
0,
0,
0,
0,
0,
0,
0,
1,
0,
0,
0,
0,
0,
0,
0,
0,
0,
0,
0,
0,
0,
0,
0,
1,
0,
0,
0,
0,
0,
0,
0,
0,
0,
0,
0,
0,
0,
0,
0,
0,
0,
0,
0,
0,
0,
0,
0,
0,
0,
0,
0,
0,
0,
0,
0,
0,
0,
0,
0,
0,
0,
0,
0,
0,
0,
0,
0,
0,
0,
0,
0,
0,
0,
0,
0,
0,
0,
0,
0,
0,
0,
0,
0,
0,
0,
0,
0,
0,
0,
0,
0,
0,
0,
0,
0,
0,
0,
0,
0,
0,
0,
0,
0,
0,
0,
0,
0,
0,
0,
0,
0,
0,
0,
0,
0,
0,
0,
0,
0,
0,
0,
0,
0,
0,
0,
0,
0,
0,
0,
0,
0,
0,
0,
0,
0,
0,
0,
0,
0,
0,
0,
0,
0,
0,
0,
0,
0,
0,
0,
0,
0,
0,
0,
0,
0,
0,
0,
0,
0,
0,
0,
0,
0,
0,
0,
0,
0,
0,
0,
0,
0,
0,
0,
0,
0,
0,
0,
0,
0,
0,
0,
0,
0,
0,
0,
0,
0,
0,
0,
0,
0,
0,
0,
0,
0,
0,
0,
0,
0,
0,
0,
0,
0,
0,
0,
0,
0,
0,
0,
0,
0,
0,
0,
0,
0,
0,
0,
0,
0,
0,
0,
0,
0,
0,
0,
0,
0,
0,
0,
0,
0,
0,
0,
0,
0,
0,
0,
0,
0,
0,
0,
0,
0,
0,
0,
0,
0,
0,
0,
0,
0,
0,
0,
0,
0,
0,
0,
0,
0,
0,
0,
0,
0,
0,
0,
0,
0,
0,
0,
0,
0,
0,
0,
0,
0,
0,
0,
0,
0,
0,
0,
0,
0,
0,
0,
0,
0,
0,
0,
0,
0,
0,
0,
0,
0,
0,
0,
0,
0,
0,
0,
0,
0,
0,
0,
0,
0,
0,
0,
0,
0,
0,
0,
0,
0,
0,
0,
0,
0,
#ENDOFDATA   :