File: N132962/Quantification/20 keV/MMM2/SPI MM2 SPI Obsidian[2][4].msa
#FORMAT      : EMSA/MAS Spectral Data File
#VERSION     : 1.0
#TITLE       : SPI MM2 SPI Obsidian[2][all]
#DATE        : 13-MAR-2025
#TIME        : 09:57
#OWNER       : Unknown
#NPOINTS     : 4096
#NCOLUMNS    : 1
#XUNITS      : eV
#YUNITS      : counts
#DATATYPE    : Y
#XPERCHAN    : 9.99778
#OFFSET      : 1.69135
#BEAMKV      : 20
#SIGNALTYPE  : EDS
#ELEVANGLE   : 35
#AZIMANGLE   : 0
#LIVETIME    : 239.876
#REALTIME    : 256.301
#PROBECUR    : 1.02627
#TAUWIND     : 0
#TDEADLYR    : 0
#TACTLYR     : 0.045
#TALWIND     : 0.025
#CHOFFSET    : 0.0
#XLABEL      : Energy (eV)
#YLABEL      : Counts
#XPOSITION   : 0.07007
#YPOSITION   : -2.97506
#ZPOSITION   : 31.03509
#EDSDET      : SD
##SPECIMEN   : SPI MM2 SPI Obsidian[2][all]
##D2STDCMP   : SPI Obsidian,(O:49.01),(Na:2.77),(Mg:0.06),(Al:6.9),(Si:35.66),(K:3.58),(Ca:0.63),(Ti:0.06),(Mn:0.04),(Fe:0.59),5.0
##DET_HASH   : 12273538-fd48-a23f-0a19-f1e6fa85caef
##CALIB_HASH : 6abaa72c-aa41-8738-0be9-f592914732f3
##WORKING    : 15.0 mm
##DET_NAME   : EDAX All
##DET_MODE   : MediumLE
#SPECTRUM    :
31,
21,
5,
23,
66,
276,
839,
2566,
7411,
9873,
5237,
2444,
2445,
3096,
5723,
21517,
88054,
173381,
126983,
33065,
4404,
1824,
2195,
2548,
2657,
2290,
2272,
2499,
2757,
2849,
2898,
3148,
4253,
8576,
17118,
18694,
10822,
5005,
3697,
3666,
3935,
4392,
4695,
4507,
4526,
4640,
5582,
10969,
31133,
60918,
61658,
33763,
13443,
7399,
7474,
21251,
87563,
230598,
314694,
222535,
87956,
28703,
12068,
5443,
2856,
2391,
2342,
2367,
2313,
2284,
2205,
2210,
2253,
2451,
2763,
3005,
2785,
2565,
2438,
2344,
2318,
2196,
2184,
2254,
2288,
2267,
2269,
2258,
2258,
2200,
2295,
2201,
2178,
2246,
2358,
2253,
2160,
2119,
2184,
2180,
2186,
2110,
2091,
2110,
2157,
2329,
2605,
3509,
6391,
12135,
17928,
17500,
12295,
6310,
3329,
2581,
2567,
2846,
3266,
3826,
4108,
4203,
4534,
4627,
4041,
3005,
2236,
1902,
1695,
1774,
1657,
1829,
1843,
1956,
2008,
1861,
1713,
1647,
1655,
1578,
1570,
1528,
1516,
1516,
1460,
1462,
1579,
1622,
1649,
1718,
1801,
1678,
1592,
1480,
1457,
1407,
1379,
1408,
1406,
1427,
1462,
1431,
1479,
1339,
1362,
1363,
1422,
1382,
1333,
1357,
1305,
1311,
1303,
1334,
1235,
1195,
1158,
1227,
1172,
1168,
1195,
1241,
1208,
1147,
1106,
1131,
1137,
1127,
1143,
1073,
1088,
1099,
1065,
1122,
1074,
1157,
1103,
1178,
1104,
1051,
938,
991,
986,
989,
940,
913,
996,
934,
932,
969,
1220,
1534,
1885,
2089,
2100,
1725,
1366,
1035,
953,
921,
872,
903,
862,
882,
850,
849,
861,
860,
843,
845,
875,
845,
861,
891,
945,
894,
954,
840,
810,
774,
746,
808,
691,
732,
719,
743,
726,
695,
732,
759,
760,
689,
680,
725,
686,
672,
624,
675,
617,
641,
636,
684,
585,
637,
577,
646,
635,
578,
660,
605,
571,
630,
588,
606,
608,
652,
569,
544,
583,
574,
591,
550,
582,
559,
514,
535,
577,
514,
553,
489,
506,
490,
493,
521,
506,
517,
532,
514,
493,
500,
447,
482,
451,
507,
455,
455,
440,
483,
453,
430,
462,
409,
456,
447,
428,
444,
468,
394,
409,
421,
423,
442,
427,
399,
416,
391,
415,
364,
394,
405,
399,
383,
370,
374,
372,
365,
384,
348,
391,
351,
339,
345,
373,
351,
297,
362,
335,
343,
318,
341,
330,
291,
298,
338,
326,
310,
324,
314,
312,
315,
333,
347,
271,
312,
291,
312,
272,
286,
266,
249,
297,
274,
304,
265,
272,
251,
275,
275,
250,
241,
226,
282,
246,
256,
265,
245,
240,
228,
250,
257,
260,
219,
236,
228,
246,
223,
229,
211,
187,
226,
234,
229,
197,
212,
200,
201,
181,
196,
205,
221,
201,
177,
223,
176,
167,
182,
191,
196,
180,
169,
191,
187,
196,
179,
174,
180,
167,
153,
151,
165,
150,
155,
176,
143,
145,
147,
149,
141,
140,
143,
152,
151,
142,
129,
128,
148,
127,
138,
120,
148,
125,
122,
127,
107,
124,
106,
130,
106,
128,
107,
129,
127,
109,
101,
126,
87,
99,
86,
93,
101,
89,
107,
86,
96,
117,
93,
105,
86,
76,
100,
92,
92,
106,
85,
98,
85,
89,
65,
79,
100,
82,
93,
88,
77,
82,
82,
68,
69,
71,
88,
71,
70,
81,
71,
61,
69,
54,
73,
65,
63,
63,
67,
56,
62,
56,
74,
63,
73,
66,
58,
48,
54,
61,
43,
55,
57,
48,
42,
49,
40,
53,
55,
37,
45,
41,
54,
50,
45,
58,
44,
42,
40,
35,
34,
45,
27,
37,
38,
40,
37,
29,
31,
30,
35,
41,
36,
29,
27,
44,
36,
32,
28,
34,
27,
31,
26,
24,
25,
27,
30,
27,
27,
31,
22,
24,
22,
21,
25,
22,
23,
16,
17,
26,
24,
23,
21,
20,
12,
18,
17,
9,
22,
16,
20,
20,
21,
12,
24,
17,
14,
18,
21,
11,
17,
17,
14,
13,
6,
12,
18,
11,
16,
5,
8,
10,
12,
12,
7,
8,
13,
11,
6,
12,
10,
16,
8,
3,
10,
6,
8,
4,
6,
10,
5,
8,
4,
9,
7,
4,
8,
4,
3,
4,
4,
5,
3,
7,
2,
4,
0,
3,
3,
2,
0,
0,
3,
3,
1,
0,
2,
3,
0,
0,
1,
0,
0,
0,
0,
0,
1,
0,
0,
0,
0,
0,
0,
0,
0,
0,
0,
0,
0,
0,
0,
0,
0,
0,
1,
0,
0,
0,
1,
0,
0,
0,
0,
1,
0,
0,
0,
0,
0,
0,
0,
0,
0,
0,
0,
0,
0,
1,
1,
0,
0,
0,
1,
0,
0,
0,
1,
0,
0,
0,
0,
0,
0,
0,
0,
0,
1,
1,
0,
0,
0,
1,
0,
0,
0,
0,
0,
0,
0,
0,
0,
0,
0,
0,
0,
0,
0,
0,
0,
0,
0,
0,
0,
0,
1,
0,
0,
0,
0,
0,
0,
0,
0,
0,
0,
0,
0,
0,
0,
0,
0,
0,
0,
0,
0,
0,
0,
0,
0,
0,
0,
0,
0,
0,
0,
0,
0,
0,
0,
0,
0,
0,
0,
0,
0,
0,
0,
0,
0,
0,
0,
0,
0,
0,
0,
0,
0,
0,
0,
0,
0,
0,
0,
0,
0,
0,
0,
0,
0,
0,
0,
0,
0,
0,
0,
0,
0,
0,
0,
1,
0,
0,
0,
0,
0,
0,
0,
0,
0,
0,
0,
0,
0,
0,
0,
0,
0,
0,
0,
0,
0,
0,
0,
0,
0,
0,
1,
0,
0,
0,
0,
0,
0,
0,
0,
0,
0,
0,
0,
0,
0,
0,
0,
0,
0,
0,
0,
0,
0,
0,
0,
0,
0,
0,
0,
0,
0,
0,
0,
0,
0,
0,
0,
0,
0,
0,
0,
0,
0,
0,
0,
0,
0,
0,
0,
0,
0,
0,
0,
0,
0,
0,
0,
0,
0,
0,
0,
0,
0,
0,
0,
0,
0,
0,
0,
0,
0,
0,
0,
0,
0,
0,
0,
0,
0,
0,
0,
0,
0,
0,
0,
0,
0,
0,
0,
0,
0,
0,
0,
0,
0,
0,
0,
0,
0,
0,
0,
0,
0,
0,
0,
0,
0,
0,
0,
0,
0,
0,
0,
0,
0,
0,
0,
0,
0,
0,
0,
0,
0,
0,
0,
0,
0,
0,
0,
0,
0,
0,
0,
0,
0,
0,
0,
0,
0,
0,
0,
0,
0,
0,
0,
0,
0,
0,
0,
0,
0,
0,
0,
0,
0,
0,
0,
0,
0,
0,
0,
0,
0,
0,
0,
0,
0,
0,
0,
0,
0,
0,
0,
0,
0,
0,
0,
0,
0,
0,
0,
0,
0,
0,
0,
0,
0,
0,
0,
0,
0,
0,
0,
0,
0,
0,
0,
0,
0,
0,
0,
0,
0,
0,
0,
0,
0,
0,
0,
0,
0,
0,
0,
0,
0,
0,
0,
0,
0,
0,
0,
0,
0,
0,
0,
0,
0,
0,
0,
0,
0,
0,
0,
0,
0,
0,
0,
0,
0,
0,
0,
0,
0,
0,
0,
0,
0,
0,
0,
0,
0,
0,
0,
0,
0,
0,
0,
0,
0,
0,
0,
0,
0,
0,
0,
0,
0,
0,
0,
0,
0,
0,
0,
0,
0,
0,
0,
0,
0,
0,
0,
0,
0,
0,
0,
0,
0,
0,
0,
0,
0,
0,
0,
0,
0,
0,
0,
0,
0,
0,
0,
0,
0,
0,
0,
0,
0,
0,
0,
0,
0,
0,
0,
0,
0,
0,
0,
0,
0,
0,
0,
0,
0,
0,
0,
0,
0,
0,
0,
0,
0,
0,
0,
0,
0,
0,
0,
0,
0,
0,
0,
0,
0,
0,
0,
0,
0,
0,
0,
0,
0,
0,
0,
0,
0,
0,
0,
0,
0,
0,
0,
0,
0,
0,
0,
0,
0,
0,
0,
0,
0,
0,
0,
0,
0,
0,
0,
0,
0,
0,
0,
0,
0,
0,
0,
0,
0,
0,
0,
0,
0,
0,
0,
0,
0,
0,
0,
0,
0,
0,
0,
0,
0,
0,
0,
0,
0,
0,
0,
0,
0,
0,
0,
0,
0,
0,
0,
0,
0,
0,
0,
0,
0,
0,
0,
0,
0,
0,
0,
0,
0,
0,
0,
0,
0,
0,
0,
0,
0,
0,
0,
0,
0,
0,
0,
0,
0,
0,
0,
0,
0,
0,
0,
0,
0,
0,
0,
0,
0,
0,
0,
0,
0,
0,
0,
0,
0,
0,
0,
0,
0,
0,
0,
0,
0,
0,
0,
0,
0,
0,
0,
0,
0,
0,
0,
0,
0,
0,
0,
0,
0,
0,
0,
0,
0,
0,
0,
0,
0,
0,
0,
0,
0,
0,
0,
0,
0,
#ENDOFDATA   :