File: N132962/Quantification/20 keV/MMM2/SPI MM2 Zircon[6][4].msa
#FORMAT      : EMSA/MAS Spectral Data File
#VERSION     : 1.0
#TITLE       : SPI MM2 Zircon[6][all]
#DATE        : 13-MAR-2025
#TIME        : 13:51
#OWNER       : Unknown
#NPOINTS     : 4096
#NCOLUMNS    : 1
#XUNITS      : eV
#YUNITS      : counts
#DATATYPE    : Y
#XPERCHAN    : 9.99778
#OFFSET      : 1.69135
#BEAMKV      : 20
#SIGNALTYPE  : EDS
#ELEVANGLE   : 35
#AZIMANGLE   : 0
#LIVETIME    : 239.736
#REALTIME    : 257.321
#PROBECUR    : 1.0264
#TAUWIND     : 0
#TDEADLYR    : 0
#TACTLYR     : 0.045
#TALWIND     : 0.025
#CHOFFSET    : 0.0
#XLABEL      : Energy (eV)
#YLABEL      : Counts
#XPOSITION   : -2.69897
#YPOSITION   : 6.61901
#ZPOSITION   : 31.03511
#EDSDET      : SD
##SPECIMEN   : SPI MM2 Zircon[6][all]
##DET_HASH   : 12273538-fd48-a23f-0a19-f1e6fa85caef
##CALIB_HASH : 6abaa72c-aa41-8738-0be9-f592914732f3
##WORKING    : 15.0 mm
##DET_NAME   : EDAX All
##DET_MODE   : MediumLE
#SPECTRUM    :
23,
29,
6,
50,
312,
879,
1658,
3689,
10624,
15403,
10250,
4847,
3985,
4200,
4516,
10847,
37852,
72314,
53592,
15505,
3750,
2804,
3012,
3305,
3576,
3507,
3724,
4001,
4406,
4612,
4439,
4564,
4632,
4787,
5184,
5376,
5361,
5625,
5592,
5910,
6020,
6221,
6408,
6575,
6706,
6916,
6922,
7034,
7329,
7441,
7684,
7959,
7973,
8666,
10631,
18212,
51344,
119794,
163137,
121118,
56608,
25549,
14862,
10965,
11927,
20758,
51330,
110278,
153810,
137118,
102356,
79504,
54227,
30955,
17892,
10235,
6301,
4618,
3698,
3338,
3211,
3305,
3602,
3986,
4111,
3767,
3470,
3162,
3206,
3149,
3154,
3097,
3071,
3029,
3128,
3029,
3033,
3104,
3154,
3132,
3057,
3130,
3047,
3037,
3107,
3228,
3209,
3157,
3146,
3185,
3135,
3147,
3099,
3101,
3222,
3215,
3251,
3109,
3156,
3222,
2971,
3154,
3026,
3049,
3205,
3164,
3325,
3351,
3202,
3165,
3097,
3108,
2966,
3042,
3064,
2985,
3099,
3098,
2977,
3005,
2964,
2931,
2870,
2825,
2831,
2768,
2798,
2708,
2742,
2631,
2641,
2756,
2696,
2642,
2634,
2687,
2606,
2661,
2558,
2610,
2545,
2641,
2562,
2483,
2558,
2492,
2437,
2473,
2429,
2419,
2477,
2387,
2395,
2357,
2368,
2331,
2375,
2345,
2356,
2345,
2265,
2273,
2228,
2263,
2289,
2170,
2259,
2169,
2232,
2226,
2236,
2187,
2181,
2106,
2154,
2109,
2088,
2178,
2051,
2028,
2080,
2120,
2061,
2010,
1976,
2047,
1941,
1970,
1948,
1985,
1996,
2076,
2183,
2100,
2131,
2063,
1968,
1850,
1870,
1827,
1775,
1851,
1779,
1747,
1732,
1729,
1732,
1748,
1667,
1790,
1722,
1722,
1730,
1702,
1711,
1676,
1661,
1736,
1660,
1659,
1635,
1516,
1542,
1634,
1617,
1568,
1597,
1591,
1601,
1567,
1552,
1577,
1614,
1548,
1503,
1437,
1410,
1447,
1426,
1456,
1582,
1550,
1696,
1639,
1639,
1527,
1453,
1366,
1372,
1366,
1350,
1254,
1334,
1318,
1337,
1358,
1268,
1250,
1238,
1288,
1234,
1247,
1146,
1186,
1252,
1211,
1170,
1194,
1116,
1166,
1141,
1123,
1135,
1170,
1118,
1122,
1178,
1158,
1141,
1146,
1224,
1193,
1194,
1193,
1156,
1058,
1094,
1033,
1032,
1055,
1117,
1066,
1113,
1045,
1042,
1006,
999,
969,
969,
983,
892,
953,
933,
910,
956,
935,
929,
922,
830,
928,
850,
860,
921,
908,
928,
898,
901,
821,
804,
820,
870,
803,
795,
886,
798,
869,
766,
847,
782,
776,
803,
773,
779,
772,
761,
797,
754,
698,
736,
707,
749,
698,
666,
736,
725,
716,
672,
686,
658,
649,
680,
652,
633,
629,
626,
647,
645,
618,
626,
603,
601,
584,
588,
604,
603,
572,
540,
602,
629,
553,
604,
549,
549,
548,
573,
532,
545,
546,
557,
528,
509,
503,
459,
508,
461,
484,
524,
492,
474,
454,
481,
460,
502,
503,
459,
437,
448,
449,
453,
396,
417,
442,
415,
425,
414,
439,
465,
389,
432,
373,
392,
389,
416,
364,
421,
364,
353,
379,
390,
338,
368,
368,
360,
369,
387,
364,
368,
345,
313,
338,
353,
350,
285,
310,
316,
301,
300,
315,
317,
310,
284,
313,
299,
293,
281,
289,
295,
301,
296,
278,
248,
289,
257,
265,
290,
242,
247,
252,
250,
242,
250,
242,
234,
233,
235,
216,
191,
223,
236,
220,
218,
227,
200,
244,
203,
209,
208,
205,
187,
216,
219,
189,
198,
188,
179,
196,
168,
176,
183,
191,
167,
180,
156,
191,
174,
178,
187,
186,
211,
224,
347,
351,
450,
504,
538,
542,
469,
434,
357,
245,
215,
173,
169,
139,
135,
116,
130,
125,
127,
123,
123,
108,
114,
105,
100,
122,
97,
99,
109,
85,
124,
103,
106,
92,
102,
103,
96,
87,
84,
85,
97,
81,
81,
89,
98,
91,
76,
65,
86,
60,
65,
80,
77,
70,
57,
72,
75,
65,
60,
73,
60,
68,
74,
71,
81,
83,
82,
111,
120,
100,
91,
92,
86,
63,
63,
47,
44,
63,
57,
56,
53,
41,
40,
37,
41,
41,
44,
41,
42,
38,
50,
35,
32,
21,
28,
30,
38,
26,
27,
15,
34,
33,
23,
26,
22,
21,
18,
23,
25,
16,
19,
24,
18,
19,
21,
18,
16,
12,
22,
10,
13,
17,
13,
4,
17,
19,
7,
9,
9,
8,
7,
12,
6,
9,
2,
8,
7,
5,
4,
2,
4,
5,
2,
3,
3,
2,
1,
1,
1,
1,
2,
0,
1,
0,
0,
0,
1,
0,
1,
0,
0,
1,
0,
1,
0,
1,
0,
0,
1,
2,
0,
0,
1,
0,
0,
0,
0,
2,
2,
0,
1,
1,
0,
0,
0,
0,
0,
4,
0,
0,
1,
1,
1,
0,
1,
0,
0,
0,
1,
0,
0,
1,
1,
0,
0,
0,
1,
0,
1,
0,
0,
0,
0,
0,
0,
0,
1,
0,
2,
1,
0,
0,
0,
0,
0,
1,
0,
0,
1,
0,
0,
0,
0,
1,
1,
0,
0,
0,
0,
0,
0,
0,
1,
0,
0,
0,
0,
0,
0,
1,
0,
0,
0,
0,
0,
0,
0,
0,
0,
0,
0,
0,
0,
0,
0,
1,
1,
0,
0,
0,
0,
1,
0,
1,
0,
0,
0,
0,
0,
0,
0,
0,
0,
0,
0,
0,
0,
0,
1,
0,
0,
0,
0,
0,
0,
0,
0,
0,
0,
0,
0,
0,
1,
0,
1,
0,
0,
0,
2,
0,
0,
0,
2,
0,
0,
0,
0,
1,
0,
0,
0,
1,
0,
0,
0,
0,
0,
0,
1,
1,
0,
0,
0,
0,
0,
0,
0,
0,
0,
0,
0,
0,
0,
0,
0,
0,
1,
0,
0,
0,
2,
0,
0,
0,
0,
0,
0,
0,
0,
0,
0,
0,
1,
0,
0,
0,
1,
1,
0,
0,
0,
0,
0,
0,
0,
0,
0,
0,
0,
0,
0,
0,
0,
0,
0,
0,
0,
0,
0,
0,
0,
0,
0,
0,
0,
1,
0,
0,
0,
0,
0,
0,
0,
0,
0,
0,
0,
0,
0,
0,
0,
0,
0,
0,
0,
0,
0,
0,
0,
0,
0,
0,
0,
0,
0,
0,
0,
0,
0,
0,
1,
0,
0,
1,
1,
0,
0,
0,
0,
0,
0,
0,
0,
0,
0,
0,
1,
0,
0,
0,
0,
0,
0,
0,
0,
0,
0,
0,
0,
0,
0,
0,
0,
0,
0,
0,
0,
0,
0,
0,
0,
0,
1,
0,
0,
0,
0,
0,
0,
0,
0,
0,
0,
0,
1,
0,
1,
0,
0,
0,
0,
0,
0,
0,
0,
0,
0,
0,
0,
0,
0,
0,
0,
0,
0,
1,
0,
0,
0,
0,
0,
0,
0,
0,
0,
0,
0,
0,
0,
1,
0,
1,
0,
0,
0,
0,
0,
0,
0,
0,
0,
0,
0,
0,
0,
0,
0,
0,
0,
0,
0,
0,
0,
0,
0,
0,
0,
0,
0,
0,
0,
0,
0,
0,
0,
0,
0,
0,
0,
0,
0,
0,
0,
0,
0,
0,
0,
0,
0,
0,
0,
0,
0,
0,
0,
0,
0,
0,
0,
0,
0,
0,
0,
0,
0,
0,
0,
0,
0,
0,
0,
0,
0,
0,
0,
0,
0,
0,
0,
0,
0,
0,
0,
0,
0,
0,
0,
0,
0,
0,
0,
0,
0,
0,
0,
0,
0,
0,
0,
0,
0,
0,
0,
0,
0,
0,
0,
0,
0,
0,
0,
0,
0,
0,
0,
0,
0,
0,
0,
0,
0,
0,
0,
0,
0,
0,
0,
0,
0,
0,
0,
0,
0,
0,
0,
0,
0,
0,
0,
0,
0,
0,
0,
0,
0,
0,
0,
0,
0,
0,
0,
0,
0,
0,
0,
0,
0,
0,
0,
0,
0,
0,
0,
0,
0,
0,
0,
0,
0,
0,
0,
0,
0,
0,
0,
0,
0,
0,
0,
0,
0,
0,
0,
0,
0,
0,
0,
0,
0,
0,
0,
0,
0,
0,
0,
0,
0,
0,
0,
0,
0,
0,
0,
0,
0,
0,
0,
0,
0,
0,
0,
0,
0,
0,
0,
0,
0,
0,
0,
0,
0,
0,
0,
0,
0,
0,
0,
0,
0,
0,
0,
0,
0,
0,
0,
0,
0,
0,
0,
0,
0,
0,
0,
0,
0,
0,
0,
0,
0,
0,
0,
0,
0,
0,
0,
0,
0,
0,
0,
0,
0,
0,
0,
0,
0,
0,
0,
0,
0,
0,
0,
0,
0,
0,
0,
0,
0,
0,
0,
0,
0,
0,
0,
0,
0,
0,
0,
0,
0,
0,
0,
0,
0,
0,
0,
0,
0,
0,
0,
0,
0,
0,
0,
0,
0,
0,
0,
0,
0,
0,
0,
0,
0,
0,
0,
0,
0,
0,
0,
0,
0,
0,
0,
0,
0,
0,
#ENDOFDATA   :