File: N132962/Quantification/20 keV/MMM2/SPI MM2 Quartz[4][4].msa
#FORMAT      : EMSA/MAS Spectral Data File
#VERSION     : 1.0
#TITLE       : SPI MM2 Quartz[4][all]
#DATE        : 13-MAR-2025
#TIME        : 12:35
#OWNER       : Unknown
#NPOINTS     : 4096
#NCOLUMNS    : 1
#XUNITS      : eV
#YUNITS      : counts
#DATATYPE    : Y
#XPERCHAN    : 9.99778
#OFFSET      : 1.69135
#BEAMKV      : 20
#SIGNALTYPE  : EDS
#ELEVANGLE   : 35
#AZIMANGLE   : 0
#LIVETIME    : 239.821
#REALTIME    : 257.775
#PROBECUR    : 1.02627
#TAUWIND     : 0
#TDEADLYR    : 0
#TACTLYR     : 0.045
#TALWIND     : 0.025
#CHOFFSET    : 0.0
#XLABEL      : Energy (eV)
#YLABEL      : Counts
#XPOSITION   : 2.45647
#YPOSITION   : 2.26781
#ZPOSITION   : 31.03511
#EDSDET      : SD
##SPECIMEN   : SPI MM2 Quartz[4][all]
##D2STDCMP   : Quartz,(O:53.2565),(Si:46.7435),2.65
##DET_HASH   : 12273538-fd48-a23f-0a19-f1e6fa85caef
##CALIB_HASH : 6abaa72c-aa41-8738-0be9-f592914732f3
##WORKING    : 15.0 mm
##DET_NAME   : EDAX All
##DET_MODE   : MediumLE
#SPECTRUM    :
28,
36,
14,
13,
69,
269,
814,
2475,
7251,
9659,
5197,
2435,
2534,
3288,
6262,
24827,
102042,
200957,
145886,
37187,
4774,
1778,
1746,
1904,
2006,
2047,
2209,
2376,
2426,
2565,
2505,
2754,
2881,
3252,
3444,
3515,
3429,
3498,
3613,
3705,
3790,
3827,
4088,
4070,
4186,
4324,
4557,
4710,
5177,
5530,
5668,
6019,
6163,
6474,
9059,
30285,
129436,
340149,
465679,
328359,
129268,
40697,
16354,
6730,
2885,
2019,
1900,
2038,
1961,
2032,
2002,
2019,
2126,
2376,
2923,
3464,
3171,
2749,
2300,
2139,
2124,
2116,
2094,
2085,
2035,
2052,
2140,
2019,
1992,
1981,
2038,
2017,
2027,
2114,
1991,
2006,
2023,
2009,
2040,
2004,
1996,
1995,
2007,
1929,
1961,
1905,
1948,
1898,
1909,
1961,
1966,
1941,
1899,
2005,
2360,
2939,
3154,
2940,
2465,
2106,
1890,
1763,
1697,
1705,
1634,
1629,
1670,
1652,
1608,
1640,
1633,
1626,
1594,
1613,
1567,
1564,
1529,
1592,
1515,
1590,
1531,
1517,
1453,
1463,
1439,
1449,
1443,
1467,
1448,
1356,
1406,
1437,
1391,
1367,
1327,
1447,
1360,
1390,
1402,
1289,
1292,
1322,
1334,
1332,
1280,
1277,
1296,
1260,
1191,
1217,
1223,
1273,
1238,
1199,
1145,
1168,
1198,
1084,
1210,
1148,
1166,
1180,
1118,
1106,
1081,
1086,
1109,
1111,
1045,
1072,
1011,
1049,
999,
989,
1006,
991,
919,
1025,
964,
995,
985,
974,
935,
971,
916,
937,
907,
916,
899,
904,
900,
956,
938,
993,
960,
969,
948,
908,
848,
845,
815,
790,
843,
832,
783,
796,
825,
772,
793,
807,
821,
792,
756,
786,
763,
759,
771,
791,
768,
693,
690,
709,
717,
678,
717,
687,
733,
694,
725,
760,
691,
657,
661,
617,
619,
659,
635,
629,
608,
594,
667,
668,
580,
602,
660,
621,
615,
559,
561,
621,
613,
552,
576,
520,
546,
561,
537,
576,
550,
576,
542,
544,
575,
502,
533,
508,
520,
503,
533,
499,
507,
485,
452,
527,
461,
442,
497,
455,
516,
458,
477,
468,
489,
457,
464,
439,
432,
454,
444,
405,
423,
426,
423,
407,
439,
454,
361,
422,
419,
394,
415,
422,
381,
363,
369,
385,
367,
395,
383,
399,
333,
347,
324,
361,
325,
347,
376,
361,
367,
342,
348,
306,
349,
363,
348,
309,
323,
362,
306,
352,
311,
312,
313,
324,
306,
294,
306,
305,
313,
247,
304,
258,
307,
269,
320,
291,
276,
249,
291,
257,
267,
279,
294,
234,
232,
236,
284,
261,
245,
253,
248,
240,
230,
257,
235,
252,
267,
216,
240,
220,
224,
234,
200,
199,
189,
209,
216,
219,
218,
193,
207,
199,
201,
198,
194,
213,
177,
209,
192,
206,
190,
194,
174,
190,
166,
172,
178,
174,
170,
166,
159,
166,
154,
172,
172,
136,
183,
160,
131,
159,
132,
134,
164,
151,
158,
152,
135,
140,
143,
125,
139,
127,
130,
144,
120,
139,
127,
126,
113,
138,
121,
123,
116,
115,
116,
103,
122,
98,
116,
102,
116,
100,
112,
94,
103,
104,
83,
102,
106,
111,
90,
92,
109,
91,
90,
99,
99,
100,
92,
92,
74,
104,
86,
101,
73,
82,
87,
62,
82,
81,
60,
79,
69,
63,
55,
81,
75,
76,
58,
59,
64,
62,
57,
78,
82,
69,
68,
69,
65,
74,
64,
58,
52,
59,
66,
58,
62,
56,
56,
53,
58,
60,
40,
50,
45,
53,
44,
51,
40,
42,
45,
43,
44,
42,
48,
41,
39,
45,
45,
40,
44,
31,
38,
29,
43,
35,
35,
46,
39,
28,
32,
36,
27,
31,
29,
33,
32,
40,
23,
32,
28,
39,
33,
31,
24,
27,
34,
25,
33,
27,
21,
18,
27,
25,
14,
26,
18,
26,
21,
31,
18,
23,
20,
30,
18,
20,
22,
26,
18,
22,
22,
18,
11,
12,
12,
13,
14,
12,
8,
16,
18,
13,
13,
15,
12,
11,
14,
15,
14,
12,
10,
14,
9,
18,
12,
11,
7,
8,
10,
10,
11,
10,
9,
4,
7,
9,
5,
7,
5,
8,
7,
9,
6,
6,
8,
9,
8,
1,
4,
7,
11,
4,
2,
0,
5,
10,
1,
3,
6,
4,
1,
1,
4,
2,
4,
1,
1,
2,
1,
0,
0,
0,
0,
0,
0,
0,
1,
0,
0,
0,
0,
0,
1,
0,
0,
0,
0,
1,
1,
0,
0,
0,
0,
0,
1,
0,
0,
0,
0,
0,
0,
0,
0,
0,
0,
1,
0,
0,
0,
0,
0,
0,
1,
0,
0,
0,
0,
0,
0,
0,
0,
0,
1,
0,
1,
0,
1,
0,
0,
0,
0,
0,
0,
0,
0,
0,
0,
0,
0,
0,
0,
0,
0,
0,
0,
0,
0,
0,
0,
0,
0,
0,
0,
0,
0,
0,
0,
0,
0,
0,
0,
0,
0,
0,
0,
0,
0,
0,
0,
0,
0,
0,
0,
0,
0,
0,
0,
0,
0,
0,
0,
0,
0,
0,
0,
0,
0,
0,
0,
0,
0,
0,
0,
0,
0,
0,
0,
0,
0,
0,
0,
0,
0,
0,
0,
0,
0,
0,
0,
0,
0,
0,
0,
0,
0,
0,
0,
0,
0,
0,
0,
0,
0,
0,
0,
0,
0,
0,
0,
0,
0,
0,
0,
0,
0,
0,
0,
0,
0,
0,
0,
0,
0,
0,
0,
0,
0,
0,
0,
0,
0,
0,
0,
0,
0,
0,
0,
0,
0,
0,
0,
0,
0,
0,
0,
0,
0,
0,
0,
0,
0,
0,
0,
0,
0,
0,
0,
0,
0,
0,
0,
0,
0,
0,
0,
0,
0,
0,
0,
0,
0,
0,
0,
0,
0,
0,
0,
0,
0,
0,
0,
0,
0,
0,
0,
0,
0,
0,
0,
0,
0,
0,
0,
0,
0,
0,
0,
0,
0,
0,
0,
0,
0,
0,
0,
0,
0,
0,
0,
0,
0,
0,
0,
0,
0,
0,
0,
0,
0,
0,
0,
0,
0,
0,
0,
0,
0,
0,
0,
0,
0,
0,
0,
0,
0,
0,
0,
0,
0,
0,
0,
0,
0,
0,
0,
0,
0,
0,
0,
0,
0,
0,
0,
0,
0,
0,
0,
0,
0,
0,
0,
0,
0,
0,
0,
0,
0,
0,
0,
0,
0,
0,
0,
0,
0,
0,
0,
0,
0,
0,
0,
0,
0,
0,
0,
0,
0,
0,
0,
0,
0,
0,
0,
0,
0,
0,
0,
0,
0,
0,
0,
0,
0,
0,
0,
0,
0,
0,
0,
0,
0,
0,
0,
0,
0,
0,
0,
0,
0,
0,
0,
0,
0,
0,
0,
0,
0,
0,
0,
0,
0,
0,
0,
0,
0,
0,
0,
0,
0,
0,
0,
0,
0,
0,
0,
0,
0,
0,
0,
0,
0,
0,
0,
0,
0,
0,
0,
0,
0,
0,
0,
0,
0,
0,
0,
0,
0,
0,
0,
0,
0,
0,
0,
0,
0,
0,
0,
0,
0,
0,
0,
0,
0,
0,
0,
0,
0,
0,
0,
0,
0,
0,
0,
0,
0,
0,
0,
0,
0,
0,
0,
0,
0,
0,
0,
0,
0,
0,
0,
0,
0,
0,
0,
0,
0,
0,
0,
0,
0,
0,
0,
0,
0,
0,
0,
0,
0,
0,
0,
0,
0,
0,
0,
0,
0,
0,
0,
0,
0,
0,
0,
0,
0,
0,
0,
0,
0,
0,
0,
0,
0,
0,
0,
0,
0,
0,
0,
0,
0,
0,
0,
0,
0,
0,
0,
0,
0,
0,
0,
0,
0,
0,
0,
0,
0,
0,
0,
0,
0,
0,
0,
0,
0,
0,
0,
0,
0,
0,
0,
0,
0,
0,
0,
0,
0,
0,
0,
0,
0,
0,
0,
0,
0,
0,
0,
0,
0,
0,
0,
0,
0,
0,
0,
0,
0,
0,
0,
0,
0,
0,
0,
0,
0,
0,
0,
0,
0,
0,
0,
0,
0,
0,
0,
0,
0,
0,
0,
0,
0,
0,
0,
0,
0,
0,
0,
0,
0,
0,
0,
0,
0,
0,
0,
0,
0,
0,
0,
0,
0,
0,
0,
0,
0,
0,
0,
0,
0,
0,
0,
0,
0,
0,
0,
0,
0,
0,
0,
0,
0,
0,
0,
0,
0,
0,
0,
0,
0,
0,
0,
0,
0,
0,
0,
0,
0,
0,
0,
0,
0,
0,
0,
0,
0,
0,
0,
0,
0,
0,
0,
0,
0,
0,
0,
0,
0,
0,
0,
0,
0,
0,
0,
0,
0,
0,
0,
0,
0,
0,
0,
0,
0,
0,
0,
0,
0,
0,
0,
0,
0,
0,
0,
0,
0,
0,
0,
0,
0,
0,
0,
0,
0,
0,
0,
0,
0,
0,
#ENDOFDATA   :