File: N132962/Quantification/20 keV/MMM2/SPI MM2 Tugtupite[7][4].msa
#FORMAT      : EMSA/MAS Spectral Data File
#VERSION     : 1.0
#TITLE       : SPI MM2 Tugtupite[7][all]
#DATE        : 13-MAR-2025
#TIME        : 13:43
#OWNER       : Unknown
#NPOINTS     : 4096
#NCOLUMNS    : 1
#XUNITS      : eV
#YUNITS      : counts
#DATATYPE    : Y
#XPERCHAN    : 9.99778
#OFFSET      : 1.69135
#BEAMKV      : 20
#SIGNALTYPE  : EDS
#ELEVANGLE   : 35
#AZIMANGLE   : 0
#LIVETIME    : 239.816
#REALTIME    : 255.331
#PROBECUR    : 1.0264
#TAUWIND     : 0
#TDEADLYR    : 0
#TACTLYR     : 0.045
#TALWIND     : 0.025
#CHOFFSET    : 0.0
#XLABEL      : Energy (eV)
#YLABEL      : Counts
#XPOSITION   : -4.52801
#YPOSITION   : 3.59451
#ZPOSITION   : 31.03511
#EDSDET      : SD
##SPECIMEN   : SPI MM2 Tugtupite[7][all]
##DET_HASH   : 12273538-fd48-a23f-0a19-f1e6fa85caef
##CALIB_HASH : 6abaa72c-aa41-8738-0be9-f592914732f3
##WORKING    : 15.0 mm
##DET_NAME   : EDAX All
##DET_MODE   : MediumLE
#SPECTRUM    :
18,
25,
5,
14,
87,
365,
915,
2495,
7291,
9585,
4981,
2352,
2313,
2971,
5330,
18959,
76915,
152644,
111267,
29152,
4239,
1904,
1991,
2225,
2429,
2516,
2765,
3004,
3630,
4270,
4516,
5482,
12125,
45901,
112303,
124813,
60556,
14696,
4045,
2861,
2829,
3054,
3222,
3377,
3502,
3766,
4338,
8282,
22904,
44321,
44987,
25010,
10412,
5804,
5626,
14239,
55598,
143507,
195913,
138572,
55735,
18743,
8554,
4391,
2689,
2322,
2291,
2373,
2380,
2389,
2340,
2354,
2323,
2525,
2675,
2800,
2768,
2658,
2428,
2396,
2323,
2447,
2659,
3282,
5234,
11718,
26720,
41449,
40063,
24018,
10083,
4620,
4494,
5589,
6247,
4885,
3537,
2476,
2128,
2039,
1910,
1937,
1932,
2105,
2057,
2058,
2066,
1994,
2037,
2006,
1905,
1910,
1773,
1867,
1926,
1947,
1990,
1988,
1910,
1863,
1878,
1816,
1751,
1822,
1724,
1729,
1735,
1715,
1652,
1620,
1641,
1634,
1596,
1625,
1613,
1600,
1618,
1693,
1527,
1598,
1530,
1564,
1557,
1594,
1584,
1574,
1586,
1536,
1492,
1484,
1437,
1416,
1430,
1440,
1475,
1428,
1389,
1445,
1361,
1328,
1339,
1394,
1371,
1330,
1320,
1299,
1271,
1254,
1179,
1264,
1270,
1170,
1184,
1223,
1213,
1227,
1219,
1165,
1123,
1239,
1229,
1163,
1089,
1159,
1095,
1128,
1075,
1155,
1042,
1061,
1110,
1049,
1012,
1042,
1055,
1066,
1034,
997,
1019,
977,
989,
959,
966,
983,
981,
1007,
945,
921,
918,
915,
989,
1024,
1010,
1006,
1007,
943,
859,
847,
854,
799,
834,
874,
826,
800,
844,
869,
825,
849,
824,
813,
838,
785,
750,
798,
774,
784,
777,
745,
730,
755,
750,
701,
755,
749,
712,
723,
730,
721,
720,
718,
743,
742,
689,
631,
701,
653,
604,
663,
655,
630,
619,
656,
601,
587,
615,
586,
612,
604,
612,
609,
559,
571,
571,
549,
548,
600,
534,
582,
573,
574,
560,
539,
557,
543,
547,
555,
502,
551,
479,
503,
464,
509,
488,
527,
503,
526,
482,
504,
495,
464,
479,
480,
446,
430,
465,
446,
470,
460,
461,
474,
453,
456,
417,
367,
448,
458,
453,
381,
415,
409,
408,
416,
419,
397,
399,
362,
396,
366,
393,
405,
383,
320,
361,
355,
382,
352,
376,
387,
317,
358,
364,
364,
372,
360,
355,
326,
326,
354,
290,
311,
339,
297,
292,
347,
331,
307,
298,
291,
285,
313,
289,
283,
305,
292,
293,
318,
279,
313,
273,
265,
256,
292,
280,
266,
260,
275,
287,
267,
247,
279,
225,
247,
257,
232,
253,
244,
245,
229,
222,
228,
232,
203,
239,
215,
203,
225,
155,
214,
212,
204,
220,
201,
203,
214,
211,
202,
209,
215,
210,
187,
187,
198,
182,
189,
192,
198,
183,
175,
177,
172,
209,
164,
141,
167,
182,
153,
173,
145,
148,
146,
151,
145,
151,
145,
141,
136,
163,
131,
152,
133,
151,
138,
118,
144,
137,
134,
128,
113,
116,
109,
121,
145,
129,
118,
116,
137,
102,
123,
117,
124,
111,
91,
109,
123,
126,
116,
101,
108,
115,
90,
114,
111,
99,
101,
86,
91,
91,
89,
93,
89,
86,
88,
100,
92,
94,
67,
85,
83,
82,
85,
84,
70,
78,
68,
74,
71,
78,
69,
80,
59,
62,
65,
55,
89,
63,
59,
73,
78,
62,
64,
72,
54,
66,
64,
72,
53,
73,
46,
57,
58,
50,
45,
53,
52,
52,
46,
42,
55,
54,
53,
36,
50,
41,
38,
54,
36,
44,
49,
39,
37,
43,
49,
45,
44,
37,
31,
39,
33,
45,
33,
34,
41,
28,
35,
36,
42,
26,
24,
32,
25,
28,
35,
32,
32,
25,
28,
22,
23,
22,
32,
27,
28,
19,
33,
19,
28,
30,
20,
17,
28,
23,
20,
23,
16,
19,
20,
22,
15,
17,
21,
9,
25,
22,
18,
27,
17,
23,
14,
14,
8,
8,
18,
7,
11,
12,
10,
21,
16,
7,
12,
9,
9,
16,
6,
9,
12,
9,
5,
2,
8,
8,
11,
6,
7,
10,
8,
8,
7,
6,
9,
5,
5,
2,
4,
7,
3,
6,
6,
3,
4,
3,
2,
4,
5,
3,
4,
2,
5,
7,
0,
1,
2,
3,
1,
2,
1,
0,
0,
0,
2,
0,
1,
1,
0,
0,
0,
0,
0,
1,
0,
0,
0,
0,
0,
0,
0,
0,
0,
0,
0,
0,
0,
1,
0,
0,
0,
0,
0,
0,
0,
1,
1,
0,
0,
0,
0,
0,
0,
0,
0,
0,
0,
0,
0,
0,
0,
0,
0,
1,
0,
0,
0,
0,
0,
0,
0,
0,
0,
0,
0,
0,
0,
0,
0,
0,
0,
0,
0,
0,
0,
0,
0,
0,
0,
0,
0,
0,
0,
0,
0,
0,
0,
0,
0,
0,
0,
0,
0,
0,
0,
0,
0,
0,
1,
0,
0,
0,
0,
0,
0,
0,
0,
0,
0,
0,
0,
0,
0,
0,
0,
0,
0,
0,
0,
0,
0,
0,
0,
0,
0,
0,
0,
0,
0,
0,
1,
0,
0,
0,
0,
0,
0,
0,
0,
0,
0,
0,
0,
0,
0,
0,
0,
0,
0,
0,
0,
0,
0,
0,
0,
0,
0,
0,
0,
0,
0,
0,
0,
0,
0,
0,
0,
0,
0,
0,
0,
0,
0,
0,
0,
0,
0,
0,
0,
0,
0,
0,
0,
0,
0,
0,
0,
0,
0,
0,
0,
0,
0,
0,
0,
0,
0,
0,
0,
0,
0,
0,
0,
0,
0,
0,
0,
0,
0,
0,
0,
0,
0,
0,
0,
0,
0,
0,
0,
0,
0,
0,
0,
0,
0,
0,
0,
0,
0,
0,
0,
0,
0,
0,
0,
0,
0,
0,
0,
0,
0,
0,
0,
0,
0,
0,
0,
0,
0,
0,
0,
0,
0,
0,
0,
0,
0,
0,
0,
0,
0,
0,
0,
0,
0,
0,
0,
0,
0,
0,
0,
0,
0,
0,
0,
0,
0,
0,
0,
0,
0,
0,
0,
0,
1,
0,
0,
0,
0,
0,
0,
0,
0,
0,
0,
0,
0,
0,
0,
0,
0,
0,
0,
0,
0,
0,
0,
0,
0,
0,
0,
0,
0,
0,
0,
0,
0,
0,
0,
0,
0,
0,
0,
0,
0,
0,
0,
0,
0,
0,
0,
0,
0,
0,
0,
0,
0,
0,
0,
0,
0,
0,
0,
0,
0,
0,
0,
0,
0,
0,
0,
0,
0,
0,
0,
0,
0,
0,
0,
0,
0,
0,
0,
0,
0,
0,
0,
0,
0,
0,
0,
0,
0,
0,
0,
0,
0,
0,
0,
0,
0,
0,
0,
0,
0,
0,
0,
0,
0,
0,
0,
0,
0,
0,
0,
0,
0,
0,
0,
0,
0,
0,
0,
0,
0,
0,
1,
0,
0,
0,
0,
0,
0,
0,
0,
0,
0,
0,
0,
0,
0,
0,
0,
0,
0,
0,
0,
0,
0,
0,
0,
0,
0,
0,
0,
0,
0,
0,
0,
0,
0,
0,
0,
0,
0,
0,
0,
0,
0,
0,
0,
0,
0,
0,
0,
0,
0,
0,
0,
0,
0,
0,
0,
0,
0,
0,
0,
0,
0,
0,
0,
0,
0,
0,
0,
0,
0,
0,
0,
0,
0,
0,
0,
0,
0,
0,
0,
0,
0,
0,
0,
0,
0,
0,
0,
0,
0,
0,
0,
0,
0,
0,
0,
0,
0,
0,
0,
0,
0,
0,
0,
0,
0,
0,
0,
0,
0,
0,
0,
0,
0,
0,
0,
0,
0,
0,
0,
0,
0,
0,
0,
0,
0,
0,
0,
0,
0,
0,
0,
0,
0,
0,
0,
0,
0,
0,
0,
0,
0,
0,
0,
0,
0,
0,
0,
0,
0,
0,
0,
0,
0,
0,
0,
0,
0,
0,
0,
0,
0,
0,
0,
0,
0,
0,
0,
0,
0,
0,
0,
0,
0,
0,
0,
0,
0,
0,
0,
0,
0,
0,
0,
0,
0,
0,
0,
0,
0,
0,
0,
0,
0,
0,
0,
0,
0,
0,
0,
0,
0,
0,
0,
0,
0,
0,
0,
0,
0,
0,
0,
0,
0,
0,
0,
0,
0,
0,
0,
0,
0,
0,
0,
0,
0,
0,
0,
0,
0,
0,
0,
0,
0,
0,
0,
0,
0,
0,
0,
0,
0,
0,
0,
0,
0,
0,
0,
0,
0,
0,
0,
0,
0,
0,
0,
0,
0,
0,
0,
0,
0,
0,
0,
0,
0,
0,
0,
0,
0,
0,
0,
0,
0,
0,
0,
0,
0,
0,
0,
0,
0,
0,
0,
0,
0,
0,
0,
0,
0,
0,
0,
0,
0,
0,
0,
0,
0,
0,
0,
0,
0,
0,
0,
#ENDOFDATA   :