File: N132962/Quantification/20 keV/MMM2/SPI MM2 MgAl2O4[7][4].msa
#FORMAT      : EMSA/MAS Spectral Data File
#VERSION     : 1.0
#TITLE       : SPI MM2 MgAl2O4[7][all]
#DATE        : 13-MAR-2025
#TIME        : 09:35
#OWNER       : Unknown
#NPOINTS     : 4096
#NCOLUMNS    : 1
#XUNITS      : eV
#YUNITS      : counts
#DATATYPE    : Y
#XPERCHAN    : 9.99778
#OFFSET      : 1.69135
#BEAMKV      : 20
#SIGNALTYPE  : EDS
#ELEVANGLE   : 35
#AZIMANGLE   : 0
#LIVETIME    : 239.798
#REALTIME    : 256.361
#PROBECUR    : 1.02582
#TAUWIND     : 0
#TDEADLYR    : 0
#TACTLYR     : 0.045
#TALWIND     : 0.025
#CHOFFSET    : 0.0
#XLABEL      : Energy (eV)
#YLABEL      : Counts
#XPOSITION   : 0.79171
#YPOSITION   : -5.34418
#ZPOSITION   : 31.03509
#EDSDET      : SD
##SPECIMEN   : SPI MM2 MgAl2O4[7][all]
##D2STDCMP   : MgAl2O4,(O:44.9839),(Mg:17.0844),(Al:37.9316)
##DET_HASH   : 12273538-fd48-a23f-0a19-f1e6fa85caef
##CALIB_HASH : 6abaa72c-aa41-8738-0be9-f592914732f3
##WORKING    : 15.0 mm
##DET_NAME   : EDAX All
##DET_MODE   : MediumLE
#SPECTRUM    :
24,
38,
6,
16,
75,
273,
870,
2505,
7059,
9408,
5001,
2518,
2565,
3487,
6677,
25930,
105583,
207509,
152851,
40166,
5108,
1828,
1905,
2055,
2163,
2297,
2419,
2623,
2804,
2914,
3105,
3254,
3400,
3823,
4240,
4639,
4707,
5135,
6578,
14228,
51797,
127354,
152628,
87277,
26724,
8447,
8976,
32742,
122944,
253825,
258383,
131676,
38374,
9904,
3541,
2241,
2092,
2390,
2610,
2693,
2593,
2423,
2158,
2025,
2095,
2298,
2611,
2838,
2635,
2338,
2148,
2104,
2130,
2078,
2144,
2117,
2098,
2184,
2272,
2179,
2184,
2133,
2262,
2316,
2253,
2223,
2189,
2105,
2182,
2252,
2424,
2684,
2627,
2411,
2284,
2217,
2131,
2152,
2454,
2627,
2499,
2237,
2177,
2010,
2002,
1920,
1911,
1887,
1864,
1848,
1908,
1974,
1889,
1791,
1892,
1840,
1742,
1758,
1853,
1735,
1743,
1763,
1760,
1766,
1755,
1744,
1667,
1639,
1646,
1679,
1673,
1640,
1566,
1569,
1584,
1566,
1646,
1531,
1559,
1534,
1508,
1492,
1510,
1465,
1478,
1488,
1472,
1457,
1457,
1440,
1363,
1474,
1392,
1445,
1372,
1302,
1392,
1281,
1284,
1359,
1295,
1234,
1259,
1306,
1263,
1249,
1232,
1236,
1273,
1237,
1206,
1275,
1184,
1180,
1172,
1172,
1148,
1190,
1154,
1146,
1187,
1098,
1156,
1127,
1088,
1054,
1037,
1010,
1047,
1082,
1042,
1021,
1064,
987,
981,
1075,
1048,
1042,
958,
964,
982,
1022,
939,
924,
899,
951,
977,
947,
914,
881,
954,
891,
917,
972,
962,
960,
879,
813,
840,
848,
851,
768,
814,
808,
781,
798,
783,
797,
772,
761,
788,
780,
730,
741,
807,
732,
773,
720,
726,
714,
729,
727,
763,
651,
704,
738,
676,
710,
749,
680,
708,
683,
697,
675,
657,
679,
621,
621,
619,
576,
584,
613,
558,
608,
630,
639,
602,
594,
541,
599,
585,
599,
511,
580,
598,
610,
522,
527,
561,
523,
553,
528,
559,
487,
474,
525,
481,
514,
463,
446,
495,
472,
527,
492,
454,
461,
473,
472,
492,
473,
468,
491,
448,
460,
459,
394,
435,
461,
419,
472,
439,
405,
442,
414,
420,
433,
404,
397,
408,
388,
406,
377,
384,
396,
392,
370,
347,
395,
335,
338,
355,
409,
322,
344,
351,
341,
369,
320,
361,
338,
331,
335,
345,
318,
305,
328,
308,
298,
301,
320,
318,
310,
346,
295,
302,
306,
286,
291,
260,
299,
292,
312,
287,
274,
268,
262,
295,
232,
268,
274,
266,
261,
262,
259,
266,
220,
293,
273,
248,
258,
220,
234,
244,
231,
225,
213,
199,
195,
204,
219,
213,
176,
216,
216,
203,
204,
226,
196,
196,
193,
221,
180,
196,
191,
194,
184,
192,
183,
179,
165,
195,
169,
177,
184,
158,
177,
160,
168,
148,
145,
201,
192,
164,
156,
160,
157,
164,
156,
137,
157,
153,
155,
141,
130,
139,
133,
131,
124,
140,
131,
140,
139,
134,
113,
123,
114,
142,
111,
130,
118,
131,
117,
116,
110,
96,
109,
106,
115,
103,
100,
90,
106,
111,
99,
96,
113,
84,
102,
84,
74,
112,
86,
84,
97,
79,
98,
88,
92,
66,
81,
86,
85,
98,
101,
83,
75,
69,
71,
87,
78,
80,
69,
71,
70,
76,
85,
72,
60,
80,
68,
72,
57,
61,
73,
62,
64,
70,
73,
65,
72,
67,
64,
72,
59,
62,
48,
56,
50,
56,
47,
58,
50,
52,
34,
53,
42,
55,
44,
41,
53,
39,
45,
45,
41,
38,
37,
45,
39,
36,
36,
41,
27,
41,
31,
25,
38,
29,
38,
23,
34,
37,
34,
18,
25,
36,
32,
24,
29,
42,
35,
35,
28,
41,
21,
18,
28,
25,
31,
25,
31,
22,
25,
21,
21,
22,
25,
11,
32,
19,
15,
19,
20,
18,
26,
29,
16,
14,
24,
20,
19,
18,
19,
12,
11,
13,
17,
18,
12,
10,
9,
13,
14,
11,
17,
5,
10,
14,
9,
5,
9,
9,
8,
10,
6,
8,
5,
11,
10,
7,
13,
12,
6,
9,
9,
12,
4,
11,
6,
8,
6,
4,
5,
6,
4,
6,
4,
4,
4,
4,
4,
3,
4,
7,
4,
5,
3,
5,
3,
3,
0,
4,
2,
2,
4,
5,
2,
2,
4,
2,
1,
1,
1,
0,
1,
1,
0,
1,
1,
0,
0,
0,
0,
0,
0,
0,
0,
0,
0,
0,
1,
0,
0,
0,
0,
0,
0,
0,
1,
0,
0,
1,
0,
0,
2,
0,
0,
0,
0,
0,
0,
0,
0,
0,
0,
0,
0,
0,
0,
0,
0,
0,
0,
0,
0,
0,
0,
0,
0,
0,
0,
0,
0,
0,
0,
0,
0,
0,
0,
0,
0,
0,
0,
0,
0,
0,
0,
0,
0,
0,
0,
0,
0,
0,
0,
0,
0,
0,
0,
0,
0,
0,
0,
0,
0,
0,
0,
0,
0,
0,
0,
0,
0,
0,
0,
0,
0,
0,
0,
0,
0,
0,
0,
0,
0,
0,
0,
0,
0,
0,
0,
0,
0,
0,
0,
0,
0,
0,
0,
0,
0,
0,
0,
0,
0,
0,
0,
0,
0,
0,
0,
0,
0,
0,
0,
0,
0,
0,
0,
0,
0,
0,
0,
0,
0,
0,
0,
0,
0,
0,
0,
0,
0,
0,
0,
0,
0,
0,
0,
0,
0,
0,
0,
0,
0,
0,
0,
0,
0,
0,
0,
0,
0,
0,
0,
0,
0,
0,
0,
0,
0,
0,
0,
0,
0,
0,
0,
0,
0,
0,
0,
0,
0,
0,
0,
0,
0,
0,
0,
0,
0,
0,
0,
0,
0,
0,
0,
0,
0,
0,
0,
0,
0,
0,
0,
0,
0,
0,
0,
0,
0,
0,
0,
0,
0,
0,
0,
0,
0,
0,
0,
0,
0,
0,
0,
0,
0,
0,
0,
0,
0,
0,
0,
0,
0,
0,
0,
0,
0,
0,
0,
0,
0,
0,
0,
0,
0,
0,
0,
0,
0,
0,
0,
0,
0,
0,
0,
0,
0,
0,
0,
0,
0,
0,
0,
0,
0,
0,
0,
0,
0,
0,
0,
0,
0,
0,
0,
0,
0,
0,
0,
0,
0,
0,
0,
0,
0,
0,
0,
0,
0,
0,
0,
0,
0,
0,
0,
0,
0,
0,
0,
0,
0,
0,
0,
0,
0,
0,
0,
0,
0,
0,
0,
0,
0,
0,
0,
0,
0,
0,
0,
0,
0,
0,
0,
0,
0,
0,
0,
0,
0,
0,
0,
0,
0,
0,
0,
0,
0,
0,
0,
0,
0,
0,
0,
0,
0,
0,
0,
0,
0,
0,
0,
0,
0,
0,
0,
0,
0,
0,
0,
0,
0,
0,
0,
0,
0,
0,
0,
0,
0,
0,
0,
0,
0,
0,
0,
0,
0,
0,
0,
0,
0,
0,
0,
0,
0,
0,
0,
0,
0,
0,
0,
0,
0,
0,
0,
0,
0,
0,
0,
0,
0,
0,
0,
0,
0,
0,
0,
0,
0,
0,
0,
0,
0,
0,
0,
0,
0,
0,
0,
0,
0,
0,
0,
0,
0,
0,
0,
0,
0,
0,
0,
0,
0,
0,
0,
0,
0,
0,
0,
0,
0,
0,
0,
0,
0,
0,
0,
0,
0,
0,
0,
0,
0,
0,
0,
0,
0,
0,
0,
0,
0,
0,
0,
0,
0,
0,
0,
0,
0,
0,
0,
0,
0,
0,
0,
0,
0,
0,
0,
0,
0,
0,
0,
0,
0,
0,
0,
0,
0,
0,
0,
0,
0,
0,
0,
0,
0,
0,
0,
0,
0,
0,
0,
0,
0,
0,
0,
0,
0,
0,
0,
0,
0,
0,
0,
0,
0,
0,
0,
0,
0,
0,
0,
0,
0,
0,
0,
0,
0,
0,
0,
0,
0,
0,
0,
0,
0,
0,
0,
0,
0,
0,
0,
0,
0,
0,
0,
0,
0,
0,
0,
0,
0,
0,
0,
0,
0,
0,
0,
0,
0,
0,
0,
0,
0,
0,
0,
0,
0,
0,
0,
0,
0,
0,
0,
0,
0,
0,
0,
0,
0,
0,
0,
0,
0,
0,
0,
0,
0,
0,
0,
0,
0,
0,
0,
0,
0,
0,
0,
0,
0,
0,
0,
0,
0,
0,
0,
0,
0,
0,
0,
0,
0,
0,
0,
0,
0,
0,
0,
0,
0,
0,
0,
0,
0,
0,
0,
0,
0,
0,
0,
0,
0,
0,
0,
0,
0,
0,
0,
0,
0,
0,
0,
0,
0,
0,
0,
0,
0,
0,
0,
0,
0,
0,
0,
0,
0,
0,
0,
0,
0,
0,
0,
0,
0,
0,
0,
0,
0,
0,
0,
0,
0,
0,
0,
0,
0,
0,
0,
0,
0,
0,
0,
0,
0,
#ENDOFDATA   :