File: N132962/Quantification/20 keV/MMM2/SPI MM2 Tugtupite[0][4].msa
#FORMAT      : EMSA/MAS Spectral Data File
#VERSION     : 1.0
#TITLE       : SPI MM2 Tugtupite[0][all]
#DATE        : 13-MAR-2025
#TIME        : 13:35
#OWNER       : Unknown
#NPOINTS     : 4096
#NCOLUMNS    : 1
#XUNITS      : eV
#YUNITS      : counts
#DATATYPE    : Y
#XPERCHAN    : 9.99778
#OFFSET      : 1.69135
#BEAMKV      : 20
#SIGNALTYPE  : EDS
#ELEVANGLE   : 35
#AZIMANGLE   : 0
#LIVETIME    : 239.833
#REALTIME    : 255.347
#PROBECUR    : 1.0263
#TAUWIND     : 0
#TDEADLYR    : 0
#TACTLYR     : 0.045
#TALWIND     : 0.025
#CHOFFSET    : 0.0
#XLABEL      : Energy (eV)
#YLABEL      : Counts
#XPOSITION   : -4.47319
#YPOSITION   : 3.53563
#ZPOSITION   : 31.03511
#EDSDET      : SD
##SPECIMEN   : SPI MM2 Tugtupite[0][all]
##DET_HASH   : 12273538-fd48-a23f-0a19-f1e6fa85caef
##CALIB_HASH : 6abaa72c-aa41-8738-0be9-f592914732f3
##WORKING    : 15.0 mm
##DET_NAME   : EDAX All
##DET_MODE   : MediumLE
#SPECTRUM    :
23,
24,
4,
15,
88,
365,
928,
2593,
7280,
9544,
5140,
2347,
2329,
3002,
5269,
19367,
77306,
152156,
111411,
29514,
4149,
1947,
2034,
2242,
2394,
2562,
2670,
3027,
3737,
4233,
4536,
5325,
12513,
45989,
112042,
124914,
60376,
14669,
3950,
2914,
2938,
3114,
3141,
3381,
3480,
3690,
4443,
8454,
23242,
44773,
45282,
24966,
10272,
5595,
5585,
14349,
55665,
143849,
195968,
137800,
54949,
18782,
8485,
4483,
2708,
2380,
2333,
2386,
2353,
2368,
2349,
2359,
2332,
2396,
2568,
2748,
2712,
2559,
2505,
2326,
2446,
2451,
2674,
3366,
5217,
11866,
25996,
41329,
39786,
24261,
9934,
4572,
4375,
5586,
6171,
5037,
3516,
2421,
2119,
1968,
1950,
1994,
1918,
2014,
2003,
2116,
2037,
2094,
2056,
2023,
2041,
1890,
1936,
1906,
1975,
2000,
2067,
2044,
1855,
1867,
1867,
1815,
1843,
1762,
1766,
1728,
1670,
1682,
1695,
1686,
1662,
1546,
1639,
1498,
1637,
1635,
1652,
1566,
1574,
1523,
1557,
1496,
1529,
1537,
1520,
1574,
1594,
1575,
1542,
1455,
1473,
1425,
1362,
1494,
1436,
1326,
1388,
1377,
1399,
1357,
1334,
1388,
1306,
1306,
1292,
1292,
1283,
1232,
1232,
1264,
1248,
1185,
1290,
1240,
1228,
1186,
1161,
1197,
1146,
1158,
1183,
1127,
1155,
1152,
1081,
1117,
1115,
1123,
1072,
1069,
1113,
1043,
1103,
1036,
1074,
1032,
1038,
1006,
925,
1028,
991,
999,
958,
928,
979,
971,
1016,
989,
952,
952,
944,
1001,
1003,
1007,
1040,
904,
972,
907,
877,
888,
820,
801,
847,
866,
820,
786,
824,
819,
828,
770,
794,
811,
820,
758,
729,
804,
776,
751,
747,
726,
722,
728,
721,
734,
668,
707,
751,
685,
720,
709,
751,
674,
678,
698,
701,
660,
647,
637,
723,
695,
634,
632,
595,
618,
630,
640,
596,
601,
585,
635,
596,
603,
562,
631,
597,
559,
545,
552,
576,
535,
539,
559,
512,
537,
514,
518,
491,
496,
475,
522,
515,
495,
512,
497,
498,
540,
476,
475,
479,
452,
473,
470,
488,
473,
451,
455,
435,
493,
446,
458,
391,
452,
419,
398,
395,
433,
435,
394,
396,
431,
393,
386,
390,
409,
374,
366,
387,
420,
384,
356,
369,
350,
392,
388,
338,
319,
365,
351,
334,
351,
356,
367,
352,
350,
340,
370,
339,
323,
331,
338,
329,
294,
347,
268,
322,
324,
287,
310,
312,
312,
281,
265,
291,
280,
310,
287,
289,
273,
290,
279,
284,
264,
253,
265,
258,
282,
260,
237,
240,
260,
251,
239,
268,
249,
232,
258,
212,
226,
240,
228,
212,
250,
233,
227,
234,
200,
232,
197,
206,
211,
213,
226,
207,
191,
214,
210,
190,
209,
192,
186,
201,
208,
202,
203,
202,
198,
172,
186,
178,
178,
187,
194,
168,
146,
166,
190,
136,
168,
165,
163,
152,
153,
147,
133,
139,
131,
146,
140,
125,
149,
158,
125,
123,
137,
147,
134,
130,
124,
130,
127,
114,
123,
131,
115,
116,
120,
133,
123,
105,
121,
110,
97,
105,
111,
107,
103,
84,
116,
107,
99,
112,
97,
84,
95,
95,
101,
71,
108,
87,
100,
85,
92,
78,
92,
99,
104,
100,
101,
82,
89,
80,
70,
69,
89,
83,
77,
84,
69,
67,
76,
69,
68,
65,
64,
76,
82,
58,
76,
66,
62,
53,
54,
59,
61,
63,
52,
63,
50,
57,
62,
59,
49,
50,
52,
58,
43,
41,
50,
61,
41,
36,
54,
39,
50,
37,
45,
46,
41,
49,
45,
46,
39,
41,
43,
26,
43,
30,
31,
35,
26,
37,
37,
33,
29,
30,
36,
32,
27,
33,
33,
38,
28,
20,
29,
24,
24,
32,
22,
25,
26,
29,
23,
22,
27,
20,
23,
23,
15,
31,
20,
17,
27,
21,
25,
18,
20,
19,
22,
25,
20,
21,
15,
17,
14,
15,
20,
16,
19,
19,
18,
17,
20,
17,
14,
15,
11,
16,
15,
11,
11,
12,
12,
14,
12,
13,
6,
5,
10,
6,
11,
10,
10,
12,
6,
8,
3,
9,
12,
9,
9,
10,
8,
6,
4,
4,
7,
2,
4,
6,
5,
6,
4,
4,
7,
4,
5,
1,
4,
6,
5,
4,
5,
2,
3,
1,
3,
0,
2,
0,
0,
1,
0,
0,
0,
0,
0,
0,
0,
0,
1,
0,
1,
0,
0,
0,
0,
0,
1,
0,
0,
1,
0,
0,
0,
0,
0,
0,
0,
0,
0,
0,
0,
0,
0,
0,
0,
0,
0,
0,
0,
0,
0,
0,
0,
0,
0,
0,
0,
0,
0,
0,
0,
0,
0,
0,
0,
0,
0,
0,
0,
0,
0,
0,
0,
1,
0,
0,
0,
0,
0,
0,
0,
0,
0,
0,
0,
0,
0,
0,
0,
0,
0,
0,
0,
0,
0,
0,
0,
0,
0,
0,
0,
0,
0,
0,
0,
0,
0,
0,
0,
0,
0,
0,
0,
0,
0,
0,
0,
0,
0,
0,
0,
0,
1,
0,
0,
0,
1,
0,
0,
0,
0,
0,
0,
0,
0,
0,
0,
0,
0,
0,
0,
0,
0,
0,
0,
0,
0,
0,
0,
0,
0,
0,
0,
0,
0,
0,
0,
0,
0,
0,
0,
0,
0,
0,
0,
0,
0,
0,
0,
0,
0,
0,
0,
0,
0,
0,
0,
0,
0,
0,
0,
0,
0,
0,
1,
0,
0,
0,
0,
0,
1,
0,
0,
0,
0,
0,
0,
0,
0,
0,
0,
0,
0,
0,
0,
0,
0,
0,
0,
0,
0,
0,
0,
0,
0,
0,
0,
0,
0,
0,
0,
0,
0,
0,
0,
0,
0,
0,
0,
0,
0,
0,
0,
0,
0,
0,
0,
0,
0,
0,
0,
0,
0,
0,
0,
0,
0,
0,
0,
0,
0,
0,
0,
0,
0,
0,
0,
0,
0,
0,
0,
0,
0,
0,
0,
0,
0,
0,
0,
0,
0,
0,
0,
0,
0,
0,
0,
0,
0,
0,
0,
0,
0,
0,
0,
0,
0,
0,
0,
0,
0,
0,
0,
0,
0,
0,
0,
0,
0,
0,
0,
0,
0,
0,
0,
0,
0,
0,
0,
0,
0,
0,
0,
0,
0,
0,
0,
0,
0,
0,
0,
0,
0,
0,
0,
0,
0,
0,
0,
0,
0,
0,
0,
0,
0,
0,
0,
0,
0,
0,
0,
0,
0,
0,
0,
0,
0,
0,
0,
0,
0,
0,
0,
0,
0,
0,
0,
0,
0,
0,
0,
0,
0,
0,
0,
0,
0,
0,
0,
0,
0,
0,
0,
0,
0,
0,
0,
0,
0,
0,
0,
0,
0,
0,
0,
0,
0,
0,
0,
0,
0,
0,
0,
0,
0,
0,
0,
0,
0,
0,
0,
0,
0,
0,
0,
0,
0,
0,
0,
0,
0,
0,
0,
0,
0,
0,
0,
0,
0,
0,
0,
0,
0,
0,
0,
0,
0,
0,
0,
0,
0,
0,
0,
0,
0,
0,
0,
0,
0,
0,
0,
0,
0,
0,
0,
0,
0,
0,
0,
0,
0,
0,
0,
0,
0,
0,
0,
0,
0,
0,
0,
0,
0,
0,
0,
0,
0,
0,
0,
0,
0,
0,
0,
0,
0,
0,
0,
0,
0,
0,
0,
0,
0,
0,
0,
0,
0,
0,
0,
0,
0,
0,
0,
0,
0,
0,
0,
0,
0,
0,
0,
0,
0,
0,
0,
0,
0,
0,
0,
0,
0,
0,
0,
0,
0,
0,
0,
0,
0,
0,
0,
0,
0,
0,
0,
0,
0,
0,
0,
0,
0,
0,
0,
0,
0,
0,
0,
0,
0,
0,
0,
0,
0,
0,
0,
0,
0,
0,
0,
0,
0,
0,
0,
0,
0,
0,
0,
0,
0,
0,
0,
0,
0,
0,
0,
0,
0,
0,
0,
0,
0,
0,
0,
0,
0,
0,
0,
0,
0,
0,
0,
0,
0,
0,
0,
0,
0,
0,
0,
0,
0,
0,
0,
0,
0,
0,
0,
0,
0,
0,
0,
0,
0,
0,
0,
0,
0,
0,
0,
0,
0,
0,
0,
0,
0,
0,
0,
0,
0,
0,
0,
0,
0,
0,
0,
0,
0,
0,
0,
0,
0,
0,
0,
0,
0,
0,
0,
0,
0,
0,
0,
0,
0,
0,
0,
0,
0,
0,
0,
0,
0,
0,
0,
0,
0,
0,
0,
0,
0,
0,
0,
0,
0,
0,
0,
0,
0,
0,
0,
0,
0,
0,
0,
0,
0,
0,
0,
0,
0,
0,
0,
0,
0,
0,
0,
0,
0,
0,
0,
0,
0,
0,
0,
0,
0,
0,
0,
0,
0,
0,
0,
0,
0,
0,
0,
0,
0,
0,
0,
0,
0,
0,
0,
0,
0,
#ENDOFDATA   :