File: N132962/Quantification/20 keV/MMM2/SPI MM2 SPI Molybdenite[0][4].msa
#FORMAT      : EMSA/MAS Spectral Data File
#VERSION     : 1.0
#TITLE       : SPI MM2 SPI Molybdenite[0][all]
#DATE        : 13-MAR-2025
#TIME        : 10:13
#OWNER       : Unknown
#NPOINTS     : 4096
#NCOLUMNS    : 1
#XUNITS      : eV
#YUNITS      : counts
#DATATYPE    : Y
#XPERCHAN    : 9.99778
#OFFSET      : 1.69135
#BEAMKV      : 20
#SIGNALTYPE  : EDS
#ELEVANGLE   : 35
#AZIMANGLE   : 0
#LIVETIME    : 239.68
#REALTIME    : 266.2858
#PROBECUR    : 1.02627
#TAUWIND     : 0
#TDEADLYR    : 0
#TACTLYR     : 0.045
#TALWIND     : 0.025
#CHOFFSET    : 0.0
#XLABEL      : Energy (eV)
#YLABEL      : Counts
#XPOSITION   : 5.96642
#YPOSITION   : -2.74698
#ZPOSITION   : 31.03509
#EDSDET      : SD
##SPECIMEN   : SPI MM2 SPI Molybdenite[0][all]
##D2STDCMP   : SPI Molybdenite,(S:39.84),(Mo:59.29),5.0
##DET_HASH   : 12273538-fd48-a23f-0a19-f1e6fa85caef
##CALIB_HASH : 6abaa72c-aa41-8738-0be9-f592914732f3
##WORKING    : 15.0 mm
##DET_NAME   : EDAX All
##DET_MODE   : MediumLE
#SPECTRUM    :
18,
29,
17,
182,
1262,
3176,
4308,
5875,
13106,
16576,
8063,
2842,
2282,
2499,
2578,
3059,
4438,
8024,
13576,
13540,
8089,
5594,
5757,
5784,
5682,
5183,
5260,
5428,
5834,
6092,
6107,
6076,
6430,
6612,
6880,
7019,
7319,
7461,
7558,
7762,
7978,
7864,
8186,
8199,
8299,
8587,
8570,
8667,
8977,
9211,
9335,
9251,
9155,
9007,
9230,
9012,
9459,
10067,
10427,
10447,
9877,
9330,
8740,
8752,
9179,
10963,
14278,
16887,
16269,
13767,
12924,
14124,
18627,
34822,
93666,
248295,
464372,
534102,
381471,
208429,
129035,
92417,
65981,
43359,
24586,
12738,
7492,
5757,
4908,
4055,
3471,
3211,
3392,
3955,
4462,
4441,
3864,
3323,
3180,
3193,
3147,
3117,
3244,
3182,
3234,
3200,
3214,
3213,
3227,
3207,
3259,
3284,
3241,
3359,
3313,
3340,
3277,
3403,
3317,
3399,
3368,
3352,
3385,
3368,
3391,
3362,
3441,
3239,
3290,
3407,
3365,
3485,
3290,
3340,
3359,
3397,
3419,
3180,
3330,
3247,
3401,
3367,
3337,
3380,
3363,
3383,
3231,
3191,
3225,
3436,
3584,
3849,
4426,
4617,
4851,
4623,
4188,
3969,
3827,
3587,
3449,
3321,
3174,
3019,
3065,
3115,
2991,
3084,
2915,
2956,
2930,
2920,
3017,
2909,
2780,
2891,
2902,
2914,
2870,
2864,
2769,
2886,
2795,
2737,
2782,
2731,
2697,
2751,
2625,
2634,
2690,
2696,
2583,
2684,
2642,
2638,
2638,
2653,
2630,
2585,
2615,
2500,
2430,
2438,
2513,
2482,
2399,
2581,
2370,
2470,
2448,
2651,
2692,
2839,
2726,
2523,
2512,
2406,
2377,
2255,
2365,
2291,
2251,
2180,
2237,
2207,
2243,
2225,
2185,
2173,
2245,
2117,
2193,
2055,
2152,
2145,
2106,
2130,
2076,
2008,
2063,
2027,
2053,
2010,
2023,
1960,
2136,
1956,
2070,
2123,
2089,
1984,
1871,
1966,
1857,
1911,
1795,
1811,
1853,
1829,
1830,
1774,
1744,
1784,
1805,
1759,
1773,
1817,
1709,
1711,
1732,
1707,
1686,
1750,
1601,
1655,
1617,
1606,
1608,
1593,
1642,
1621,
1635,
1577,
1609,
1503,
1609,
1593,
1526,
1547,
1538,
1517,
1493,
1444,
1459,
1518,
1490,
1455,
1478,
1478,
1469,
1417,
1364,
1371,
1392,
1449,
1325,
1351,
1375,
1350,
1325,
1309,
1298,
1321,
1415,
1338,
1307,
1263,
1291,
1275,
1298,
1311,
1256,
1254,
1246,
1194,
1174,
1220,
1145,
1147,
1178,
1145,
1185,
1202,
1151,
1111,
1206,
1110,
1071,
1098,
1132,
1121,
1127,
1099,
1110,
1126,
1076,
1046,
1020,
1049,
1039,
1072,
1030,
1020,
989,
989,
983,
990,
1011,
1023,
962,
938,
943,
927,
957,
907,
993,
959,
953,
932,
895,
874,
887,
843,
891,
863,
873,
855,
878,
816,
818,
806,
808,
834,
748,
797,
800,
750,
791,
749,
781,
753,
761,
729,
735,
724,
740,
737,
737,
708,
785,
676,
686,
702,
712,
604,
674,
700,
655,
731,
710,
626,
660,
647,
669,
628,
604,
666,
613,
605,
583,
653,
591,
583,
575,
561,
546,
577,
593,
555,
503,
555,
523,
515,
542,
542,
514,
492,
500,
455,
501,
446,
489,
509,
494,
473,
458,
456,
441,
488,
468,
418,
439,
429,
448,
432,
423,
465,
423,
435,
423,
414,
420,
403,
426,
378,
369,
421,
378,
382,
408,
361,
372,
353,
365,
349,
370,
338,
342,
328,
313,
351,
374,
301,
340,
328,
294,
290,
334,
273,
307,
318,
304,
300,
291,
284,
254,
287,
250,
292,
251,
261,
252,
264,
247,
248,
251,
264,
214,
260,
222,
234,
250,
236,
223,
241,
222,
212,
260,
194,
228,
226,
211,
206,
190,
209,
228,
172,
195,
180,
200,
175,
169,
159,
181,
187,
157,
191,
157,
173,
157,
148,
160,
175,
167,
145,
159,
136,
144,
144,
149,
130,
142,
134,
128,
134,
158,
121,
117,
152,
124,
137,
114,
129,
105,
144,
106,
108,
104,
120,
106,
127,
116,
103,
92,
118,
107,
92,
84,
100,
88,
95,
98,
88,
94,
90,
84,
84,
75,
87,
91,
68,
89,
94,
80,
84,
59,
67,
46,
58,
53,
60,
61,
58,
53,
67,
63,
50,
60,
60,
52,
49,
48,
49,
44,
47,
37,
51,
43,
40,
30,
46,
35,
41,
35,
43,
37,
34,
31,
31,
28,
26,
29,
31,
23,
30,
17,
26,
23,
25,
32,
19,
21,
18,
21,
16,
16,
14,
10,
14,
9,
11,
5,
15,
10,
9,
5,
8,
9,
6,
7,
2,
7,
4,
3,
0,
4,
2,
0,
1,
0,
2,
2,
1,
2,
1,
0,
1,
0,
1,
1,
1,
0,
2,
0,
0,
2,
4,
0,
4,
1,
2,
0,
3,
1,
0,
1,
2,
1,
2,
0,
1,
1,
1,
0,
1,
1,
1,
2,
0,
1,
0,
0,
1,
1,
2,
1,
0,
0,
1,
0,
0,
1,
0,
2,
0,
0,
1,
2,
0,
0,
0,
0,
1,
0,
0,
0,
0,
0,
2,
0,
0,
0,
0,
1,
2,
0,
0,
0,
0,
1,
1,
1,
0,
0,
1,
0,
0,
1,
2,
0,
0,
0,
1,
1,
0,
0,
0,
0,
1,
0,
0,
0,
0,
1,
0,
0,
2,
0,
0,
0,
0,
0,
0,
1,
1,
0,
0,
0,
0,
1,
0,
0,
1,
0,
0,
1,
0,
0,
0,
0,
0,
1,
0,
0,
1,
1,
0,
0,
0,
1,
0,
0,
0,
0,
0,
0,
0,
0,
0,
1,
0,
0,
1,
0,
0,
1,
0,
0,
0,
0,
0,
0,
0,
0,
0,
0,
0,
0,
0,
0,
0,
0,
0,
0,
0,
1,
0,
0,
0,
0,
0,
0,
0,
0,
1,
1,
0,
0,
0,
2,
0,
0,
0,
0,
0,
0,
0,
0,
0,
0,
1,
0,
0,
0,
0,
0,
1,
0,
0,
0,
0,
0,
0,
0,
0,
1,
0,
0,
1,
0,
0,
0,
0,
0,
0,
0,
1,
0,
0,
0,
1,
0,
0,
0,
0,
0,
0,
0,
0,
0,
0,
0,
0,
0,
0,
0,
1,
0,
0,
0,
0,
0,
0,
1,
0,
0,
1,
0,
1,
1,
0,
0,
0,
0,
0,
0,
0,
0,
1,
0,
0,
0,
0,
0,
0,
0,
0,
0,
0,
0,
0,
1,
1,
0,
0,
0,
0,
0,
0,
0,
0,
0,
0,
0,
0,
0,
0,
0,
0,
0,
0,
0,
0,
0,
0,
0,
0,
0,
0,
0,
0,
0,
0,
0,
0,
0,
0,
0,
0,
0,
0,
0,
0,
0,
0,
0,
0,
0,
0,
0,
0,
0,
0,
0,
0,
0,
0,
0,
0,
0,
0,
0,
0,
0,
0,
0,
0,
0,
0,
0,
0,
0,
0,
0,
0,
0,
0,
0,
0,
0,
0,
0,
0,
0,
0,
0,
0,
0,
0,
0,
0,
0,
0,
0,
0,
0,
0,
0,
0,
0,
0,
0,
0,
0,
0,
0,
0,
0,
0,
0,
0,
1,
0,
0,
0,
0,
0,
0,
0,
0,
0,
0,
0,
0,
0,
0,
0,
0,
0,
0,
0,
0,
0,
0,
0,
0,
0,
0,
0,
0,
0,
0,
0,
0,
0,
0,
0,
0,
0,
0,
0,
0,
0,
0,
0,
0,
0,
0,
0,
0,
0,
0,
0,
0,
0,
0,
0,
0,
0,
0,
0,
0,
0,
0,
0,
0,
0,
0,
0,
0,
0,
0,
0,
0,
0,
0,
0,
0,
0,
0,
0,
0,
0,
0,
0,
0,
0,
0,
0,
0,
0,
0,
0,
0,
0,
0,
0,
0,
0,
0,
0,
0,
0,
0,
0,
0,
0,
0,
0,
0,
0,
0,
0,
0,
0,
0,
0,
0,
0,
0,
0,
0,
0,
0,
0,
0,
0,
0,
0,
0,
0,
0,
0,
0,
0,
0,
0,
0,
0,
0,
0,
0,
0,
0,
0,
0,
0,
0,
0,
0,
0,
0,
0,
0,
0,
0,
0,
0,
0,
0,
0,
0,
0,
0,
0,
0,
0,
0,
0,
0,
0,
0,
0,
0,
0,
0,
0,
0,
0,
0,
0,
0,
0,
0,
0,
0,
0,
0,
0,
0,
0,
0,
0,
0,
0,
0,
0,
0,
0,
0,
0,
0,
0,
0,
0,
0,
0,
0,
0,
0,
0,
0,
0,
0,
0,
0,
0,
0,
0,
0,
0,
0,
0,
0,
0,
0,
0,
0,
0,
0,
0,
0,
0,
0,
0,
0,
0,
0,
0,
0,
0,
0,
0,
0,
0,
0,
0,
0,
0,
0,
0,
0,
0,
0,
0,
0,
0,
0,
0,
0,
0,
0,
0,
0,
0,
0,
0,
0,
0,
0,
0,
0,
0,
0,
0,
0,
0,
0,
0,
0,
0,
0,
0,
0,
0,
0,
0,
0,
0,
0,
0,
0,
0,
0,
0,
0,
0,
0,
0,
0,
0,
0,
0,
0,
0,
#ENDOFDATA   :