File: N132962/Quantification/20 keV/MMM2/SPI MM2 SPI Pentlandite[6][4].msa
#FORMAT      : EMSA/MAS Spectral Data File
#VERSION     : 1.0
#TITLE       : SPI MM2 SPI Pentlandite[6][all]
#DATE        : 13-MAR-2025
#TIME        : 10:39
#OWNER       : Unknown
#NPOINTS     : 4096
#NCOLUMNS    : 1
#XUNITS      : eV
#YUNITS      : counts
#DATATYPE    : Y
#XPERCHAN    : 9.99778
#OFFSET      : 1.69135
#BEAMKV      : 20
#SIGNALTYPE  : EDS
#ELEVANGLE   : 35
#AZIMANGLE   : 0
#LIVETIME    : 239.9602
#REALTIME    : 260.266
#PROBECUR    : 1.02606
#TAUWIND     : 0
#TDEADLYR    : 0
#TACTLYR     : 0.045
#TALWIND     : 0.025
#CHOFFSET    : 0.0
#XLABEL      : Energy (eV)
#YLABEL      : Counts
#XPOSITION   : 3.93263
#YPOSITION   : -0.37408
#ZPOSITION   : 31.0351
#EDSDET      : SD
##SPECIMEN   : SPI MM2 SPI Pentlandite[6][all]
##D2STDCMP   : SPI Pentlandite,(S:32.89),(Fe:30.88),(Co:0.43),(Ni:35.61)
##DET_HASH   : 12273538-fd48-a23f-0a19-f1e6fa85caef
##CALIB_HASH : 6abaa72c-aa41-8738-0be9-f592914732f3
##WORKING    : 15.0 mm
##DET_NAME   : EDAX All
##DET_MODE   : MediumLE
#SPECTRUM    :
24,
27,
4,
32,
210,
613,
1233,
3471,
10239,
13422,
6902,
2863,
2681,
2854,
3261,
4025,
5412,
7823,
10840,
15033,
18222,
18971,
28052,
47724,
44142,
23848,
17389,
35731,
62919,
52621,
20842,
6714,
3874,
3271,
3174,
3188,
3327,
3459,
3546,
3593,
3797,
3948,
4030,
4243,
4396,
4403,
4584,
4831,
4982,
5125,
5204,
5182,
5094,
5263,
5244,
5521,
5561,
6076,
6161,
6230,
6066,
5628,
5492,
5254,
5385,
5441,
5384,
5579,
5617,
5530,
5731,
6290,
8125,
13618,
31717,
85998,
175239,
219853,
160156,
70149,
25239,
18305,
20229,
16968,
10322,
5952,
4252,
3806,
3656,
3744,
3780,
3826,
3673,
3820,
3885,
3800,
3885,
3806,
4009,
3936,
3907,
3916,
3884,
3964,
3926,
3862,
3857,
3815,
3574,
3720,
3653,
3742,
3622,
3625,
3688,
3570,
3583,
3522,
3581,
3586,
3517,
3417,
3479,
3433,
3508,
3556,
3514,
3480,
3374,
3416,
3363,
3400,
3371,
3358,
3330,
3262,
3298,
3264,
3271,
3154,
3233,
3318,
3071,
3196,
2986,
3168,
3089,
3115,
3054,
3098,
3048,
3073,
3166,
3302,
3480,
3446,
3220,
3060,
3039,
2955,
2944,
2779,
2835,
2817,
2804,
2802,
2714,
2649,
2670,
2736,
2717,
2622,
2697,
2520,
2709,
2594,
2623,
2635,
2554,
2546,
2618,
2526,
2531,
2547,
2452,
2439,
2422,
2405,
2520,
2477,
2549,
2585,
2430,
2390,
2358,
2353,
2330,
2258,
2224,
2337,
2183,
2221,
2223,
2319,
2290,
2264,
2428,
2769,
3957,
7899,
17390,
33598,
53021,
64837,
61045,
43941,
24903,
11785,
5203,
2807,
2192,
2023,
1993,
1982,
2146,
2020,
2000,
2094,
2315,
2733,
3144,
3978,
5222,
7127,
9088,
9782,
9038,
7137,
4661,
3120,
2117,
1957,
2027,
2457,
4360,
8793,
17717,
30577,
43228,
47835,
42599,
30268,
17385,
8636,
4139,
2326,
1782,
1650,
1547,
1545,
1390,
1357,
1418,
1446,
1378,
1430,
1525,
1450,
1529,
1584,
1840,
2346,
3345,
4860,
6299,
7239,
7106,
5639,
4147,
2692,
1747,
1409,
1195,
1156,
1144,
1082,
1173,
1234,
1180,
1192,
1226,
1195,
1199,
1157,
1180,
1144,
1063,
1103,
1068,
1106,
1051,
1045,
1000,
1012,
1024,
1073,
1096,
1049,
977,
1044,
1025,
999,
1001,
965,
985,
958,
965,
959,
937,
899,
918,
982,
1007,
945,
1003,
1020,
1050,
1027,
963,
950,
912,
817,
887,
871,
887,
824,
826,
873,
882,
850,
882,
841,
810,
843,
793,
862,
807,
823,
809,
779,
816,
744,
780,
777,
781,
746,
752,
736,
761,
769,
730,
733,
716,
685,
718,
676,
680,
727,
692,
684,
709,
676,
664,
611,
624,
644,
647,
575,
645,
624,
625,
593,
639,
566,
583,
576,
581,
572,
605,
569,
530,
605,
551,
571,
578,
582,
534,
564,
584,
557,
549,
555,
498,
544,
535,
508,
503,
506,
513,
485,
529,
508,
461,
496,
492,
482,
485,
471,
456,
486,
463,
441,
402,
405,
492,
408,
449,
437,
458,
434,
427,
399,
398,
401,
408,
437,
378,
356,
377,
375,
388,
355,
359,
348,
369,
345,
358,
356,
375,
357,
327,
372,
321,
362,
331,
343,
317,
319,
337,
320,
364,
325,
319,
317,
323,
290,
336,
274,
328,
276,
299,
303,
258,
260,
309,
262,
280,
222,
230,
261,
258,
217,
274,
240,
221,
257,
232,
231,
229,
220,
251,
229,
220,
201,
221,
237,
196,
228,
223,
213,
221,
176,
207,
214,
176,
197,
207,
202,
200,
173,
173,
162,
191,
179,
183,
185,
171,
171,
160,
153,
141,
167,
180,
149,
164,
149,
149,
132,
143,
168,
137,
126,
147,
138,
115,
125,
131,
150,
125,
133,
126,
122,
122,
115,
137,
146,
131,
102,
113,
114,
99,
113,
91,
92,
111,
101,
106,
89,
91,
98,
74,
96,
93,
92,
87,
95,
75,
79,
89,
95,
67,
84,
84,
97,
74,
66,
71,
80,
75,
71,
63,
71,
63,
56,
64,
55,
72,
58,
60,
54,
57,
47,
59,
66,
55,
63,
56,
51,
51,
48,
44,
48,
43,
42,
53,
50,
47,
37,
38,
37,
50,
31,
30,
41,
35,
50,
39,
26,
31,
32,
26,
37,
29,
24,
28,
28,
25,
31,
33,
20,
28,
25,
23,
26,
26,
15,
25,
14,
18,
15,
16,
16,
12,
9,
18,
18,
13,
17,
8,
3,
3,
5,
9,
14,
2,
3,
7,
7,
12,
4,
4,
6,
3,
2,
3,
1,
2,
1,
1,
1,
1,
1,
5,
1,
0,
1,
2,
1,
2,
1,
1,
1,
6,
0,
1,
0,
1,
0,
3,
0,
1,
2,
1,
2,
2,
0,
1,
1,
1,
1,
2,
0,
1,
0,
0,
2,
2,
0,
0,
1,
0,
3,
0,
0,
2,
1,
1,
2,
1,
0,
0,
0,
0,
1,
0,
2,
0,
0,
0,
2,
0,
0,
0,
1,
0,
0,
1,
1,
0,
0,
0,
1,
1,
2,
0,
0,
1,
0,
0,
0,
0,
0,
1,
0,
1,
0,
1,
0,
0,
0,
0,
0,
1,
0,
1,
0,
0,
0,
0,
0,
1,
2,
0,
0,
0,
1,
0,
0,
0,
1,
0,
0,
0,
1,
2,
0,
0,
1,
1,
0,
0,
0,
0,
0,
0,
0,
0,
0,
0,
0,
0,
0,
0,
0,
0,
0,
0,
0,
0,
0,
1,
1,
0,
0,
1,
1,
0,
0,
1,
0,
0,
0,
0,
1,
0,
0,
0,
0,
0,
1,
1,
0,
0,
0,
0,
0,
1,
2,
1,
0,
0,
0,
0,
0,
0,
0,
0,
0,
0,
1,
0,
0,
0,
0,
0,
0,
0,
0,
0,
0,
1,
1,
0,
0,
0,
0,
0,
1,
0,
0,
1,
0,
0,
0,
0,
0,
1,
0,
0,
0,
0,
0,
0,
0,
1,
0,
0,
0,
0,
0,
0,
0,
0,
0,
0,
0,
0,
0,
0,
0,
0,
0,
0,
0,
0,
0,
0,
0,
0,
1,
1,
0,
0,
1,
0,
0,
0,
0,
1,
0,
0,
0,
0,
0,
0,
0,
0,
0,
0,
0,
0,
0,
0,
0,
0,
0,
0,
0,
0,
0,
0,
0,
0,
1,
0,
0,
0,
0,
0,
0,
0,
0,
0,
0,
0,
0,
0,
0,
0,
0,
0,
0,
0,
0,
0,
0,
0,
0,
0,
1,
0,
0,
0,
0,
0,
0,
0,
0,
0,
0,
0,
0,
0,
0,
0,
0,
0,
0,
0,
0,
0,
0,
0,
0,
0,
0,
0,
0,
0,
0,
0,
0,
0,
0,
0,
0,
0,
0,
0,
0,
0,
0,
0,
0,
0,
0,
0,
0,
0,
0,
0,
0,
0,
0,
0,
0,
0,
0,
0,
0,
0,
0,
0,
0,
0,
0,
0,
0,
0,
0,
0,
0,
0,
0,
0,
0,
0,
0,
0,
0,
0,
0,
0,
0,
0,
0,
0,
0,
0,
0,
0,
0,
0,
0,
0,
0,
0,
0,
0,
0,
0,
0,
0,
0,
0,
0,
0,
0,
0,
0,
0,
0,
0,
0,
0,
0,
0,
0,
0,
0,
0,
0,
0,
0,
0,
0,
0,
0,
0,
0,
0,
0,
0,
0,
0,
0,
0,
0,
0,
0,
0,
0,
0,
0,
0,
0,
0,
0,
0,
0,
0,
0,
0,
0,
0,
0,
0,
0,
0,
0,
0,
0,
0,
0,
0,
0,
0,
0,
0,
0,
0,
0,
0,
0,
0,
0,
0,
0,
0,
0,
0,
0,
0,
0,
0,
0,
0,
0,
0,
0,
0,
0,
0,
0,
0,
0,
0,
0,
0,
0,
0,
0,
0,
0,
0,
0,
0,
0,
0,
0,
0,
0,
0,
0,
0,
0,
0,
0,
0,
0,
0,
0,
0,
0,
0,
0,
0,
0,
0,
0,
0,
0,
0,
0,
0,
0,
0,
0,
0,
0,
0,
0,
0,
0,
0,
0,
0,
0,
0,
0,
0,
0,
0,
0,
0,
0,
0,
0,
0,
0,
0,
0,
0,
0,
0,
0,
0,
0,
0,
0,
0,
0,
0,
0,
0,
0,
0,
0,
0,
0,
0,
0,
0,
0,
0,
0,
0,
0,
0,
0,
0,
0,
0,
0,
0,
0,
0,
0,
0,
0,
0,
0,
0,
0,
0,
0,
0,
0,
0,
0,
0,
0,
0,
0,
0,
0,
0,
0,
0,
0,
0,
0,
0,
0,
0,
0,
0,
0,
0,
0,
0,
0,
0,
0,
0,
0,
0,
0,
0,
0,
0,
0,
0,
0,
0,
0,
0,
0,
0,
0,
0,
0,
0,
0,
0,
0,
0,
0,
0,
0,
0,
0,
0,
0,
0,
0,
0,
0,
0,
0,
0,
0,
0,
0,
0,
0,
0,
0,
0,
0,
0,
0,
0,
0,
0,
0,
0,
0,
0,
0,
0,
0,
0,
0,
0,
0,
#ENDOFDATA   :