File: N132962/Quantification/20 keV/MMM2/SPI MM2 SPI Obsidian[5][4].msa
#FORMAT      : EMSA/MAS Spectral Data File
#VERSION     : 1.0
#TITLE       : SPI MM2 SPI Obsidian[5][all]
#DATE        : 13-MAR-2025
#TIME        : 10:00
#OWNER       : Unknown
#NPOINTS     : 4096
#NCOLUMNS    : 1
#XUNITS      : eV
#YUNITS      : counts
#DATATYPE    : Y
#XPERCHAN    : 9.99778
#OFFSET      : 1.69135
#BEAMKV      : 20
#SIGNALTYPE  : EDS
#ELEVANGLE   : 35
#AZIMANGLE   : 0
#LIVETIME    : 239.853
#REALTIME    : 256.297
#PROBECUR    : 1.02627
#TAUWIND     : 0
#TDEADLYR    : 0
#TACTLYR     : 0.045
#TALWIND     : 0.025
#CHOFFSET    : 0.0
#XLABEL      : Energy (eV)
#YLABEL      : Counts
#XPOSITION   : 0.00762
#YPOSITION   : -3.00123
#ZPOSITION   : 31.03509
#EDSDET      : SD
##SPECIMEN   : SPI MM2 SPI Obsidian[5][all]
##D2STDCMP   : SPI Obsidian,(O:49.01),(Na:2.77),(Mg:0.06),(Al:6.9),(Si:35.66),(K:3.58),(Ca:0.63),(Ti:0.06),(Mn:0.04),(Fe:0.59),5.0
##DET_HASH   : 12273538-fd48-a23f-0a19-f1e6fa85caef
##CALIB_HASH : 6abaa72c-aa41-8738-0be9-f592914732f3
##WORKING    : 15.0 mm
##DET_NAME   : EDAX All
##DET_MODE   : MediumLE
#SPECTRUM    :
21,
24,
10,
20,
68,
284,
872,
2663,
7492,
9667,
4998,
2517,
2441,
3107,
5723,
21914,
88445,
173019,
127314,
33121,
4544,
1906,
2121,
2522,
2662,
2263,
2292,
2369,
2751,
2683,
2930,
3304,
4126,
8492,
16955,
18929,
10910,
4914,
3782,
3682,
3990,
4300,
4481,
4604,
4468,
4592,
5491,
11195,
31156,
60964,
62598,
33968,
13724,
7294,
7410,
21455,
88556,
231509,
315768,
221196,
87889,
28800,
11973,
5555,
2961,
2336,
2323,
2415,
2250,
2195,
2152,
2207,
2288,
2419,
2714,
3079,
2885,
2554,
2354,
2331,
2253,
2174,
2202,
2262,
2208,
2145,
2241,
2300,
2154,
2189,
2147,
2259,
2274,
2256,
2133,
2177,
2141,
2113,
2229,
2212,
2170,
2170,
2016,
2088,
2178,
2265,
2532,
3625,
6550,
12314,
17630,
17701,
11993,
6239,
3290,
2696,
2734,
2947,
3294,
3910,
4157,
4217,
4498,
4605,
4013,
2996,
2267,
1873,
1737,
1726,
1706,
1719,
1820,
1921,
1941,
1852,
1819,
1621,
1561,
1554,
1525,
1520,
1562,
1527,
1478,
1492,
1578,
1623,
1693,
1760,
1808,
1787,
1585,
1505,
1446,
1497,
1439,
1436,
1380,
1458,
1399,
1448,
1409,
1339,
1364,
1353,
1298,
1329,
1368,
1294,
1289,
1296,
1221,
1259,
1208,
1215,
1242,
1124,
1239,
1179,
1178,
1153,
1184,
1215,
1090,
1132,
1087,
1192,
1122,
1068,
1082,
1149,
1083,
1041,
1188,
1126,
1131,
1190,
1042,
1020,
1065,
1003,
1037,
962,
936,
961,
1009,
999,
1051,
1080,
1286,
1529,
1875,
2131,
2048,
1740,
1322,
1089,
952,
861,
874,
850,
843,
865,
844,
770,
834,
780,
801,
835,
823,
792,
848,
904,
898,
918,
957,
857,
852,
717,
758,
744,
721,
728,
727,
682,
771,
763,
740,
776,
756,
732,
723,
687,
728,
692,
677,
623,
641,
663,
661,
655,
674,
612,
645,
632,
586,
638,
581,
595,
636,
610,
612,
613,
603,
579,
549,
578,
563,
545,
543,
607,
502,
568,
553,
498,
516,
564,
569,
547,
508,
499,
476,
474,
528,
517,
487,
486,
491,
457,
468,
453,
503,
412,
468,
481,
459,
468,
480,
432,
461,
418,
458,
468,
433,
397,
404,
421,
441,
410,
385,
417,
438,
425,
413,
402,
440,
434,
376,
381,
398,
352,
381,
357,
379,
367,
369,
365,
321,
349,
384,
336,
357,
348,
391,
335,
318,
319,
312,
324,
361,
371,
345,
287,
324,
338,
353,
334,
313,
303,
305,
297,
258,
319,
305,
309,
277,
283,
286,
285,
276,
271,
311,
277,
283,
281,
296,
268,
267,
249,
267,
259,
248,
239,
251,
231,
212,
240,
264,
212,
248,
260,
251,
195,
199,
236,
208,
226,
217,
229,
218,
204,
224,
205,
202,
186,
175,
212,
186,
197,
197,
193,
189,
187,
181,
165,
200,
201,
183,
156,
188,
179,
184,
184,
162,
188,
135,
148,
166,
168,
168,
136,
143,
158,
166,
147,
156,
163,
135,
139,
150,
130,
121,
151,
129,
137,
153,
128,
136,
144,
133,
123,
114,
119,
124,
134,
106,
123,
119,
126,
125,
126,
124,
118,
107,
127,
119,
133,
97,
121,
115,
103,
109,
94,
92,
106,
105,
92,
97,
100,
88,
100,
113,
84,
85,
81,
81,
90,
70,
82,
89,
64,
100,
85,
69,
86,
89,
74,
54,
63,
58,
58,
76,
73,
95,
57,
59,
66,
61,
66,
56,
68,
67,
45,
51,
71,
59,
65,
59,
57,
53,
41,
51,
47,
47,
56,
50,
49,
46,
49,
60,
59,
58,
45,
62,
51,
35,
52,
35,
39,
31,
42,
40,
47,
39,
41,
34,
42,
39,
36,
47,
32,
31,
40,
35,
28,
32,
30,
37,
28,
31,
25,
31,
36,
26,
21,
36,
32,
24,
21,
25,
31,
30,
16,
24,
23,
21,
19,
21,
16,
13,
17,
21,
20,
11,
19,
21,
19,
25,
21,
23,
19,
21,
19,
18,
18,
8,
14,
17,
8,
9,
14,
19,
9,
10,
12,
12,
11,
13,
15,
14,
12,
15,
15,
14,
10,
14,
11,
12,
11,
8,
11,
8,
11,
6,
11,
3,
4,
9,
9,
6,
6,
3,
9,
4,
2,
9,
6,
4,
7,
2,
1,
5,
7,
3,
4,
3,
9,
1,
3,
3,
5,
4,
1,
3,
1,
2,
0,
0,
1,
2,
2,
1,
0,
2,
1,
0,
1,
1,
0,
0,
0,
0,
0,
0,
0,
0,
0,
0,
0,
0,
0,
0,
0,
0,
0,
0,
0,
0,
0,
0,
1,
0,
0,
0,
0,
0,
0,
0,
0,
0,
0,
0,
0,
0,
1,
0,
0,
0,
0,
0,
0,
0,
1,
1,
0,
0,
0,
0,
0,
0,
0,
1,
0,
0,
1,
0,
0,
0,
0,
0,
0,
1,
0,
0,
0,
0,
0,
0,
0,
0,
0,
0,
0,
0,
1,
0,
0,
0,
0,
0,
0,
0,
0,
0,
0,
0,
0,
0,
0,
0,
0,
0,
0,
0,
0,
0,
0,
0,
0,
0,
0,
0,
0,
0,
0,
0,
0,
0,
0,
0,
0,
0,
0,
0,
0,
0,
0,
0,
0,
0,
0,
0,
0,
0,
0,
0,
0,
0,
0,
0,
0,
0,
0,
0,
0,
0,
0,
0,
0,
0,
0,
0,
0,
0,
0,
0,
0,
0,
0,
0,
0,
0,
0,
0,
0,
0,
0,
0,
0,
0,
0,
0,
0,
0,
0,
0,
0,
0,
0,
0,
0,
0,
0,
0,
0,
0,
0,
0,
0,
0,
0,
0,
0,
0,
0,
0,
0,
0,
0,
0,
0,
0,
0,
0,
0,
0,
0,
0,
0,
0,
0,
0,
0,
0,
0,
0,
0,
0,
0,
0,
0,
0,
0,
0,
0,
0,
0,
0,
0,
0,
0,
0,
0,
0,
0,
0,
0,
0,
0,
0,
0,
0,
0,
0,
0,
0,
0,
0,
0,
0,
0,
0,
0,
0,
0,
0,
0,
0,
0,
0,
0,
0,
0,
0,
0,
0,
0,
0,
0,
0,
0,
0,
0,
0,
0,
0,
0,
0,
0,
0,
0,
0,
0,
0,
0,
0,
0,
0,
0,
0,
0,
0,
0,
0,
0,
0,
0,
0,
0,
0,
0,
0,
0,
0,
0,
0,
0,
0,
0,
0,
0,
0,
0,
0,
0,
0,
0,
0,
0,
0,
0,
0,
0,
0,
0,
0,
0,
0,
0,
0,
0,
0,
0,
0,
0,
0,
0,
0,
0,
0,
0,
0,
0,
0,
0,
0,
0,
0,
0,
0,
0,
0,
0,
0,
0,
0,
0,
0,
0,
0,
0,
0,
0,
0,
0,
0,
0,
0,
0,
0,
0,
0,
0,
0,
0,
0,
0,
0,
0,
0,
0,
0,
0,
0,
0,
0,
0,
0,
0,
0,
0,
0,
0,
0,
0,
0,
0,
0,
0,
0,
0,
0,
0,
0,
0,
0,
0,
0,
0,
0,
0,
0,
0,
0,
0,
0,
0,
0,
0,
0,
0,
0,
0,
0,
0,
0,
0,
0,
0,
0,
0,
0,
0,
0,
0,
0,
0,
0,
0,
0,
0,
0,
0,
0,
0,
0,
0,
0,
0,
0,
0,
0,
0,
0,
0,
0,
0,
0,
0,
0,
0,
0,
0,
0,
0,
0,
0,
0,
0,
0,
0,
0,
0,
0,
0,
0,
0,
0,
0,
0,
0,
0,
0,
0,
0,
0,
0,
0,
0,
0,
0,
0,
0,
0,
0,
0,
0,
0,
0,
0,
0,
0,
0,
0,
0,
0,
0,
0,
0,
0,
0,
0,
0,
0,
0,
0,
0,
0,
0,
0,
0,
0,
0,
0,
0,
0,
0,
0,
0,
0,
0,
0,
0,
0,
0,
0,
0,
0,
0,
0,
0,
0,
0,
0,
0,
0,
0,
0,
0,
0,
0,
0,
0,
0,
0,
0,
0,
0,
0,
0,
0,
0,
0,
0,
0,
0,
0,
0,
0,
0,
0,
0,
0,
0,
0,
0,
0,
0,
0,
0,
0,
0,
0,
0,
0,
0,
0,
0,
0,
0,
0,
0,
0,
0,
0,
0,
0,
0,
0,
0,
0,
0,
0,
0,
0,
0,
0,
0,
0,
0,
0,
0,
0,
0,
0,
0,
0,
0,
0,
0,
0,
0,
0,
0,
0,
0,
0,
0,
0,
0,
0,
0,
0,
0,
0,
0,
0,
0,
0,
0,
0,
0,
0,
0,
0,
0,
0,
0,
0,
0,
0,
0,
0,
0,
0,
0,
0,
0,
0,
0,
0,
0,
0,
0,
0,
0,
0,
0,
0,
0,
0,
0,
0,
0,
0,
0,
0,
0,
0,
0,
0,
0,
0,
0,
0,
0,
0,
0,
0,
0,
0,
0,
0,
0,
0,
0,
0,
0,
0,
0,
0,
0,
0,
0,
0,
#ENDOFDATA   :