File: N132962/Quantification/20 keV/MMM2/SPI MM2 C[3][4].msa
#FORMAT      : EMSA/MAS Spectral Data File
#VERSION     : 1.0
#TITLE       : SPI MM2 C[3][all]
#DATE        : 13-MAR-2025
#TIME        : 14:24
#OWNER       : Unknown
#NPOINTS     : 4096
#NCOLUMNS    : 1
#XUNITS      : eV
#YUNITS      : counts
#DATATYPE    : Y
#XPERCHAN    : 9.99778
#OFFSET      : 1.69135
#BEAMKV      : 20
#SIGNALTYPE  : EDS
#ELEVANGLE   : 35
#AZIMANGLE   : 0
#LIVETIME    : 239.994
#REALTIME    : 250.917
#PROBECUR    : 1.02609
#TAUWIND     : 0
#TDEADLYR    : 0
#TACTLYR     : 0.045
#TALWIND     : 0.025
#CHOFFSET    : 0.0
#XLABEL      : Energy (eV)
#YLABEL      : Counts
#XPOSITION   : 3.28421
#YPOSITION   : 8.93984
#ZPOSITION   : 31.03511
#EDSDET      : SD
##SPECIMEN   : SPI MM2 C[3][all]
##D2STDCMP   : C,(C:100.0)
##DET_HASH   : 12273538-fd48-a23f-0a19-f1e6fa85caef
##CALIB_HASH : 6abaa72c-aa41-8738-0be9-f592914732f3
##WORKING    : 15.0 mm
##DET_NAME   : EDAX All
##DET_MODE   : MediumLE
#SPECTRUM    :
23,
23,
14,
58,
314,
1675,
11312,
92311,
380416,
522742,
216197,
28183,
1766,
523,
510,
798,
1739,
3208,
3419,
1800,
973,
960,
1085,
1124,
1230,
1329,
1411,
1493,
1481,
1688,
1709,
1817,
1804,
1957,
2048,
2204,
2309,
2317,
2315,
2403,
2388,
2470,
2524,
2573,
2557,
2648,
2534,
2674,
2673,
2703,
2640,
2643,
2560,
2597,
2528,
2524,
2525,
2553,
2644,
2612,
2535,
2302,
2190,
2158,
2034,
2028,
2031,
1976,
1912,
1899,
1894,
1935,
1910,
1833,
1842,
1921,
1818,
1744,
1739,
1679,
1708,
1621,
1660,
1645,
1547,
1578,
1524,
1544,
1543,
1463,
1550,
1485,
1468,
1394,
1388,
1360,
1451,
1367,
1308,
1330,
1291,
1268,
1229,
1218,
1259,
1218,
1140,
1189,
1193,
1144,
1185,
1018,
1136,
1154,
1121,
1117,
1072,
1017,
1034,
1062,
991,
993,
981,
955,
987,
957,
944,
954,
975,
948,
916,
895,
902,
861,
878,
869,
885,
830,
788,
810,
772,
805,
811,
754,
820,
748,
798,
695,
774,
737,
786,
720,
737,
720,
726,
710,
734,
720,
664,
703,
642,
686,
654,
645,
638,
615,
662,
656,
616,
639,
639,
564,
615,
603,
605,
598,
578,
532,
566,
570,
581,
560,
544,
533,
577,
535,
539,
496,
503,
523,
517,
562,
491,
502,
471,
464,
492,
455,
438,
471,
488,
445,
442,
445,
426,
453,
434,
409,
428,
407,
443,
454,
449,
497,
461,
453,
404,
420,
391,
425,
407,
373,
413,
365,
381,
370,
369,
381,
367,
336,
349,
354,
349,
327,
346,
306,
343,
387,
333,
340,
328,
331,
329,
316,
345,
317,
314,
334,
292,
326,
333,
299,
302,
313,
311,
265,
278,
286,
285,
286,
281,
292,
245,
296,
269,
248,
285,
262,
282,
276,
265,
269,
248,
259,
237,
264,
242,
232,
262,
220,
241,
250,
247,
265,
241,
236,
240,
220,
231,
242,
243,
194,
213,
216,
206,
204,
221,
222,
214,
213,
233,
196,
192,
206,
185,
177,
200,
182,
207,
200,
208,
187,
173,
178,
202,
170,
182,
170,
174,
172,
172,
172,
189,
178,
162,
147,
185,
162,
172,
174,
188,
150,
148,
152,
135,
157,
159,
166,
141,
141,
132,
167,
133,
156,
146,
127,
134,
151,
129,
159,
140,
111,
124,
133,
137,
115,
136,
137,
136,
129,
123,
119,
101,
138,
118,
117,
119,
116,
121,
99,
112,
112,
114,
90,
109,
93,
118,
105,
120,
109,
121,
98,
101,
97,
100,
90,
105,
79,
84,
107,
86,
81,
92,
93,
82,
101,
88,
87,
101,
92,
84,
97,
75,
81,
65,
74,
59,
82,
67,
74,
92,
89,
73,
69,
76,
61,
67,
59,
79,
68,
73,
66,
63,
80,
58,
67,
53,
67,
60,
58,
70,
58,
55,
49,
52,
67,
56,
44,
69,
49,
53,
49,
64,
44,
53,
55,
55,
40,
41,
46,
51,
37,
52,
56,
46,
39,
38,
41,
47,
56,
42,
44,
41,
27,
27,
46,
32,
40,
40,
39,
48,
30,
41,
39,
22,
40,
20,
34,
37,
35,
38,
45,
29,
34,
36,
35,
27,
31,
27,
33,
14,
20,
34,
28,
28,
32,
26,
18,
30,
32,
31,
28,
28,
24,
21,
31,
21,
23,
26,
29,
20,
20,
21,
28,
23,
13,
17,
18,
22,
19,
14,
27,
10,
16,
25,
18,
9,
13,
22,
17,
17,
13,
9,
12,
18,
15,
10,
20,
12,
13,
16,
10,
13,
11,
19,
13,
13,
13,
11,
23,
14,
10,
11,
13,
7,
8,
8,
14,
12,
9,
10,
10,
10,
9,
12,
10,
11,
9,
15,
7,
3,
5,
5,
8,
5,
7,
10,
12,
9,
7,
7,
10,
8,
9,
5,
8,
2,
5,
6,
5,
3,
3,
4,
6,
9,
4,
6,
4,
5,
3,
4,
3,
3,
5,
6,
2,
4,
2,
6,
3,
5,
3,
3,
2,
4,
3,
1,
2,
3,
3,
7,
2,
2,
4,
3,
4,
5,
5,
1,
4,
2,
1,
3,
2,
0,
3,
1,
0,
3,
2,
1,
2,
2,
2,
0,
0,
2,
3,
2,
0,
2,
0,
1,
1,
1,
0,
0,
1,
3,
0,
0,
0,
1,
0,
0,
0,
0,
0,
0,
0,
0,
0,
0,
0,
0,
0,
0,
0,
0,
0,
0,
0,
0,
0,
0,
0,
0,
0,
0,
0,
0,
0,
0,
0,
0,
0,
0,
0,
0,
0,
0,
0,
0,
0,
0,
0,
0,
0,
0,
0,
0,
0,
0,
0,
0,
0,
0,
0,
0,
0,
0,
0,
0,
0,
0,
0,
0,
0,
0,
0,
0,
0,
0,
0,
0,
0,
0,
0,
0,
0,
0,
0,
0,
0,
0,
0,
0,
0,
0,
0,
0,
0,
0,
0,
0,
0,
0,
0,
0,
0,
0,
0,
0,
0,
0,
0,
0,
0,
0,
0,
0,
0,
0,
0,
0,
0,
0,
0,
0,
0,
0,
0,
0,
0,
0,
0,
0,
0,
0,
0,
0,
0,
0,
0,
0,
0,
0,
0,
0,
0,
0,
0,
0,
0,
0,
0,
0,
0,
0,
0,
0,
0,
0,
0,
0,
0,
0,
0,
0,
0,
0,
0,
0,
0,
0,
0,
0,
0,
0,
0,
0,
0,
0,
0,
0,
0,
0,
0,
0,
0,
0,
0,
0,
0,
0,
0,
0,
0,
0,
0,
0,
0,
0,
0,
0,
0,
0,
0,
0,
0,
0,
0,
0,
0,
0,
0,
0,
0,
0,
0,
0,
0,
0,
0,
0,
0,
0,
0,
0,
0,
0,
0,
0,
0,
0,
0,
0,
0,
0,
0,
0,
0,
0,
0,
0,
0,
0,
0,
0,
0,
0,
0,
0,
0,
0,
0,
0,
0,
0,
0,
0,
0,
0,
0,
0,
0,
0,
0,
0,
0,
0,
0,
0,
0,
0,
0,
0,
0,
0,
0,
0,
0,
0,
0,
0,
0,
0,
0,
0,
0,
0,
0,
0,
0,
0,
0,
0,
0,
0,
0,
0,
0,
0,
0,
0,
0,
0,
0,
0,
0,
0,
0,
0,
0,
0,
0,
0,
0,
0,
0,
0,
0,
0,
0,
0,
0,
0,
0,
0,
0,
0,
0,
0,
0,
0,
0,
0,
0,
0,
0,
0,
0,
0,
0,
0,
0,
0,
0,
0,
0,
0,
0,
0,
0,
0,
0,
0,
0,
0,
0,
0,
0,
0,
0,
0,
0,
0,
0,
0,
0,
0,
0,
0,
0,
0,
0,
0,
0,
0,
0,
0,
0,
0,
0,
0,
0,
0,
0,
0,
0,
0,
0,
0,
0,
0,
0,
0,
0,
0,
0,
0,
0,
0,
0,
0,
0,
0,
0,
0,
0,
0,
0,
0,
0,
0,
0,
0,
0,
0,
0,
0,
0,
0,
0,
0,
0,
0,
0,
0,
0,
0,
0,
0,
0,
0,
0,
0,
0,
0,
0,
0,
0,
0,
0,
0,
0,
0,
0,
0,
0,
0,
0,
0,
0,
0,
0,
0,
0,
0,
0,
0,
0,
0,
0,
0,
0,
0,
0,
0,
0,
0,
0,
0,
0,
0,
0,
0,
0,
0,
0,
0,
0,
0,
0,
0,
0,
0,
0,
0,
0,
0,
0,
0,
0,
0,
0,
0,
0,
0,
0,
0,
0,
0,
0,
0,
0,
0,
0,
0,
0,
0,
0,
0,
0,
0,
0,
0,
0,
0,
0,
0,
0,
0,
0,
0,
0,
0,
0,
0,
0,
0,
0,
0,
0,
0,
0,
0,
0,
0,
0,
0,
0,
0,
0,
0,
0,
0,
0,
0,
0,
0,
0,
0,
0,
0,
0,
0,
0,
0,
0,
0,
0,
0,
0,
0,
0,
0,
0,
0,
0,
0,
0,
0,
0,
0,
0,
0,
0,
0,
0,
0,
0,
0,
0,
0,
0,
0,
0,
0,
0,
0,
0,
0,
0,
0,
0,
0,
0,
0,
0,
0,
0,
0,
0,
0,
0,
0,
0,
0,
0,
0,
0,
0,
0,
0,
0,
0,
0,
0,
0,
0,
0,
0,
0,
0,
0,
0,
0,
0,
0,
0,
0,
0,
0,
0,
0,
0,
0,
0,
0,
0,
0,
0,
0,
0,
0,
0,
0,
0,
0,
0,
0,
0,
0,
0,
0,
0,
0,
0,
0,
0,
0,
0,
0,
0,
0,
0,
0,
0,
0,
0,
0,
0,
0,
0,
0,
0,
0,
0,
0,
0,
0,
0,
0,
0,
0,
0,
0,
0,
0,
0,
0,
0,
0,
0,
0,
0,
0,
0,
0,
0,
0,
0,
0,
0,
0,
0,
0,
0,
0,
0,
0,
0,
0,
0,
0,
#ENDOFDATA   :