File: N132962/Quantification/20 keV/MMM2/SPI MM2 SPI Phlogpite[7][4].msa
#FORMAT      : EMSA/MAS Spectral Data File
#VERSION     : 1.0
#TITLE       : SPI MM2 SPI Phlogpite[7][all]
#DATE        : 13-MAR-2025
#TIME        : 10:49
#OWNER       : Unknown
#NPOINTS     : 4096
#NCOLUMNS    : 1
#XUNITS      : eV
#YUNITS      : counts
#DATATYPE    : Y
#XPERCHAN    : 9.99778
#OFFSET      : 1.69135
#BEAMKV      : 20
#SIGNALTYPE  : EDS
#ELEVANGLE   : 35
#AZIMANGLE   : 0
#LIVETIME    : 239.782
#REALTIME    : 254.636
#PROBECUR    : 1.02606
#TAUWIND     : 0
#TDEADLYR    : 0
#TACTLYR     : 0.045
#TALWIND     : 0.025
#CHOFFSET    : 0.0
#XLABEL      : Energy (eV)
#YLABEL      : Counts
#XPOSITION   : 1.43475
#YPOSITION   : -0.62128
#ZPOSITION   : 31.0351
#EDSDET      : SD
##SPECIMEN   : SPI MM2 SPI Phlogpite[7][all]
##D2STDCMP   : SPI Phlogpite,(H:0.48),(O:46.01),(Mg:17.47),(Al:6.47),(Si:20.19),(K:9.37)
##DET_HASH   : 12273538-fd48-a23f-0a19-f1e6fa85caef
##CALIB_HASH : 6abaa72c-aa41-8738-0be9-f592914732f3
##WORKING    : 15.0 mm
##DET_NAME   : EDAX All
##DET_MODE   : MediumLE
#SPECTRUM    :
31,
26,
9,
9,
71,
279,
897,
3144,
9071,
11706,
5663,
2535,
2543,
3066,
5386,
19617,
77403,
152008,
110875,
29717,
4928,
3274,
4949,
7160,
6222,
3819,
2775,
2607,
2672,
2829,
2861,
2995,
3240,
4612,
6511,
6999,
5488,
4535,
5190,
10737,
36468,
89869,
108548,
61968,
19133,
5916,
4494,
8581,
24315,
47696,
48027,
26132,
10416,
5639,
5041,
10911,
40196,
102563,
140301,
99423,
40711,
14571,
7078,
3989,
2818,
2420,
2517,
2535,
2549,
2504,
2488,
2363,
2645,
2519,
2544,
2692,
2690,
2590,
2635,
2512,
2533,
2473,
2590,
2565,
2556,
2472,
2456,
2537,
2408,
2452,
2429,
2558,
2470,
2491,
2439,
2405,
2345,
2501,
2435,
2525,
2553,
2459,
2402,
2254,
2497,
2590,
3142,
4985,
11335,
24250,
37004,
36922,
24615,
11275,
4724,
2831,
2676,
3212,
4457,
6004,
6187,
5047,
3544,
2679,
2134,
1975,
1816,
1885,
1857,
1843,
1796,
1800,
1856,
1789,
1763,
1726,
1738,
1653,
1668,
1675,
1593,
1586,
1662,
1589,
1598,
1541,
1774,
2005,
2358,
2677,
2674,
2350,
2047,
1719,
1517,
1532,
1464,
1502,
1490,
1586,
1751,
1744,
1792,
1705,
1577,
1546,
1513,
1418,
1463,
1424,
1439,
1421,
1443,
1436,
1370,
1327,
1331,
1279,
1271,
1300,
1204,
1363,
1282,
1237,
1329,
1247,
1224,
1179,
1172,
1073,
1108,
1077,
1161,
1216,
1204,
1331,
1297,
1345,
1260,
1213,
1078,
1122,
997,
1064,
1025,
1096,
1022,
1093,
1356,
1799,
3194,
5547,
8159,
10075,
9323,
6883,
4096,
2381,
1372,
1091,
889,
906,
937,
901,
888,
926,
861,
894,
878,
898,
979,
1022,
1244,
1480,
1879,
2003,
1818,
1477,
1248,
1008,
904,
787,
768,
764,
769,
767,
817,
842,
813,
832,
772,
774,
745,
735,
719,
732,
689,
727,
698,
644,
682,
737,
638,
681,
667,
615,
641,
627,
686,
614,
634,
623,
599,
613,
652,
656,
597,
669,
631,
583,
564,
590,
576,
578,
585,
610,
600,
591,
551,
607,
577,
523,
548,
576,
534,
534,
515,
512,
503,
497,
497,
490,
483,
523,
482,
510,
478,
480,
497,
489,
429,
487,
431,
469,
449,
488,
423,
455,
482,
461,
445,
437,
453,
409,
403,
451,
450,
389,
438,
420,
419,
390,
415,
401,
392,
418,
396,
370,
409,
349,
364,
399,
342,
393,
353,
380,
353,
343,
346,
354,
358,
370,
343,
349,
306,
346,
319,
345,
346,
333,
306,
338,
324,
333,
327,
345,
330,
298,
308,
291,
302,
276,
250,
282,
263,
266,
260,
268,
267,
279,
267,
257,
243,
271,
271,
273,
254,
257,
242,
252,
263,
270,
236,
246,
253,
201,
220,
246,
241,
238,
261,
251,
216,
234,
198,
211,
201,
215,
198,
198,
204,
203,
211,
205,
197,
198,
186,
193,
183,
195,
181,
198,
182,
188,
161,
170,
160,
184,
178,
181,
166,
163,
177,
155,
156,
174,
149,
157,
143,
158,
163,
148,
163,
163,
134,
176,
176,
133,
151,
141,
130,
141,
131,
122,
145,
131,
123,
132,
132,
141,
126,
121,
118,
132,
118,
135,
121,
115,
142,
129,
107,
93,
112,
100,
107,
112,
123,
116,
97,
86,
86,
96,
111,
104,
106,
104,
77,
86,
96,
82,
80,
90,
90,
73,
78,
96,
74,
90,
95,
92,
82,
91,
65,
82,
78,
66,
77,
77,
73,
63,
60,
83,
72,
44,
85,
73,
58,
60,
60,
68,
51,
46,
58,
42,
76,
55,
45,
45,
54,
42,
60,
53,
51,
49,
46,
55,
46,
41,
45,
50,
40,
44,
47,
34,
47,
47,
46,
31,
51,
40,
43,
36,
35,
39,
39,
41,
36,
34,
38,
37,
30,
30,
28,
25,
33,
28,
41,
36,
27,
39,
29,
26,
30,
25,
37,
29,
32,
33,
24,
28,
20,
27,
26,
31,
20,
33,
21,
22,
15,
15,
20,
21,
27,
21,
16,
17,
13,
13,
25,
15,
14,
17,
17,
14,
11,
14,
11,
16,
8,
9,
10,
6,
14,
8,
17,
12,
8,
11,
10,
10,
5,
6,
11,
7,
9,
6,
10,
9,
4,
7,
6,
3,
6,
6,
8,
10,
5,
6,
6,
4,
4,
3,
5,
2,
3,
3,
5,
4,
4,
5,
0,
2,
5,
5,
0,
2,
2,
2,
0,
3,
1,
2,
1,
0,
0,
0,
0,
0,
0,
1,
0,
0,
0,
0,
0,
0,
0,
1,
0,
0,
0,
0,
0,
0,
0,
0,
0,
0,
0,
0,
0,
0,
0,
0,
0,
0,
0,
0,
0,
0,
0,
0,
0,
0,
0,
0,
0,
0,
0,
0,
1,
0,
1,
0,
0,
0,
0,
0,
0,
0,
0,
0,
0,
0,
0,
0,
1,
0,
0,
0,
0,
0,
0,
0,
0,
0,
0,
0,
0,
0,
0,
0,
0,
0,
0,
0,
0,
0,
0,
0,
0,
1,
0,
0,
0,
0,
0,
0,
0,
0,
0,
0,
0,
0,
0,
0,
0,
0,
0,
0,
0,
0,
0,
0,
0,
0,
0,
0,
0,
0,
0,
0,
0,
0,
0,
0,
0,
0,
0,
0,
0,
0,
0,
0,
0,
0,
0,
0,
0,
0,
0,
0,
0,
0,
0,
0,
0,
0,
0,
0,
0,
0,
0,
0,
0,
0,
0,
0,
0,
0,
0,
0,
0,
0,
0,
0,
0,
0,
0,
0,
0,
0,
1,
0,
0,
0,
0,
0,
0,
0,
0,
0,
0,
0,
0,
0,
0,
0,
0,
0,
0,
0,
0,
0,
0,
0,
0,
0,
0,
0,
0,
0,
0,
0,
0,
0,
0,
0,
0,
0,
0,
0,
0,
0,
0,
0,
0,
0,
0,
0,
0,
0,
0,
0,
0,
0,
0,
0,
0,
0,
0,
0,
1,
0,
0,
0,
0,
0,
0,
0,
0,
0,
0,
0,
0,
0,
1,
0,
0,
0,
0,
0,
0,
0,
0,
0,
0,
0,
0,
0,
0,
0,
0,
0,
0,
0,
0,
0,
0,
0,
0,
0,
0,
0,
0,
0,
0,
0,
0,
0,
0,
0,
0,
0,
0,
0,
0,
0,
0,
0,
0,
0,
0,
0,
0,
0,
0,
0,
0,
0,
0,
0,
0,
0,
0,
0,
0,
0,
0,
0,
0,
0,
0,
0,
0,
0,
0,
0,
0,
0,
0,
0,
0,
0,
0,
0,
0,
0,
0,
0,
0,
0,
0,
0,
0,
0,
0,
0,
0,
0,
0,
0,
0,
0,
0,
0,
0,
0,
0,
0,
0,
0,
0,
0,
0,
0,
0,
0,
0,
0,
0,
0,
0,
0,
0,
0,
0,
0,
0,
0,
0,
0,
0,
0,
0,
0,
0,
0,
0,
0,
0,
0,
0,
0,
0,
0,
0,
0,
0,
0,
0,
0,
0,
0,
0,
0,
0,
0,
0,
0,
0,
0,
0,
0,
0,
0,
0,
0,
0,
0,
0,
0,
0,
0,
0,
0,
0,
0,
0,
0,
0,
0,
0,
0,
0,
0,
0,
0,
0,
0,
0,
0,
0,
0,
0,
0,
0,
0,
0,
0,
0,
0,
0,
0,
0,
0,
0,
0,
0,
0,
0,
0,
0,
0,
0,
0,
0,
0,
0,
0,
0,
0,
0,
0,
0,
0,
0,
0,
0,
0,
0,
0,
0,
0,
0,
0,
0,
0,
0,
0,
0,
0,
0,
0,
0,
0,
0,
0,
0,
0,
0,
0,
0,
0,
0,
0,
0,
0,
0,
0,
0,
0,
0,
0,
0,
0,
0,
0,
0,
0,
0,
0,
0,
0,
0,
0,
0,
0,
0,
0,
0,
0,
0,
0,
0,
0,
0,
0,
0,
0,
0,
0,
0,
0,
0,
0,
0,
0,
0,
0,
0,
0,
0,
0,
0,
0,
0,
0,
0,
0,
0,
0,
0,
0,
0,
0,
0,
0,
0,
0,
0,
0,
0,
0,
0,
0,
0,
0,
0,
0,
0,
0,
0,
0,
0,
0,
0,
0,
0,
0,
0,
0,
0,
0,
0,
0,
0,
0,
0,
0,
0,
0,
0,
0,
0,
0,
0,
0,
0,
0,
0,
0,
0,
0,
0,
0,
0,
0,
0,
0,
0,
0,
0,
0,
0,
0,
0,
0,
0,
0,
0,
0,
0,
0,
0,
0,
0,
0,
0,
0,
0,
0,
0,
0,
0,
0,
0,
0,
0,
0,
0,
0,
0,
0,
0,
0,
0,
0,
0,
0,
0,
0,
0,
0,
0,
0,
0,
0,
0,
0,
0,
0,
0,
0,
0,
0,
0,
0,
0,
0,
0,
0,
0,
0,
0,
0,
0,
0,
0,
0,
0,
0,
0,
0,
0,
0,
0,
0,
0,
0,
0,
0,
0,
0,
0,
0,
0,
0,
0,
0,
0,
0,
0,
0,
0,
0,
#ENDOFDATA   :