File: N132962/Quantification/20 keV/MMM2/SPI MM2 Sphodumene[4][4].msa
#FORMAT      : EMSA/MAS Spectral Data File
#VERSION     : 1.0
#TITLE       : SPI MM2 Sphodumene[4][all]
#DATE        : 13-MAR-2025
#TIME        : 13:12
#OWNER       : Unknown
#NPOINTS     : 4096
#NCOLUMNS    : 1
#XUNITS      : eV
#YUNITS      : counts
#DATATYPE    : Y
#XPERCHAN    : 9.99778
#OFFSET      : 1.69135
#BEAMKV      : 20
#SIGNALTYPE  : EDS
#ELEVANGLE   : 35
#AZIMANGLE   : 0
#LIVETIME    : 239.884
#REALTIME    : 255.844
#PROBECUR    : 1.0263
#TAUWIND     : 0
#TDEADLYR    : 0
#TACTLYR     : 0.045
#TALWIND     : 0.025
#CHOFFSET    : 0.0
#XLABEL      : Energy (eV)
#YLABEL      : Counts
#XPOSITION   : 3.54416
#YPOSITION   : 3.46006
#ZPOSITION   : 31.03511
#EDSDET      : SD
##SPECIMEN   : SPI MM2 Sphodumene[4][all]
##DET_HASH   : 12273538-fd48-a23f-0a19-f1e6fa85caef
##CALIB_HASH : 6abaa72c-aa41-8738-0be9-f592914732f3
##WORKING    : 15.0 mm
##DET_NAME   : EDAX All
##DET_MODE   : MediumLE
#SPECTRUM    :
26,
38,
15,
11,
60,
249,
804,
2399,
7099,
9270,
4990,
2365,
2493,
3204,
6706,
26949,
108098,
210774,
154751,
40717,
5065,
1671,
1728,
1875,
1907,
1990,
2057,
2229,
2396,
2487,
2519,
2764,
2941,
3495,
4027,
4230,
3782,
3586,
3613,
3830,
3929,
3988,
4306,
4552,
4726,
5085,
6952,
18805,
63477,
127968,
130977,
68690,
22292,
8234,
6681,
17645,
69994,
179477,
245288,
173120,
69726,
22665,
9772,
4617,
2556,
2204,
2312,
2423,
2269,
2062,
1997,
1988,
2083,
2262,
2537,
2874,
2677,
2383,
2200,
2135,
1990,
2075,
2048,
2061,
1985,
2082,
2054,
2051,
2025,
2048,
2093,
1973,
1941,
1998,
2067,
2002,
1994,
1988,
2036,
2103,
2063,
2039,
1854,
1917,
1905,
1963,
2148,
2240,
2259,
2094,
2001,
1871,
1837,
1964,
1967,
2160,
2179,
2088,
1923,
1754,
1753,
1765,
1764,
1744,
1736,
1668,
1664,
1678,
1627,
1644,
1591,
1562,
1626,
1493,
1494,
1506,
1558,
1519,
1573,
1544,
1499,
1460,
1452,
1411,
1376,
1371,
1377,
1403,
1378,
1381,
1322,
1295,
1373,
1379,
1334,
1314,
1239,
1310,
1234,
1261,
1274,
1304,
1250,
1250,
1218,
1207,
1187,
1183,
1243,
1171,
1218,
1171,
1248,
1086,
1071,
1115,
1135,
1135,
1040,
1095,
1108,
1091,
1128,
1075,
1064,
991,
1017,
1019,
1012,
1054,
1008,
999,
992,
968,
973,
986,
1047,
989,
974,
944,
941,
902,
944,
884,
877,
864,
849,
909,
827,
880,
906,
923,
956,
936,
922,
897,
913,
862,
806,
822,
847,
764,
828,
785,
734,
776,
767,
737,
739,
770,
763,
728,
726,
747,
734,
720,
712,
745,
688,
720,
688,
681,
666,
677,
659,
651,
627,
638,
664,
676,
650,
647,
629,
634,
617,
626,
611,
598,
643,
606,
645,
612,
596,
592,
589,
570,
584,
543,
579,
540,
558,
606,
568,
520,
509,
546,
518,
557,
521,
466,
485,
539,
534,
472,
516,
439,
488,
496,
478,
481,
520,
501,
465,
485,
483,
440,
469,
467,
464,
444,
469,
400,
459,
406,
456,
431,
454,
448,
450,
390,
397,
390,
430,
393,
384,
397,
400,
369,
339,
351,
395,
352,
384,
364,
377,
353,
377,
382,
382,
359,
340,
361,
352,
293,
338,
305,
327,
339,
306,
357,
353,
310,
331,
301,
315,
307,
296,
303,
263,
289,
280,
317,
289,
338,
282,
270,
279,
300,
249,
269,
268,
243,
272,
257,
273,
268,
296,
238,
247,
237,
253,
263,
240,
272,
241,
221,
221,
211,
234,
226,
202,
258,
229,
224,
227,
238,
205,
209,
234,
218,
228,
216,
227,
225,
222,
208,
190,
211,
184,
211,
184,
191,
206,
185,
165,
185,
191,
164,
174,
185,
187,
178,
144,
168,
168,
177,
138,
171,
184,
173,
189,
152,
154,
150,
155,
153,
149,
163,
144,
147,
149,
130,
156,
136,
137,
134,
133,
154,
121,
130,
136,
120,
140,
111,
114,
109,
110,
110,
121,
111,
124,
106,
121,
129,
117,
95,
115,
78,
114,
112,
89,
92,
91,
99,
88,
95,
87,
85,
95,
102,
91,
92,
80,
87,
71,
87,
82,
91,
92,
82,
93,
101,
91,
70,
67,
84,
88,
62,
87,
73,
65,
60,
61,
62,
86,
72,
67,
64,
64,
71,
54,
65,
54,
71,
49,
58,
61,
62,
55,
58,
53,
59,
56,
57,
52,
60,
48,
57,
48,
46,
53,
51,
43,
36,
45,
57,
43,
33,
37,
43,
35,
36,
39,
51,
47,
48,
49,
37,
28,
43,
27,
45,
30,
35,
39,
35,
26,
42,
32,
33,
32,
37,
35,
37,
29,
22,
26,
23,
26,
37,
31,
22,
25,
27,
24,
23,
34,
27,
21,
18,
17,
17,
20,
28,
23,
24,
25,
20,
19,
12,
15,
30,
25,
17,
18,
27,
19,
12,
18,
17,
24,
20,
16,
12,
15,
18,
14,
16,
16,
19,
14,
9,
16,
8,
17,
10,
7,
13,
9,
9,
9,
9,
9,
7,
12,
11,
14,
6,
4,
12,
1,
10,
7,
8,
8,
4,
12,
9,
5,
5,
3,
5,
7,
6,
6,
7,
9,
8,
5,
7,
4,
5,
3,
6,
5,
5,
4,
4,
4,
4,
4,
2,
4,
4,
2,
1,
1,
0,
0,
6,
0,
1,
3,
1,
0,
1,
0,
0,
0,
0,
0,
1,
1,
0,
0,
2,
1,
0,
0,
0,
0,
0,
0,
0,
2,
0,
0,
0,
1,
0,
0,
0,
0,
0,
0,
0,
0,
0,
0,
0,
0,
1,
0,
0,
0,
0,
0,
0,
0,
0,
0,
0,
0,
0,
0,
0,
0,
1,
0,
0,
0,
0,
0,
0,
0,
0,
0,
0,
0,
0,
0,
0,
0,
0,
0,
0,
0,
0,
0,
0,
0,
0,
0,
0,
0,
0,
0,
0,
0,
0,
0,
0,
0,
0,
0,
0,
0,
0,
0,
0,
0,
0,
0,
0,
0,
0,
0,
0,
0,
0,
0,
0,
0,
0,
0,
0,
0,
0,
0,
0,
0,
0,
0,
0,
0,
0,
0,
0,
0,
0,
0,
0,
0,
0,
1,
0,
0,
1,
1,
0,
0,
0,
0,
0,
0,
0,
0,
0,
0,
0,
0,
0,
0,
0,
0,
0,
0,
0,
0,
0,
0,
0,
0,
0,
0,
0,
0,
0,
0,
0,
0,
0,
0,
0,
0,
0,
0,
0,
0,
0,
0,
1,
0,
0,
0,
0,
0,
0,
0,
0,
0,
0,
0,
0,
0,
0,
0,
0,
0,
0,
0,
0,
0,
0,
0,
0,
0,
0,
0,
0,
0,
0,
0,
0,
0,
0,
0,
0,
0,
0,
0,
0,
0,
0,
0,
0,
0,
0,
0,
0,
0,
0,
0,
0,
0,
0,
0,
0,
0,
0,
0,
0,
0,
0,
0,
0,
0,
0,
0,
0,
0,
0,
0,
0,
0,
0,
1,
0,
0,
0,
0,
0,
0,
0,
0,
0,
0,
0,
0,
0,
0,
0,
0,
0,
0,
0,
0,
0,
0,
0,
0,
0,
0,
0,
0,
0,
0,
0,
0,
0,
0,
0,
0,
0,
0,
0,
0,
0,
0,
0,
0,
0,
0,
0,
0,
0,
0,
0,
0,
0,
0,
0,
0,
0,
0,
0,
0,
0,
0,
0,
0,
0,
0,
0,
0,
0,
0,
0,
0,
0,
0,
0,
0,
0,
0,
0,
0,
0,
0,
0,
0,
0,
0,
0,
0,
0,
0,
0,
0,
0,
0,
0,
0,
0,
0,
0,
0,
0,
0,
0,
0,
0,
0,
0,
0,
0,
0,
0,
0,
0,
0,
0,
0,
0,
0,
0,
0,
0,
0,
0,
0,
0,
0,
0,
0,
0,
0,
0,
0,
0,
0,
0,
0,
0,
0,
0,
0,
0,
0,
0,
0,
0,
0,
0,
0,
0,
0,
0,
0,
0,
0,
0,
0,
0,
0,
0,
0,
0,
0,
0,
0,
0,
0,
0,
0,
0,
0,
0,
0,
0,
0,
0,
0,
0,
0,
0,
0,
0,
0,
0,
0,
0,
0,
0,
0,
0,
0,
0,
0,
0,
0,
0,
0,
0,
0,
0,
0,
0,
0,
0,
0,
0,
0,
0,
0,
0,
0,
0,
0,
0,
0,
0,
0,
0,
0,
0,
0,
0,
0,
0,
0,
0,
0,
0,
0,
0,
0,
0,
0,
0,
0,
0,
0,
0,
0,
0,
0,
0,
0,
0,
0,
0,
0,
0,
0,
0,
0,
0,
0,
0,
0,
0,
0,
0,
0,
0,
0,
0,
0,
0,
0,
0,
0,
0,
0,
0,
0,
0,
0,
0,
0,
0,
0,
0,
0,
0,
0,
0,
0,
0,
0,
0,
0,
0,
0,
0,
0,
0,
0,
0,
0,
0,
0,
0,
0,
0,
0,
0,
0,
0,
0,
0,
0,
0,
0,
0,
0,
0,
0,
0,
0,
0,
0,
0,
0,
0,
0,
0,
0,
0,
0,
0,
0,
0,
0,
0,
0,
0,
0,
0,
0,
0,
0,
0,
0,
0,
0,
0,
0,
0,
0,
0,
0,
0,
0,
0,
0,
0,
0,
0,
0,
0,
0,
0,
0,
0,
0,
0,
0,
0,
0,
0,
0,
0,
0,
0,
0,
0,
0,
0,
0,
0,
0,
0,
0,
0,
0,
0,
0,
0,
0,
0,
0,
0,
0,
0,
0,
0,
0,
0,
0,
0,
0,
0,
0,
0,
0,
0,
0,
0,
0,
0,
0,
0,
0,
0,
0,
0,
0,
0,
0,
0,
0,
0,
0,
0,
0,
0,
0,
0,
0,
0,
0,
0,
0,
0,
0,
0,
0,
0,
0,
0,
0,
0,
0,
0,
0,
0,
0,
0,
0,
0,
0,
0,
0,
0,
#ENDOFDATA   :