File: N132962/Quantification/20 keV/MMM2/SPI MM2 SPI Olivine[5][4].msa
#FORMAT      : EMSA/MAS Spectral Data File
#VERSION     : 1.0
#TITLE       : SPI MM2 SPI Olivine[5][all]
#DATE        : 13-MAR-2025
#TIME        : 09:51
#OWNER       : Unknown
#NPOINTS     : 4096
#NCOLUMNS    : 1
#XUNITS      : eV
#YUNITS      : counts
#DATATYPE    : Y
#XPERCHAN    : 9.99778
#OFFSET      : 1.69135
#BEAMKV      : 20
#SIGNALTYPE  : EDS
#ELEVANGLE   : 35
#AZIMANGLE   : 0
#LIVETIME    : 239.493
#REALTIME    : 255.531
#PROBECUR    : 1.02627
#TAUWIND     : 0
#TDEADLYR    : 0
#TACTLYR     : 0.045
#TALWIND     : 0.025
#CHOFFSET    : 0.0
#XLABEL      : Energy (eV)
#YLABEL      : Counts
#XPOSITION   : -3.22091
#YPOSITION   : -2.12755
#ZPOSITION   : 31.03509
#EDSDET      : SD
##SPECIMEN   : SPI MM2 SPI Olivine[5][all]
##D2STDCMP   : SPI Olivine,(O:43.96),(Mg:30.26),(Si:19.14),(Mn:0.089),(Fe:6.35),(Ni:0.278),5.0
##DET_HASH   : 12273538-fd48-a23f-0a19-f1e6fa85caef
##CALIB_HASH : 6abaa72c-aa41-8738-0be9-f592914732f3
##WORKING    : 15.0 mm
##DET_NAME   : EDAX All
##DET_MODE   : MediumLE
#SPECTRUM    :
32,
25,
6,
20,
88,
277,
819,
2566,
7297,
9768,
5092,
2451,
2702,
3496,
6407,
25222,
101578,
200667,
147946,
39174,
5659,
3054,
4133,
6866,
6912,
4146,
2858,
2886,
3296,
3408,
3095,
3047,
3260,
3636,
4031,
4350,
4858,
5328,
7103,
19192,
77705,
198015,
238984,
132695,
36943,
7577,
3170,
2742,
2754,
2972,
3145,
3274,
3231,
3530,
4134,
10270,
39153,
99943,
135793,
96957,
39367,
14040,
6722,
3698,
2501,
2281,
2217,
2175,
2263,
2328,
2215,
2242,
2179,
2464,
2480,
2663,
2549,
2498,
2389,
2356,
2376,
2454,
2592,
2685,
2647,
2479,
2469,
2297,
2419,
2297,
2340,
2215,
2244,
2309,
2267,
2213,
2236,
2249,
2312,
2505,
2592,
2419,
2345,
2186,
2234,
2101,
2114,
2042,
1997,
2071,
2034,
2039,
2087,
2043,
1976,
2071,
1970,
2047,
1987,
1942,
1931,
1842,
1917,
1796,
1831,
1839,
1839,
1859,
1842,
1791,
1893,
1782,
1748,
1794,
1671,
1703,
1644,
1650,
1701,
1670,
1636,
1615,
1589,
1696,
1582,
1607,
1547,
1613,
1515,
1562,
1486,
1460,
1488,
1507,
1516,
1471,
1561,
1530,
1440,
1414,
1481,
1361,
1379,
1396,
1395,
1380,
1337,
1356,
1320,
1318,
1338,
1296,
1299,
1301,
1319,
1330,
1296,
1299,
1274,
1257,
1282,
1228,
1290,
1274,
1186,
1168,
1145,
1209,
1108,
1138,
1110,
1125,
1087,
1127,
1131,
1326,
1249,
1315,
1289,
1090,
1140,
1062,
1019,
1057,
1095,
1012,
1026,
1099,
1303,
1979,
3581,
6478,
9891,
11876,
11032,
8300,
4954,
2625,
1408,
1016,
976,
850,
916,
906,
850,
891,
889,
882,
894,
971,
960,
1122,
1298,
1715,
2141,
2217,
2109,
1672,
1288,
958,
845,
754,
722,
778,
772,
837,
911,
995,
1052,
1088,
1029,
993,
863,
772,
758,
712,
728,
692,
696,
698,
663,
636,
637,
655,
650,
650,
650,
655,
654,
608,
638,
664,
663,
626,
664,
670,
650,
635,
582,
567,
580,
616,
575,
588,
566,
539,
540,
577,
544,
547,
558,
553,
519,
561,
557,
562,
493,
501,
492,
520,
546,
485,
470,
472,
460,
507,
484,
460,
488,
453,
476,
492,
433,
423,
452,
451,
424,
413,
414,
432,
443,
421,
401,
417,
402,
420,
426,
391,
397,
415,
409,
399,
403,
382,
388,
379,
384,
363,
370,
368,
356,
362,
388,
380,
354,
391,
369,
337,
329,
332,
346,
347,
322,
347,
349,
328,
322,
284,
313,
306,
289,
307,
312,
330,
321,
307,
319,
323,
278,
290,
276,
307,
268,
272,
261,
273,
260,
284,
260,
249,
245,
236,
241,
317,
259,
243,
234,
259,
268,
264,
238,
221,
227,
245,
216,
250,
239,
198,
215,
235,
203,
220,
196,
230,
222,
240,
201,
198,
189,
216,
226,
189,
206,
210,
181,
207,
182,
180,
166,
160,
177,
204,
164,
190,
180,
178,
181,
177,
155,
177,
155,
169,
146,
157,
144,
162,
147,
149,
150,
151,
125,
144,
138,
133,
133,
115,
131,
144,
123,
153,
131,
118,
147,
129,
129,
126,
140,
104,
131,
109,
125,
136,
134,
115,
115,
105,
95,
112,
94,
111,
95,
115,
112,
122,
115,
100,
100,
95,
104,
87,
90,
93,
98,
95,
94,
89,
79,
75,
68,
87,
92,
70,
87,
86,
87,
87,
79,
90,
85,
96,
75,
64,
90,
75,
70,
61,
61,
61,
67,
53,
53,
89,
68,
63,
71,
68,
64,
51,
49,
72,
58,
72,
47,
59,
64,
58,
62,
53,
62,
50,
39,
57,
54,
48,
51,
41,
49,
39,
36,
34,
36,
43,
37,
50,
33,
51,
41,
29,
46,
37,
44,
34,
32,
38,
38,
39,
27,
28,
34,
33,
29,
28,
31,
32,
31,
22,
29,
36,
35,
30,
25,
27,
22,
24,
34,
28,
30,
19,
21,
25,
20,
23,
19,
26,
26,
14,
12,
14,
18,
19,
21,
12,
16,
24,
25,
24,
20,
9,
13,
17,
19,
12,
17,
23,
16,
10,
11,
19,
13,
13,
12,
15,
16,
10,
11,
12,
10,
9,
9,
3,
9,
7,
7,
7,
14,
9,
5,
2,
5,
7,
8,
8,
2,
3,
8,
3,
6,
7,
6,
4,
6,
1,
7,
3,
4,
8,
2,
1,
8,
6,
2,
3,
3,
3,
1,
0,
1,
0,
4,
3,
2,
0,
2,
2,
0,
0,
1,
0,
0,
1,
0,
0,
0,
0,
0,
1,
1,
1,
0,
0,
0,
0,
0,
0,
0,
0,
0,
0,
0,
0,
0,
0,
0,
0,
0,
0,
0,
0,
0,
0,
0,
0,
0,
0,
0,
0,
0,
0,
0,
0,
0,
0,
0,
0,
0,
0,
0,
0,
1,
1,
0,
0,
0,
0,
0,
0,
1,
0,
0,
0,
0,
0,
0,
0,
0,
0,
0,
0,
0,
0,
0,
0,
0,
0,
0,
1,
0,
0,
0,
0,
0,
0,
0,
0,
0,
0,
0,
0,
0,
0,
0,
0,
0,
0,
0,
0,
0,
0,
0,
0,
1,
0,
0,
0,
0,
0,
0,
0,
1,
0,
0,
0,
0,
0,
0,
0,
0,
0,
0,
0,
0,
0,
0,
0,
0,
0,
0,
0,
0,
0,
0,
0,
0,
0,
0,
0,
0,
0,
0,
0,
0,
1,
0,
0,
0,
0,
0,
0,
0,
0,
0,
0,
0,
0,
0,
0,
0,
0,
0,
0,
0,
0,
0,
0,
0,
0,
0,
0,
0,
0,
0,
0,
0,
0,
0,
0,
0,
0,
1,
0,
0,
0,
0,
0,
0,
0,
0,
0,
0,
0,
0,
0,
0,
0,
0,
0,
0,
0,
0,
0,
0,
0,
0,
0,
0,
0,
0,
0,
0,
0,
0,
0,
0,
0,
0,
0,
0,
0,
0,
0,
0,
0,
0,
0,
0,
0,
0,
0,
0,
0,
0,
0,
0,
0,
0,
0,
0,
0,
0,
0,
0,
0,
0,
0,
0,
0,
0,
0,
0,
0,
0,
0,
0,
0,
0,
0,
0,
0,
0,
0,
0,
0,
0,
0,
0,
0,
0,
0,
0,
0,
0,
0,
0,
0,
0,
0,
0,
0,
0,
0,
0,
0,
0,
0,
0,
0,
0,
0,
0,
0,
0,
0,
0,
0,
0,
0,
0,
0,
0,
0,
0,
0,
0,
0,
0,
0,
0,
0,
0,
0,
0,
0,
0,
0,
0,
0,
0,
0,
0,
0,
0,
0,
0,
0,
0,
0,
0,
0,
0,
0,
0,
0,
0,
0,
0,
0,
0,
0,
0,
0,
0,
0,
0,
0,
0,
0,
0,
0,
0,
0,
0,
0,
0,
0,
0,
0,
0,
0,
0,
0,
0,
0,
0,
0,
0,
0,
0,
0,
0,
0,
0,
0,
0,
0,
0,
0,
0,
0,
0,
0,
0,
0,
0,
0,
0,
0,
0,
0,
0,
0,
0,
0,
0,
0,
0,
0,
0,
0,
0,
0,
0,
0,
0,
0,
0,
0,
0,
0,
0,
0,
0,
0,
0,
0,
0,
0,
0,
0,
0,
0,
0,
0,
0,
0,
0,
0,
0,
0,
0,
0,
0,
0,
0,
0,
0,
0,
0,
0,
0,
0,
0,
0,
0,
0,
0,
0,
0,
0,
0,
0,
0,
0,
0,
0,
0,
0,
0,
0,
0,
0,
0,
0,
0,
0,
0,
0,
0,
0,
0,
0,
0,
0,
0,
0,
0,
0,
0,
0,
0,
0,
0,
0,
0,
0,
0,
0,
0,
0,
0,
0,
0,
0,
0,
0,
0,
0,
0,
0,
0,
0,
0,
0,
0,
0,
0,
0,
0,
0,
0,
0,
0,
0,
0,
0,
0,
0,
0,
0,
0,
0,
0,
0,
0,
0,
0,
0,
0,
0,
0,
0,
0,
0,
0,
0,
0,
0,
0,
0,
0,
0,
0,
0,
0,
0,
0,
0,
0,
0,
0,
0,
0,
0,
0,
0,
0,
0,
0,
0,
0,
0,
0,
0,
0,
0,
0,
0,
0,
0,
0,
0,
0,
0,
0,
0,
0,
0,
0,
0,
0,
0,
0,
0,
0,
0,
0,
0,
0,
0,
0,
0,
0,
0,
0,
0,
0,
0,
0,
0,
0,
0,
0,
0,
0,
0,
0,
0,
0,
0,
0,
0,
0,
0,
0,
0,
0,
0,
0,
0,
0,
0,
0,
0,
0,
0,
0,
0,
0,
0,
0,
0,
0,
0,
0,
0,
0,
0,
0,
0,
0,
0,
0,
0,
0,
0,
0,
0,
0,
0,
0,
0,
0,
0,
0,
0,
0,
0,
0,
0,
0,
0,
0,
0,
0,
0,
0,
0,
0,
0,
0,
0,
0,
0,
0,
0,
0,
0,
0,
0,
0,
0,
0,
0,
0,
0,
0,
0,
0,
0,
0,
0,
0,
0,
0,
0,
0,
0,
#ENDOFDATA   :