File: N132962/Quantification/20 keV/MMM2/SPI MM2 SPI Orthoclaise[4][4].msa
#FORMAT      : EMSA/MAS Spectral Data File
#VERSION     : 1.0
#TITLE       : SPI MM2 SPI Orthoclaise[4][all]
#DATE        : 13-MAR-2025
#TIME        : 10:27
#OWNER       : Unknown
#NPOINTS     : 4096
#NCOLUMNS    : 1
#XUNITS      : eV
#YUNITS      : counts
#DATATYPE    : Y
#XPERCHAN    : 9.99778
#OFFSET      : 1.69135
#BEAMKV      : 20
#SIGNALTYPE  : EDS
#ELEVANGLE   : 35
#AZIMANGLE   : 0
#LIVETIME    : 239.868
#REALTIME    : 255.97
#PROBECUR    : 1.02606
#TAUWIND     : 0
#TDEADLYR    : 0
#TACTLYR     : 0.045
#TALWIND     : 0.025
#CHOFFSET    : 0.0
#XLABEL      : Energy (eV)
#YLABEL      : Counts
#XPOSITION   : 6.16166
#YPOSITION   : 0.1255
#ZPOSITION   : 31.0351
#EDSDET      : SD
##SPECIMEN   : SPI MM2 SPI Orthoclaise[4][all]
##D2STDCMP   : SPI Orthoclaise,(O:45.86),(Na:0.67),(Al:8.85),(Si:30.29),(K:12.85),(Fe:1.4),(Ba:0.04),5.0
##DET_HASH   : 12273538-fd48-a23f-0a19-f1e6fa85caef
##CALIB_HASH : 6abaa72c-aa41-8738-0be9-f592914732f3
##WORKING    : 15.0 mm
##DET_NAME   : EDAX All
##DET_MODE   : MediumLE
#SPECTRUM    :
23,
23,
14,
14,
68,
284,
881,
3224,
8970,
10968,
5449,
2244,
2114,
2442,
4350,
15902,
63650,
125387,
92278,
24336,
3842,
2115,
2598,
3516,
3500,
2657,
2439,
2530,
2641,
2713,
2745,
2936,
3092,
3598,
4282,
4539,
4018,
3748,
3824,
3972,
4029,
4305,
4357,
4478,
4697,
4959,
6152,
12768,
37790,
74746,
76428,
40748,
16129,
8048,
7306,
18389,
74468,
191937,
261252,
183479,
73503,
24562,
11043,
5249,
2942,
2496,
2507,
2528,
2586,
2502,
2459,
2470,
2407,
2531,
2783,
2999,
2943,
2668,
2677,
2575,
2497,
2513,
2457,
2460,
2490,
2369,
2514,
2405,
2427,
2410,
2442,
2425,
2461,
2415,
2435,
2372,
2418,
2427,
2420,
2351,
2313,
2303,
2378,
2427,
2565,
2949,
3863,
7264,
18355,
41025,
63183,
62972,
41149,
18425,
6815,
3431,
3332,
4219,
6231,
8725,
9225,
7116,
4501,
2678,
2047,
1853,
1859,
1768,
1771,
1775,
1656,
1760,
1781,
1723,
1676,
1661,
1674,
1683,
1621,
1636,
1649,
1566,
1597,
1640,
1572,
1534,
1603,
1568,
1632,
1623,
1575,
1571,
1548,
1502,
1503,
1557,
1505,
1494,
1522,
1466,
1520,
1537,
1497,
1470,
1458,
1477,
1474,
1510,
1524,
1571,
1420,
1429,
1386,
1273,
1327,
1284,
1272,
1251,
1301,
1242,
1286,
1224,
1220,
1258,
1238,
1198,
1210,
1193,
1186,
1127,
1240,
1208,
1124,
1104,
1147,
1116,
1105,
1128,
1098,
1019,
1068,
1029,
1042,
1050,
1102,
1027,
1040,
1055,
1134,
1311,
1820,
2813,
3645,
4458,
4252,
3346,
2280,
1457,
1064,
998,
925,
912,
979,
970,
849,
915,
892,
871,
923,
895,
905,
1007,
1008,
1169,
1223,
1318,
1240,
1091,
920,
913,
881,
822,
836,
765,
797,
791,
741,
769,
757,
767,
840,
752,
713,
757,
726,
710,
696,
705,
697,
656,
729,
710,
647,
700,
691,
701,
710,
647,
666,
634,
639,
636,
658,
634,
665,
638,
637,
617,
571,
583,
560,
597,
592,
584,
622,
568,
583,
577,
612,
562,
584,
538,
530,
579,
538,
545,
574,
537,
567,
522,
511,
511,
499,
518,
517,
545,
498,
446,
516,
514,
520,
495,
487,
508,
487,
458,
472,
456,
437,
451,
452,
460,
408,
450,
402,
406,
430,
434,
439,
389,
435,
406,
401,
419,
428,
440,
435,
400,
413,
370,
409,
372,
364,
368,
349,
360,
382,
332,
357,
361,
370,
357,
354,
348,
344,
330,
331,
339,
338,
311,
335,
321,
322,
336,
330,
342,
303,
327,
308,
333,
320,
325,
286,
280,
292,
294,
278,
279,
270,
299,
275,
266,
257,
285,
275,
271,
245,
284,
261,
274,
236,
237,
267,
232,
234,
249,
257,
217,
239,
212,
225,
262,
213,
211,
219,
241,
230,
226,
234,
223,
219,
199,
225,
210,
212,
219,
196,
205,
185,
178,
207,
174,
189,
185,
182,
202,
177,
172,
177,
174,
188,
169,
194,
153,
155,
167,
151,
154,
154,
139,
182,
164,
147,
146,
146,
144,
157,
155,
146,
156,
155,
129,
138,
136,
139,
134,
135,
111,
133,
127,
140,
125,
114,
114,
125,
128,
111,
125,
133,
109,
129,
116,
125,
118,
110,
115,
120,
116,
109,
103,
116,
94,
82,
98,
92,
89,
109,
108,
98,
94,
84,
92,
99,
85,
86,
82,
90,
90,
83,
62,
62,
75,
85,
78,
87,
90,
75,
81,
57,
74,
55,
77,
67,
71,
58,
60,
70,
70,
58,
65,
54,
56,
71,
59,
50,
66,
55,
55,
51,
53,
54,
52,
53,
42,
49,
48,
54,
39,
43,
52,
33,
61,
31,
40,
48,
43,
28,
39,
34,
45,
42,
43,
37,
53,
34,
28,
39,
32,
26,
24,
18,
52,
34,
26,
25,
26,
32,
26,
30,
29,
24,
27,
28,
34,
35,
30,
24,
30,
29,
27,
21,
31,
24,
22,
25,
28,
22,
28,
21,
27,
16,
17,
22,
26,
24,
22,
10,
18,
27,
18,
21,
14,
16,
24,
18,
12,
15,
12,
14,
13,
9,
11,
15,
15,
12,
14,
19,
9,
10,
11,
18,
17,
10,
10,
6,
3,
7,
3,
8,
4,
7,
7,
8,
7,
9,
9,
6,
3,
5,
6,
4,
5,
4,
10,
5,
2,
1,
0,
5,
3,
4,
5,
3,
4,
3,
2,
1,
1,
1,
3,
2,
2,
1,
0,
1,
1,
0,
0,
0,
0,
0,
0,
0,
0,
0,
1,
0,
0,
0,
0,
0,
0,
0,
0,
0,
0,
0,
1,
0,
0,
0,
0,
0,
0,
0,
1,
1,
0,
0,
0,
1,
1,
0,
0,
0,
1,
0,
0,
0,
0,
0,
0,
0,
0,
0,
1,
1,
0,
0,
1,
0,
0,
0,
0,
0,
0,
0,
0,
0,
1,
0,
0,
0,
0,
0,
0,
0,
0,
0,
0,
0,
0,
0,
0,
0,
0,
0,
0,
0,
0,
0,
0,
0,
0,
0,
0,
0,
0,
0,
0,
0,
0,
0,
0,
0,
0,
0,
0,
0,
0,
0,
0,
0,
0,
0,
0,
0,
0,
0,
0,
0,
0,
0,
0,
0,
0,
0,
0,
0,
0,
0,
0,
0,
0,
0,
0,
0,
0,
0,
0,
0,
0,
0,
0,
0,
0,
0,
0,
0,
0,
0,
0,
0,
0,
0,
0,
1,
0,
0,
0,
0,
0,
0,
0,
0,
0,
0,
0,
0,
0,
0,
0,
0,
0,
1,
0,
0,
0,
0,
0,
0,
0,
0,
0,
0,
0,
0,
0,
0,
0,
0,
0,
0,
0,
0,
1,
0,
0,
1,
0,
0,
0,
0,
0,
0,
0,
0,
0,
0,
0,
0,
0,
0,
0,
0,
0,
0,
0,
0,
0,
0,
0,
0,
0,
0,
0,
0,
0,
0,
0,
0,
0,
0,
0,
0,
0,
0,
0,
0,
0,
0,
0,
0,
0,
0,
0,
0,
0,
0,
0,
0,
0,
0,
0,
0,
0,
0,
0,
0,
0,
0,
0,
0,
0,
0,
0,
0,
0,
0,
0,
0,
0,
0,
0,
0,
0,
0,
0,
0,
0,
0,
0,
0,
0,
0,
0,
0,
0,
1,
0,
0,
0,
0,
0,
0,
0,
0,
0,
0,
0,
0,
0,
0,
0,
0,
0,
0,
0,
0,
0,
0,
0,
0,
0,
0,
0,
0,
0,
0,
0,
0,
0,
0,
0,
0,
0,
0,
0,
0,
0,
0,
0,
0,
0,
0,
0,
0,
0,
0,
0,
0,
0,
0,
0,
0,
0,
0,
0,
0,
0,
0,
0,
0,
0,
0,
0,
0,
0,
0,
0,
0,
0,
0,
0,
0,
0,
0,
0,
0,
0,
0,
0,
0,
0,
0,
0,
0,
0,
0,
0,
0,
0,
0,
0,
0,
0,
0,
0,
0,
0,
0,
0,
0,
0,
0,
0,
0,
0,
0,
0,
0,
0,
0,
0,
0,
0,
0,
0,
0,
0,
0,
0,
0,
0,
0,
0,
0,
0,
0,
0,
0,
0,
0,
0,
0,
0,
0,
0,
0,
0,
0,
0,
0,
0,
0,
0,
0,
0,
0,
0,
0,
0,
0,
0,
0,
0,
0,
0,
0,
0,
0,
0,
0,
0,
0,
0,
0,
0,
0,
0,
0,
0,
0,
0,
0,
0,
0,
0,
0,
0,
0,
0,
0,
0,
0,
0,
0,
0,
0,
0,
0,
0,
0,
0,
0,
0,
0,
0,
0,
0,
0,
0,
0,
0,
0,
0,
0,
0,
0,
0,
0,
0,
0,
0,
0,
0,
0,
0,
0,
0,
0,
0,
0,
0,
0,
0,
0,
0,
0,
0,
0,
0,
0,
0,
0,
0,
0,
0,
0,
0,
0,
0,
0,
0,
0,
0,
0,
0,
0,
0,
0,
0,
0,
0,
0,
0,
0,
0,
0,
0,
0,
0,
0,
0,
0,
0,
0,
0,
0,
0,
0,
0,
0,
0,
0,
0,
0,
0,
0,
0,
0,
0,
0,
0,
0,
0,
0,
0,
0,
0,
0,
0,
0,
0,
0,
0,
0,
0,
0,
0,
0,
0,
0,
0,
0,
0,
0,
0,
0,
0,
0,
0,
0,
0,
0,
0,
0,
0,
0,
0,
0,
0,
0,
0,
0,
0,
0,
0,
0,
0,
0,
0,
0,
0,
0,
0,
0,
0,
0,
0,
0,
0,
0,
0,
0,
0,
0,
0,
0,
0,
0,
0,
0,
0,
0,
0,
0,
0,
0,
0,
0,
0,
0,
0,
0,
0,
0,
0,
0,
0,
0,
0,
0,
0,
0,
0,
0,
0,
0,
0,
0,
0,
0,
0,
0,
0,
0,
0,
0,
0,
0,
0,
0,
0,
0,
0,
0,
0,
0,
0,
0,
0,
0,
0,
0,
0,
0,
0,
0,
0,
0,
0,
0,
0,
0,
0,
#ENDOFDATA   :