File: N132962/Quantification/20 keV/MMM2/SPI MM2 Wollastonite[1][4].msa
#FORMAT      : EMSA/MAS Spectral Data File
#VERSION     : 1.0
#TITLE       : SPI MM2 Wollastonite[1][all]
#DATE        : 13-MAR-2025
#TIME        : 13:54
#OWNER       : Unknown
#NPOINTS     : 4096
#NCOLUMNS    : 1
#XUNITS      : eV
#YUNITS      : counts
#DATATYPE    : Y
#XPERCHAN    : 9.99778
#OFFSET      : 1.69135
#BEAMKV      : 20
#SIGNALTYPE  : EDS
#ELEVANGLE   : 35
#AZIMANGLE   : 0
#LIVETIME    : 239.85
#REALTIME    : 256.179
#PROBECUR    : 1.0264
#TAUWIND     : 0
#TDEADLYR    : 0
#TACTLYR     : 0.045
#TALWIND     : 0.025
#CHOFFSET    : 0.0
#XLABEL      : Energy (eV)
#YLABEL      : Counts
#XPOSITION   : 0.02148
#YPOSITION   : 6.26525
#ZPOSITION   : 31.03511
#EDSDET      : SD
##SPECIMEN   : SPI MM2 Wollastonite[1][all]
##DET_HASH   : 12273538-fd48-a23f-0a19-f1e6fa85caef
##CALIB_HASH : 6abaa72c-aa41-8738-0be9-f592914732f3
##WORKING    : 15.0 mm
##DET_NAME   : EDAX All
##DET_MODE   : MediumLE
#SPECTRUM    :
22,
33,
9,
14,
70,
282,
835,
3120,
9451,
14448,
10565,
5513,
3200,
2251,
3055,
9381,
36289,
70164,
52078,
14136,
2762,
1722,
1859,
2098,
2118,
2196,
2258,
2468,
2698,
2879,
2830,
3007,
3028,
3197,
3339,
3576,
3557,
3693,
3823,
3909,
4062,
4045,
4300,
4325,
4383,
4597,
4809,
4879,
5150,
5389,
5471,
5656,
5764,
5849,
7156,
17499,
66570,
168516,
230115,
161457,
65181,
22686,
10763,
6340,
5107,
4969,
4440,
3613,
3248,
3219,
3184,
3115,
3160,
3298,
3365,
3570,
3540,
3369,
3213,
3106,
3086,
3126,
3126,
3142,
3053,
3022,
3000,
2990,
3012,
2995,
2914,
2805,
2828,
2874,
2897,
2791,
2834,
2883,
2840,
2779,
2885,
2881,
2649,
2718,
2746,
2889,
2740,
2745,
2759,
2645,
2610,
2532,
2567,
2668,
2718,
2975,
3249,
3820,
4980,
9508,
26688,
67740,
127723,
161269,
134920,
75852,
29341,
9220,
3913,
3087,
4065,
7074,
12761,
19293,
21393,
16946,
9913,
4708,
2478,
1913,
1817,
1810,
1722,
1663,
1636,
1676,
1595,
1670,
1617,
1644,
1693,
1663,
1591,
1591,
1667,
1557,
1606,
1474,
1565,
1513,
1551,
1576,
1552,
1519,
1551,
1488,
1495,
1378,
1463,
1454,
1496,
1375,
1411,
1424,
1415,
1371,
1449,
1478,
1493,
1562,
1704,
1676,
1694,
1585,
1405,
1439,
1323,
1317,
1285,
1274,
1259,
1321,
1330,
1322,
1315,
1384,
1361,
1326,
1250,
1203,
1205,
1165,
1140,
1138,
1132,
1169,
1163,
1117,
1148,
1097,
1160,
1160,
1220,
1274,
1249,
1182,
1152,
1058,
981,
1145,
1049,
1108,
1049,
1020,
1023,
995,
978,
1006,
1034,
979,
944,
962,
940,
966,
977,
998,
1018,
896,
914,
932,
900,
892,
915,
982,
941,
975,
1070,
1028,
993,
978,
922,
933,
804,
873,
841,
891,
889,
907,
827,
758,
789,
827,
806,
826,
734,
758,
819,
793,
753,
754,
786,
702,
699,
747,
748,
727,
755,
696,
658,
736,
705,
662,
700,
680,
703,
653,
693,
630,
630,
616,
638,
655,
624,
608,
627,
621,
636,
598,
591,
612,
595,
591,
608,
570,
614,
597,
622,
557,
591,
588,
611,
548,
509,
552,
526,
549,
543,
529,
489,
568,
512,
500,
509,
532,
498,
493,
499,
498,
502,
499,
491,
501,
498,
479,
456,
490,
498,
453,
463,
447,
458,
441,
453,
446,
467,
422,
472,
452,
432,
395,
402,
415,
402,
380,
428,
417,
390,
377,
411,
368,
417,
361,
392,
382,
402,
400,
372,
367,
363,
359,
333,
359,
359,
385,
336,
360,
342,
344,
319,
358,
326,
341,
334,
293,
339,
301,
326,
331,
330,
289,
293,
305,
294,
273,
284,
283,
286,
277,
312,
279,
289,
275,
282,
238,
258,
262,
248,
254,
226,
245,
251,
263,
243,
258,
252,
246,
237,
262,
247,
236,
219,
212,
240,
239,
204,
209,
219,
227,
196,
209,
232,
199,
199,
218,
213,
215,
198,
213,
189,
203,
175,
186,
178,
196,
185,
187,
160,
182,
178,
175,
174,
193,
156,
156,
164,
146,
155,
153,
167,
173,
151,
159,
156,
154,
152,
144,
139,
139,
158,
130,
151,
125,
142,
129,
143,
131,
142,
136,
120,
116,
146,
109,
125,
118,
123,
105,
108,
118,
100,
115,
97,
126,
95,
105,
89,
118,
88,
104,
88,
95,
81,
108,
75,
84,
82,
79,
78,
103,
53,
75,
71,
91,
73,
98,
78,
77,
65,
70,
74,
73,
87,
70,
62,
76,
77,
71,
70,
79,
62,
72,
64,
76,
81,
46,
71,
59,
65,
47,
58,
60,
64,
56,
59,
53,
52,
58,
49,
65,
55,
62,
41,
45,
46,
42,
53,
49,
51,
33,
43,
34,
41,
39,
41,
42,
49,
40,
35,
36,
37,
44,
30,
42,
23,
32,
33,
37,
39,
34,
33,
25,
32,
32,
34,
25,
39,
34,
19,
34,
34,
18,
29,
22,
21,
24,
17,
18,
30,
17,
21,
20,
17,
23,
25,
23,
16,
16,
14,
12,
15,
18,
13,
12,
13,
15,
9,
13,
18,
20,
11,
11,
16,
6,
15,
15,
8,
12,
10,
14,
9,
12,
9,
10,
9,
13,
5,
8,
8,
9,
6,
5,
8,
7,
6,
5,
6,
3,
8,
5,
3,
3,
0,
8,
1,
3,
2,
5,
2,
4,
5,
4,
4,
2,
4,
0,
0,
0,
2,
0,
2,
0,
0,
0,
0,
0,
0,
0,
0,
0,
0,
0,
2,
0,
0,
0,
0,
0,
1,
0,
1,
0,
0,
0,
0,
0,
0,
0,
0,
0,
0,
0,
0,
0,
0,
0,
0,
0,
0,
0,
0,
0,
1,
0,
0,
0,
0,
0,
0,
0,
0,
0,
0,
0,
0,
0,
0,
0,
0,
0,
0,
0,
1,
0,
0,
0,
0,
0,
0,
0,
0,
0,
0,
0,
0,
0,
0,
1,
0,
0,
0,
0,
0,
1,
0,
0,
0,
0,
1,
1,
0,
0,
0,
0,
0,
0,
0,
0,
0,
0,
0,
0,
0,
0,
0,
0,
0,
0,
0,
0,
0,
1,
0,
0,
1,
0,
0,
0,
0,
0,
0,
0,
0,
0,
0,
0,
0,
0,
0,
0,
0,
0,
0,
0,
0,
0,
0,
0,
0,
0,
0,
0,
0,
0,
0,
0,
0,
0,
0,
0,
0,
0,
0,
0,
0,
0,
0,
0,
0,
1,
0,
0,
0,
0,
0,
0,
0,
0,
0,
0,
0,
0,
0,
0,
0,
0,
0,
0,
0,
0,
0,
0,
0,
0,
0,
0,
0,
0,
0,
0,
0,
0,
0,
0,
0,
0,
0,
1,
0,
0,
0,
0,
0,
0,
0,
0,
0,
0,
0,
0,
0,
0,
0,
0,
0,
0,
0,
0,
0,
0,
0,
0,
0,
0,
0,
0,
0,
0,
0,
0,
0,
0,
0,
1,
0,
0,
0,
0,
0,
0,
0,
0,
0,
0,
0,
0,
0,
0,
0,
0,
0,
0,
0,
0,
0,
0,
0,
0,
0,
0,
0,
0,
0,
0,
0,
0,
0,
0,
0,
0,
0,
0,
0,
0,
0,
1,
0,
0,
0,
0,
0,
0,
0,
0,
0,
0,
0,
0,
0,
0,
0,
0,
0,
2,
0,
0,
0,
0,
0,
0,
0,
0,
0,
0,
0,
0,
0,
0,
0,
0,
0,
0,
0,
0,
0,
0,
0,
0,
0,
0,
0,
0,
0,
0,
0,
0,
0,
0,
0,
0,
0,
0,
0,
0,
0,
0,
0,
0,
0,
0,
0,
0,
0,
0,
0,
0,
0,
0,
0,
0,
0,
0,
0,
0,
0,
0,
0,
0,
0,
0,
0,
0,
0,
0,
0,
0,
0,
0,
0,
0,
0,
0,
0,
0,
0,
0,
0,
0,
0,
0,
0,
0,
0,
0,
0,
0,
0,
0,
0,
0,
0,
0,
0,
0,
0,
0,
0,
0,
0,
0,
0,
0,
0,
0,
0,
0,
0,
0,
0,
0,
0,
0,
0,
0,
0,
0,
0,
0,
0,
0,
0,
0,
0,
0,
0,
0,
0,
0,
0,
0,
0,
0,
0,
0,
0,
0,
0,
0,
0,
0,
0,
0,
0,
0,
0,
0,
0,
0,
0,
0,
0,
0,
0,
0,
0,
0,
0,
0,
0,
0,
0,
0,
0,
0,
0,
0,
0,
0,
0,
0,
0,
0,
0,
0,
0,
0,
0,
0,
0,
0,
0,
0,
0,
0,
0,
0,
0,
0,
0,
0,
0,
0,
0,
0,
0,
0,
0,
0,
0,
0,
0,
0,
0,
0,
0,
0,
0,
0,
0,
0,
0,
0,
0,
0,
0,
0,
0,
0,
0,
0,
0,
0,
0,
0,
0,
0,
0,
0,
0,
0,
0,
0,
0,
0,
0,
0,
0,
0,
0,
0,
0,
0,
0,
0,
0,
0,
0,
0,
0,
0,
0,
0,
0,
0,
0,
0,
0,
0,
0,
0,
0,
0,
0,
0,
0,
0,
0,
0,
0,
0,
0,
0,
0,
0,
0,
0,
0,
0,
0,
0,
0,
0,
0,
0,
0,
0,
0,
0,
0,
0,
0,
0,
0,
0,
0,
0,
0,
0,
0,
0,
0,
0,
0,
0,
0,
0,
0,
0,
0,
0,
0,
0,
0,
0,
0,
0,
0,
0,
0,
0,
0,
0,
0,
0,
0,
0,
0,
0,
0,
0,
0,
0,
0,
0,
0,
0,
0,
0,
0,
0,
0,
0,
0,
0,
0,
0,
0,
0,
0,
0,
0,
0,
0,
0,
0,
0,
0,
0,
0,
0,
0,
0,
0,
0,
0,
0,
0,
0,
0,
0,
0,
0,
0,
0,
0,
0,
0,
0,
0,
0,
0,
0,
0,
0,
0,
0,
0,
0,
0,
0,
0,
0,
0,
0,
0,
0,
0,
0,
#ENDOFDATA   :