File: N132962/Quantification/20 keV/MMM2/SPI MM2 SPI Pollucite[2][4].msa
#FORMAT      : EMSA/MAS Spectral Data File
#VERSION     : 1.0
#TITLE       : SPI MM2 SPI Pollucite[2][all]
#DATE        : 13-MAR-2025
#TIME        : 11:02
#OWNER       : Unknown
#NPOINTS     : 4096
#NCOLUMNS    : 1
#XUNITS      : eV
#YUNITS      : counts
#DATATYPE    : Y
#XPERCHAN    : 9.99778
#OFFSET      : 1.69135
#BEAMKV      : 20
#SIGNALTYPE  : EDS
#ELEVANGLE   : 35
#AZIMANGLE   : 0
#LIVETIME    : 239.765
#REALTIME    : 256.941
#PROBECUR    : 1.02609
#TAUWIND     : 0
#TDEADLYR    : 0
#TACTLYR     : 0.045
#TALWIND     : 0.025
#CHOFFSET    : 0.0
#XLABEL      : Energy (eV)
#YLABEL      : Counts
#XPOSITION   : -4.05209
#YPOSITION   : -1.14403
#ZPOSITION   : 31.0351
#EDSDET      : SD
##SPECIMEN   : SPI MM2 SPI Pollucite[2][all]
##D2STDCMP   : SPI Pollucite,(Li:0.05),(O:35.94),(Na:1.5),(Al:9.06),(Si:22.2),(K:0.05),(Rb:0.17),(Cs:32.3)
##DET_HASH   : 12273538-fd48-a23f-0a19-f1e6fa85caef
##CALIB_HASH : 6abaa72c-aa41-8738-0be9-f592914732f3
##WORKING    : 15.0 mm
##DET_NAME   : EDAX All
##DET_MODE   : MediumLE
#SPECTRUM    :
23,
31,
7,
16,
82,
446,
1146,
3571,
9539,
12582,
7131,
3734,
3883,
4893,
7833,
24795,
93231,
182543,
135290,
38288,
6809,
3423,
3621,
4635,
5100,
4472,
3520,
3439,
3465,
3813,
4250,
4898,
5016,
6313,
8983,
9289,
6276,
4189,
3892,
3967,
4118,
4144,
4285,
4442,
4558,
4916,
5655,
10704,
29033,
55691,
57033,
31035,
12555,
6812,
6281,
13137,
44882,
112221,
151699,
107471,
44722,
16515,
8440,
5135,
3845,
3604,
3959,
4096,
3889,
3779,
3621,
3611,
3575,
3726,
3918,
3940,
4182,
3941,
3843,
3740,
3677,
3712,
3688,
3991,
4074,
4126,
4034,
3845,
3707,
3706,
3755,
3574,
3781,
3604,
3768,
3689,
3780,
3625,
3631,
3714,
3665,
3576,
3551,
3522,
3594,
3544,
3610,
3619,
3623,
3660,
3724,
3447,
3406,
3438,
3369,
3394,
3379,
3424,
3321,
3191,
3225,
3281,
3231,
3294,
3762,
4112,
4814,
4744,
4281,
3627,
3297,
3140,
3037,
2975,
3179,
3109,
3362,
3730,
4395,
6813,
13551,
27130,
42865,
49041,
39366,
23223,
10711,
5040,
3447,
3179,
4025,
6865,
12562,
19975,
24617,
23262,
17540,
12199,
8444,
6036,
4582,
4224,
5209,
7517,
9335,
9544,
7894,
5178,
3413,
2712,
2456,
2344,
2481,
2924,
3637,
4495,
5102,
4717,
3703,
2832,
2342,
2298,
2553,
2804,
3041,
3176,
2928,
2551,
2232,
2191,
2101,
2039,
1946,
1885,
1798,
1872,
1708,
1759,
1788,
1866,
1827,
1861,
1764,
1772,
1702,
1702,
1661,
1688,
1689,
1613,
1733,
1812,
1958,
1861,
1905,
1763,
1672,
1652,
1600,
1569,
1587,
1569,
1567,
1700,
1525,
1455,
1505,
1504,
1536,
1535,
1459,
1497,
1380,
1434,
1501,
1511,
1493,
1499,
1456,
1449,
1406,
1348,
1356,
1415,
1392,
1417,
1380,
1438,
1405,
1408,
1406,
1346,
1296,
1313,
1229,
1328,
1213,
1347,
1230,
1301,
1243,
1197,
1264,
1236,
1245,
1206,
1182,
1237,
1135,
1135,
1190,
1134,
1126,
1156,
1119,
1142,
1129,
1147,
1147,
1181,
1095,
1088,
1015,
1152,
1034,
1131,
1138,
1034,
1083,
1051,
1051,
1108,
1091,
1063,
1045,
1054,
988,
1031,
994,
988,
997,
971,
1017,
956,
983,
940,
983,
979,
927,
895,
876,
932,
875,
888,
864,
848,
882,
873,
881,
911,
878,
935,
836,
885,
846,
824,
869,
893,
828,
821,
778,
851,
815,
794,
787,
808,
804,
787,
726,
780,
751,
743,
747,
706,
723,
780,
705,
681,
710,
673,
662,
674,
702,
683,
697,
734,
687,
687,
653,
701,
606,
629,
626,
608,
637,
638,
610,
638,
623,
590,
625,
573,
594,
609,
603,
597,
570,
580,
554,
587,
590,
596,
562,
544,
544,
564,
503,
531,
523,
491,
508,
516,
499,
462,
488,
511,
514,
502,
458,
484,
453,
491,
450,
445,
470,
475,
452,
454,
438,
463,
450,
476,
501,
444,
374,
442,
432,
446,
426,
372,
349,
343,
410,
363,
366,
390,
369,
399,
368,
347,
358,
358,
403,
353,
380,
382,
355,
337,
343,
341,
374,
338,
351,
324,
333,
339,
315,
347,
340,
338,
283,
276,
276,
303,
289,
290,
283,
274,
299,
275,
245,
305,
293,
255,
295,
241,
260,
269,
243,
229,
236,
234,
249,
225,
221,
229,
270,
237,
247,
231,
239,
231,
226,
221,
218,
234,
236,
215,
198,
218,
183,
208,
216,
191,
191,
173,
148,
189,
171,
190,
171,
177,
165,
173,
152,
184,
189,
163,
155,
160,
177,
135,
158,
138,
134,
151,
160,
156,
142,
160,
134,
160,
126,
137,
110,
114,
140,
120,
122,
119,
118,
120,
123,
119,
110,
117,
112,
128,
97,
116,
105,
110,
104,
97,
92,
93,
98,
102,
95,
86,
94,
86,
72,
86,
88,
76,
94,
96,
84,
68,
87,
90,
91,
80,
88,
65,
59,
70,
72,
70,
76,
65,
53,
59,
65,
76,
64,
58,
59,
52,
59,
66,
57,
54,
64,
59,
63,
45,
52,
60,
52,
52,
49,
44,
46,
37,
43,
42,
42,
46,
34,
41,
37,
36,
35,
33,
32,
38,
27,
29,
37,
29,
28,
29,
27,
28,
31,
33,
21,
29,
29,
30,
15,
23,
26,
25,
27,
23,
8,
15,
14,
23,
12,
11,
32,
22,
19,
16,
20,
13,
12,
6,
11,
16,
16,
12,
10,
4,
9,
6,
5,
7,
5,
6,
4,
11,
6,
2,
4,
5,
4,
4,
3,
1,
0,
1,
0,
2,
1,
1,
2,
0,
0,
1,
0,
1,
0,
0,
0,
1,
0,
2,
2,
1,
0,
0,
0,
0,
1,
0,
0,
1,
0,
2,
0,
0,
0,
0,
0,
0,
1,
0,
0,
0,
1,
1,
0,
1,
1,
0,
0,
0,
0,
0,
0,
0,
0,
0,
0,
0,
0,
0,
0,
0,
0,
0,
1,
0,
0,
0,
1,
0,
0,
0,
0,
0,
0,
2,
0,
0,
0,
0,
0,
0,
0,
1,
0,
0,
0,
0,
1,
0,
0,
0,
0,
0,
0,
1,
0,
0,
0,
0,
0,
0,
1,
0,
0,
1,
0,
0,
0,
0,
0,
0,
0,
0,
0,
0,
0,
0,
0,
0,
0,
0,
0,
0,
0,
0,
0,
0,
0,
0,
0,
1,
0,
0,
0,
1,
0,
0,
0,
0,
0,
2,
1,
0,
0,
0,
0,
0,
0,
1,
1,
0,
0,
0,
0,
0,
0,
0,
0,
0,
0,
0,
0,
0,
1,
0,
0,
0,
0,
0,
0,
0,
0,
0,
0,
0,
0,
0,
0,
0,
1,
0,
0,
0,
0,
0,
0,
0,
0,
0,
0,
1,
0,
0,
0,
0,
0,
0,
0,
1,
1,
0,
1,
0,
0,
0,
0,
1,
0,
0,
0,
0,
0,
0,
0,
1,
0,
1,
0,
0,
0,
0,
0,
0,
0,
1,
1,
0,
0,
0,
0,
0,
0,
0,
0,
0,
0,
0,
0,
0,
0,
0,
0,
0,
0,
0,
0,
0,
0,
0,
1,
0,
0,
0,
0,
0,
0,
0,
0,
0,
0,
0,
0,
0,
0,
0,
0,
0,
0,
0,
0,
0,
0,
0,
0,
0,
1,
0,
0,
0,
0,
0,
0,
0,
0,
0,
0,
0,
0,
0,
0,
0,
0,
0,
0,
0,
0,
0,
0,
0,
0,
0,
0,
0,
0,
0,
0,
0,
0,
0,
0,
0,
0,
0,
0,
0,
0,
0,
0,
0,
0,
0,
0,
0,
0,
0,
0,
0,
0,
0,
0,
0,
0,
0,
0,
0,
0,
0,
0,
0,
0,
0,
0,
0,
0,
0,
0,
0,
0,
0,
0,
0,
0,
0,
0,
0,
0,
0,
0,
0,
0,
0,
0,
0,
0,
0,
0,
0,
0,
0,
0,
0,
0,
0,
0,
0,
0,
0,
0,
0,
0,
0,
0,
0,
0,
0,
0,
0,
0,
0,
0,
0,
0,
0,
0,
0,
0,
0,
0,
0,
0,
0,
0,
0,
0,
0,
0,
0,
0,
0,
0,
0,
0,
0,
0,
0,
0,
0,
0,
0,
0,
0,
0,
0,
0,
0,
0,
0,
0,
0,
0,
0,
0,
0,
0,
0,
0,
0,
0,
0,
0,
0,
0,
0,
0,
0,
0,
0,
0,
0,
0,
0,
0,
0,
0,
0,
0,
0,
0,
0,
0,
0,
0,
0,
0,
0,
0,
0,
0,
0,
0,
0,
0,
0,
0,
0,
0,
0,
0,
0,
0,
0,
0,
0,
0,
0,
0,
0,
0,
0,
0,
0,
0,
0,
0,
0,
0,
0,
0,
0,
0,
0,
0,
0,
0,
0,
0,
0,
0,
0,
0,
0,
0,
0,
0,
0,
0,
0,
0,
0,
0,
0,
0,
0,
0,
0,
0,
0,
0,
0,
0,
0,
0,
0,
0,
0,
0,
0,
0,
0,
0,
0,
0,
0,
0,
0,
0,
0,
0,
0,
0,
0,
0,
0,
0,
0,
0,
0,
0,
0,
0,
0,
0,
0,
0,
0,
0,
0,
0,
0,
0,
0,
0,
0,
0,
0,
0,
0,
0,
0,
0,
0,
0,
0,
0,
0,
0,
0,
0,
0,
0,
0,
0,
0,
0,
0,
0,
0,
0,
0,
0,
0,
0,
0,
0,
0,
0,
0,
0,
0,
0,
0,
0,
0,
0,
0,
0,
0,
0,
0,
0,
0,
0,
0,
0,
0,
0,
0,
0,
0,
0,
0,
0,
0,
0,
0,
0,
0,
0,
0,
0,
0,
0,
0,
0,
0,
0,
0,
0,
0,
0,
0,
0,
0,
0,
0,
0,
0,
0,
0,
0,
0,
0,
0,
0,
0,
0,
0,
0,
0,
0,
0,
0,
0,
0,
0,
0,
0,
0,
0,
0,
0,
0,
0,
0,
0,
0,
0,
0,
0,
0,
0,
0,
0,
0,
0,
0,
0,
0,
0,
0,
0,
0,
0,
#ENDOFDATA   :