File: N132962/Quantification/20 keV/MMM2/SPI MM2 SPI Molybdenite[7][4].msa
#FORMAT      : EMSA/MAS Spectral Data File
#VERSION     : 1.0
#TITLE       : SPI MM2 SPI Molybdenite[7][all]
#DATE        : 13-MAR-2025
#TIME        : 10:21
#OWNER       : Unknown
#NPOINTS     : 4096
#NCOLUMNS    : 1
#XUNITS      : eV
#YUNITS      : counts
#DATATYPE    : Y
#XPERCHAN    : 9.99778
#OFFSET      : 1.69135
#BEAMKV      : 20
#SIGNALTYPE  : EDS
#ELEVANGLE   : 35
#AZIMANGLE   : 0
#LIVETIME    : 239.725
#REALTIME    : 266.275
#PROBECUR    : 1.02606
#TAUWIND     : 0
#TDEADLYR    : 0
#TACTLYR     : 0.045
#TALWIND     : 0.025
#CHOFFSET    : 0.0
#XLABEL      : Energy (eV)
#YLABEL      : Counts
#XPOSITION   : 5.68982
#YPOSITION   : -3.24716
#ZPOSITION   : 31.0351
#EDSDET      : SD
##SPECIMEN   : SPI MM2 SPI Molybdenite[7][all]
##D2STDCMP   : SPI Molybdenite,(S:39.84),(Mo:59.29),5.0
##DET_HASH   : 12273538-fd48-a23f-0a19-f1e6fa85caef
##CALIB_HASH : 6abaa72c-aa41-8738-0be9-f592914732f3
##WORKING    : 15.0 mm
##DET_NAME   : EDAX All
##DET_MODE   : MediumLE
#SPECTRUM    :
17,
38,
17,
193,
1349,
3169,
4186,
5883,
13047,
16766,
8306,
2944,
2450,
2433,
2557,
3154,
4652,
8454,
13926,
13710,
7805,
5625,
6028,
5891,
5746,
5449,
5230,
5556,
5840,
6147,
5988,
6224,
6662,
6677,
6829,
7054,
7287,
7432,
7637,
7649,
7964,
7940,
8310,
8264,
8312,
8499,
8438,
8969,
8762,
9145,
9179,
8951,
9146,
9092,
8936,
9256,
9607,
10077,
10537,
10368,
9935,
9204,
8713,
8461,
9134,
11050,
13965,
16811,
16193,
13460,
12646,
13817,
18376,
34886,
93437,
248028,
461558,
532210,
380766,
208174,
128795,
92950,
65480,
43495,
24265,
12734,
7539,
5716,
4955,
4076,
3563,
3282,
3461,
3986,
4478,
4414,
3723,
3404,
3168,
3132,
3043,
3080,
3126,
3176,
3205,
3203,
3231,
3254,
3284,
3204,
3336,
3335,
3234,
3279,
3304,
3239,
3363,
3347,
3307,
3459,
3250,
3359,
3415,
3394,
3407,
3382,
3382,
3290,
3301,
3350,
3249,
3351,
3401,
3493,
3341,
3435,
3351,
3309,
3196,
3270,
3301,
3249,
3295,
3307,
3276,
3278,
3361,
3265,
3263,
3314,
3468,
3813,
4183,
4595,
4857,
4496,
4308,
3926,
3697,
3618,
3404,
3303,
3138,
3133,
3086,
2998,
2980,
3036,
2845,
2861,
2970,
2948,
2860,
2834,
2861,
2819,
2764,
2843,
2812,
2844,
2905,
2788,
2844,
2726,
2804,
2817,
2702,
2709,
2690,
2621,
2692,
2692,
2579,
2591,
2629,
2616,
2703,
2550,
2558,
2527,
2555,
2555,
2564,
2577,
2399,
2467,
2472,
2429,
2433,
2465,
2476,
2675,
2667,
2778,
2778,
2608,
2570,
2347,
2309,
2217,
2260,
2293,
2264,
2318,
2262,
2188,
2173,
2178,
2154,
2177,
2158,
2114,
2134,
2180,
2105,
2196,
2154,
2183,
2110,
2111,
2024,
1939,
1994,
2002,
2028,
2020,
2108,
2018,
2043,
2084,
2101,
1970,
2025,
1903,
1957,
1851,
1874,
1871,
1848,
1875,
1835,
1814,
1837,
1780,
1763,
1759,
1738,
1768,
1814,
1745,
1711,
1738,
1628,
1708,
1574,
1682,
1667,
1694,
1659,
1628,
1613,
1642,
1630,
1640,
1653,
1507,
1610,
1636,
1484,
1469,
1543,
1535,
1509,
1488,
1547,
1518,
1456,
1480,
1418,
1471,
1414,
1400,
1354,
1465,
1359,
1343,
1360,
1363,
1341,
1467,
1304,
1363,
1284,
1341,
1280,
1320,
1342,
1343,
1342,
1235,
1205,
1270,
1263,
1223,
1269,
1188,
1188,
1221,
1269,
1197,
1181,
1191,
1154,
1210,
1218,
1181,
1132,
1243,
1156,
1069,
1089,
1094,
1062,
1065,
1131,
1004,
1050,
1037,
1032,
1036,
1048,
1022,
1037,
978,
1053,
1062,
1003,
999,
947,
938,
997,
946,
1009,
917,
930,
927,
883,
902,
942,
885,
897,
889,
879,
928,
869,
868,
855,
774,
829,
839,
768,
849,
827,
804,
831,
833,
756,
794,
812,
814,
744,
818,
801,
756,
745,
734,
741,
779,
728,
694,
742,
741,
768,
664,
653,
665,
625,
665,
650,
671,
605,
644,
645,
587,
594,
592,
616,
656,
638,
613,
601,
594,
636,
572,
616,
602,
533,
528,
583,
561,
521,
528,
513,
536,
542,
559,
491,
488,
499,
525,
508,
518,
470,
465,
470,
499,
525,
475,
437,
456,
447,
462,
425,
454,
462,
417,
426,
403,
433,
391,
427,
408,
394,
435,
392,
364,
404,
377,
337,
415,
395,
361,
335,
383,
370,
373,
377,
350,
340,
340,
340,
343,
327,
362,
323,
339,
318,
296,
325,
298,
298,
283,
294,
277,
295,
328,
253,
265,
284,
309,
260,
250,
279,
276,
245,
265,
275,
236,
249,
247,
237,
241,
225,
252,
242,
207,
223,
216,
213,
191,
198,
198,
202,
198,
205,
194,
203,
186,
226,
203,
197,
178,
191,
192,
233,
174,
190,
175,
149,
182,
175,
172,
152,
178,
170,
147,
143,
163,
132,
144,
153,
145,
129,
140,
134,
129,
132,
130,
130,
132,
106,
142,
113,
129,
112,
115,
114,
111,
124,
138,
101,
97,
85,
118,
111,
115,
90,
102,
104,
107,
102,
99,
98,
98,
82,
83,
89,
85,
88,
82,
81,
67,
74,
68,
70,
74,
57,
58,
76,
59,
67,
65,
63,
64,
48,
58,
56,
76,
52,
66,
53,
47,
46,
52,
40,
39,
38,
47,
40,
31,
43,
52,
31,
33,
27,
36,
35,
42,
38,
25,
24,
32,
26,
24,
23,
22,
24,
27,
19,
27,
17,
22,
20,
22,
20,
14,
16,
16,
12,
16,
12,
8,
14,
12,
11,
12,
6,
3,
5,
5,
1,
7,
10,
6,
2,
3,
2,
1,
0,
3,
3,
0,
1,
2,
0,
1,
0,
0,
0,
1,
0,
0,
0,
1,
1,
2,
1,
0,
0,
0,
3,
0,
1,
0,
2,
3,
1,
1,
3,
1,
1,
0,
0,
0,
0,
0,
0,
0,
1,
1,
0,
1,
1,
0,
2,
0,
2,
0,
1,
0,
1,
1,
0,
0,
1,
0,
0,
1,
0,
0,
1,
1,
1,
1,
1,
1,
1,
0,
0,
0,
1,
0,
0,
0,
0,
1,
0,
0,
0,
0,
0,
0,
0,
0,
0,
0,
0,
1,
0,
0,
1,
0,
0,
0,
0,
1,
1,
1,
1,
2,
0,
0,
0,
0,
1,
0,
0,
0,
1,
1,
0,
0,
0,
0,
0,
0,
0,
0,
0,
0,
0,
1,
0,
0,
0,
0,
0,
0,
0,
0,
0,
0,
0,
0,
0,
0,
0,
1,
0,
0,
0,
0,
0,
0,
0,
0,
0,
0,
0,
1,
0,
0,
0,
0,
0,
0,
0,
0,
0,
0,
0,
0,
0,
0,
0,
1,
0,
0,
1,
0,
1,
0,
1,
0,
1,
0,
0,
0,
1,
0,
0,
1,
0,
0,
0,
0,
1,
0,
0,
0,
0,
0,
1,
0,
2,
0,
0,
0,
0,
0,
1,
0,
2,
0,
0,
0,
0,
0,
0,
0,
0,
0,
0,
0,
0,
0,
0,
0,
0,
0,
0,
0,
0,
0,
1,
0,
0,
0,
0,
0,
0,
0,
1,
2,
0,
0,
0,
0,
0,
0,
0,
0,
0,
0,
0,
0,
0,
0,
0,
0,
0,
0,
0,
0,
0,
0,
0,
0,
0,
0,
0,
0,
0,
0,
0,
0,
0,
0,
0,
0,
0,
0,
0,
0,
0,
0,
0,
0,
0,
0,
0,
0,
0,
0,
0,
0,
0,
0,
0,
0,
0,
0,
0,
0,
0,
0,
0,
0,
0,
0,
0,
0,
0,
0,
0,
0,
0,
0,
0,
0,
1,
0,
0,
0,
0,
0,
0,
0,
0,
0,
0,
0,
0,
0,
0,
0,
0,
0,
0,
0,
1,
0,
0,
0,
0,
0,
0,
0,
0,
0,
0,
0,
0,
0,
0,
0,
0,
0,
0,
0,
0,
0,
0,
0,
0,
0,
0,
0,
0,
0,
0,
0,
0,
0,
0,
0,
0,
0,
0,
0,
0,
0,
0,
0,
0,
0,
0,
0,
0,
0,
0,
0,
0,
0,
0,
0,
0,
0,
0,
0,
0,
0,
0,
0,
0,
0,
0,
0,
0,
0,
0,
0,
0,
0,
0,
0,
0,
0,
0,
0,
0,
0,
0,
0,
0,
0,
0,
0,
0,
0,
0,
0,
0,
0,
0,
0,
0,
0,
0,
0,
0,
0,
0,
0,
0,
0,
0,
0,
0,
0,
0,
0,
0,
0,
0,
0,
0,
0,
0,
0,
0,
0,
0,
0,
0,
0,
0,
0,
0,
0,
0,
0,
0,
0,
0,
0,
0,
0,
0,
0,
0,
0,
0,
0,
0,
0,
0,
0,
0,
0,
0,
0,
0,
0,
0,
0,
0,
0,
0,
0,
0,
0,
0,
0,
0,
0,
0,
0,
0,
0,
0,
0,
0,
0,
0,
0,
0,
0,
0,
0,
0,
0,
0,
0,
0,
0,
0,
0,
0,
0,
0,
0,
0,
0,
0,
0,
0,
0,
0,
0,
0,
0,
0,
0,
0,
0,
0,
0,
0,
0,
0,
0,
0,
0,
0,
0,
0,
0,
0,
0,
0,
0,
0,
0,
0,
0,
0,
0,
0,
0,
0,
0,
0,
0,
0,
0,
0,
0,
0,
0,
0,
0,
0,
0,
0,
0,
0,
0,
0,
0,
0,
0,
0,
0,
0,
0,
0,
0,
0,
0,
0,
0,
0,
0,
0,
0,
0,
0,
0,
0,
0,
0,
0,
0,
0,
0,
0,
0,
0,
0,
0,
0,
0,
0,
0,
0,
0,
0,
0,
0,
0,
0,
0,
0,
0,
0,
0,
0,
0,
0,
0,
0,
0,
0,
0,
0,
0,
0,
0,
0,
0,
0,
0,
0,
0,
0,
0,
0,
0,
0,
0,
0,
0,
0,
0,
0,
0,
0,
0,
0,
0,
0,
0,
0,
0,
0,
0,
0,
0,
0,
0,
0,
0,
0,
0,
0,
0,
0,
0,
0,
0,
0,
0,
0,
0,
0,
0,
0,
0,
0,
0,
0,
0,
0,
0,
0,
#ENDOFDATA   :