File: N132962/Quantification/20 keV/MMM2/SPI MM2 Willemite[3][4].msa
#FORMAT      : EMSA/MAS Spectral Data File
#VERSION     : 1.0
#TITLE       : SPI MM2 Willemite[3][all]
#DATE        : 13-MAR-2025
#TIME        : 14:06
#OWNER       : Unknown
#NPOINTS     : 4096
#NCOLUMNS    : 1
#XUNITS      : eV
#YUNITS      : counts
#DATATYPE    : Y
#XPERCHAN    : 9.99778
#OFFSET      : 1.69135
#BEAMKV      : 20
#SIGNALTYPE  : EDS
#ELEVANGLE   : 35
#AZIMANGLE   : 0
#LIVETIME    : 239.633
#REALTIME    : 257.443
#PROBECUR    : 1.0264
#TAUWIND     : 0
#TDEADLYR    : 0
#TACTLYR     : 0.045
#TALWIND     : 0.025
#CHOFFSET    : 0.0
#XLABEL      : Energy (eV)
#YLABEL      : Counts
#XPOSITION   : 2.72799
#YPOSITION   : 6.31068
#ZPOSITION   : 31.03511
#EDSDET      : SD
##SPECIMEN   : SPI MM2 Willemite[3][all]
##DET_HASH   : 12273538-fd48-a23f-0a19-f1e6fa85caef
##CALIB_HASH : 6abaa72c-aa41-8738-0be9-f592914732f3
##WORKING    : 15.0 mm
##DET_NAME   : EDAX All
##DET_MODE   : MediumLE
#SPECTRUM    :
15,
24,
5,
13,
116,
351,
1110,
3486,
9874,
13005,
7043,
3444,
3377,
3899,
6138,
17231,
62927,
121302,
89553,
25215,
6587,
5904,
5584,
4836,
4778,
4949,
5429,
6971,
12054,
19063,
20575,
24909,
73586,
185118,
227639,
128303,
36672,
8536,
3898,
3019,
3018,
3432,
3716,
3432,
3122,
3236,
3186,
3394,
3434,
3837,
4291,
4272,
4289,
4134,
4621,
8127,
24538,
58881,
78790,
56659,
24626,
10403,
6166,
4390,
3609,
3698,
3537,
3860,
3879,
3695,
3619,
3609,
3617,
3764,
3616,
3800,
3838,
3786,
3740,
3644,
3739,
3685,
3787,
3780,
3735,
3830,
3674,
3839,
3665,
3723,
3796,
3960,
3959,
3923,
3806,
3643,
3747,
3612,
3550,
3719,
3528,
3566,
3651,
3516,
3630,
3420,
3611,
3382,
3483,
3489,
3407,
3427,
3393,
3407,
3405,
3357,
3463,
3407,
3330,
3305,
3260,
3256,
3312,
3209,
3160,
3219,
3107,
3114,
2998,
3072,
2974,
3060,
3058,
3128,
3059,
2949,
2940,
2943,
2862,
2860,
2798,
2927,
2821,
2781,
2750,
2735,
2771,
2772,
2775,
2679,
2711,
2705,
2660,
2708,
2546,
2586,
2675,
2660,
2541,
2567,
2600,
2551,
2525,
2475,
2474,
2418,
2409,
2470,
2460,
2429,
2364,
2375,
2384,
2292,
2347,
2207,
2283,
2220,
2266,
2225,
2307,
2263,
2127,
2211,
2095,
2107,
2153,
2103,
2162,
2032,
2142,
2227,
2516,
3304,
4904,
7357,
9000,
8896,
7243,
4826,
3067,
2263,
1908,
1904,
1935,
1846,
1862,
1940,
1884,
1792,
1928,
1945,
2173,
2326,
2410,
2706,
2804,
2650,
2355,
2056,
1816,
1766,
1738,
1786,
1697,
1638,
1635,
1599,
1674,
1691,
1726,
1655,
1626,
1536,
1567,
1605,
1521,
1495,
1553,
1489,
1506,
1460,
1498,
1475,
1518,
1421,
1464,
1480,
1488,
1541,
1479,
1477,
1413,
1387,
1376,
1407,
1321,
1318,
1322,
1326,
1338,
1328,
1287,
1343,
1209,
1200,
1273,
1216,
1242,
1221,
1217,
1294,
1249,
1313,
1243,
1274,
1207,
1289,
1339,
1314,
1494,
1873,
3283,
6655,
13710,
24478,
36797,
45795,
45989,
37971,
26160,
14752,
7099,
3303,
1774,
1258,
1099,
1031,
1102,
1036,
1046,
1077,
1055,
1071,
1056,
1115,
1034,
1034,
1013,
1014,
1033,
1060,
1184,
1247,
1705,
2473,
3795,
5313,
6762,
6877,
6211,
4766,
3372,
2167,
1420,
972,
866,
772,
752,
784,
776,
727,
751,
758,
722,
762,
703,
732,
729,
707,
722,
699,
748,
736,
665,
714,
731,
763,
725,
695,
668,
706,
648,
656,
628,
610,
630,
661,
642,
588,
607,
620,
608,
601,
645,
620,
578,
559,
554,
557,
583,
561,
562,
547,
545,
553,
565,
601,
566,
512,
501,
570,
534,
527,
504,
477,
507,
501,
477,
519,
474,
490,
500,
478,
480,
505,
457,
466,
426,
442,
470,
428,
492,
422,
435,
458,
439,
406,
405,
400,
423,
406,
422,
424,
436,
406,
416,
381,
382,
404,
382,
376,
381,
373,
342,
335,
364,
351,
336,
341,
346,
296,
334,
338,
349,
301,
326,
325,
335,
346,
312,
300,
263,
311,
330,
287,
260,
299,
294,
299,
271,
291,
292,
266,
260,
315,
261,
269,
247,
273,
275,
251,
268,
281,
266,
294,
261,
270,
260,
259,
255,
206,
216,
231,
240,
242,
218,
218,
214,
223,
176,
216,
202,
220,
191,
185,
217,
197,
171,
208,
197,
219,
179,
192,
192,
191,
180,
168,
176,
199,
171,
168,
163,
137,
156,
192,
143,
148,
154,
163,
152,
124,
177,
143,
141,
152,
154,
108,
125,
137,
169,
117,
139,
129,
117,
137,
136,
117,
129,
116,
114,
127,
111,
116,
104,
121,
103,
104,
132,
105,
93,
103,
97,
97,
93,
93,
93,
107,
90,
104,
89,
84,
84,
89,
64,
80,
81,
93,
74,
80,
78,
86,
52,
75,
94,
75,
84,
72,
70,
55,
76,
77,
90,
65,
70,
61,
75,
79,
65,
67,
73,
67,
52,
59,
47,
70,
49,
48,
41,
50,
50,
39,
43,
42,
44,
43,
50,
32,
47,
41,
30,
51,
36,
31,
56,
39,
48,
32,
30,
41,
33,
28,
28,
24,
37,
23,
30,
18,
18,
25,
26,
25,
22,
24,
20,
23,
23,
18,
17,
15,
24,
18,
10,
13,
17,
17,
14,
13,
15,
15,
15,
15,
19,
12,
10,
11,
14,
12,
11,
5,
5,
9,
5,
7,
7,
4,
4,
6,
5,
3,
1,
1,
3,
2,
2,
1,
2,
1,
0,
1,
1,
1,
1,
2,
2,
1,
0,
1,
0,
0,
1,
0,
1,
2,
0,
0,
4,
1,
1,
0,
1,
1,
1,
2,
0,
0,
3,
1,
1,
0,
0,
1,
0,
0,
1,
0,
0,
0,
1,
0,
0,
1,
0,
0,
0,
0,
0,
1,
0,
0,
0,
0,
0,
0,
0,
2,
0,
0,
1,
2,
2,
0,
1,
0,
0,
0,
0,
0,
1,
0,
1,
0,
0,
0,
1,
0,
1,
0,
0,
1,
0,
1,
1,
0,
1,
0,
0,
1,
1,
0,
0,
1,
0,
0,
0,
0,
0,
0,
0,
0,
0,
1,
0,
0,
0,
1,
2,
0,
1,
1,
0,
1,
0,
0,
0,
1,
0,
0,
0,
0,
0,
1,
0,
0,
0,
0,
0,
1,
0,
0,
0,
0,
0,
0,
0,
0,
0,
0,
0,
0,
0,
0,
0,
0,
0,
0,
0,
0,
0,
0,
0,
1,
0,
1,
1,
0,
0,
0,
0,
0,
0,
0,
0,
0,
0,
0,
0,
0,
0,
0,
0,
0,
0,
0,
1,
0,
0,
0,
0,
0,
0,
0,
0,
0,
0,
0,
0,
1,
0,
0,
0,
0,
0,
0,
0,
0,
0,
0,
0,
0,
1,
0,
0,
0,
0,
1,
0,
0,
0,
0,
0,
0,
0,
0,
0,
0,
0,
0,
0,
0,
0,
0,
0,
0,
0,
0,
0,
0,
0,
0,
0,
0,
0,
0,
0,
1,
0,
0,
0,
0,
0,
0,
0,
0,
0,
0,
0,
0,
0,
0,
0,
0,
0,
0,
0,
0,
0,
0,
0,
0,
0,
1,
0,
0,
0,
0,
0,
0,
0,
0,
0,
0,
0,
0,
0,
0,
0,
0,
0,
0,
0,
0,
0,
0,
0,
1,
0,
0,
0,
0,
0,
0,
0,
0,
0,
0,
0,
0,
0,
0,
0,
0,
0,
0,
0,
0,
0,
0,
0,
0,
0,
0,
0,
0,
0,
0,
0,
0,
0,
0,
0,
0,
0,
0,
0,
0,
0,
0,
0,
0,
0,
0,
0,
0,
0,
0,
0,
0,
0,
0,
0,
0,
0,
0,
0,
0,
0,
0,
0,
0,
0,
0,
0,
0,
0,
0,
0,
0,
0,
0,
0,
0,
0,
0,
0,
0,
0,
0,
0,
0,
0,
0,
0,
0,
0,
0,
0,
0,
0,
0,
0,
0,
0,
0,
0,
0,
0,
0,
0,
0,
0,
0,
0,
0,
0,
0,
0,
0,
0,
0,
0,
0,
0,
0,
0,
0,
0,
0,
0,
0,
0,
0,
0,
0,
0,
0,
0,
0,
0,
0,
0,
0,
0,
0,
0,
0,
0,
0,
0,
0,
0,
0,
0,
0,
0,
0,
0,
0,
0,
0,
0,
0,
0,
0,
0,
0,
0,
0,
0,
0,
0,
0,
0,
0,
0,
0,
0,
0,
0,
0,
0,
0,
0,
0,
0,
0,
0,
0,
0,
0,
0,
1,
0,
0,
0,
0,
0,
0,
0,
0,
0,
0,
0,
0,
0,
0,
0,
0,
0,
0,
0,
0,
0,
0,
0,
0,
0,
0,
0,
0,
0,
0,
0,
0,
0,
0,
0,
0,
0,
0,
0,
0,
0,
0,
0,
0,
0,
0,
0,
0,
0,
0,
0,
0,
0,
0,
0,
0,
0,
0,
0,
0,
0,
0,
0,
0,
0,
0,
0,
0,
0,
0,
0,
0,
0,
0,
0,
0,
0,
0,
0,
0,
0,
0,
0,
0,
0,
0,
0,
0,
0,
0,
0,
0,
0,
0,
0,
0,
0,
0,
0,
0,
0,
0,
0,
0,
0,
0,
0,
0,
0,
0,
0,
0,
0,
0,
0,
0,
0,
0,
0,
0,
0,
0,
0,
0,
0,
0,
0,
0,
0,
0,
0,
0,
0,
0,
0,
0,
0,
0,
0,
0,
0,
0,
0,
0,
0,
0,
0,
0,
0,
0,
0,
0,
0,
0,
0,
0,
0,
0,
0,
0,
0,
0,
0,
0,
0,
0,
0,
0,
0,
0,
0,
0,
0,
0,
0,
0,
0,
0,
0,
0,
0,
0,
0,
0,
0,
0,
0,
0,
0,
0,
0,
0,
0,
0,
0,
0,
0,
0,
0,
0,
0,
0,
0,
0,
0,
0,
0,
0,
0,
0,
0,
0,
0,
0,
0,
0,
0,
0,
0,
0,
0,
0,
0,
0,
#ENDOFDATA   :