File: N132962/Quantification/20 keV/MMM2/SPI MM2 SPI Olivine[6][4].msa
#FORMAT      : EMSA/MAS Spectral Data File
#VERSION     : 1.0
#TITLE       : SPI MM2 SPI Olivine[6][all]
#DATE        : 13-MAR-2025
#TIME        : 09:52
#OWNER       : Unknown
#NPOINTS     : 4096
#NCOLUMNS    : 1
#XUNITS      : eV
#YUNITS      : counts
#DATATYPE    : Y
#XPERCHAN    : 9.99778
#OFFSET      : 1.69135
#BEAMKV      : 20
#SIGNALTYPE  : EDS
#ELEVANGLE   : 35
#AZIMANGLE   : 0
#LIVETIME    : 239.554
#REALTIME    : 255.651
#PROBECUR    : 1.02627
#TAUWIND     : 0
#TDEADLYR    : 0
#TACTLYR     : 0.045
#TALWIND     : 0.025
#CHOFFSET    : 0.0
#XLABEL      : Energy (eV)
#YLABEL      : Counts
#XPOSITION   : -3.18235
#YPOSITION   : -2.08236
#ZPOSITION   : 31.03509
#EDSDET      : SD
##SPECIMEN   : SPI MM2 SPI Olivine[6][all]
##D2STDCMP   : SPI Olivine,(O:43.96),(Mg:30.26),(Si:19.14),(Mn:0.089),(Fe:6.35),(Ni:0.278),5.0
##DET_HASH   : 12273538-fd48-a23f-0a19-f1e6fa85caef
##CALIB_HASH : 6abaa72c-aa41-8738-0be9-f592914732f3
##WORKING    : 15.0 mm
##DET_NAME   : EDAX All
##DET_MODE   : MediumLE
#SPECTRUM    :
30,
20,
8,
13,
89,
314,
872,
2660,
7383,
9781,
5369,
2540,
2700,
3518,
6605,
24970,
102098,
201600,
148259,
38951,
5821,
3032,
4148,
6704,
6853,
4308,
2829,
2881,
3221,
3337,
3186,
2964,
3272,
3651,
4065,
4430,
4598,
5454,
7222,
19134,
77589,
197961,
239615,
133881,
37055,
7504,
3190,
2758,
2789,
3055,
3182,
3308,
3331,
3451,
4088,
10491,
39213,
100562,
136583,
96989,
39476,
14268,
6802,
3872,
2508,
2284,
2193,
2171,
2273,
2240,
2235,
2230,
2353,
2457,
2581,
2613,
2567,
2532,
2456,
2437,
2317,
2387,
2453,
2596,
2706,
2510,
2383,
2355,
2321,
2285,
2300,
2169,
2292,
2301,
2240,
2236,
2224,
2352,
2319,
2580,
2531,
2434,
2231,
2174,
2114,
2121,
2157,
2065,
2058,
2056,
2080,
2092,
1962,
2018,
2032,
2077,
2025,
2064,
1980,
2012,
2007,
1931,
1965,
1900,
1810,
1888,
1752,
1847,
1777,
1820,
1789,
1770,
1817,
1672,
1748,
1740,
1750,
1659,
1694,
1737,
1663,
1597,
1656,
1652,
1658,
1618,
1577,
1555,
1576,
1591,
1570,
1534,
1518,
1508,
1556,
1503,
1422,
1463,
1465,
1440,
1431,
1390,
1516,
1437,
1388,
1374,
1382,
1354,
1328,
1316,
1317,
1306,
1385,
1288,
1288,
1310,
1225,
1269,
1277,
1210,
1295,
1211,
1184,
1228,
1198,
1227,
1137,
1136,
1189,
1168,
1205,
1181,
1129,
1162,
1167,
1278,
1292,
1222,
1293,
1127,
1095,
1061,
1038,
1093,
1025,
1042,
1060,
1173,
1254,
2005,
3623,
6454,
9939,
11814,
11097,
8162,
4902,
2586,
1511,
1102,
911,
888,
942,
848,
840,
883,
893,
877,
931,
976,
959,
1047,
1298,
1627,
2034,
2249,
2131,
1703,
1280,
965,
827,
814,
804,
831,
763,
814,
895,
1008,
1082,
1088,
1090,
988,
876,
755,
747,
738,
729,
720,
660,
672,
605,
660,
697,
658,
667,
643,
619,
656,
627,
671,
652,
642,
642,
676,
618,
634,
679,
635,
586,
601,
585,
575,
566,
553,
585,
545,
553,
525,
526,
512,
520,
530,
563,
559,
507,
496,
482,
500,
522,
463,
473,
517,
506,
479,
484,
535,
449,
507,
440,
493,
459,
495,
463,
450,
426,
430,
460,
445,
409,
431,
401,
398,
422,
411,
427,
411,
415,
391,
394,
412,
415,
418,
425,
400,
389,
375,
344,
391,
372,
395,
409,
360,
342,
369,
359,
353,
344,
344,
326,
348,
349,
335,
354,
365,
316,
327,
306,
312,
283,
338,
293,
281,
310,
313,
301,
299,
321,
280,
311,
302,
302,
292,
291,
277,
300,
302,
273,
281,
268,
263,
245,
264,
280,
250,
254,
268,
244,
255,
245,
252,
236,
241,
222,
229,
212,
218,
221,
246,
217,
212,
224,
221,
220,
202,
201,
212,
198,
214,
179,
192,
206,
212,
186,
170,
190,
228,
150,
181,
179,
178,
198,
191,
189,
167,
183,
165,
175,
183,
165,
158,
183,
190,
164,
159,
158,
159,
156,
164,
150,
152,
140,
122,
167,
131,
143,
143,
137,
159,
133,
144,
133,
124,
139,
124,
114,
140,
114,
123,
107,
125,
121,
111,
112,
116,
112,
117,
106,
110,
107,
106,
99,
122,
104,
130,
101,
92,
88,
90,
97,
95,
106,
109,
89,
81,
100,
84,
96,
89,
82,
74,
93,
91,
76,
92,
77,
79,
63,
70,
90,
84,
87,
75,
69,
76,
69,
74,
76,
71,
61,
82,
70,
66,
61,
83,
77,
55,
55,
54,
52,
69,
83,
56,
51,
54,
53,
49,
57,
36,
54,
54,
55,
48,
51,
54,
36,
40,
49,
42,
41,
38,
53,
42,
40,
36,
41,
35,
49,
31,
46,
45,
35,
41,
28,
38,
38,
33,
37,
27,
34,
27,
35,
29,
33,
28,
27,
38,
33,
32,
41,
24,
18,
23,
23,
23,
27,
24,
37,
27,
24,
22,
16,
20,
18,
15,
21,
13,
33,
21,
17,
19,
17,
33,
24,
19,
13,
15,
19,
19,
20,
14,
14,
10,
15,
22,
6,
19,
17,
12,
16,
12,
14,
9,
12,
17,
14,
5,
14,
11,
13,
6,
13,
12,
5,
14,
6,
10,
13,
6,
9,
8,
10,
6,
8,
8,
7,
8,
7,
4,
4,
2,
5,
2,
4,
5,
2,
5,
4,
5,
3,
3,
2,
3,
0,
1,
0,
2,
2,
1,
0,
2,
1,
2,
0,
4,
1,
1,
1,
1,
0,
0,
0,
1,
0,
0,
0,
0,
0,
0,
0,
0,
0,
1,
0,
1,
0,
1,
0,
0,
0,
0,
0,
0,
0,
1,
0,
0,
0,
0,
0,
0,
0,
0,
0,
0,
0,
0,
0,
0,
0,
0,
0,
0,
0,
0,
0,
0,
0,
0,
0,
0,
0,
0,
0,
0,
0,
0,
0,
0,
0,
0,
0,
0,
0,
0,
0,
0,
0,
0,
0,
0,
0,
0,
0,
0,
0,
0,
0,
1,
0,
0,
0,
0,
0,
1,
0,
0,
0,
0,
0,
0,
0,
0,
0,
0,
0,
0,
0,
0,
0,
0,
0,
0,
0,
0,
0,
0,
0,
0,
0,
0,
0,
1,
0,
0,
0,
0,
0,
0,
0,
0,
0,
0,
0,
0,
0,
0,
0,
0,
0,
0,
0,
0,
0,
0,
0,
0,
0,
0,
0,
0,
1,
0,
0,
0,
0,
0,
0,
0,
0,
0,
1,
0,
0,
0,
0,
0,
0,
0,
0,
0,
0,
1,
0,
0,
0,
0,
0,
0,
1,
0,
0,
0,
0,
0,
0,
0,
0,
0,
0,
0,
0,
0,
1,
0,
0,
0,
0,
0,
0,
0,
0,
0,
0,
0,
0,
0,
0,
1,
0,
0,
0,
0,
0,
0,
0,
0,
0,
0,
0,
0,
0,
0,
0,
0,
0,
0,
0,
0,
0,
0,
0,
0,
0,
0,
0,
0,
0,
0,
0,
0,
0,
0,
0,
0,
0,
0,
0,
0,
0,
0,
0,
0,
0,
0,
0,
0,
0,
0,
0,
0,
0,
0,
0,
0,
0,
0,
0,
0,
0,
0,
0,
0,
0,
0,
0,
0,
0,
0,
0,
0,
0,
0,
0,
0,
0,
0,
0,
0,
0,
0,
0,
0,
0,
0,
0,
0,
0,
0,
0,
0,
0,
0,
0,
0,
0,
0,
0,
0,
0,
0,
0,
0,
0,
0,
0,
0,
0,
0,
0,
0,
0,
0,
0,
0,
0,
0,
0,
0,
0,
0,
0,
0,
0,
0,
0,
0,
0,
0,
0,
0,
0,
0,
0,
0,
0,
0,
0,
0,
0,
0,
0,
0,
0,
0,
0,
0,
0,
0,
0,
0,
0,
0,
0,
0,
0,
0,
0,
0,
0,
0,
0,
0,
0,
0,
0,
0,
0,
0,
0,
0,
0,
0,
0,
0,
0,
0,
0,
0,
0,
0,
0,
0,
0,
0,
0,
0,
0,
0,
0,
0,
0,
0,
0,
0,
0,
0,
0,
0,
0,
0,
0,
0,
0,
0,
0,
0,
0,
0,
0,
0,
0,
0,
0,
0,
0,
0,
0,
0,
0,
0,
0,
0,
0,
0,
0,
0,
0,
0,
0,
0,
0,
0,
0,
0,
0,
0,
0,
0,
0,
0,
0,
0,
0,
0,
0,
0,
0,
0,
0,
0,
0,
0,
0,
0,
0,
0,
0,
0,
0,
0,
0,
0,
0,
0,
0,
0,
0,
0,
0,
0,
0,
0,
0,
0,
0,
0,
0,
0,
0,
0,
0,
0,
0,
0,
0,
0,
0,
0,
0,
0,
0,
0,
0,
0,
0,
0,
0,
0,
0,
0,
0,
0,
0,
0,
0,
0,
0,
0,
0,
0,
0,
0,
0,
0,
0,
0,
0,
0,
0,
0,
0,
0,
0,
0,
0,
0,
0,
0,
0,
0,
0,
0,
0,
0,
0,
0,
0,
0,
0,
0,
0,
0,
0,
0,
0,
0,
0,
0,
0,
0,
0,
0,
0,
0,
0,
0,
0,
0,
0,
0,
0,
0,
0,
0,
0,
0,
0,
0,
0,
0,
0,
0,
0,
0,
0,
0,
0,
0,
0,
0,
0,
0,
0,
0,
0,
0,
0,
0,
0,
0,
0,
0,
0,
0,
0,
0,
0,
0,
0,
0,
0,
0,
0,
0,
0,
0,
0,
0,
0,
0,
0,
0,
0,
0,
0,
0,
0,
0,
0,
0,
0,
0,
0,
0,
0,
0,
0,
0,
0,
0,
0,
0,
0,
0,
0,
0,
0,
0,
0,
0,
0,
0,
0,
0,
0,
0,
0,
0,
0,
0,
0,
0,
0,
0,
0,
0,
0,
0,
0,
0,
0,
0,
0,
0,
0,
0,
0,
0,
0,
0,
0,
0,
0,
0,
0,
0,
0,
0,
0,
0,
0,
0,
0,
0,
0,
0,
0,
0,
0,
0,
0,
0,
0,
0,
0,
0,
#ENDOFDATA   :