File: N132962/Quantification/20 keV/MMM2/SPI MM2 Zircon[3][4].msa
#FORMAT      : EMSA/MAS Spectral Data File
#VERSION     : 1.0
#TITLE       : SPI MM2 Zircon[3][all]
#DATE        : 13-MAR-2025
#TIME        : 13:48
#OWNER       : Unknown
#NPOINTS     : 4096
#NCOLUMNS    : 1
#XUNITS      : eV
#YUNITS      : counts
#DATATYPE    : Y
#XPERCHAN    : 9.99778
#OFFSET      : 1.69135
#BEAMKV      : 20
#SIGNALTYPE  : EDS
#ELEVANGLE   : 35
#AZIMANGLE   : 0
#LIVETIME    : 239.661
#REALTIME    : 256.684
#PROBECUR    : 1.0264
#TAUWIND     : 0
#TDEADLYR    : 0
#TACTLYR     : 0.045
#TALWIND     : 0.025
#CHOFFSET    : 0.0
#XLABEL      : Energy (eV)
#YLABEL      : Counts
#XPOSITION   : -2.66965
#YPOSITION   : 6.6381
#ZPOSITION   : 31.03511
#EDSDET      : SD
##SPECIMEN   : SPI MM2 Zircon[3][all]
##DET_HASH   : 12273538-fd48-a23f-0a19-f1e6fa85caef
##CALIB_HASH : 6abaa72c-aa41-8738-0be9-f592914732f3
##WORKING    : 15.0 mm
##DET_NAME   : EDAX All
##DET_MODE   : MediumLE
#SPECTRUM    :
21,
21,
3,
50,
316,
887,
1650,
3936,
11026,
16174,
10096,
4610,
3823,
4041,
4567,
11078,
38815,
74700,
55026,
15672,
3940,
3048,
3722,
4460,
4218,
3706,
3675,
3884,
4343,
4258,
4239,
4322,
4314,
4614,
4930,
5131,
5081,
5190,
5461,
5679,
5805,
6064,
6520,
6314,
6557,
6519,
6647,
6851,
7363,
8305,
8487,
8085,
7855,
8212,
10143,
17465,
48751,
113351,
153524,
113947,
54010,
23912,
14506,
11486,
12671,
21275,
49182,
103750,
142045,
126820,
94187,
72848,
49693,
28346,
16288,
9482,
5976,
4540,
3535,
3204,
3227,
3340,
3558,
3853,
4012,
3708,
3301,
3239,
3057,
3086,
2987,
2998,
2982,
2919,
3023,
3041,
2947,
2917,
3106,
3040,
3058,
3060,
3082,
3008,
3047,
3060,
3094,
2997,
3047,
3154,
3093,
3158,
3131,
3068,
3104,
3089,
3125,
3037,
3105,
2998,
3024,
3104,
3113,
3250,
3372,
3220,
3223,
3345,
3128,
3032,
3060,
2966,
2947,
2809,
3039,
3115,
2966,
2984,
3019,
2928,
2888,
2746,
2723,
2696,
2761,
2731,
2688,
2632,
2699,
2684,
2675,
2753,
2687,
2675,
2590,
2583,
2575,
2595,
2581,
2549,
2531,
2521,
2528,
2500,
2504,
2493,
2484,
2453,
2428,
2332,
2316,
2345,
2331,
2341,
2361,
2356,
2353,
2295,
2316,
2299,
2242,
2333,
2207,
2262,
2232,
2236,
2145,
2173,
2163,
2223,
2129,
2079,
2089,
2119,
2066,
1949,
2085,
2044,
2021,
2090,
2018,
1971,
2052,
2021,
1973,
1907,
1923,
1961,
1985,
2180,
2749,
3391,
4317,
4919,
4754,
3998,
2915,
2266,
1946,
1854,
1784,
1757,
1792,
1858,
1634,
1675,
1758,
1788,
1731,
1707,
1694,
1722,
1817,
1929,
1899,
2002,
2037,
1830,
1683,
1584,
1617,
1577,
1480,
1537,
1458,
1537,
1595,
1576,
1620,
1625,
1591,
1541,
1470,
1490,
1400,
1381,
1376,
1470,
1410,
1426,
1463,
1560,
1610,
1624,
1682,
1510,
1491,
1363,
1294,
1329,
1256,
1298,
1314,
1253,
1285,
1262,
1314,
1298,
1220,
1195,
1261,
1208,
1260,
1193,
1157,
1133,
1190,
1185,
1165,
1112,
1207,
1101,
1173,
1161,
1115,
1139,
1157,
1138,
1154,
1202,
1183,
1160,
1191,
1166,
1069,
1039,
1080,
1074,
1121,
1048,
1043,
1021,
967,
1027,
974,
893,
1000,
930,
927,
987,
966,
899,
908,
934,
877,
890,
916,
873,
905,
866,
895,
840,
877,
876,
824,
842,
789,
848,
827,
860,
801,
857,
759,
787,
790,
816,
753,
820,
807,
777,
783,
767,
789,
728,
775,
742,
710,
689,
717,
713,
696,
664,
633,
670,
686,
675,
673,
663,
676,
659,
686,
667,
652,
629,
681,
624,
641,
583,
647,
561,
572,
598,
571,
582,
577,
559,
573,
582,
571,
538,
570,
564,
521,
535,
519,
545,
540,
526,
517,
490,
489,
486,
514,
476,
474,
466,
507,
495,
469,
479,
482,
450,
422,
445,
437,
450,
439,
430,
465,
466,
437,
411,
417,
453,
398,
420,
416,
417,
389,
377,
386,
391,
419,
361,
391,
335,
385,
354,
339,
325,
326,
362,
372,
348,
353,
324,
332,
334,
338,
306,
327,
312,
277,
349,
326,
309,
280,
284,
313,
292,
291,
290,
283,
255,
265,
229,
287,
273,
281,
283,
254,
293,
293,
255,
251,
251,
234,
239,
251,
263,
276,
206,
232,
225,
244,
232,
234,
226,
255,
219,
216,
213,
196,
212,
190,
216,
218,
212,
212,
184,
214,
197,
199,
171,
170,
169,
163,
169,
152,
172,
138,
170,
172,
171,
153,
161,
171,
166,
234,
255,
305,
365,
433,
455,
509,
456,
459,
381,
299,
251,
197,
169,
142,
137,
127,
124,
123,
116,
138,
107,
112,
109,
108,
102,
119,
114,
120,
94,
107,
106,
103,
98,
93,
103,
85,
85,
89,
83,
91,
101,
80,
72,
80,
76,
82,
65,
80,
74,
60,
62,
73,
76,
79,
53,
74,
52,
73,
75,
63,
69,
79,
68,
72,
57,
81,
77,
84,
101,
100,
118,
86,
71,
76,
72,
53,
54,
58,
53,
50,
35,
51,
50,
39,
41,
38,
43,
37,
31,
53,
31,
37,
38,
23,
37,
40,
37,
30,
38,
24,
44,
26,
27,
31,
27,
26,
24,
22,
23,
18,
24,
17,
23,
18,
17,
19,
19,
18,
14,
16,
14,
21,
15,
15,
16,
11,
7,
8,
9,
12,
15,
12,
5,
9,
8,
9,
6,
8,
4,
7,
3,
4,
3,
5,
6,
2,
1,
0,
0,
1,
0,
0,
1,
0,
3,
0,
3,
1,
0,
1,
0,
2,
0,
0,
0,
0,
1,
0,
0,
1,
1,
0,
1,
0,
0,
1,
0,
0,
0,
0,
1,
1,
0,
1,
0,
0,
1,
0,
0,
1,
0,
0,
1,
0,
2,
0,
0,
0,
1,
0,
0,
0,
0,
1,
2,
1,
1,
1,
0,
0,
1,
0,
0,
0,
0,
0,
0,
1,
0,
0,
1,
0,
0,
2,
0,
0,
0,
2,
0,
0,
0,
0,
0,
2,
0,
0,
0,
0,
0,
0,
0,
0,
0,
2,
0,
0,
1,
0,
0,
0,
0,
0,
0,
0,
0,
0,
0,
0,
0,
0,
0,
0,
1,
0,
0,
0,
0,
0,
0,
0,
0,
0,
0,
2,
0,
0,
0,
0,
0,
0,
0,
0,
0,
0,
0,
1,
0,
0,
0,
0,
0,
0,
0,
0,
0,
0,
0,
0,
0,
0,
0,
0,
0,
0,
0,
0,
0,
1,
0,
1,
0,
0,
0,
0,
0,
0,
0,
0,
0,
1,
0,
2,
0,
0,
0,
1,
0,
0,
0,
0,
0,
0,
1,
0,
0,
0,
0,
0,
0,
1,
0,
0,
1,
0,
0,
0,
0,
0,
0,
0,
1,
0,
0,
0,
1,
0,
0,
0,
0,
0,
0,
0,
1,
0,
0,
0,
0,
0,
0,
0,
0,
0,
1,
0,
0,
0,
0,
0,
0,
0,
0,
0,
0,
0,
0,
0,
0,
0,
0,
0,
0,
0,
0,
0,
0,
0,
0,
0,
0,
0,
0,
0,
0,
0,
0,
0,
0,
0,
0,
0,
0,
0,
0,
0,
0,
0,
0,
0,
0,
0,
0,
1,
0,
0,
0,
0,
0,
0,
0,
0,
0,
0,
0,
0,
0,
0,
0,
0,
0,
0,
0,
0,
0,
0,
0,
0,
0,
0,
0,
0,
0,
1,
0,
0,
0,
0,
0,
0,
0,
0,
0,
0,
0,
0,
0,
0,
0,
0,
0,
0,
0,
0,
0,
0,
0,
0,
0,
0,
0,
0,
0,
0,
0,
0,
0,
0,
0,
0,
0,
0,
0,
0,
0,
0,
0,
0,
0,
0,
0,
0,
0,
0,
0,
0,
0,
0,
1,
0,
0,
0,
0,
0,
1,
0,
0,
0,
0,
0,
0,
0,
0,
0,
0,
0,
0,
0,
0,
0,
0,
0,
0,
0,
0,
0,
0,
0,
0,
0,
0,
0,
0,
0,
0,
0,
0,
0,
0,
0,
0,
0,
0,
0,
0,
0,
0,
0,
0,
0,
0,
0,
0,
0,
0,
0,
1,
0,
0,
0,
0,
0,
0,
0,
0,
0,
0,
0,
0,
0,
0,
1,
0,
0,
0,
0,
0,
0,
0,
0,
0,
0,
0,
0,
0,
0,
0,
0,
0,
0,
0,
0,
0,
0,
0,
0,
0,
0,
0,
0,
0,
0,
0,
0,
0,
0,
0,
0,
0,
0,
0,
0,
0,
0,
0,
0,
0,
0,
0,
0,
0,
0,
0,
0,
0,
0,
0,
0,
0,
0,
0,
0,
0,
0,
0,
0,
0,
0,
0,
0,
0,
0,
0,
0,
0,
0,
0,
0,
0,
0,
0,
0,
0,
0,
0,
0,
0,
0,
0,
0,
0,
0,
0,
0,
0,
0,
0,
0,
0,
0,
0,
0,
0,
0,
0,
0,
0,
0,
0,
0,
0,
0,
0,
0,
0,
0,
0,
0,
0,
0,
0,
0,
0,
0,
0,
0,
0,
0,
0,
0,
0,
0,
0,
0,
0,
0,
0,
0,
0,
0,
0,
0,
0,
0,
0,
0,
0,
0,
0,
0,
0,
0,
0,
0,
0,
0,
0,
0,
0,
0,
0,
0,
0,
0,
0,
0,
0,
0,
0,
0,
0,
0,
0,
0,
0,
0,
0,
0,
0,
0,
0,
0,
0,
0,
0,
0,
0,
0,
0,
0,
0,
0,
0,
0,
0,
0,
0,
0,
0,
0,
0,
0,
0,
0,
0,
0,
0,
0,
0,
0,
0,
0,
0,
0,
0,
0,
0,
0,
0,
0,
0,
0,
0,
0,
0,
0,
0,
0,
0,
0,
0,
0,
0,
0,
0,
0,
0,
0,
0,
0,
0,
0,
0,
0,
0,
0,
0,
0,
0,
0,
0,
0,
0,
0,
0,
0,
0,
0,
0,
0,
0,
0,
0,
0,
0,
0,
0,
0,
0,
#ENDOFDATA   :