File: N132962/Quantification/20 keV/MMM2/SPI MM2 Spessartine[3][4].msa
#FORMAT      : EMSA/MAS Spectral Data File
#VERSION     : 1.0
#TITLE       : SPI MM2 Spessartine[3][all]
#DATE        : 13-MAR-2025
#TIME        : 12:06
#OWNER       : Unknown
#NPOINTS     : 4096
#NCOLUMNS    : 1
#XUNITS      : eV
#YUNITS      : counts
#DATATYPE    : Y
#XPERCHAN    : 9.99778
#OFFSET      : 1.69135
#BEAMKV      : 20
#SIGNALTYPE  : EDS
#ELEVANGLE   : 35
#AZIMANGLE   : 0
#LIVETIME    : 239.914
#REALTIME    : 256.297
#PROBECUR    : 1.02616
#TAUWIND     : 0
#TDEADLYR    : 0
#TACTLYR     : 0.045
#TALWIND     : 0.025
#CHOFFSET    : 0.0
#XLABEL      : Energy (eV)
#YLABEL      : Counts
#XPOSITION   : -5.76443
#YPOSITION   : 1.5168
#ZPOSITION   : 31.03511
#EDSDET      : SD
##SPECIMEN   : SPI MM2 Spessartine[3][all]
##DET_HASH   : 12273538-fd48-a23f-0a19-f1e6fa85caef
##CALIB_HASH : 6abaa72c-aa41-8738-0be9-f592914732f3
##WORKING    : 15.0 mm
##DET_NAME   : EDAX All
##DET_MODE   : MediumLE
#SPECTRUM    :
24,
28,
6,
9,
72,
327,
939,
3093,
8286,
11125,
6039,
3235,
3419,
4412,
7636,
26590,
103478,
203731,
151125,
43300,
13936,
16880,
13731,
6786,
3595,
2385,
2000,
2046,
2198,
2322,
2425,
2514,
2667,
2915,
3185,
3355,
3308,
3327,
3273,
3433,
3754,
3854,
4014,
4058,
4232,
4529,
5696,
12640,
39039,
77336,
78721,
41876,
14964,
6557,
5472,
10845,
37062,
92865,
126036,
89328,
36929,
13632,
7259,
4492,
3361,
3209,
3393,
3494,
3388,
3211,
3194,
3103,
3053,
3128,
3455,
3518,
3445,
3065,
3253,
3212,
3069,
3156,
3053,
3014,
3039,
3076,
3132,
3008,
3042,
3058,
3005,
3002,
3070,
3005,
2932,
2922,
2851,
2896,
2986,
2912,
2938,
2894,
2890,
2814,
2845,
2871,
2830,
2837,
2863,
2831,
2668,
2726,
2660,
2701,
2758,
2828,
2770,
2767,
2661,
2626,
2716,
3123,
3532,
3841,
3439,
3107,
2709,
2477,
2395,
2458,
2334,
2449,
2467,
2462,
2477,
2416,
2514,
2530,
2551,
2504,
2444,
2194,
2112,
2249,
2093,
2141,
2197,
2053,
2156,
2168,
2088,
2185,
2070,
2038,
2071,
1912,
1955,
2029,
1973,
1995,
1917,
1900,
1832,
1848,
1939,
1817,
1742,
1827,
1794,
1736,
1760,
1738,
1763,
1802,
1734,
1693,
1630,
1663,
1683,
1685,
1684,
1673,
1650,
1595,
1635,
1615,
1596,
1738,
1768,
1790,
2103,
2944,
5917,
13973,
31015,
53262,
70414,
69239,
51951,
29616,
12992,
5140,
2382,
1637,
1484,
1446,
1458,
1453,
1552,
1744,
2011,
2918,
4069,
5938,
8119,
10295,
10917,
9734,
7242,
4463,
2584,
1565,
1184,
1120,
1110,
1105,
1073,
1079,
1069,
1033,
1056,
1054,
1113,
1147,
1201,
1237,
1194,
1171,
1082,
1010,
1011,
1003,
969,
1007,
971,
959,
1047,
1078,
1042,
1018,
1011,
942,
949,
1010,
971,
972,
903,
957,
872,
880,
871,
834,
835,
865,
839,
852,
806,
840,
878,
797,
845,
834,
847,
816,
858,
857,
774,
767,
778,
787,
760,
770,
758,
778,
720,
753,
761,
724,
721,
731,
691,
659,
710,
708,
682,
641,
664,
669,
684,
652,
676,
640,
677,
663,
698,
628,
648,
600,
636,
635,
644,
599,
627,
620,
562,
567,
572,
601,
600,
562,
561,
597,
577,
604,
610,
548,
567,
587,
578,
538,
557,
535,
505,
509,
532,
487,
525,
517,
476,
508,
516,
522,
517,
556,
475,
471,
478,
499,
486,
492,
461,
425,
468,
446,
454,
439,
451,
465,
478,
453,
405,
453,
413,
411,
406,
407,
390,
389,
389,
417,
421,
414,
384,
412,
433,
379,
378,
403,
378,
371,
366,
364,
403,
356,
349,
347,
359,
369,
376,
370,
339,
353,
351,
364,
342,
348,
381,
357,
333,
303,
303,
300,
320,
289,
291,
310,
298,
304,
302,
293,
297,
277,
300,
278,
276,
240,
256,
265,
243,
264,
252,
260,
221,
245,
261,
247,
223,
266,
254,
252,
258,
236,
233,
227,
222,
211,
232,
249,
238,
217,
213,
190,
199,
214,
215,
214,
215,
198,
221,
196,
227,
188,
176,
181,
190,
196,
178,
168,
167,
180,
153,
175,
177,
177,
153,
171,
164,
157,
152,
183,
133,
164,
144,
139,
130,
147,
152,
147,
132,
131,
149,
131,
118,
146,
128,
152,
137,
111,
150,
110,
125,
130,
117,
112,
119,
118,
120,
106,
112,
118,
114,
98,
106,
99,
102,
111,
103,
108,
95,
103,
95,
103,
80,
87,
92,
87,
97,
82,
92,
114,
95,
79,
106,
76,
91,
78,
82,
64,
78,
73,
71,
80,
70,
81,
60,
69,
73,
65,
59,
74,
80,
67,
67,
62,
82,
55,
58,
68,
79,
72,
71,
47,
51,
56,
42,
44,
53,
49,
55,
53,
49,
39,
50,
56,
40,
42,
41,
54,
39,
44,
51,
48,
45,
39,
42,
56,
43,
41,
32,
38,
30,
30,
36,
25,
34,
25,
33,
28,
37,
18,
20,
17,
20,
25,
25,
25,
22,
25,
20,
26,
13,
24,
25,
22,
31,
19,
14,
18,
26,
27,
19,
27,
13,
20,
16,
12,
23,
16,
14,
19,
10,
15,
24,
9,
20,
11,
8,
21,
10,
10,
11,
8,
11,
9,
6,
7,
12,
7,
15,
12,
2,
4,
8,
6,
5,
2,
9,
3,
6,
2,
4,
6,
6,
4,
7,
3,
5,
2,
3,
1,
1,
4,
1,
0,
2,
1,
1,
0,
0,
0,
0,
0,
1,
1,
0,
0,
0,
0,
1,
0,
1,
2,
1,
0,
0,
0,
1,
1,
0,
1,
0,
0,
0,
1,
0,
0,
1,
1,
0,
0,
0,
0,
1,
1,
0,
0,
0,
0,
0,
0,
0,
0,
0,
1,
0,
0,
1,
0,
0,
0,
0,
0,
0,
0,
0,
0,
0,
2,
0,
0,
0,
1,
0,
0,
0,
0,
0,
1,
0,
0,
0,
1,
1,
0,
0,
0,
0,
0,
0,
0,
2,
1,
0,
0,
0,
0,
0,
0,
0,
1,
1,
0,
0,
0,
0,
0,
0,
0,
0,
0,
0,
0,
1,
0,
0,
0,
0,
0,
0,
0,
0,
0,
1,
0,
0,
0,
0,
0,
0,
0,
0,
0,
0,
0,
0,
0,
0,
0,
0,
0,
0,
0,
0,
0,
0,
0,
0,
1,
0,
0,
0,
0,
0,
0,
0,
0,
0,
0,
1,
0,
0,
0,
0,
0,
0,
0,
0,
0,
0,
1,
0,
0,
0,
0,
0,
0,
0,
0,
0,
0,
0,
0,
0,
0,
0,
0,
0,
0,
0,
0,
0,
0,
0,
1,
0,
0,
0,
0,
0,
0,
0,
0,
0,
0,
0,
0,
0,
0,
0,
0,
0,
0,
0,
0,
0,
0,
0,
0,
0,
0,
0,
0,
0,
0,
0,
0,
0,
0,
0,
0,
0,
0,
0,
0,
0,
0,
0,
0,
0,
0,
0,
0,
0,
0,
0,
0,
0,
0,
0,
0,
0,
0,
0,
0,
0,
0,
0,
0,
0,
0,
0,
0,
0,
0,
0,
0,
0,
0,
0,
0,
0,
0,
0,
0,
0,
0,
0,
0,
0,
0,
1,
0,
0,
0,
0,
0,
0,
0,
0,
0,
0,
0,
0,
0,
0,
0,
0,
0,
0,
0,
0,
0,
0,
0,
0,
0,
0,
0,
0,
0,
0,
0,
0,
0,
0,
0,
0,
0,
0,
0,
0,
0,
0,
0,
0,
0,
0,
0,
0,
0,
0,
0,
0,
0,
0,
0,
0,
0,
0,
0,
0,
0,
0,
0,
0,
0,
0,
0,
0,
0,
0,
0,
0,
0,
0,
0,
0,
0,
0,
0,
0,
0,
0,
0,
0,
0,
0,
0,
0,
0,
0,
0,
0,
1,
0,
0,
0,
0,
0,
0,
0,
0,
0,
0,
0,
0,
0,
0,
0,
0,
0,
0,
0,
0,
0,
0,
0,
0,
0,
0,
0,
0,
0,
0,
0,
0,
0,
0,
0,
0,
0,
0,
0,
0,
0,
0,
0,
0,
0,
0,
0,
0,
0,
0,
0,
0,
0,
0,
0,
0,
0,
0,
0,
0,
0,
0,
0,
0,
0,
0,
0,
0,
0,
0,
0,
0,
0,
0,
0,
0,
0,
0,
0,
0,
0,
0,
0,
0,
0,
0,
0,
0,
0,
0,
0,
0,
0,
0,
0,
0,
0,
0,
0,
0,
0,
0,
0,
0,
0,
0,
0,
0,
0,
0,
0,
0,
0,
0,
0,
0,
0,
0,
0,
0,
0,
0,
0,
0,
0,
0,
0,
0,
0,
0,
0,
0,
0,
0,
0,
0,
0,
0,
0,
0,
0,
0,
0,
0,
0,
0,
0,
0,
0,
0,
0,
0,
0,
0,
0,
0,
0,
0,
0,
0,
0,
0,
0,
0,
0,
0,
0,
0,
0,
0,
0,
0,
0,
0,
0,
0,
0,
0,
0,
0,
0,
0,
0,
0,
0,
0,
0,
0,
0,
0,
0,
0,
0,
0,
0,
0,
0,
0,
0,
0,
0,
0,
0,
0,
0,
0,
0,
0,
0,
0,
0,
0,
0,
0,
0,
0,
1,
0,
0,
0,
0,
0,
0,
0,
0,
0,
0,
0,
0,
0,
0,
0,
0,
0,
0,
0,
0,
0,
0,
0,
0,
0,
0,
0,
0,
0,
0,
0,
0,
0,
0,
0,
0,
0,
0,
0,
0,
0,
0,
0,
0,
0,
0,
0,
0,
0,
0,
0,
0,
0,
0,
0,
0,
0,
0,
0,
0,
0,
0,
0,
0,
0,
0,
0,
0,
0,
0,
0,
0,
0,
0,
0,
0,
0,
0,
0,
0,
0,
0,
0,
0,
0,
0,
0,
0,
0,
0,
0,
0,
0,
0,
0,
0,
0,
0,
0,
0,
0,
0,
0,
0,
0,
0,
0,
0,
0,
0,
0,
0,
0,
0,
0,
#ENDOFDATA   :