File: N132962/Quantification/20 keV/MMM2/SPI MM2 SPI Olivine[1][4].msa
#FORMAT      : EMSA/MAS Spectral Data File
#VERSION     : 1.0
#TITLE       : SPI MM2 SPI Olivine[1][all]
#DATE        : 13-MAR-2025
#TIME        : 09:46
#OWNER       : Unknown
#NPOINTS     : 4096
#NCOLUMNS    : 1
#XUNITS      : eV
#YUNITS      : counts
#DATATYPE    : Y
#XPERCHAN    : 9.99778
#OFFSET      : 1.69135
#BEAMKV      : 20
#SIGNALTYPE  : EDS
#ELEVANGLE   : 35
#AZIMANGLE   : 0
#LIVETIME    : 239.785
#REALTIME    : 255.9137
#PROBECUR    : 1.02582
#TAUWIND     : 0
#TDEADLYR    : 0
#TACTLYR     : 0.045
#TALWIND     : 0.025
#CHOFFSET    : 0.0
#XLABEL      : Energy (eV)
#YLABEL      : Counts
#XPOSITION   : -3.17548
#YPOSITION   : -2.14784
#ZPOSITION   : 31.03509
#EDSDET      : SD
##SPECIMEN   : SPI MM2 SPI Olivine[1][all]
##D2STDCMP   : SPI Olivine,(O:43.96),(Mg:30.26),(Si:19.14),(Mn:0.089),(Fe:6.35),(Ni:0.278),5.0
##DET_HASH   : 12273538-fd48-a23f-0a19-f1e6fa85caef
##CALIB_HASH : 6abaa72c-aa41-8738-0be9-f592914732f3
##WORKING    : 15.0 mm
##DET_NAME   : EDAX All
##DET_MODE   : MediumLE
#SPECTRUM    :
22,
26,
12,
18,
86,
295,
803,
2607,
7285,
9641,
5252,
2600,
2764,
3603,
6501,
25401,
102801,
202659,
148581,
39173,
6009,
3092,
4250,
6754,
6878,
4062,
2872,
2899,
3325,
3400,
3142,
3151,
3326,
3704,
4035,
4499,
4724,
5289,
7112,
19131,
77902,
198253,
239432,
133139,
37144,
7482,
3103,
2848,
2846,
3036,
3065,
3278,
3370,
3384,
4259,
10577,
39602,
100432,
136844,
96791,
39653,
14170,
6837,
3696,
2590,
2205,
2130,
2223,
2195,
2227,
2303,
2333,
2262,
2382,
2500,
2679,
2694,
2585,
2430,
2423,
2366,
2548,
2616,
2652,
2623,
2664,
2329,
2262,
2311,
2214,
2318,
2154,
2288,
2252,
2306,
2191,
2236,
2251,
2360,
2532,
2649,
2461,
2356,
2223,
2255,
2227,
2078,
2168,
2076,
2093,
2049,
1965,
2058,
2002,
2077,
2088,
2085,
2022,
2021,
2004,
1927,
1929,
1925,
1827,
1901,
1880,
1815,
1846,
1821,
1731,
1792,
1808,
1706,
1682,
1760,
1713,
1711,
1720,
1740,
1604,
1663,
1635,
1620,
1551,
1585,
1580,
1522,
1667,
1586,
1488,
1497,
1550,
1588,
1514,
1547,
1520,
1495,
1460,
1452,
1484,
1413,
1350,
1383,
1444,
1355,
1391,
1392,
1357,
1331,
1297,
1311,
1352,
1306,
1274,
1257,
1257,
1249,
1232,
1220,
1237,
1231,
1285,
1245,
1247,
1195,
1158,
1191,
1117,
1179,
1142,
1106,
1132,
1150,
1104,
1223,
1222,
1245,
1335,
1241,
1209,
1131,
1106,
1070,
1082,
1059,
1134,
1081,
1101,
1290,
1993,
3640,
6611,
9918,
11882,
11061,
8269,
4906,
2626,
1455,
1020,
967,
880,
914,
873,
839,
858,
909,
881,
899,
916,
1000,
1072,
1358,
1666,
2105,
2171,
2009,
1673,
1314,
1017,
835,
781,
778,
723,
814,
850,
854,
971,
1079,
1105,
1054,
957,
808,
771,
719,
683,
750,
689,
699,
684,
621,
641,
652,
642,
677,
643,
628,
625,
654,
586,
625,
634,
630,
634,
668,
628,
660,
596,
635,
592,
600,
555,
568,
589,
527,
587,
589,
569,
513,
549,
537,
541,
529,
557,
489,
519,
541,
526,
468,
504,
509,
491,
507,
476,
473,
496,
478,
473,
462,
461,
413,
443,
456,
503,
458,
418,
443,
434,
467,
414,
460,
378,
423,
440,
452,
441,
421,
441,
398,
387,
405,
385,
389,
395,
390,
354,
401,
347,
364,
373,
370,
376,
367,
367,
354,
370,
379,
370,
346,
356,
337,
338,
335,
341,
318,
324,
339,
318,
323,
311,
333,
320,
299,
262,
317,
294,
301,
304,
293,
296,
291,
285,
267,
258,
308,
270,
266,
273,
262,
279,
266,
270,
241,
261,
279,
260,
248,
231,
260,
228,
260,
245,
225,
201,
242,
226,
234,
253,
232,
204,
225,
213,
216,
205,
223,
199,
190,
195,
194,
235,
197,
230,
183,
191,
192,
184,
186,
206,
200,
194,
172,
184,
183,
164,
167,
190,
170,
196,
201,
164,
158,
155,
169,
160,
155,
150,
172,
169,
156,
147,
152,
152,
160,
151,
127,
147,
131,
142,
113,
154,
121,
135,
144,
133,
109,
124,
133,
103,
114,
136,
114,
122,
127,
117,
135,
127,
119,
117,
101,
105,
105,
118,
100,
98,
95,
101,
104,
105,
78,
116,
82,
89,
109,
87,
88,
90,
77,
98,
86,
90,
92,
88,
68,
82,
82,
84,
72,
93,
69,
83,
78,
68,
81,
75,
60,
69,
63,
73,
69,
55,
71,
57,
64,
57,
54,
65,
63,
74,
57,
61,
55,
60,
49,
42,
49,
52,
58,
50,
50,
45,
61,
51,
47,
46,
44,
44,
38,
51,
38,
33,
49,
43,
45,
43,
54,
42,
35,
40,
35,
39,
44,
35,
39,
36,
31,
30,
29,
30,
30,
22,
41,
42,
30,
23,
24,
39,
22,
26,
32,
18,
33,
24,
31,
35,
21,
22,
34,
17,
23,
17,
20,
28,
25,
19,
19,
18,
17,
15,
25,
20,
15,
25,
21,
19,
15,
12,
16,
12,
22,
14,
14,
16,
12,
18,
12,
11,
14,
22,
14,
13,
12,
12,
8,
10,
16,
13,
12,
12,
9,
14,
7,
7,
9,
13,
6,
4,
9,
9,
6,
9,
7,
10,
4,
8,
5,
3,
9,
5,
6,
4,
2,
3,
5,
5,
4,
0,
2,
5,
2,
5,
0,
2,
5,
2,
6,
3,
1,
2,
1,
1,
4,
3,
2,
0,
1,
0,
0,
0,
1,
1,
0,
0,
0,
0,
0,
0,
0,
0,
0,
0,
1,
0,
0,
0,
0,
0,
1,
0,
0,
0,
0,
0,
0,
0,
0,
0,
0,
0,
0,
0,
0,
0,
1,
0,
0,
0,
0,
0,
0,
0,
0,
0,
0,
0,
0,
0,
0,
0,
0,
0,
0,
0,
0,
0,
0,
0,
0,
0,
0,
0,
0,
0,
0,
0,
0,
0,
0,
0,
0,
0,
0,
0,
0,
0,
1,
0,
0,
0,
0,
0,
0,
0,
0,
0,
0,
0,
0,
0,
0,
0,
0,
1,
0,
0,
0,
0,
0,
0,
0,
0,
0,
0,
0,
0,
0,
0,
0,
0,
0,
0,
0,
0,
1,
0,
0,
0,
0,
0,
0,
0,
0,
0,
0,
0,
0,
0,
0,
1,
0,
1,
0,
0,
0,
0,
0,
0,
0,
0,
0,
0,
0,
0,
0,
0,
0,
0,
0,
0,
0,
0,
0,
0,
0,
0,
0,
0,
0,
0,
0,
0,
0,
0,
0,
0,
0,
0,
0,
0,
0,
0,
0,
0,
0,
0,
1,
0,
0,
0,
0,
0,
0,
0,
0,
0,
0,
0,
0,
0,
0,
0,
0,
0,
0,
0,
0,
0,
0,
0,
0,
0,
0,
0,
0,
0,
0,
0,
0,
0,
0,
0,
0,
0,
0,
0,
0,
0,
0,
0,
0,
0,
0,
0,
0,
0,
0,
0,
0,
0,
0,
0,
0,
0,
0,
0,
0,
0,
0,
0,
0,
0,
0,
0,
0,
0,
0,
0,
0,
0,
0,
0,
0,
0,
0,
0,
0,
0,
0,
0,
0,
0,
0,
0,
0,
0,
0,
0,
0,
0,
0,
0,
0,
0,
0,
0,
0,
0,
0,
0,
0,
0,
0,
0,
0,
0,
0,
0,
0,
0,
0,
0,
0,
0,
0,
0,
0,
0,
0,
0,
0,
0,
0,
0,
0,
0,
0,
0,
0,
0,
0,
0,
0,
0,
0,
0,
0,
0,
0,
0,
0,
0,
0,
0,
0,
0,
0,
0,
0,
0,
0,
0,
0,
0,
0,
0,
0,
0,
0,
0,
0,
0,
0,
0,
0,
0,
0,
0,
0,
0,
0,
0,
0,
0,
0,
0,
0,
0,
0,
0,
0,
0,
0,
0,
0,
0,
0,
0,
0,
0,
0,
0,
0,
0,
0,
0,
0,
0,
0,
0,
0,
0,
0,
0,
0,
0,
0,
0,
0,
0,
0,
0,
0,
0,
0,
0,
0,
0,
0,
0,
0,
0,
0,
0,
0,
0,
0,
0,
0,
0,
0,
0,
0,
0,
0,
0,
0,
0,
0,
0,
0,
0,
0,
0,
0,
0,
0,
0,
0,
0,
0,
0,
0,
0,
0,
0,
0,
0,
0,
0,
0,
0,
0,
0,
0,
0,
0,
0,
0,
0,
0,
0,
0,
0,
0,
0,
0,
0,
0,
0,
0,
0,
0,
0,
0,
0,
0,
0,
0,
0,
0,
0,
0,
0,
0,
0,
0,
0,
0,
0,
0,
0,
0,
0,
0,
0,
0,
0,
0,
0,
0,
0,
0,
0,
0,
0,
0,
0,
0,
0,
0,
0,
0,
0,
0,
0,
0,
0,
0,
0,
0,
0,
0,
0,
0,
0,
0,
0,
0,
0,
0,
0,
0,
0,
0,
0,
0,
0,
0,
0,
0,
0,
0,
0,
0,
0,
0,
0,
0,
0,
0,
0,
0,
0,
0,
0,
0,
0,
0,
0,
0,
0,
0,
0,
0,
0,
0,
0,
0,
0,
0,
0,
0,
0,
0,
0,
0,
0,
0,
0,
0,
0,
0,
0,
0,
0,
0,
0,
0,
0,
0,
0,
0,
0,
0,
0,
0,
0,
0,
0,
0,
0,
0,
0,
0,
0,
0,
0,
0,
0,
0,
0,
0,
0,
0,
0,
0,
0,
0,
0,
0,
0,
0,
0,
0,
0,
0,
0,
0,
0,
0,
0,
0,
0,
0,
0,
0,
0,
0,
0,
0,
0,
0,
0,
0,
0,
0,
0,
0,
0,
0,
0,
0,
0,
0,
0,
0,
0,
0,
0,
0,
0,
0,
0,
0,
0,
0,
0,
0,
0,
0,
0,
0,
0,
0,
0,
0,
0,
0,
0,
0,
0,
0,
0,
0,
0,
0,
0,
0,
0,
0,
0,
0,
0,
0,
0,
0,
0,
0,
0,
0,
0,
0,
0,
0,
0,
0,
0,
#ENDOFDATA   :