File: N132962/Quantification/20 keV/MMM2/SPI MM2 Sphene[7][4].msa
#FORMAT      : EMSA/MAS Spectral Data File
#VERSION     : 1.0
#TITLE       : SPI MM2 Sphene[7][all]
#DATE        : 13-MAR-2025
#TIME        : 13:06
#OWNER       : Unknown
#NPOINTS     : 4096
#NCOLUMNS    : 1
#XUNITS      : eV
#YUNITS      : counts
#DATATYPE    : Y
#XPERCHAN    : 9.99778
#OFFSET      : 1.69135
#BEAMKV      : 20
#SIGNALTYPE  : EDS
#ELEVANGLE   : 35
#AZIMANGLE   : 0
#LIVETIME    : 239.8535
#REALTIME    : 254.826
#PROBECUR    : 1.0263
#TAUWIND     : 0
#TDEADLYR    : 0
#TACTLYR     : 0.045
#TALWIND     : 0.025
#CHOFFSET    : 0.0
#XLABEL      : Energy (eV)
#YLABEL      : Counts
#XPOSITION   : 6.10352
#YPOSITION   : 3.74686
#ZPOSITION   : 31.03511
#EDSDET      : SD
##SPECIMEN   : SPI MM2 Sphene[7][all]
##DET_HASH   : 12273538-fd48-a23f-0a19-f1e6fa85caef
##CALIB_HASH : 6abaa72c-aa41-8738-0be9-f592914732f3
##WORKING    : 15.0 mm
##DET_NAME   : EDAX All
##DET_MODE   : MediumLE
#SPECTRUM    :
31,
13,
7,
16,
71,
304,
974,
3178,
9482,
14387,
9926,
5992,
5983,
6912,
7682,
12146,
33583,
62927,
46138,
12575,
2525,
1639,
2102,
2412,
2233,
2009,
2073,
2166,
2470,
2502,
2638,
2661,
2810,
2993,
3254,
3444,
3392,
3405,
3559,
3570,
3795,
3821,
4102,
4091,
4160,
4364,
4590,
5141,
7162,
10123,
10097,
7746,
5792,
5168,
5720,
11425,
38330,
95551,
130013,
92663,
38414,
14666,
7896,
5365,
4667,
4728,
4360,
3874,
3643,
3638,
3651,
3602,
3741,
3838,
3668,
3820,
3663,
3598,
3343,
3421,
3375,
3437,
3336,
3309,
3337,
3303,
3369,
3414,
3499,
3418,
3359,
3671,
3812,
3552,
3386,
3125,
3033,
3094,
3127,
3054,
2968,
2934,
2989,
2978,
3039,
2906,
3022,
3014,
2946,
2851,
2906,
2821,
2762,
2775,
2775,
2850,
2993,
3367,
4135,
6943,
17538,
43333,
80922,
102589,
85797,
48906,
19788,
6676,
3428,
2892,
3584,
5453,
8952,
13096,
14282,
11747,
7109,
4031,
2534,
2097,
2029,
2033,
2117,
2153,
2343,
2801,
4863,
12116,
28958,
54038,
72163,
67216,
44454,
21556,
8143,
3291,
2177,
1890,
1893,
2025,
2331,
3419,
5598,
8647,
11029,
10698,
8112,
4856,
2802,
1914,
1554,
1445,
1459,
1475,
1461,
1443,
1411,
1419,
1447,
1527,
1597,
1630,
1557,
1495,
1407,
1398,
1322,
1351,
1311,
1347,
1261,
1287,
1329,
1333,
1362,
1282,
1356,
1373,
1292,
1306,
1259,
1217,
1237,
1223,
1225,
1188,
1183,
1297,
1310,
1295,
1373,
1635,
1904,
2118,
2007,
1696,
1520,
1273,
1149,
1087,
1115,
1146,
1092,
1039,
1061,
1032,
1051,
1029,
1056,
1105,
1070,
1048,
1032,
1069,
1086,
1069,
1103,
1061,
955,
997,
954,
940,
913,
982,
966,
961,
991,
997,
975,
990,
925,
935,
903,
930,
897,
867,
860,
903,
842,
876,
859,
829,
785,
834,
824,
877,
796,
792,
801,
831,
776,
853,
893,
855,
811,
830,
774,
711,
759,
791,
756,
706,
700,
769,
719,
717,
734,
694,
694,
678,
692,
653,
690,
672,
661,
673,
642,
666,
670,
687,
648,
651,
696,
680,
609,
592,
572,
621,
616,
621,
608,
628,
595,
601,
599,
566,
622,
565,
552,
607,
562,
551,
561,
533,
539,
559,
550,
534,
579,
570,
496,
528,
487,
494,
493,
495,
507,
521,
485,
486,
506,
453,
438,
477,
451,
470,
461,
496,
495,
476,
464,
449,
418,
460,
422,
427,
418,
365,
446,
429,
388,
397,
387,
393,
397,
376,
387,
439,
391,
366,
385,
376,
352,
362,
368,
342,
381,
366,
398,
339,
369,
353,
348,
328,
353,
360,
336,
321,
333,
313,
314,
321,
302,
313,
308,
300,
295,
321,
305,
256,
284,
282,
280,
293,
252,
272,
276,
294,
309,
296,
286,
268,
304,
274,
271,
264,
261,
258,
249,
245,
245,
235,
265,
231,
239,
241,
229,
217,
241,
230,
223,
227,
207,
197,
235,
191,
196,
195,
204,
194,
189,
204,
184,
193,
191,
200,
180,
187,
194,
181,
175,
192,
166,
159,
182,
169,
185,
166,
168,
168,
147,
182,
164,
155,
167,
167,
158,
138,
138,
148,
119,
159,
149,
139,
125,
135,
142,
130,
124,
115,
123,
135,
123,
131,
122,
126,
104,
105,
122,
128,
120,
134,
114,
128,
97,
104,
120,
123,
98,
107,
99,
85,
95,
81,
117,
92,
90,
113,
83,
75,
74,
96,
97,
71,
89,
93,
72,
77,
105,
74,
76,
91,
76,
92,
90,
66,
67,
86,
71,
59,
67,
61,
70,
91,
73,
70,
64,
61,
67,
60,
63,
45,
53,
56,
75,
67,
60,
47,
57,
64,
57,
42,
42,
45,
48,
51,
32,
44,
57,
44,
51,
49,
58,
46,
49,
35,
35,
40,
49,
39,
38,
42,
30,
46,
39,
37,
34,
37,
32,
27,
35,
34,
30,
30,
28,
39,
35,
24,
25,
34,
30,
22,
21,
27,
25,
30,
31,
21,
22,
28,
26,
23,
28,
17,
21,
23,
17,
18,
25,
16,
24,
15,
16,
15,
15,
16,
11,
19,
10,
15,
20,
9,
9,
12,
9,
14,
8,
8,
12,
16,
12,
6,
9,
8,
9,
8,
7,
11,
8,
12,
7,
8,
6,
9,
10,
6,
5,
5,
7,
7,
6,
6,
5,
1,
5,
4,
2,
3,
0,
3,
0,
2,
1,
2,
0,
1,
0,
0,
0,
1,
0,
0,
0,
1,
0,
0,
1,
0,
0,
1,
0,
0,
0,
0,
0,
0,
0,
0,
1,
1,
0,
0,
1,
0,
0,
0,
0,
1,
0,
2,
0,
0,
0,
0,
0,
1,
0,
0,
0,
1,
0,
0,
0,
0,
0,
0,
0,
0,
0,
0,
1,
0,
0,
0,
0,
0,
0,
0,
0,
0,
0,
0,
0,
0,
0,
1,
0,
1,
0,
0,
0,
0,
0,
0,
0,
0,
0,
0,
0,
0,
0,
0,
0,
0,
0,
0,
0,
0,
0,
0,
0,
0,
0,
0,
1,
0,
0,
0,
0,
0,
0,
0,
0,
0,
0,
0,
0,
0,
0,
0,
0,
0,
0,
0,
0,
0,
0,
0,
0,
0,
0,
0,
0,
0,
0,
0,
0,
0,
0,
0,
0,
0,
0,
0,
0,
0,
0,
0,
0,
0,
0,
0,
0,
0,
0,
0,
0,
0,
0,
0,
1,
0,
0,
0,
1,
0,
0,
0,
0,
0,
0,
0,
0,
0,
0,
0,
0,
0,
0,
0,
0,
0,
0,
0,
0,
0,
0,
0,
0,
0,
0,
0,
0,
0,
0,
0,
0,
0,
0,
0,
0,
0,
0,
0,
0,
0,
0,
0,
0,
0,
0,
0,
0,
0,
0,
0,
1,
0,
0,
0,
0,
0,
0,
0,
0,
0,
0,
0,
0,
0,
0,
0,
0,
0,
0,
0,
0,
0,
0,
0,
0,
0,
0,
0,
0,
0,
0,
0,
0,
0,
0,
0,
0,
0,
0,
0,
0,
0,
0,
1,
0,
0,
0,
0,
0,
0,
0,
0,
0,
0,
0,
0,
0,
0,
0,
0,
0,
0,
0,
0,
0,
0,
0,
0,
0,
0,
0,
0,
0,
0,
0,
0,
0,
0,
0,
0,
0,
0,
0,
0,
0,
0,
0,
0,
0,
0,
0,
0,
0,
0,
0,
0,
0,
0,
0,
0,
0,
0,
0,
0,
0,
0,
0,
0,
0,
0,
0,
0,
0,
0,
0,
0,
0,
0,
0,
0,
0,
0,
0,
0,
0,
0,
0,
0,
0,
0,
0,
0,
0,
0,
0,
0,
0,
0,
0,
0,
0,
0,
0,
0,
0,
0,
0,
0,
0,
0,
0,
0,
0,
0,
0,
0,
0,
0,
0,
0,
0,
0,
0,
0,
0,
0,
0,
0,
0,
0,
0,
0,
0,
0,
0,
0,
0,
0,
0,
0,
0,
0,
0,
0,
0,
0,
0,
0,
0,
0,
0,
0,
0,
0,
0,
0,
0,
0,
0,
0,
0,
0,
0,
0,
0,
0,
0,
0,
0,
0,
0,
0,
0,
0,
0,
0,
0,
0,
0,
0,
0,
0,
0,
0,
0,
0,
0,
0,
0,
0,
0,
0,
0,
0,
0,
0,
0,
0,
0,
0,
0,
0,
0,
0,
0,
0,
0,
0,
0,
0,
0,
0,
0,
0,
0,
0,
0,
0,
0,
0,
0,
0,
0,
0,
0,
0,
0,
0,
0,
0,
0,
0,
0,
0,
0,
0,
0,
0,
0,
0,
0,
0,
0,
0,
0,
0,
0,
0,
0,
0,
0,
0,
0,
0,
0,
0,
0,
0,
0,
0,
0,
0,
0,
0,
0,
0,
0,
0,
0,
0,
0,
0,
0,
0,
0,
0,
0,
0,
0,
0,
0,
0,
0,
0,
0,
0,
0,
0,
0,
0,
0,
0,
0,
0,
0,
0,
0,
0,
0,
0,
0,
0,
0,
0,
0,
0,
0,
0,
0,
0,
0,
0,
0,
0,
0,
0,
0,
0,
0,
0,
0,
0,
0,
0,
0,
0,
0,
0,
0,
0,
0,
0,
0,
0,
0,
0,
0,
0,
0,
0,
0,
0,
0,
0,
0,
0,
0,
0,
0,
0,
0,
0,
0,
0,
0,
0,
0,
0,
0,
0,
0,
0,
0,
0,
0,
0,
0,
0,
0,
0,
0,
0,
0,
0,
0,
0,
0,
0,
0,
0,
0,
0,
0,
0,
0,
0,
0,
0,
0,
0,
0,
0,
0,
0,
0,
0,
0,
0,
0,
0,
0,
0,
0,
0,
0,
0,
0,
0,
0,
0,
0,
0,
0,
0,
0,
0,
0,
0,
0,
0,
0,
0,
0,
0,
0,
0,
0,
0,
0,
0,
0,
0,
0,
0,
0,
0,
0,
0,
0,
0,
0,
0,
0,
0,
0,
0,
0,
0,
0,
0,
#ENDOFDATA   :