File: N132962/Quantification/20 keV/MMM2/SPI MM2 Rhodonite[1][4].msa
#FORMAT      : EMSA/MAS Spectral Data File
#VERSION     : 1.0
#TITLE       : SPI MM2 Rhodonite[1][all]
#DATE        : 13-MAR-2025
#TIME        : 12:22
#OWNER       : Unknown
#NPOINTS     : 4096
#NCOLUMNS    : 1
#XUNITS      : eV
#YUNITS      : counts
#DATATYPE    : Y
#XPERCHAN    : 9.99778
#OFFSET      : 1.69135
#BEAMKV      : 20
#SIGNALTYPE  : EDS
#ELEVANGLE   : 35
#AZIMANGLE   : 0
#LIVETIME    : 239.589
#REALTIME    : 255.529
#PROBECUR    : 1.02616
#TAUWIND     : 0
#TDEADLYR    : 0
#TACTLYR     : 0.045
#TALWIND     : 0.025
#CHOFFSET    : 0.0
#XLABEL      : Energy (eV)
#YLABEL      : Counts
#XPOSITION   : 0.05495
#YPOSITION   : 1.2317
#ZPOSITION   : 31.03511
#EDSDET      : SD
##SPECIMEN   : SPI MM2 Rhodonite[1][all]
##DET_HASH   : 12273538-fd48-a23f-0a19-f1e6fa85caef
##CALIB_HASH : 6abaa72c-aa41-8738-0be9-f592914732f3
##WORKING    : 15.0 mm
##DET_NAME   : EDAX All
##DET_MODE   : MediumLE
#SPECTRUM    :
21,
28,
15,
9,
72,
331,
911,
3168,
9364,
12358,
6969,
3476,
3270,
4126,
6628,
21883,
86798,
170728,
126910,
36693,
12671,
15158,
12028,
6567,
4321,
2822,
2140,
2115,
2208,
2321,
2406,
2420,
2578,
2852,
3059,
3099,
3074,
3102,
3273,
3526,
5057,
8007,
9052,
6676,
4533,
4019,
4281,
5276,
8998,
14910,
15037,
9790,
6269,
5259,
6052,
13608,
50551,
129136,
175557,
123597,
50482,
18031,
8774,
4889,
3535,
3069,
3008,
3113,
3164,
3032,
2998,
3075,
3130,
3216,
3434,
3454,
3597,
3327,
3281,
3168,
3067,
3097,
3099,
3031,
3173,
3008,
3071,
3091,
3070,
3006,
3071,
2917,
2987,
2990,
2964,
2959,
3046,
2899,
2972,
2879,
2831,
2916,
2966,
2869,
2851,
2741,
2877,
2837,
2799,
2782,
2639,
2716,
2617,
2691,
2728,
2813,
2863,
2891,
2949,
3311,
4874,
8720,
14225,
17276,
14933,
9484,
4991,
3133,
2630,
2446,
2509,
2829,
3311,
3943,
4125,
3847,
3151,
2674,
2656,
2566,
2415,
2274,
2099,
2146,
2122,
2201,
2024,
2078,
2009,
2068,
2005,
2013,
2040,
2001,
1961,
2041,
2054,
2014,
1992,
1913,
1926,
1848,
1860,
1801,
2001,
1855,
1866,
1764,
1784,
1876,
1800,
1748,
1786,
1729,
1793,
1657,
1659,
1703,
1668,
1766,
1746,
1667,
1669,
1652,
1647,
1620,
1698,
1600,
1618,
1861,
1923,
2815,
5683,
13444,
29143,
50442,
66089,
65735,
48937,
28259,
12418,
4937,
2299,
1631,
1589,
1419,
1507,
1551,
1615,
2041,
3036,
4736,
7146,
9561,
11381,
12336,
11883,
10058,
7156,
4369,
2549,
1585,
1273,
1151,
1118,
1085,
1042,
1083,
1140,
1108,
1121,
1162,
1286,
1470,
1704,
1712,
1673,
1487,
1235,
1126,
1057,
934,
1002,
1008,
969,
940,
1040,
942,
989,
1017,
1034,
996,
987,
966,
966,
974,
991,
962,
905,
840,
917,
914,
897,
821,
842,
864,
846,
777,
828,
845,
826,
798,
863,
797,
868,
804,
846,
769,
804,
805,
783,
803,
781,
780,
775,
792,
750,
737,
738,
748,
716,
713,
670,
680,
717,
739,
741,
687,
704,
679,
693,
743,
655,
675,
643,
688,
660,
655,
662,
668,
661,
647,
621,
582,
619,
570,
611,
614,
625,
624,
565,
614,
596,
597,
604,
589,
575,
576,
521,
555,
599,
547,
584,
509,
559,
546,
514,
514,
518,
550,
519,
547,
504,
491,
500,
538,
501,
476,
491,
461,
483,
474,
481,
475,
433,
457,
438,
477,
458,
458,
490,
407,
419,
409,
435,
434,
410,
425,
436,
393,
416,
400,
413,
388,
388,
435,
410,
384,
413,
410,
408,
383,
379,
372,
353,
358,
360,
374,
353,
376,
371,
363,
361,
366,
376,
326,
350,
352,
324,
297,
303,
328,
329,
296,
310,
319,
298,
295,
278,
319,
336,
284,
317,
294,
255,
282,
287,
264,
284,
261,
263,
291,
250,
256,
248,
254,
238,
231,
236,
260,
221,
233,
222,
230,
244,
205,
248,
221,
227,
238,
200,
203,
216,
202,
205,
191,
229,
211,
218,
201,
182,
179,
182,
196,
179,
177,
189,
199,
202,
176,
187,
175,
163,
164,
177,
165,
149,
164,
153,
159,
153,
157,
162,
161,
162,
155,
133,
131,
137,
146,
147,
120,
146,
140,
139,
144,
152,
131,
127,
111,
150,
121,
117,
110,
104,
119,
133,
92,
119,
106,
119,
105,
96,
107,
107,
111,
103,
98,
103,
108,
110,
74,
115,
77,
86,
84,
93,
86,
76,
87,
75,
90,
76,
86,
85,
66,
95,
87,
75,
78,
83,
82,
68,
73,
71,
69,
71,
68,
77,
70,
71,
57,
66,
64,
58,
60,
59,
67,
51,
60,
68,
70,
58,
56,
59,
49,
56,
41,
48,
51,
42,
39,
40,
47,
43,
41,
51,
50,
49,
46,
40,
29,
40,
59,
45,
44,
38,
54,
33,
41,
33,
42,
31,
44,
31,
24,
37,
26,
32,
26,
23,
21,
17,
25,
33,
29,
37,
19,
25,
29,
23,
24,
24,
19,
22,
27,
23,
19,
23,
24,
16,
18,
15,
22,
15,
12,
20,
15,
22,
19,
13,
18,
14,
17,
16,
14,
11,
11,
13,
15,
10,
6,
11,
7,
9,
11,
5,
4,
7,
11,
8,
5,
6,
3,
9,
8,
4,
6,
6,
5,
5,
9,
6,
3,
7,
6,
5,
4,
1,
2,
3,
0,
1,
1,
4,
1,
2,
1,
1,
0,
0,
1,
0,
0,
0,
1,
0,
0,
1,
2,
0,
1,
0,
0,
1,
1,
0,
1,
0,
0,
0,
0,
0,
1,
0,
2,
0,
0,
0,
1,
0,
1,
1,
0,
0,
0,
1,
0,
0,
1,
0,
0,
1,
0,
0,
0,
0,
0,
0,
0,
0,
0,
0,
1,
0,
0,
0,
0,
2,
0,
0,
0,
0,
0,
0,
0,
0,
0,
1,
0,
0,
0,
0,
0,
0,
0,
0,
0,
0,
0,
0,
0,
0,
0,
1,
0,
0,
0,
1,
0,
0,
0,
0,
1,
0,
1,
0,
0,
0,
1,
0,
0,
1,
1,
0,
0,
0,
0,
0,
0,
0,
1,
0,
0,
0,
0,
0,
0,
0,
0,
0,
0,
0,
0,
0,
0,
0,
0,
0,
0,
0,
0,
0,
0,
0,
0,
0,
0,
0,
0,
0,
0,
0,
0,
0,
0,
0,
0,
0,
0,
0,
0,
0,
0,
0,
0,
0,
0,
0,
0,
0,
0,
0,
0,
0,
0,
0,
0,
0,
0,
0,
0,
0,
0,
0,
0,
0,
0,
0,
0,
0,
0,
0,
1,
0,
0,
0,
0,
0,
0,
0,
0,
0,
0,
0,
0,
0,
0,
0,
0,
0,
0,
0,
0,
0,
0,
0,
0,
0,
0,
0,
0,
0,
0,
0,
0,
0,
0,
0,
0,
0,
0,
0,
0,
0,
0,
0,
0,
0,
0,
0,
0,
0,
0,
0,
0,
0,
0,
0,
0,
0,
0,
0,
0,
0,
0,
0,
0,
0,
1,
0,
0,
0,
0,
0,
0,
0,
0,
0,
0,
0,
0,
0,
0,
0,
0,
0,
0,
0,
0,
0,
0,
0,
0,
0,
0,
0,
0,
0,
0,
0,
0,
0,
0,
0,
0,
0,
0,
0,
0,
0,
0,
0,
0,
0,
0,
0,
0,
0,
0,
0,
0,
0,
0,
0,
0,
0,
0,
0,
0,
0,
0,
0,
0,
0,
0,
0,
0,
0,
0,
0,
0,
0,
0,
0,
0,
0,
0,
0,
0,
0,
0,
0,
0,
0,
0,
0,
0,
0,
0,
0,
0,
0,
0,
0,
0,
0,
0,
0,
0,
0,
0,
0,
0,
0,
0,
0,
0,
0,
0,
0,
0,
0,
0,
0,
0,
0,
0,
0,
0,
0,
0,
0,
0,
0,
0,
0,
0,
0,
0,
0,
0,
0,
0,
0,
0,
0,
0,
0,
0,
0,
0,
0,
0,
0,
0,
0,
0,
0,
0,
0,
0,
0,
0,
0,
0,
0,
0,
0,
0,
0,
0,
0,
0,
0,
0,
0,
0,
0,
0,
0,
0,
0,
0,
0,
0,
0,
0,
0,
0,
0,
0,
0,
0,
0,
0,
0,
0,
0,
0,
0,
0,
0,
0,
0,
0,
0,
0,
0,
0,
0,
0,
0,
0,
0,
0,
0,
0,
0,
0,
0,
0,
0,
0,
0,
0,
0,
0,
0,
0,
0,
0,
0,
0,
0,
0,
0,
0,
0,
0,
0,
0,
0,
0,
0,
0,
0,
0,
0,
0,
0,
0,
0,
0,
0,
0,
0,
0,
0,
0,
0,
0,
0,
0,
0,
0,
0,
0,
0,
0,
0,
0,
0,
0,
0,
0,
0,
0,
0,
0,
0,
0,
0,
0,
0,
0,
0,
0,
0,
0,
0,
0,
0,
0,
0,
0,
0,
0,
0,
0,
0,
0,
0,
0,
0,
0,
0,
0,
0,
0,
0,
0,
0,
0,
0,
0,
0,
0,
0,
0,
0,
0,
0,
0,
0,
0,
0,
0,
0,
0,
0,
0,
0,
0,
0,
0,
0,
0,
0,
0,
0,
0,
0,
0,
0,
0,
0,
0,
0,
0,
0,
0,
0,
0,
0,
0,
0,
0,
0,
0,
0,
0,
0,
0,
0,
0,
0,
0,
0,
0,
0,
0,
0,
0,
0,
0,
0,
0,
0,
0,
0,
0,
0,
0,
0,
0,
0,
0,
0,
0,
0,
0,
0,
0,
0,
0,
0,
0,
0,
0,
0,
0,
0,
0,
0,
0,
0,
0,
0,
0,
0,
0,
0,
0,
0,
0,
0,
0,
0,
0,
0,
0,
0,
0,
0,
0,
0,
0,
0,
0,
0,
0,
0,
0,
0,
0,
0,
0,
0,
0,
0,
0,
0,
0,
0,
0,
0,
0,
0,
0,
0,
0,
0,
0,
0,
0,
#ENDOFDATA   :