File: N132962/Quantification/15 keV/Mengason MM2/MMM2 Willemite[3][4].msa
#FORMAT      : EMSA/MAS Spectral Data File
#VERSION     : 1.0
#TITLE       : MMM2 Willemite[3][all]
#DATE        : 28-SEP-2025
#TIME        : 23:46
#OWNER       : Unknown
#NPOINTS     : 4096
#NCOLUMNS    : 1
#XUNITS      : eV
#YUNITS      : counts
#DATATYPE    : Y
#XPERCHAN    : 9.99778
#OFFSET      : 1.69135
#BEAMKV      : 15
#SIGNALTYPE  : EDS
#ELEVANGLE   : 35
#AZIMANGLE   : 0
#LIVETIME    : 240.231
#REALTIME    : 257.889
#PROBECUR    : 1.21079
#TAUWIND     : 0
#TDEADLYR    : 0
#TACTLYR     : 0.045
#TALWIND     : 0.025
#CHOFFSET    : 0.0
#XLABEL      : Energy (eV)
#YLABEL      : Counts
#XPOSITION   : -11.64075
#YPOSITION   : 2.24336
#ZPOSITION   : 34.11879
#EDSDET      : SD
##SPECIMEN   : MMM2 Willemite[3][all]
##DET_HASH   : 12273538-fd48-a23f-0a19-f1e6fa85caef
##CALIB_HASH : 6abaa72c-aa41-8738-0be9-f592914732f3
##WORKING    : 15.0 mm
##DET_NAME   : EDAX All
##DET_MODE   : MediumLE
#SPECTRUM    :
16,
24,
15,
16,
114,
484,
1542,
4970,
13812,
17538,
9326,
4739,
4884,
5913,
9039,
26784,
92109,
171394,
125622,
36275,
9922,
9550,
8624,
6891,
6201,
6536,
6962,
8887,
14690,
22783,
24372,
29522,
82815,
207124,
255620,
147597,
44111,
11144,
5278,
4090,
4160,
4851,
4975,
4605,
4180,
4188,
4304,
4403,
4749,
4985,
5426,
5577,
5465,
5241,
5614,
9323,
27199,
64702,
86447,
61829,
26927,
11417,
6929,
5031,
4206,
4026,
4146,
4351,
4285,
4186,
4060,
3877,
3858,
3972,
3973,
3966,
4159,
3899,
3892,
3901,
3887,
3806,
3836,
3867,
3853,
3785,
3716,
3758,
3705,
3658,
3727,
3785,
3830,
3744,
3598,
3553,
3548,
3460,
3424,
3340,
3387,
3322,
3332,
3269,
3362,
3196,
3247,
3218,
3100,
3169,
3092,
3028,
3100,
3007,
3044,
2939,
2979,
3001,
2928,
2826,
2961,
2837,
2769,
2724,
2737,
2811,
2730,
2657,
2643,
2621,
2571,
2600,
2575,
2645,
2538,
2515,
2525,
2473,
2539,
2490,
2464,
2339,
2503,
2492,
2352,
2400,
2384,
2270,
2341,
2260,
2264,
2168,
2217,
2244,
2086,
2070,
2200,
2128,
2131,
2054,
2039,
1980,
2061,
2011,
1930,
2014,
1958,
1996,
1888,
1920,
1936,
1867,
1870,
1812,
1780,
1830,
1762,
1729,
1770,
1743,
1741,
1844,
1698,
1753,
1703,
1756,
1625,
1672,
1662,
1642,
1640,
1714,
1872,
2578,
4197,
6021,
7441,
7434,
5913,
3935,
2468,
1797,
1641,
1473,
1511,
1440,
1409,
1452,
1417,
1451,
1430,
1446,
1560,
1637,
1826,
2011,
2093,
2010,
1690,
1537,
1407,
1241,
1229,
1251,
1176,
1234,
1201,
1200,
1205,
1223,
1191,
1185,
1158,
1118,
1169,
1161,
1166,
1099,
1135,
1116,
1023,
1037,
1033,
1058,
1072,
991,
1037,
1005,
1035,
983,
1028,
969,
942,
1000,
933,
976,
921,
900,
939,
868,
895,
908,
912,
892,
892,
832,
854,
913,
859,
859,
855,
896,
835,
778,
837,
824,
795,
813,
819,
806,
845,
1071,
1637,
2755,
5494,
9649,
14225,
17672,
17854,
14591,
10079,
5872,
2974,
1521,
992,
793,
714,
699,
717,
655,
672,
641,
670,
685,
639,
647,
671,
668,
612,
628,
628,
615,
669,
671,
875,
1191,
1649,
2234,
2732,
2958,
2512,
2060,
1428,
1038,
716,
582,
519,
448,
470,
458,
459,
457,
461,
439,
440,
480,
472,
441,
410,
430,
411,
406,
438,
427,
433,
435,
417,
427,
456,
409,
374,
375,
394,
391,
365,
364,
401,
366,
374,
340,
340,
362,
336,
320,
328,
282,
286,
323,
336,
330,
314,
286,
296,
305,
276,
308,
295,
307,
257,
276,
259,
280,
278,
253,
251,
240,
266,
253,
267,
230,
220,
216,
210,
209,
239,
247,
216,
210,
214,
230,
190,
228,
206,
223,
205,
198,
197,
196,
181,
194,
185,
178,
179,
181,
169,
163,
157,
153,
156,
150,
154,
138,
139,
139,
148,
127,
137,
125,
143,
125,
135,
114,
124,
118,
104,
112,
118,
103,
97,
101,
117,
91,
94,
100,
96,
103,
94,
74,
81,
94,
88,
78,
76,
74,
90,
70,
68,
72,
67,
55,
62,
64,
60,
53,
65,
60,
45,
46,
38,
45,
43,
46,
55,
46,
38,
42,
30,
31,
39,
30,
32,
26,
33,
29,
23,
23,
22,
12,
17,
12,
12,
11,
18,
12,
9,
12,
8,
3,
3,
1,
3,
0,
1,
1,
1,
1,
2,
2,
1,
2,
2,
0,
2,
1,
1,
0,
2,
2,
0,
3,
0,
1,
2,
0,
2,
0,
0,
1,
0,
0,
1,
3,
1,
0,
0,
0,
1,
0,
0,
0,
0,
0,
0,
1,
0,
0,
0,
1,
1,
0,
0,
0,
1,
1,
0,
0,
0,
2,
0,
1,
1,
0,
0,
2,
3,
0,
0,
0,
1,
0,
2,
3,
1,
1,
0,
2,
3,
2,
3,
5,
1,
4,
2,
1,
2,
1,
0,
0,
0,
0,
0,
0,
0,
2,
0,
0,
1,
0,
0,
2,
0,
1,
0,
1,
2,
1,
2,
2,
3,
1,
1,
1,
0,
0,
0,
0,
0,
1,
0,
0,
0,
0,
0,
0,
2,
0,
1,
0,
1,
0,
0,
1,
0,
0,
1,
1,
1,
0,
0,
0,
0,
0,
0,
1,
0,
1,
0,
0,
0,
0,
0,
0,
0,
0,
0,
1,
1,
1,
0,
0,
0,
0,
0,
0,
0,
0,
0,
1,
1,
0,
0,
1,
0,
0,
0,
0,
0,
0,
0,
0,
0,
0,
0,
0,
0,
1,
0,
0,
0,
0,
0,
0,
0,
0,
1,
0,
0,
0,
0,
1,
0,
0,
0,
0,
0,
0,
0,
0,
0,
0,
1,
1,
0,
0,
0,
0,
0,
0,
0,
0,
0,
0,
1,
0,
1,
0,
2,
0,
0,
0,
0,
0,
0,
0,
0,
0,
0,
0,
0,
0,
0,
0,
0,
0,
0,
0,
0,
0,
0,
0,
0,
0,
0,
0,
0,
0,
0,
0,
0,
0,
0,
0,
0,
0,
0,
0,
0,
0,
0,
0,
0,
0,
0,
0,
0,
0,
0,
0,
0,
0,
0,
0,
0,
0,
0,
0,
0,
0,
0,
0,
0,
0,
0,
0,
0,
0,
0,
0,
0,
0,
0,
0,
0,
0,
1,
0,
0,
0,
0,
0,
0,
0,
0,
0,
0,
0,
0,
0,
0,
0,
0,
0,
0,
0,
0,
0,
0,
0,
0,
0,
0,
0,
0,
0,
0,
0,
0,
0,
0,
0,
0,
0,
0,
0,
0,
0,
0,
0,
0,
0,
0,
0,
0,
0,
0,
0,
0,
0,
0,
0,
0,
0,
0,
0,
0,
0,
0,
0,
0,
0,
0,
0,
0,
0,
0,
0,
0,
0,
0,
0,
0,
0,
0,
0,
0,
0,
0,
0,
0,
0,
0,
0,
0,
0,
0,
0,
0,
0,
0,
0,
0,
0,
0,
0,
0,
0,
0,
0,
0,
0,
0,
0,
0,
0,
0,
0,
0,
0,
0,
0,
0,
0,
0,
0,
0,
0,
0,
0,
0,
0,
0,
0,
0,
0,
0,
0,
0,
0,
0,
0,
0,
0,
0,
0,
0,
0,
0,
0,
0,
0,
0,
0,
0,
0,
0,
0,
0,
0,
0,
0,
0,
0,
0,
0,
0,
0,
0,
0,
0,
0,
0,
0,
0,
0,
0,
0,
0,
0,
0,
0,
0,
0,
0,
0,
0,
0,
0,
0,
0,
0,
0,
0,
0,
0,
0,
0,
0,
0,
0,
0,
0,
0,
0,
0,
0,
0,
0,
0,
0,
0,
0,
0,
0,
0,
0,
0,
0,
0,
0,
0,
0,
0,
0,
0,
0,
0,
0,
0,
0,
0,
0,
0,
0,
0,
0,
0,
0,
0,
0,
0,
0,
0,
0,
0,
0,
0,
0,
0,
0,
0,
0,
0,
0,
0,
0,
0,
0,
0,
0,
0,
0,
0,
0,
0,
0,
0,
0,
0,
0,
0,
0,
0,
0,
0,
0,
0,
0,
0,
0,
0,
0,
0,
0,
0,
0,
0,
0,
0,
0,
0,
0,
0,
0,
0,
0,
0,
0,
0,
0,
0,
0,
0,
0,
0,
0,
0,
0,
0,
0,
0,
0,
0,
0,
0,
0,
0,
0,
0,
0,
0,
0,
0,
0,
0,
0,
0,
0,
0,
0,
0,
0,
0,
0,
0,
0,
0,
0,
0,
0,
0,
0,
0,
0,
0,
0,
0,
0,
0,
0,
0,
0,
0,
0,
0,
0,
0,
0,
0,
0,
0,
0,
0,
0,
0,
0,
0,
0,
0,
0,
0,
0,
0,
0,
0,
0,
0,
0,
0,
0,
0,
0,
0,
0,
0,
0,
0,
0,
0,
0,
0,
0,
0,
0,
0,
0,
0,
0,
0,
0,
0,
0,
0,
0,
0,
0,
0,
0,
0,
0,
0,
0,
0,
0,
0,
0,
0,
0,
0,
0,
0,
0,
0,
0,
0,
0,
0,
0,
0,
0,
0,
0,
0,
0,
0,
0,
0,
0,
0,
0,
0,
0,
0,
0,
0,
0,
0,
0,
0,
0,
0,
0,
0,
0,
0,
0,
0,
0,
0,
0,
0,
0,
0,
0,
0,
0,
0,
0,
0,
0,
0,
0,
0,
0,
0,
0,
0,
0,
0,
0,
0,
0,
0,
0,
0,
0,
0,
0,
0,
0,
0,
0,
0,
0,
0,
0,
0,
0,
0,
0,
0,
0,
0,
0,
0,
0,
0,
0,
0,
0,
0,
0,
0,
0,
0,
0,
0,
0,
0,
0,
0,
0,
0,
0,
0,
0,
0,
0,
0,
0,
0,
0,
0,
0,
0,
0,
0,
0,
0,
0,
0,
0,
0,
0,
0,
0,
0,
0,
0,
0,
0,
0,
0,
0,
0,
0,
0,
0,
0,
0,
0,
0,
0,
0,
0,
0,
0,
#ENDOFDATA   :