File: N132962/Quantification/15 keV/Mengason MM2/MMM2 Quartz[5][4].msa
#FORMAT      : EMSA/MAS Spectral Data File
#VERSION     : 1.0
#TITLE       : MMM2 Quartz[5][all]
#DATE        : 28-SEP-2025
#TIME        : 22:35
#OWNER       : Unknown
#NPOINTS     : 4096
#NCOLUMNS    : 1
#XUNITS      : eV
#YUNITS      : counts
#DATATYPE    : Y
#XPERCHAN    : 9.99778
#OFFSET      : 1.69135
#BEAMKV      : 15
#SIGNALTYPE  : EDS
#ELEVANGLE   : 35
#AZIMANGLE   : 0
#LIVETIME    : 240.265
#REALTIME    : 258.4776
#PROBECUR    : 1.21261
#TAUWIND     : 0
#TDEADLYR    : 0
#TACTLYR     : 0.045
#TALWIND     : 0.025
#CHOFFSET    : 0.0
#XLABEL      : Energy (eV)
#YLABEL      : Counts
#XPOSITION   : -14.55142
#YPOSITION   : 0.49586
#ZPOSITION   : 34.11879
#EDSDET      : SD
##SPECIMEN   : MMM2 Quartz[5][all]
##D2STDCMP   : Quartz,(O:53.2565),(Si:46.7435),2.65
##DET_HASH   : 12273538-fd48-a23f-0a19-f1e6fa85caef
##CALIB_HASH : 6abaa72c-aa41-8738-0be9-f592914732f3
##WORKING    : 15.0 mm
##DET_NAME   : EDAX All
##DET_MODE   : MediumLE
#SPECTRUM    :
29,
23,
19,
28,
101,
385,
1052,
3669,
10449,
13259,
6836,
3572,
3753,
5063,
10223,
39209,
150440,
286007,
206248,
53232,
6781,
2437,
2430,
2602,
2707,
2969,
2980,
3274,
3427,
3462,
3613,
3829,
3880,
4254,
4705,
4701,
4533,
4378,
4419,
4452,
4503,
4676,
4568,
4804,
4657,
4950,
4862,
5107,
5270,
5689,
5920,
6018,
6322,
6725,
8981,
27791,
117033,
304276,
414718,
290854,
114643,
36305,
14765,
6507,
3122,
2475,
2319,
2275,
2208,
2233,
2199,
2199,
2271,
2716,
3380,
3887,
3584,
2964,
2471,
2225,
2126,
2118,
2053,
2143,
2084,
2139,
2076,
2109,
2057,
2049,
2028,
2043,
1987,
1934,
1943,
1894,
1958,
1900,
1875,
1888,
1777,
1887,
1847,
1777,
1724,
1792,
1800,
1806,
1761,
1760,
1733,
1713,
1733,
1753,
2087,
2474,
2585,
2372,
2019,
1811,
1657,
1588,
1560,
1536,
1430,
1477,
1473,
1517,
1503,
1441,
1413,
1394,
1415,
1344,
1403,
1343,
1319,
1275,
1305,
1247,
1375,
1292,
1304,
1332,
1247,
1224,
1225,
1238,
1239,
1256,
1242,
1136,
1115,
1152,
1076,
1161,
1148,
1082,
1094,
1065,
1078,
1072,
1069,
1074,
1034,
1023,
1040,
1002,
1026,
1077,
967,
1005,
940,
982,
1021,
946,
924,
889,
978,
897,
924,
890,
914,
875,
904,
856,
902,
845,
820,
837,
851,
820,
765,
798,
772,
772,
783,
796,
735,
767,
748,
730,
723,
729,
731,
676,
726,
666,
724,
721,
720,
740,
669,
693,
683,
690,
704,
657,
662,
628,
608,
638,
579,
590,
631,
605,
595,
591,
614,
574,
549,
542,
576,
564,
578,
573,
559,
516,
552,
527,
506,
524,
493,
504,
487,
463,
508,
526,
480,
486,
460,
447,
482,
440,
459,
450,
443,
445,
439,
431,
444,
420,
413,
410,
397,
394,
410,
376,
407,
394,
356,
375,
397,
386,
399,
399,
389,
375,
348,
345,
361,
344,
348,
379,
332,
375,
330,
323,
318,
309,
309,
325,
360,
301,
301,
312,
311,
301,
296,
305,
293,
316,
296,
328,
286,
267,
297,
291,
282,
285,
259,
273,
264,
249,
242,
268,
263,
237,
248,
258,
243,
237,
259,
234,
224,
241,
230,
224,
226,
228,
211,
211,
214,
225,
225,
211,
206,
207,
199,
208,
180,
205,
189,
157,
176,
198,
189,
159,
186,
164,
165,
188,
164,
169,
151,
175,
174,
161,
148,
187,
155,
151,
159,
137,
172,
128,
146,
142,
153,
143,
131,
151,
135,
137,
128,
120,
131,
139,
128,
122,
126,
108,
120,
127,
106,
99,
112,
94,
105,
72,
102,
112,
103,
87,
111,
99,
97,
102,
88,
98,
103,
83,
72,
90,
73,
98,
68,
72,
80,
79,
66,
78,
58,
83,
63,
71,
67,
65,
65,
63,
59,
55,
58,
59,
70,
53,
61,
57,
48,
64,
52,
47,
58,
69,
60,
54,
40,
42,
36,
51,
50,
45,
39,
45,
36,
39,
50,
37,
29,
28,
28,
28,
31,
35,
24,
33,
24,
23,
24,
24,
21,
26,
19,
25,
17,
32,
14,
20,
18,
16,
16,
18,
13,
16,
16,
11,
15,
15,
12,
15,
17,
8,
17,
10,
17,
3,
9,
5,
13,
5,
6,
6,
5,
3,
4,
6,
2,
0,
2,
0,
1,
0,
0,
1,
0,
1,
1,
0,
0,
0,
0,
0,
0,
0,
0,
0,
1,
1,
0,
0,
0,
0,
1,
0,
1,
0,
0,
0,
0,
0,
1,
0,
0,
0,
0,
0,
0,
0,
0,
0,
0,
0,
0,
0,
0,
0,
0,
0,
0,
1,
0,
0,
1,
0,
0,
0,
0,
0,
0,
0,
0,
0,
0,
0,
0,
0,
0,
0,
0,
0,
1,
0,
0,
0,
0,
0,
0,
0,
0,
0,
0,
0,
0,
0,
0,
0,
0,
0,
0,
0,
0,
0,
0,
0,
0,
0,
0,
0,
0,
0,
0,
0,
0,
0,
0,
0,
0,
0,
0,
0,
0,
1,
0,
0,
0,
0,
0,
0,
0,
0,
0,
0,
0,
0,
0,
0,
0,
0,
0,
0,
0,
0,
0,
0,
0,
0,
0,
1,
0,
0,
0,
0,
0,
0,
0,
1,
0,
0,
0,
0,
0,
0,
0,
0,
0,
0,
0,
0,
0,
0,
0,
0,
0,
0,
0,
0,
0,
0,
0,
0,
0,
0,
0,
1,
0,
0,
0,
0,
0,
0,
0,
0,
0,
0,
0,
0,
0,
0,
0,
0,
0,
0,
0,
0,
0,
0,
0,
0,
0,
0,
0,
0,
0,
0,
0,
0,
0,
1,
0,
0,
0,
0,
0,
0,
0,
0,
0,
0,
0,
0,
0,
0,
0,
0,
0,
0,
0,
0,
0,
0,
0,
0,
0,
0,
0,
0,
0,
0,
0,
0,
0,
0,
0,
0,
0,
0,
0,
0,
0,
0,
0,
0,
0,
0,
0,
0,
0,
0,
0,
0,
0,
0,
0,
0,
0,
0,
0,
0,
0,
0,
0,
0,
0,
0,
0,
0,
0,
0,
0,
0,
0,
0,
0,
0,
0,
0,
0,
0,
0,
0,
0,
0,
0,
0,
0,
0,
0,
0,
0,
0,
0,
0,
0,
0,
0,
0,
0,
0,
0,
0,
0,
0,
0,
0,
0,
0,
0,
0,
0,
0,
0,
0,
0,
0,
0,
0,
0,
0,
0,
0,
0,
0,
0,
0,
0,
0,
0,
0,
0,
0,
0,
0,
0,
0,
0,
0,
0,
0,
0,
0,
0,
0,
0,
0,
0,
0,
0,
0,
0,
0,
0,
0,
0,
0,
0,
0,
0,
0,
0,
0,
0,
0,
0,
0,
0,
0,
0,
0,
0,
0,
0,
0,
0,
0,
0,
0,
0,
0,
0,
0,
0,
0,
0,
0,
0,
0,
0,
0,
0,
0,
0,
0,
0,
0,
0,
0,
0,
0,
0,
0,
0,
0,
0,
0,
0,
0,
0,
0,
0,
0,
0,
0,
0,
0,
0,
0,
0,
0,
0,
0,
0,
0,
0,
0,
0,
0,
0,
0,
0,
0,
0,
0,
0,
0,
0,
0,
0,
0,
0,
0,
0,
0,
0,
0,
0,
0,
0,
0,
0,
0,
0,
0,
0,
0,
0,
0,
0,
0,
0,
0,
0,
0,
0,
0,
0,
0,
0,
0,
0,
0,
0,
0,
0,
0,
0,
0,
0,
0,
0,
0,
0,
0,
0,
0,
0,
0,
0,
0,
0,
0,
0,
0,
0,
0,
0,
0,
0,
0,
0,
0,
0,
0,
0,
0,
0,
0,
0,
0,
0,
0,
0,
0,
0,
0,
0,
0,
0,
0,
0,
0,
0,
0,
0,
0,
0,
0,
0,
0,
0,
0,
0,
0,
0,
0,
0,
0,
0,
0,
0,
0,
0,
0,
0,
0,
0,
0,
0,
0,
0,
0,
0,
0,
0,
0,
0,
0,
0,
0,
0,
0,
0,
0,
0,
0,
0,
0,
0,
0,
0,
0,
0,
0,
0,
0,
0,
0,
0,
0,
0,
0,
0,
0,
0,
0,
0,
0,
0,
0,
0,
0,
0,
0,
0,
0,
0,
0,
0,
0,
0,
0,
0,
0,
0,
0,
0,
0,
0,
0,
0,
0,
0,
0,
0,
0,
0,
0,
0,
0,
0,
0,
0,
0,
0,
0,
0,
0,
0,
0,
0,
0,
0,
0,
0,
0,
0,
0,
0,
0,
0,
0,
0,
0,
0,
0,
0,
0,
0,
0,
0,
0,
0,
0,
0,
0,
0,
0,
0,
0,
0,
0,
0,
0,
0,
0,
0,
0,
0,
0,
0,
0,
0,
0,
0,
0,
0,
0,
0,
0,
0,
0,
0,
0,
0,
0,
0,
0,
0,
0,
0,
0,
0,
0,
0,
0,
0,
0,
0,
0,
0,
0,
0,
0,
0,
0,
0,
0,
0,
0,
0,
0,
0,
0,
0,
0,
0,
0,
0,
0,
0,
0,
0,
0,
0,
0,
0,
0,
0,
0,
0,
0,
0,
0,
0,
0,
0,
0,
0,
0,
0,
0,
0,
0,
0,
0,
0,
0,
0,
0,
0,
0,
0,
0,
0,
0,
0,
0,
0,
0,
0,
0,
0,
0,
0,
0,
0,
0,
0,
0,
0,
0,
0,
0,
0,
0,
0,
0,
0,
0,
0,
0,
0,
0,
0,
0,
0,
0,
0,
0,
0,
0,
0,
0,
0,
0,
0,
0,
0,
0,
0,
0,
0,
0,
0,
0,
0,
0,
0,
0,
0,
0,
0,
0,
0,
0,
0,
0,
0,
0,
0,
0,
0,
0,
0,
0,
0,
0,
0,
0,
0,
0,
0,
0,
0,
0,
0,
0,
0,
0,
0,
0,
0,
0,
0,
0,
0,
0,
0,
0,
0,
0,
0,
0,
0,
0,
0,
0,
#ENDOFDATA   :