File: N132962/Quantification/15 keV/Mengason MM2/MMM2 Rhodonite[4][4].msa
#FORMAT      : EMSA/MAS Spectral Data File
#VERSION     : 1.0
#TITLE       : MMM2 Rhodonite[4][all]
#DATE        : 28-SEP-2025
#TIME        : 23:26
#OWNER       : Unknown
#NPOINTS     : 4096
#NCOLUMNS    : 1
#XUNITS      : eV
#YUNITS      : counts
#DATATYPE    : Y
#XPERCHAN    : 9.99778
#OFFSET      : 1.69135
#BEAMKV      : 15
#SIGNALTYPE  : EDS
#ELEVANGLE   : 35
#AZIMANGLE   : 0
#LIVETIME    : 240.2351
#REALTIME    : 256.111
#PROBECUR    : 1.21079
#TAUWIND     : 0
#TDEADLYR    : 0
#TACTLYR     : 0.045
#TALWIND     : 0.025
#CHOFFSET    : 0.0
#XLABEL      : Energy (eV)
#YLABEL      : Counts
#XPOSITION   : -16.61824
#YPOSITION   : 1.82482
#ZPOSITION   : 34.11879
#EDSDET      : SD
##SPECIMEN   : MMM2 Rhodonite[4][all]
##DET_HASH   : 12273538-fd48-a23f-0a19-f1e6fa85caef
##CALIB_HASH : 6abaa72c-aa41-8738-0be9-f592914732f3
##WORKING    : 15.0 mm
##DET_NAME   : EDAX All
##DET_MODE   : MediumLE
#SPECTRUM    :
18,
28,
12,
16,
114,
460,
1418,
4694,
12816,
16467,
9438,
5405,
5059,
6323,
10696,
34980,
128383,
243667,
178688,
53289,
19964,
24283,
19114,
10130,
6604,
4216,
3232,
3014,
3308,
3331,
3285,
3573,
3704,
3973,
4441,
4475,
4390,
4396,
4596,
4983,
6929,
10932,
12300,
9005,
5922,
5063,
4919,
5212,
5283,
5330,
5545,
5563,
5707,
5779,
6761,
14695,
52328,
131728,
178183,
126272,
51857,
18740,
9314,
5598,
4021,
3565,
3543,
3469,
3473,
3365,
3267,
3374,
3346,
3527,
3784,
3950,
3711,
3604,
3418,
3370,
3200,
3281,
3210,
3203,
3097,
3063,
3226,
3076,
2957,
2922,
2939,
2863,
2845,
2887,
2819,
2899,
2888,
2778,
2764,
2744,
2767,
2712,
2646,
2675,
2707,
2588,
2651,
2603,
2562,
2442,
2450,
2484,
2444,
2416,
2418,
2500,
2634,
2427,
2588,
2750,
3922,
6903,
10923,
13436,
11356,
7261,
4070,
2556,
2105,
2159,
2156,
2346,
2734,
3240,
3327,
2932,
2573,
2253,
2081,
2071,
1947,
1876,
1798,
1826,
1867,
1731,
1796,
1735,
1712,
1738,
1724,
1684,
1635,
1675,
1691,
1652,
1644,
1655,
1636,
1626,
1655,
1461,
1629,
1618,
1469,
1512,
1527,
1435,
1490,
1476,
1479,
1413,
1395,
1413,
1404,
1399,
1353,
1399,
1395,
1319,
1352,
1342,
1370,
1299,
1357,
1328,
1286,
1333,
1413,
1352,
1447,
2055,
3643,
8469,
18149,
31153,
40055,
39655,
29580,
17003,
7702,
3282,
1667,
1240,
1119,
1100,
1060,
1135,
1191,
1480,
2028,
3043,
4495,
6048,
7060,
7608,
7241,
6124,
4481,
2843,
1701,
1086,
876,
878,
914,
849,
873,
796,
866,
793,
871,
905,
938,
1083,
1200,
1296,
1153,
1036,
932,
818,
754,
740,
797,
759,
764,
727,
701,
689,
692,
670,
733,
758,
731,
694,
701,
724,
717,
712,
667,
646,
613,
651,
633,
601,
643,
658,
644,
611,
646,
601,
588,
587,
588,
609,
600,
582,
578,
569,
588,
601,
572,
595,
530,
515,
554,
551,
562,
533,
556,
472,
542,
561,
486,
509,
493,
466,
491,
511,
490,
448,
479,
436,
409,
461,
428,
467,
457,
451,
427,
438,
394,
397,
411,
412,
388,
412,
404,
366,
414,
400,
393,
356,
369,
381,
387,
375,
381,
367,
383,
317,
335,
356,
371,
366,
331,
346,
338,
286,
310,
333,
301,
304,
293,
294,
253,
306,
295,
328,
298,
285,
253,
282,
264,
262,
272,
260,
248,
260,
238,
218,
238,
250,
259,
248,
238,
241,
229,
240,
244,
227,
216,
240,
258,
204,
213,
221,
179,
192,
195,
209,
192,
198,
160,
199,
185,
208,
175,
177,
178,
173,
181,
179,
161,
159,
185,
164,
192,
136,
184,
146,
164,
145,
138,
137,
127,
145,
131,
135,
122,
116,
121,
123,
138,
137,
125,
118,
102,
128,
106,
111,
89,
104,
102,
109,
90,
106,
81,
111,
108,
90,
93,
98,
82,
76,
85,
78,
66,
75,
65,
73,
79,
53,
60,
58,
56,
61,
55,
62,
46,
54,
64,
52,
51,
64,
61,
39,
52,
40,
35,
46,
42,
40,
33,
55,
43,
35,
37,
30,
33,
35,
27,
29,
23,
29,
23,
17,
28,
16,
25,
16,
16,
20,
21,
19,
16,
14,
11,
17,
10,
9,
6,
12,
10,
5,
4,
3,
3,
2,
1,
2,
0,
1,
3,
0,
1,
0,
0,
1,
0,
0,
0,
1,
0,
0,
0,
0,
1,
1,
1,
1,
0,
0,
0,
1,
0,
0,
0,
1,
0,
0,
0,
0,
1,
0,
0,
0,
0,
0,
0,
0,
0,
0,
0,
0,
1,
0,
0,
1,
0,
0,
0,
0,
0,
2,
0,
0,
1,
1,
0,
0,
0,
1,
0,
0,
2,
0,
0,
0,
0,
0,
0,
0,
0,
0,
0,
0,
3,
0,
0,
0,
0,
0,
0,
1,
0,
0,
0,
0,
0,
0,
0,
1,
1,
1,
0,
1,
0,
0,
0,
0,
0,
1,
0,
0,
0,
0,
0,
0,
0,
0,
0,
2,
1,
0,
0,
0,
0,
0,
0,
0,
0,
1,
1,
0,
1,
1,
0,
0,
0,
0,
0,
0,
0,
0,
1,
0,
0,
0,
0,
0,
0,
0,
0,
1,
0,
0,
0,
0,
0,
0,
0,
1,
0,
0,
0,
0,
1,
1,
1,
0,
0,
0,
0,
0,
0,
1,
0,
0,
0,
0,
0,
0,
0,
0,
0,
0,
0,
0,
0,
0,
0,
1,
0,
0,
0,
0,
0,
0,
0,
0,
0,
0,
0,
0,
0,
0,
0,
0,
0,
0,
0,
0,
0,
0,
0,
0,
0,
0,
0,
0,
0,
0,
0,
0,
0,
0,
0,
0,
0,
0,
0,
0,
0,
0,
0,
0,
0,
0,
0,
0,
0,
0,
0,
0,
0,
0,
0,
0,
0,
0,
0,
0,
0,
0,
0,
0,
0,
0,
1,
0,
0,
0,
0,
0,
0,
0,
0,
0,
0,
0,
0,
0,
0,
0,
0,
0,
0,
0,
0,
0,
0,
0,
0,
0,
0,
0,
0,
0,
0,
0,
0,
0,
0,
0,
0,
0,
0,
0,
0,
0,
0,
0,
0,
0,
0,
0,
0,
1,
0,
0,
0,
0,
0,
0,
0,
0,
0,
0,
0,
0,
0,
0,
0,
0,
0,
0,
0,
0,
0,
0,
0,
0,
0,
0,
0,
0,
0,
0,
0,
0,
0,
0,
0,
0,
0,
0,
0,
0,
0,
0,
1,
0,
0,
0,
0,
0,
0,
0,
0,
0,
0,
0,
0,
0,
0,
0,
0,
0,
0,
0,
0,
0,
0,
0,
0,
0,
0,
0,
0,
0,
0,
0,
0,
0,
0,
0,
0,
0,
0,
0,
0,
0,
0,
0,
0,
0,
0,
0,
0,
0,
0,
0,
0,
0,
0,
0,
0,
0,
0,
0,
0,
0,
0,
0,
0,
0,
0,
0,
0,
0,
0,
0,
0,
0,
0,
0,
0,
0,
0,
0,
0,
0,
0,
0,
0,
0,
0,
0,
0,
0,
0,
1,
0,
0,
0,
0,
0,
0,
0,
0,
0,
0,
0,
0,
0,
0,
0,
0,
0,
0,
0,
0,
0,
0,
0,
0,
0,
0,
0,
0,
0,
0,
0,
0,
0,
0,
0,
0,
0,
0,
0,
0,
0,
0,
0,
0,
0,
0,
0,
0,
0,
0,
0,
0,
0,
0,
0,
0,
0,
0,
0,
0,
0,
0,
0,
0,
0,
0,
0,
0,
0,
0,
0,
0,
0,
0,
0,
0,
0,
0,
0,
0,
0,
0,
0,
0,
0,
0,
0,
0,
0,
0,
0,
0,
0,
0,
0,
0,
0,
0,
0,
0,
0,
0,
0,
0,
0,
0,
0,
0,
0,
0,
0,
0,
0,
0,
0,
0,
0,
0,
0,
0,
0,
0,
0,
0,
0,
0,
0,
0,
0,
0,
0,
0,
0,
0,
0,
0,
0,
0,
0,
0,
0,
0,
0,
0,
0,
0,
0,
0,
0,
0,
0,
0,
0,
0,
0,
0,
0,
0,
0,
0,
0,
0,
0,
0,
0,
0,
0,
0,
0,
0,
0,
0,
0,
0,
0,
0,
0,
0,
0,
0,
0,
0,
0,
0,
0,
0,
0,
0,
0,
0,
0,
0,
0,
0,
0,
0,
0,
0,
0,
0,
0,
0,
0,
0,
0,
0,
0,
0,
0,
0,
0,
0,
0,
0,
0,
0,
0,
0,
0,
0,
0,
0,
0,
0,
0,
0,
0,
0,
0,
0,
0,
0,
0,
0,
0,
0,
0,
0,
0,
0,
0,
0,
0,
0,
0,
0,
0,
0,
0,
0,
0,
0,
0,
0,
0,
0,
0,
0,
0,
0,
0,
0,
0,
0,
0,
0,
0,
0,
0,
0,
0,
0,
0,
0,
0,
0,
0,
0,
0,
0,
0,
0,
0,
0,
0,
0,
0,
0,
0,
0,
0,
0,
0,
0,
0,
0,
0,
0,
0,
0,
0,
0,
0,
0,
0,
0,
0,
0,
0,
0,
0,
0,
0,
0,
0,
0,
0,
0,
0,
0,
0,
0,
0,
0,
0,
0,
0,
0,
0,
0,
0,
0,
0,
0,
0,
0,
0,
0,
0,
0,
0,
0,
0,
0,
0,
0,
0,
0,
0,
0,
0,
0,
0,
0,
0,
0,
0,
0,
0,
0,
0,
0,
0,
0,
0,
0,
0,
0,
0,
0,
0,
0,
0,
0,
0,
0,
0,
0,
0,
0,
0,
0,
0,
0,
0,
0,
0,
0,
0,
0,
0,
0,
0,
0,
0,
0,
0,
0,
0,
0,
0,
0,
0,
0,
0,
0,
0,
0,
0,
0,
0,
0,
0,
0,
0,
0,
0,
0,
0,
0,
0,
0,
0,
0,
0,
0,
0,
0,
0,
0,
0,
0,
0,
0,
#ENDOFDATA   :