File: N132962/Quantification/15 keV/Mengason MM2/MMM2 Spodumene[3][4].msa
#FORMAT      : EMSA/MAS Spectral Data File
#VERSION     : 1.0
#TITLE       : MMM2 Spodumene[3][all]
#DATE        : 28-SEP-2025
#TIME        : 22:22
#OWNER       : Unknown
#NPOINTS     : 4096
#NCOLUMNS    : 1
#XUNITS      : eV
#YUNITS      : counts
#DATATYPE    : Y
#XPERCHAN    : 9.99778
#OFFSET      : 1.69135
#BEAMKV      : 15
#SIGNALTYPE  : EDS
#ELEVANGLE   : 35
#AZIMANGLE   : 0
#LIVETIME    : 240.293
#REALTIME    : 257.3827
#PROBECUR    : 1.21261
#TAUWIND     : 0
#TDEADLYR    : 0
#TACTLYR     : 0.045
#TALWIND     : 0.025
#CHOFFSET    : 0.0
#XLABEL      : Energy (eV)
#YLABEL      : Counts
#XPOSITION   : -12.99582
#YPOSITION   : 0.26047
#ZPOSITION   : 34.11879
#EDSDET      : SD
##SPECIMEN   : MMM2 Spodumene[3][all]
##DET_HASH   : 12273538-fd48-a23f-0a19-f1e6fa85caef
##CALIB_HASH : 6abaa72c-aa41-8738-0be9-f592914732f3
##WORKING    : 15.0 mm
##DET_NAME   : EDAX All
##DET_MODE   : MediumLE
#SPECTRUM    :
27,
34,
4,
25,
69,
346,
1129,
3525,
10193,
13101,
6869,
3510,
3725,
5093,
10408,
40619,
157563,
299221,
214916,
55321,
6812,
2461,
2379,
2499,
2758,
2797,
3011,
3214,
3459,
3616,
3729,
3836,
3943,
4516,
5357,
5435,
4807,
4503,
4407,
4428,
4587,
4724,
4910,
5121,
5196,
5650,
7516,
18579,
61709,
124182,
126424,
65535,
21735,
8321,
6920,
17072,
67199,
173170,
236020,
165402,
65753,
21778,
9642,
4884,
2865,
2501,
2779,
2848,
2586,
2334,
2171,
2217,
2227,
2486,
2888,
3092,
3005,
2605,
2319,
2208,
2204,
2067,
2087,
2123,
2078,
2056,
2117,
2007,
2059,
1934,
2014,
2043,
1928,
1947,
1868,
1927,
1934,
1929,
1948,
1948,
1910,
1878,
1790,
1735,
1703,
1756,
1973,
2101,
2061,
2022,
1787,
1653,
1646,
1699,
1835,
1884,
2010,
1893,
1625,
1590,
1557,
1478,
1454,
1563,
1446,
1461,
1431,
1477,
1427,
1334,
1435,
1400,
1274,
1340,
1347,
1293,
1283,
1303,
1216,
1241,
1304,
1247,
1216,
1181,
1206,
1250,
1179,
1160,
1114,
1167,
1140,
1098,
1120,
1110,
1091,
1094,
1046,
1115,
992,
1052,
1007,
1056,
998,
1060,
1045,
1018,
1000,
911,
937,
933,
942,
951,
960,
890,
971,
897,
895,
879,
818,
864,
885,
880,
852,
776,
822,
789,
823,
780,
810,
816,
829,
754,
790,
762,
794,
741,
769,
685,
754,
719,
719,
694,
712,
743,
718,
719,
700,
664,
689,
622,
642,
601,
659,
696,
656,
625,
620,
607,
616,
581,
614,
598,
626,
622,
564,
591,
587,
565,
544,
559,
567,
524,
539,
570,
546,
494,
535,
514,
495,
521,
516,
530,
531,
497,
478,
509,
403,
489,
480,
464,
483,
483,
451,
427,
451,
436,
416,
440,
430,
410,
411,
413,
398,
438,
404,
401,
422,
397,
360,
414,
342,
380,
387,
334,
381,
372,
344,
332,
395,
293,
338,
353,
330,
329,
331,
316,
323,
284,
305,
347,
340,
281,
325,
319,
318,
305,
276,
313,
273,
274,
268,
260,
274,
292,
233,
269,
256,
259,
253,
250,
283,
235,
243,
241,
235,
220,
250,
247,
251,
239,
240,
228,
250,
210,
220,
224,
214,
213,
200,
236,
202,
228,
212,
191,
205,
186,
205,
203,
199,
179,
216,
194,
170,
177,
163,
163,
197,
158,
168,
171,
194,
160,
165,
164,
155,
168,
162,
143,
151,
163,
140,
166,
146,
133,
160,
134,
168,
144,
129,
118,
136,
134,
148,
119,
119,
131,
118,
107,
115,
108,
111,
124,
120,
120,
111,
108,
105,
94,
104,
82,
103,
107,
84,
85,
81,
79,
78,
83,
81,
89,
76,
65,
72,
74,
81,
80,
68,
69,
66,
64,
60,
73,
76,
60,
49,
57,
57,
66,
59,
66,
74,
51,
56,
54,
71,
46,
52,
37,
43,
56,
56,
40,
50,
54,
36,
57,
51,
39,
38,
40,
40,
33,
41,
44,
31,
35,
30,
25,
21,
39,
33,
26,
23,
26,
32,
27,
25,
36,
18,
24,
26,
23,
22,
17,
16,
22,
16,
15,
16,
22,
15,
13,
13,
15,
9,
13,
9,
7,
10,
16,
7,
7,
10,
4,
6,
8,
14,
9,
2,
6,
6,
6,
5,
0,
3,
4,
2,
1,
5,
2,
0,
0,
0,
0,
0,
0,
0,
0,
0,
0,
0,
0,
0,
1,
0,
1,
0,
0,
0,
0,
0,
0,
2,
0,
0,
0,
0,
2,
1,
0,
0,
0,
0,
0,
0,
0,
1,
0,
0,
0,
0,
0,
0,
0,
0,
0,
0,
0,
0,
0,
0,
0,
0,
0,
0,
0,
0,
0,
0,
0,
0,
0,
0,
0,
0,
0,
0,
0,
0,
0,
0,
0,
0,
0,
0,
1,
0,
1,
0,
0,
0,
0,
0,
0,
0,
0,
0,
0,
0,
0,
0,
2,
0,
0,
0,
0,
0,
0,
0,
0,
0,
0,
0,
0,
0,
0,
0,
0,
0,
0,
0,
0,
0,
0,
0,
0,
0,
0,
0,
0,
0,
0,
0,
0,
0,
0,
0,
1,
0,
0,
0,
0,
0,
0,
0,
0,
0,
0,
0,
0,
0,
0,
0,
0,
0,
0,
0,
0,
0,
0,
0,
0,
0,
0,
0,
0,
0,
0,
0,
0,
0,
0,
0,
0,
0,
0,
0,
0,
0,
0,
1,
0,
0,
0,
0,
0,
0,
0,
0,
0,
0,
0,
0,
0,
0,
0,
0,
0,
0,
0,
0,
0,
0,
0,
0,
0,
0,
0,
0,
0,
0,
0,
0,
0,
0,
0,
0,
0,
0,
0,
0,
0,
0,
0,
0,
0,
0,
0,
0,
0,
0,
0,
0,
0,
0,
0,
0,
0,
0,
0,
0,
0,
0,
0,
0,
0,
0,
0,
0,
0,
0,
0,
0,
0,
0,
0,
0,
0,
0,
0,
0,
0,
0,
0,
0,
0,
0,
0,
0,
0,
0,
0,
0,
0,
0,
0,
0,
0,
0,
0,
0,
0,
0,
0,
0,
0,
0,
0,
0,
0,
0,
0,
0,
0,
0,
0,
0,
0,
0,
0,
0,
0,
0,
0,
0,
0,
0,
0,
0,
0,
0,
0,
0,
0,
0,
0,
0,
0,
0,
0,
0,
0,
0,
0,
0,
0,
0,
0,
0,
0,
0,
0,
0,
0,
0,
0,
0,
0,
0,
0,
0,
0,
0,
0,
0,
0,
0,
0,
0,
0,
0,
0,
0,
0,
0,
0,
0,
0,
0,
0,
0,
0,
0,
0,
0,
0,
0,
0,
0,
0,
0,
0,
0,
0,
0,
0,
0,
0,
0,
0,
0,
0,
0,
0,
0,
0,
0,
0,
0,
0,
0,
0,
0,
0,
0,
0,
0,
0,
0,
0,
0,
0,
0,
0,
0,
0,
0,
0,
0,
0,
0,
0,
0,
0,
0,
0,
0,
0,
0,
0,
0,
0,
0,
0,
0,
0,
0,
0,
0,
0,
0,
0,
0,
0,
0,
0,
0,
0,
0,
0,
0,
0,
0,
0,
0,
0,
0,
0,
0,
0,
0,
0,
0,
0,
0,
0,
0,
0,
0,
0,
0,
0,
0,
0,
0,
0,
0,
0,
0,
0,
0,
0,
0,
0,
0,
0,
0,
0,
0,
0,
0,
0,
0,
0,
0,
0,
0,
0,
0,
0,
0,
0,
0,
0,
0,
0,
0,
0,
0,
0,
0,
0,
0,
0,
0,
0,
0,
0,
0,
0,
0,
0,
0,
0,
0,
0,
0,
0,
0,
0,
0,
0,
0,
0,
0,
0,
0,
0,
0,
0,
0,
0,
0,
0,
0,
0,
0,
0,
0,
0,
0,
0,
0,
0,
0,
0,
0,
0,
0,
0,
0,
0,
0,
0,
0,
0,
0,
0,
0,
0,
0,
0,
0,
0,
0,
0,
0,
0,
0,
0,
0,
0,
0,
0,
0,
0,
0,
0,
0,
0,
0,
0,
0,
0,
0,
0,
0,
0,
0,
0,
0,
0,
0,
0,
0,
0,
0,
0,
0,
0,
0,
0,
0,
0,
0,
0,
0,
0,
0,
0,
0,
0,
0,
0,
0,
0,
0,
0,
0,
0,
0,
0,
0,
0,
0,
0,
0,
0,
0,
0,
0,
0,
0,
0,
0,
0,
0,
0,
0,
0,
0,
0,
0,
0,
0,
0,
0,
0,
0,
0,
0,
0,
0,
0,
0,
0,
0,
0,
0,
0,
0,
0,
0,
0,
0,
0,
0,
0,
0,
0,
0,
0,
0,
0,
0,
0,
0,
0,
0,
0,
0,
0,
0,
0,
0,
0,
0,
0,
0,
0,
0,
0,
0,
0,
0,
0,
0,
0,
0,
0,
0,
0,
0,
0,
0,
0,
0,
0,
0,
0,
0,
0,
0,
0,
0,
0,
0,
0,
0,
0,
0,
0,
0,
0,
0,
0,
0,
0,
0,
0,
0,
0,
0,
0,
0,
0,
0,
0,
0,
0,
0,
0,
0,
0,
0,
0,
0,
0,
0,
0,
0,
0,
0,
0,
0,
0,
0,
0,
0,
0,
0,
0,
0,
0,
0,
0,
0,
0,
0,
0,
0,
0,
0,
0,
0,
0,
0,
0,
0,
0,
0,
0,
0,
0,
0,
0,
0,
0,
0,
0,
0,
0,
0,
0,
0,
0,
0,
0,
0,
0,
0,
0,
0,
0,
0,
0,
0,
0,
0,
0,
0,
0,
0,
0,
0,
0,
0,
0,
0,
0,
0,
0,
0,
0,
0,
0,
0,
0,
0,
0,
0,
0,
0,
0,
0,
0,
0,
0,
0,
0,
0,
0,
0,
0,
0,
0,
0,
0,
0,
0,
0,
0,
0,
0,
0,
0,
0,
0,
0,
0,
0,
0,
0,
0,
0,
0,
0,
0,
0,
0,
0,
0,
0,
0,
0,
0,
#ENDOFDATA   :