File: N132962/Quantification/15 keV/Mengason MM2/MMM2 Stibnite[0][4].msa
#FORMAT      : EMSA/MAS Spectral Data File
#VERSION     : 1.0
#TITLE       : MMM2 Stibnite[0][all]
#DATE        : 28-SEP-2025
#TIME        : 23:32
#OWNER       : Unknown
#NPOINTS     : 4096
#NCOLUMNS    : 1
#XUNITS      : eV
#YUNITS      : counts
#DATATYPE    : Y
#XPERCHAN    : 9.99778
#OFFSET      : 1.69135
#BEAMKV      : 15
#SIGNALTYPE  : EDS
#ELEVANGLE   : 35
#AZIMANGLE   : 0
#LIVETIME    : 240.186
#REALTIME    : 260.3936
#PROBECUR    : 1.21079
#TAUWIND     : 0
#TDEADLYR    : 0
#TACTLYR     : 0.045
#TALWIND     : 0.025
#CHOFFSET    : 0.0
#XLABEL      : Energy (eV)
#YLABEL      : Counts
#XPOSITION   : -14.45175
#YPOSITION   : 2.2513
#ZPOSITION   : 34.11879
#EDSDET      : SD
##SPECIMEN   : MMM2 Stibnite[0][all]
##DET_HASH   : 12273538-fd48-a23f-0a19-f1e6fa85caef
##CALIB_HASH : 6abaa72c-aa41-8738-0be9-f592914732f3
##WORKING    : 15.0 mm
##DET_NAME   : EDAX All
##DET_MODE   : MediumLE
#SPECTRUM    :
17,
20,
14,
227,
1573,
3152,
3319,
6992,
17937,
22230,
11660,
6275,
9301,
18179,
23724,
16945,
11492,
11541,
11787,
9826,
6897,
5634,
5774,
6818,
8068,
8335,
7239,
6411,
6376,
6182,
5932,
5767,
6036,
6153,
6296,
6469,
6479,
6856,
6869,
7031,
7249,
7409,
7509,
7608,
7821,
7786,
7982,
7979,
8271,
8343,
8446,
8358,
8249,
8319,
8216,
8293,
8577,
9288,
9443,
9458,
9363,
9475,
9286,
8411,
7990,
7868,
7677,
7978,
7725,
8320,
8253,
8991,
10394,
15008,
29950,
74970,
148782,
184024,
133804,
60051,
23556,
17700,
19306,
16727,
11137,
7493,
6084,
5733,
5632,
5518,
5583,
5549,
5559,
5332,
5329,
5460,
5305,
5319,
5346,
5272,
5364,
5130,
5349,
5592,
6398,
7625,
8611,
8589,
7154,
5997,
5317,
5228,
5503,
6113,
6690,
7431,
9725,
18486,
42156,
79938,
104822,
92533,
55601,
24818,
11763,
12031,
21980,
38688,
51047,
49423,
38046,
25931,
17166,
11846,
10108,
12564,
16203,
17422,
14099,
9428,
6226,
4645,
4760,
5954,
7610,
8535,
7636,
5870,
4296,
3542,
3815,
4442,
5201,
5785,
5322,
4530,
3763,
3287,
3152,
3095,
2937,
2934,
2990,
2960,
2919,
2804,
2959,
2840,
2807,
2808,
2863,
2841,
2831,
2734,
2861,
2786,
2713,
2753,
2753,
2828,
2752,
2676,
2730,
2687,
2645,
2616,
2650,
2628,
2570,
2555,
2589,
2507,
2537,
2650,
2540,
2721,
2599,
2670,
2576,
2595,
2504,
2440,
2441,
2505,
2571,
2485,
2428,
2389,
2390,
2395,
2310,
2364,
2464,
2446,
2468,
2386,
2296,
2183,
2209,
2156,
2145,
2089,
2173,
2141,
2071,
2166,
2033,
2105,
2085,
2044,
1996,
2013,
1987,
2042,
1977,
2067,
1957,
2065,
1979,
1957,
2024,
1987,
1922,
1939,
1965,
1902,
1905,
1893,
1960,
1937,
1850,
1831,
1785,
1741,
1754,
1737,
1712,
1636,
1620,
1683,
1681,
1686,
1668,
1614,
1682,
1623,
1585,
1587,
1644,
1635,
1552,
1502,
1545,
1504,
1522,
1476,
1533,
1523,
1519,
1449,
1396,
1430,
1383,
1412,
1378,
1441,
1371,
1419,
1339,
1323,
1362,
1244,
1333,
1277,
1355,
1370,
1291,
1271,
1248,
1229,
1257,
1218,
1232,
1181,
1236,
1230,
1186,
1152,
1186,
1106,
1049,
1124,
1077,
1161,
1100,
1105,
1024,
1080,
1077,
1058,
1037,
1017,
1028,
1011,
1000,
1013,
997,
897,
978,
984,
1042,
949,
918,
906,
941,
919,
926,
901,
869,
897,
883,
949,
858,
875,
837,
855,
907,
783,
868,
805,
825,
747,
845,
780,
798,
851,
802,
795,
745,
694,
725,
661,
732,
662,
711,
702,
685,
656,
682,
652,
632,
633,
634,
642,
666,
643,
640,
614,
641,
598,
559,
626,
624,
532,
592,
540,
544,
567,
524,
526,
503,
495,
537,
479,
507,
475,
484,
470,
431,
480,
466,
469,
449,
474,
429,
424,
447,
429,
431,
397,
369,
378,
369,
360,
368,
344,
389,
326,
325,
313,
372,
339,
337,
303,
333,
372,
294,
319,
295,
306,
294,
312,
252,
279,
280,
235,
248,
257,
246,
257,
228,
250,
223,
224,
217,
232,
197,
192,
199,
229,
192,
213,
187,
182,
169,
174,
176,
149,
167,
160,
151,
130,
132,
144,
148,
128,
110,
113,
121,
101,
96,
108,
89,
96,
90,
71,
87,
99,
82,
90,
68,
74,
67,
62,
53,
50,
42,
50,
45,
37,
43,
34,
23,
27,
19,
11,
10,
11,
15,
11,
2,
2,
10,
7,
4,
6,
1,
1,
1,
4,
3,
4,
2,
4,
2,
2,
3,
10,
2,
2,
5,
4,
2,
3,
0,
1,
0,
2,
2,
1,
2,
1,
3,
2,
1,
1,
1,
2,
2,
1,
3,
1,
0,
0,
3,
1,
3,
4,
4,
1,
1,
1,
1,
2,
2,
1,
2,
4,
0,
0,
1,
5,
2,
0,
1,
4,
3,
1,
3,
3,
1,
1,
2,
0,
2,
2,
1,
4,
3,
3,
1,
2,
1,
0,
1,
3,
0,
0,
2,
1,
0,
0,
1,
1,
0,
2,
0,
0,
0,
3,
3,
2,
0,
2,
3,
0,
1,
0,
0,
1,
0,
1,
2,
0,
1,
0,
0,
1,
1,
0,
0,
1,
1,
0,
1,
3,
2,
1,
1,
0,
0,
0,
1,
0,
1,
0,
0,
1,
0,
0,
0,
1,
0,
1,
0,
1,
1,
0,
0,
0,
0,
2,
0,
1,
1,
0,
2,
0,
0,
1,
0,
1,
0,
0,
0,
2,
0,
0,
1,
1,
1,
0,
0,
0,
0,
0,
0,
0,
1,
0,
0,
2,
1,
2,
0,
0,
0,
0,
0,
1,
0,
0,
0,
0,
0,
0,
0,
0,
0,
0,
0,
0,
0,
0,
0,
1,
0,
0,
0,
0,
0,
0,
0,
0,
0,
0,
0,
0,
0,
0,
0,
0,
0,
0,
0,
0,
0,
0,
0,
0,
1,
0,
0,
0,
0,
0,
1,
0,
0,
0,
0,
0,
1,
0,
1,
0,
0,
0,
1,
0,
0,
0,
0,
0,
0,
0,
0,
0,
0,
0,
0,
0,
0,
1,
0,
0,
1,
0,
0,
0,
0,
0,
0,
0,
0,
0,
0,
1,
0,
0,
0,
0,
0,
1,
0,
0,
0,
0,
0,
0,
0,
0,
0,
0,
0,
0,
0,
0,
0,
0,
0,
0,
0,
0,
0,
0,
0,
0,
0,
0,
0,
0,
0,
0,
0,
0,
0,
0,
0,
0,
0,
0,
0,
0,
0,
0,
0,
0,
0,
0,
0,
0,
1,
0,
0,
0,
0,
0,
0,
0,
0,
0,
0,
0,
0,
0,
0,
0,
0,
0,
0,
0,
0,
0,
0,
0,
0,
0,
0,
0,
0,
0,
0,
0,
0,
0,
0,
0,
0,
1,
0,
0,
0,
0,
0,
0,
0,
0,
0,
0,
0,
0,
0,
0,
0,
0,
0,
0,
0,
0,
0,
0,
0,
0,
0,
0,
0,
0,
0,
0,
0,
0,
0,
0,
0,
0,
0,
0,
0,
0,
0,
0,
0,
0,
0,
0,
0,
0,
0,
0,
0,
0,
0,
0,
0,
0,
0,
0,
0,
0,
0,
0,
0,
0,
0,
0,
0,
0,
0,
0,
0,
0,
0,
0,
0,
0,
0,
0,
0,
0,
0,
0,
0,
0,
0,
0,
0,
0,
0,
0,
0,
0,
0,
0,
0,
0,
0,
0,
0,
0,
0,
0,
0,
0,
0,
0,
0,
0,
0,
0,
0,
0,
0,
0,
0,
0,
0,
0,
0,
0,
0,
0,
0,
0,
0,
0,
0,
0,
0,
0,
0,
0,
0,
0,
0,
0,
0,
0,
0,
0,
0,
0,
0,
0,
0,
0,
0,
0,
0,
0,
0,
0,
0,
0,
0,
0,
0,
0,
0,
0,
0,
0,
0,
0,
0,
0,
0,
0,
0,
0,
0,
0,
0,
0,
0,
0,
0,
0,
0,
0,
0,
0,
0,
0,
0,
0,
0,
0,
0,
0,
0,
0,
0,
0,
0,
0,
0,
0,
0,
0,
0,
0,
0,
0,
0,
0,
0,
0,
0,
0,
0,
0,
0,
0,
0,
0,
0,
0,
0,
0,
0,
0,
0,
0,
0,
0,
0,
0,
0,
0,
0,
0,
0,
0,
0,
0,
0,
0,
0,
0,
0,
0,
0,
0,
0,
0,
0,
0,
0,
0,
0,
0,
0,
0,
0,
0,
0,
0,
0,
0,
0,
0,
0,
0,
0,
0,
0,
0,
0,
0,
0,
0,
0,
0,
0,
0,
0,
0,
0,
0,
0,
0,
0,
0,
0,
0,
0,
0,
0,
0,
0,
0,
0,
0,
0,
0,
0,
0,
0,
0,
0,
0,
0,
0,
0,
0,
0,
0,
0,
0,
0,
0,
0,
0,
0,
0,
0,
0,
0,
0,
0,
0,
0,
0,
0,
0,
0,
0,
0,
0,
0,
0,
0,
0,
0,
0,
0,
0,
0,
0,
0,
0,
0,
0,
0,
0,
0,
0,
0,
0,
0,
0,
0,
0,
0,
0,
0,
0,
0,
0,
0,
0,
0,
0,
0,
0,
0,
0,
0,
0,
0,
0,
0,
0,
0,
0,
0,
0,
0,
0,
0,
0,
0,
0,
0,
0,
0,
0,
0,
0,
0,
0,
0,
0,
0,
0,
0,
0,
0,
0,
0,
0,
0,
0,
0,
0,
0,
0,
0,
0,
0,
0,
0,
0,
0,
0,
0,
0,
0,
0,
0,
0,
0,
0,
0,
0,
0,
0,
0,
0,
0,
0,
0,
0,
0,
0,
0,
0,
0,
0,
0,
0,
0,
0,
0,
0,
0,
0,
0,
0,
0,
0,
0,
0,
0,
0,
0,
0,
0,
0,
0,
0,
0,
0,
0,
0,
0,
0,
0,
0,
0,
0,
0,
0,
0,
0,
0,
0,
0,
0,
0,
0,
0,
0,
0,
0,
0,
0,
0,
0,
0,
0,
0,
0,
0,
0,
#ENDOFDATA   :