File: N132962/Quantification/15 keV/Mengason MM2/MMM2 Manganotantalite[1][4].msa
#FORMAT      : EMSA/MAS Spectral Data File
#VERSION     : 1.0
#TITLE       : MMM2 Manganotantalite[1][all]
#DATE        : 28-SEP-2025
#TIME        : 22:51
#OWNER       : Unknown
#NPOINTS     : 4096
#NCOLUMNS    : 1
#XUNITS      : eV
#YUNITS      : counts
#DATATYPE    : Y
#XPERCHAN    : 9.99778
#OFFSET      : 1.69135
#BEAMKV      : 15
#SIGNALTYPE  : EDS
#ELEVANGLE   : 35
#AZIMANGLE   : 0
#LIVETIME    : 240.213
#REALTIME    : 259.695
#PROBECUR    : 1.2132
#TAUWIND     : 0
#TDEADLYR    : 0
#TACTLYR     : 0.045
#TALWIND     : 0.025
#CHOFFSET    : 0.0
#XLABEL      : Energy (eV)
#YLABEL      : Counts
#XPOSITION   : -22.44302
#YPOSITION   : -0.37646
#ZPOSITION   : 34.11879
#EDSDET      : SD
##SPECIMEN   : MMM2 Manganotantalite[1][all]
##DET_HASH   : 12273538-fd48-a23f-0a19-f1e6fa85caef
##CALIB_HASH : 6abaa72c-aa41-8738-0be9-f592914732f3
##WORKING    : 15.0 mm
##DET_NAME   : EDAX All
##DET_MODE   : MediumLE
#SPECTRUM    :
30,
29,
13,
40,
354,
1725,
4334,
8497,
18060,
22101,
11670,
6075,
5782,
6560,
8747,
17317,
50028,
91485,
68929,
23975,
12672,
14938,
13791,
11093,
9647,
7482,
6659,
6782,
7293,
7283,
7311,
7379,
7695,
8079,
8361,
8361,
8581,
8654,
8955,
9010,
9388,
9705,
11458,
15946,
20635,
19309,
14238,
11332,
10548,
10210,
10447,
10326,
10775,
12742,
20999,
53973,
126421,
181194,
163362,
107111,
54134,
21236,
9964,
8596,
9836,
10740,
10426,
8840,
7867,
9258,
15049,
27482,
37837,
35579,
26595,
22609,
18487,
13297,
9724,
7571,
6496,
5809,
5494,
5147,
5115,
4893,
5128,
5104,
5242,
5311,
5156,
4990,
4810,
4842,
4840,
4971,
4798,
4804,
4901,
4768,
4880,
4885,
4851,
4765,
4768,
4701,
4726,
4626,
4874,
4637,
4695,
4801,
4767,
4693,
4826,
4703,
4757,
4700,
4651,
4619,
4496,
4372,
4476,
4558,
4455,
4369,
4326,
4355,
4391,
4354,
4435,
4389,
4266,
4262,
4157,
4286,
4174,
4216,
4101,
4125,
4074,
3940,
3954,
4050,
3918,
3950,
3836,
4015,
4306,
4485,
4792,
4522,
4286,
3974,
3863,
3762,
3688,
3726,
3596,
3626,
3651,
3544,
3525,
3678,
3677,
3621,
3525,
3393,
3472,
3441,
3356,
3314,
3378,
3258,
3350,
3227,
3242,
3306,
3222,
3103,
3285,
3110,
3150,
3094,
3172,
3194,
3066,
3146,
3090,
3050,
3072,
3110,
3920,
5630,
9131,
14296,
17348,
17161,
13431,
8793,
5276,
3643,
2954,
2674,
2743,
2772,
2674,
2561,
2768,
2887,
3288,
4095,
4949,
5877,
6084,
5969,
5482,
4669,
3799,
3120,
2746,
2506,
2418,
2378,
2346,
2327,
2323,
2254,
2317,
2231,
2287,
2339,
2364,
2386,
2468,
2545,
2635,
2724,
2632,
2566,
2435,
2369,
2212,
2171,
1980,
1991,
2054,
2082,
2003,
1906,
1957,
1941,
1962,
1968,
1962,
1864,
1841,
1892,
1842,
1855,
1724,
1777,
1804,
1852,
1868,
1963,
2394,
3348,
4987,
7281,
9610,
10839,
10516,
8519,
5847,
3774,
2553,
1957,
1799,
1649,
1816,
1719,
1639,
1617,
1601,
1503,
1542,
1484,
1593,
1491,
1432,
1407,
1421,
1423,
1430,
1344,
1441,
1355,
1408,
1326,
1428,
1370,
1391,
1394,
1484,
1611,
1766,
2102,
2468,
3149,
3607,
3884,
3774,
3227,
2722,
2213,
1862,
1846,
1953,
2174,
2507,
2724,
2710,
2415,
2066,
1621,
1422,
1240,
1142,
1128,
1044,
1069,
1044,
1030,
981,
992,
987,
939,
944,
925,
958,
903,
872,
918,
902,
893,
887,
906,
872,
899,
870,
858,
856,
830,
846,
856,
846,
791,
876,
941,
999,
1072,
1212,
1204,
1197,
986,
929,
823,
831,
766,
721,
789,
733,
728,
808,
775,
787,
746,
714,
693,
639,
656,
642,
561,
575,
625,
548,
586,
594,
550,
555,
551,
519,
558,
533,
536,
531,
462,
490,
449,
482,
535,
478,
490,
507,
442,
471,
442,
421,
420,
413,
408,
447,
400,
419,
380,
418,
383,
385,
371,
363,
368,
344,
341,
356,
316,
348,
358,
350,
319,
313,
298,
330,
302,
268,
312,
261,
287,
291,
259,
307,
240,
251,
272,
257,
198,
219,
242,
237,
228,
206,
211,
203,
203,
187,
193,
178,
179,
170,
156,
197,
148,
145,
142,
158,
157,
140,
142,
114,
116,
134,
130,
123,
115,
114,
102,
105,
98,
78,
88,
76,
73,
84,
78,
59,
71,
56,
51,
44,
52,
47,
24,
41,
24,
22,
25,
21,
11,
18,
12,
13,
6,
5,
3,
2,
2,
3,
3,
2,
5,
6,
2,
2,
3,
4,
5,
3,
2,
5,
2,
2,
3,
2,
1,
4,
3,
2,
2,
1,
4,
3,
2,
2,
6,
3,
2,
3,
1,
2,
5,
5,
4,
3,
1,
2,
3,
2,
0,
1,
1,
1,
1,
0,
2,
3,
0,
1,
0,
3,
1,
3,
0,
1,
1,
2,
2,
3,
1,
4,
1,
1,
4,
0,
2,
2,
2,
2,
0,
1,
3,
1,
1,
1,
3,
1,
0,
4,
1,
0,
2,
3,
3,
2,
1,
1,
2,
3,
0,
0,
0,
0,
2,
1,
4,
2,
1,
1,
2,
0,
2,
3,
0,
2,
2,
1,
2,
2,
0,
0,
1,
0,
1,
0,
1,
0,
1,
0,
1,
0,
1,
0,
0,
0,
0,
0,
2,
0,
1,
2,
1,
1,
0,
1,
0,
1,
2,
0,
4,
2,
1,
1,
2,
1,
0,
1,
0,
0,
0,
1,
0,
2,
1,
2,
2,
1,
0,
0,
3,
0,
0,
1,
1,
0,
1,
1,
2,
0,
0,
1,
0,
1,
0,
2,
1,
0,
0,
0,
0,
0,
1,
2,
0,
0,
0,
0,
0,
0,
0,
1,
0,
1,
0,
0,
0,
0,
0,
0,
0,
0,
0,
0,
0,
1,
0,
1,
0,
1,
0,
0,
0,
0,
0,
0,
1,
0,
0,
0,
0,
0,
0,
0,
0,
0,
0,
0,
0,
1,
0,
0,
0,
0,
1,
0,
0,
0,
0,
0,
0,
0,
0,
0,
1,
0,
0,
0,
0,
0,
0,
0,
0,
1,
0,
0,
0,
0,
0,
0,
0,
0,
0,
0,
0,
0,
0,
0,
0,
1,
0,
0,
1,
0,
0,
0,
0,
0,
0,
0,
1,
0,
0,
1,
0,
0,
0,
0,
0,
1,
0,
0,
0,
0,
0,
0,
0,
0,
0,
0,
0,
0,
0,
0,
0,
0,
0,
0,
0,
0,
0,
0,
0,
0,
0,
0,
0,
0,
0,
0,
0,
0,
0,
0,
0,
0,
0,
0,
0,
0,
0,
0,
0,
0,
0,
0,
0,
0,
0,
0,
0,
0,
0,
0,
0,
0,
0,
0,
0,
0,
0,
0,
0,
0,
0,
0,
0,
0,
0,
0,
0,
0,
0,
0,
0,
0,
0,
0,
0,
0,
0,
0,
0,
0,
1,
0,
0,
0,
0,
0,
0,
0,
0,
0,
0,
0,
0,
0,
0,
0,
0,
0,
0,
0,
0,
0,
0,
0,
0,
0,
0,
0,
0,
0,
0,
0,
0,
0,
0,
0,
0,
0,
0,
0,
0,
0,
0,
0,
0,
0,
0,
0,
0,
0,
0,
0,
0,
0,
0,
0,
0,
0,
0,
0,
0,
0,
0,
0,
0,
0,
0,
0,
0,
0,
0,
0,
0,
0,
0,
0,
0,
0,
0,
0,
0,
0,
0,
0,
0,
0,
0,
0,
0,
0,
0,
0,
0,
0,
0,
0,
0,
0,
0,
0,
0,
0,
0,
0,
0,
0,
0,
0,
0,
0,
0,
0,
0,
0,
0,
0,
0,
0,
0,
0,
0,
0,
0,
0,
0,
0,
0,
0,
0,
0,
0,
0,
0,
0,
0,
0,
0,
0,
0,
0,
0,
0,
0,
0,
0,
0,
0,
0,
0,
0,
0,
0,
0,
0,
0,
0,
0,
0,
0,
0,
0,
0,
0,
0,
0,
0,
0,
0,
0,
0,
0,
0,
0,
0,
0,
0,
0,
0,
0,
0,
0,
0,
0,
0,
0,
0,
0,
0,
0,
0,
0,
0,
0,
0,
0,
0,
0,
0,
0,
0,
0,
0,
0,
0,
0,
0,
0,
0,
0,
0,
0,
0,
0,
0,
0,
0,
0,
0,
0,
0,
0,
0,
0,
0,
0,
0,
0,
0,
0,
0,
0,
0,
0,
0,
0,
0,
0,
0,
0,
0,
0,
0,
0,
0,
0,
0,
0,
0,
0,
0,
0,
0,
0,
0,
0,
0,
0,
0,
0,
0,
0,
0,
0,
0,
0,
0,
0,
0,
0,
0,
0,
0,
0,
0,
0,
0,
0,
0,
0,
0,
0,
0,
0,
0,
0,
0,
0,
0,
0,
0,
0,
0,
0,
0,
0,
0,
0,
0,
0,
0,
0,
0,
0,
0,
0,
0,
0,
0,
0,
0,
0,
0,
0,
0,
0,
0,
0,
0,
0,
0,
0,
0,
0,
0,
0,
0,
0,
0,
0,
0,
0,
0,
0,
0,
0,
0,
0,
0,
0,
0,
0,
0,
0,
0,
0,
0,
0,
0,
0,
0,
0,
0,
0,
0,
0,
0,
0,
0,
0,
0,
0,
0,
0,
0,
0,
0,
0,
0,
0,
0,
0,
0,
0,
0,
0,
0,
0,
0,
0,
0,
0,
0,
0,
0,
0,
0,
0,
0,
0,
0,
0,
0,
0,
0,
0,
0,
0,
0,
0,
0,
0,
0,
0,
0,
0,
0,
0,
0,
0,
0,
0,
0,
0,
0,
0,
0,
0,
0,
0,
0,
0,
0,
0,
0,
0,
0,
0,
0,
0,
0,
0,
0,
0,
0,
0,
0,
0,
0,
0,
0,
0,
0,
0,
0,
0,
0,
0,
0,
0,
0,
0,
0,
0,
0,
0,
0,
0,
0,
0,
0,
0,
0,
0,
0,
0,
0,
0,
0,
0,
0,
0,
0,
0,
0,
0,
0,
0,
0,
0,
0,
0,
0,
0,
0,
0,
#ENDOFDATA   :