File: N132962/Quantification/15 keV/Mengason MM2/MMM2 SrTiO3[4][4].msa
#FORMAT      : EMSA/MAS Spectral Data File
#VERSION     : 1.0
#TITLE       : MMM2 SrTiO3[4][all]
#DATE        : 29-SEP-2025
#TIME        : 00:18
#OWNER       : Unknown
#NPOINTS     : 4096
#NCOLUMNS    : 1
#XUNITS      : eV
#YUNITS      : counts
#DATATYPE    : Y
#XPERCHAN    : 9.99778
#OFFSET      : 1.69135
#BEAMKV      : 15
#SIGNALTYPE  : EDS
#ELEVANGLE   : 35
#AZIMANGLE   : 0
#LIVETIME    : 240.248
#REALTIME    : 256.611
#PROBECUR    : 1.21151
#TAUWIND     : 0
#TDEADLYR    : 0
#TACTLYR     : 0.045
#TALWIND     : 0.025
#CHOFFSET    : 0.0
#XLABEL      : Energy (eV)
#YLABEL      : Counts
#XPOSITION   : -15.21349
#YPOSITION   : 4.50191
#ZPOSITION   : 34.11879
#EDSDET      : SD
##SPECIMEN   : MMM2 SrTiO3[4][all]
##D2STDCMP   : SrTiO3,(O:26.1592),(Ti:26.0877),(Sr:47.7532)
##DET_HASH   : 12273538-fd48-a23f-0a19-f1e6fa85caef
##CALIB_HASH : 6abaa72c-aa41-8738-0be9-f592914732f3
##WORKING    : 15.0 mm
##DET_NAME   : EDAX All
##DET_MODE   : MediumLE
#SPECTRUM    :
18,
15,
9,
72,
352,
867,
1986,
5694,
14594,
18454,
9667,
5878,
8901,
11953,
13400,
18296,
38263,
65932,
48475,
14632,
4256,
3399,
3716,
4135,
4515,
4422,
4651,
4921,
5463,
5599,
5553,
5763,
5922,
6102,
6280,
6528,
6572,
6810,
6809,
6972,
7063,
7181,
7273,
7472,
7477,
7502,
7535,
7741,
7817,
8023,
8637,
10636,
14055,
15830,
14434,
12564,
11581,
16901,
47996,
125417,
199287,
189155,
130469,
79214,
41358,
20090,
10518,
6584,
4764,
4371,
4360,
4210,
4682,
4895,
4753,
4307,
4088,
4093,
4129,
3990,
4039,
3937,
3895,
3747,
3852,
3867,
3861,
3867,
3938,
3927,
3910,
4125,
4179,
4146,
3883,
3805,
3767,
3730,
3697,
3653,
3679,
3617,
3568,
3594,
3594,
3625,
3570,
3575,
3429,
3352,
3430,
3366,
3404,
3322,
3337,
3418,
3288,
3333,
3292,
3374,
3435,
3387,
3439,
3436,
3195,
3236,
3108,
3028,
3077,
3139,
2972,
3052,
2921,
2930,
2930,
2739,
2957,
2860,
2818,
2899,
2847,
2860,
2963,
2870,
3134,
3647,
5346,
11639,
26290,
48123,
62649,
59041,
39723,
19333,
8114,
3830,
2770,
2588,
2611,
2773,
3047,
3906,
5713,
8267,
10259,
9823,
7496,
4874,
3230,
2527,
2102,
2095,
2109,
1989,
1946,
2043,
2028,
1986,
1961,
2054,
2081,
1951,
1940,
1853,
1885,
1884,
1859,
1856,
1839,
1838,
1858,
1745,
1794,
1795,
1730,
1757,
1778,
1667,
1757,
1721,
1740,
1654,
1760,
1650,
1726,
1564,
1614,
1642,
1700,
1732,
1697,
1783,
1691,
1726,
1721,
1685,
1580,
1529,
1491,
1514,
1482,
1497,
1412,
1511,
1465,
1471,
1441,
1431,
1395,
1393,
1296,
1410,
1357,
1382,
1368,
1323,
1357,
1281,
1252,
1283,
1352,
1215,
1322,
1211,
1254,
1230,
1204,
1232,
1185,
1157,
1208,
1134,
1150,
1134,
1086,
1106,
1148,
1062,
1065,
1125,
1087,
1042,
1079,
1060,
1048,
1023,
1058,
1040,
1020,
1041,
1014,
992,
970,
993,
1015,
1027,
936,
962,
938,
928,
933,
897,
896,
894,
861,
898,
850,
896,
848,
880,
863,
826,
825,
811,
825,
800,
790,
814,
805,
814,
803,
733,
808,
722,
756,
757,
745,
749,
757,
695,
742,
733,
715,
721,
685,
697,
651,
630,
713,
689,
660,
686,
643,
635,
620,
680,
620,
628,
607,
612,
567,
562,
626,
583,
630,
628,
571,
584,
606,
558,
548,
566,
506,
536,
549,
503,
511,
529,
512,
494,
520,
493,
463,
450,
472,
484,
453,
510,
461,
463,
458,
442,
414,
393,
439,
412,
416,
404,
385,
422,
398,
380,
397,
402,
394,
348,
382,
369,
356,
371,
336,
360,
327,
344,
328,
298,
308,
314,
310,
312,
306,
309,
297,
306,
309,
271,
266,
251,
268,
266,
265,
273,
266,
238,
266,
228,
247,
241,
246,
219,
210,
217,
199,
237,
241,
225,
228,
202,
227,
180,
186,
174,
197,
196,
181,
179,
182,
156,
155,
158,
192,
143,
126,
158,
139,
142,
161,
116,
144,
144,
134,
138,
123,
120,
119,
138,
141,
103,
123,
116,
115,
116,
82,
102,
90,
90,
94,
85,
85,
114,
91,
79,
90,
70,
85,
60,
62,
57,
75,
63,
58,
52,
45,
62,
55,
44,
55,
43,
39,
35,
29,
43,
32,
34,
32,
33,
22,
21,
17,
22,
16,
13,
12,
16,
12,
11,
7,
9,
3,
8,
4,
3,
1,
3,
2,
3,
4,
1,
2,
2,
0,
2,
0,
2,
1,
3,
1,
3,
2,
2,
0,
2,
1,
2,
0,
1,
0,
0,
1,
1,
0,
0,
0,
1,
2,
0,
0,
0,
1,
1,
0,
1,
0,
0,
0,
0,
0,
1,
0,
0,
1,
1,
0,
0,
0,
0,
1,
1,
0,
1,
0,
2,
0,
0,
1,
2,
0,
1,
1,
0,
2,
1,
0,
2,
0,
0,
0,
0,
1,
3,
1,
0,
2,
0,
1,
0,
1,
0,
1,
0,
0,
0,
0,
0,
0,
0,
0,
0,
0,
1,
0,
0,
2,
0,
0,
0,
1,
0,
0,
0,
0,
0,
0,
0,
0,
0,
0,
0,
0,
1,
0,
0,
0,
0,
0,
0,
0,
0,
1,
1,
0,
0,
1,
0,
0,
0,
1,
0,
0,
0,
0,
0,
0,
0,
0,
1,
0,
0,
1,
0,
0,
0,
0,
0,
1,
0,
0,
0,
0,
0,
0,
0,
1,
1,
0,
0,
0,
0,
0,
0,
0,
0,
0,
0,
0,
0,
0,
0,
0,
0,
0,
0,
0,
0,
0,
0,
1,
0,
0,
0,
0,
0,
0,
0,
0,
0,
0,
0,
0,
0,
0,
0,
0,
0,
0,
0,
0,
0,
0,
0,
0,
0,
1,
0,
0,
0,
0,
0,
0,
0,
0,
0,
0,
0,
0,
0,
0,
0,
0,
0,
0,
0,
0,
0,
0,
0,
0,
0,
0,
1,
0,
0,
0,
0,
1,
0,
0,
0,
0,
0,
0,
0,
0,
0,
0,
0,
0,
0,
0,
0,
0,
0,
0,
0,
0,
1,
0,
0,
0,
0,
0,
0,
0,
0,
0,
0,
0,
0,
0,
0,
0,
0,
0,
0,
0,
0,
0,
0,
0,
0,
0,
0,
0,
0,
0,
0,
0,
0,
0,
0,
0,
0,
0,
0,
0,
0,
0,
0,
0,
0,
0,
0,
0,
0,
0,
0,
0,
0,
0,
0,
0,
0,
0,
0,
0,
0,
0,
0,
0,
0,
0,
0,
0,
0,
0,
0,
0,
0,
0,
0,
0,
0,
0,
0,
0,
0,
0,
0,
0,
0,
0,
0,
0,
0,
0,
0,
0,
0,
0,
0,
0,
0,
0,
0,
0,
0,
0,
0,
0,
0,
0,
0,
0,
0,
0,
0,
0,
0,
0,
0,
0,
0,
0,
0,
0,
0,
0,
0,
0,
0,
0,
0,
0,
0,
0,
0,
0,
0,
0,
0,
0,
0,
0,
0,
0,
0,
0,
0,
0,
0,
0,
0,
0,
0,
0,
0,
0,
0,
0,
0,
0,
0,
0,
0,
0,
0,
0,
0,
0,
0,
0,
0,
0,
0,
0,
0,
0,
0,
0,
0,
0,
0,
0,
0,
0,
0,
0,
0,
0,
0,
0,
0,
0,
0,
0,
0,
0,
0,
0,
0,
0,
0,
0,
0,
0,
0,
0,
0,
0,
0,
0,
0,
0,
0,
0,
0,
0,
0,
0,
0,
0,
0,
0,
0,
0,
0,
0,
0,
0,
0,
0,
0,
0,
0,
0,
0,
0,
0,
0,
0,
0,
0,
0,
0,
0,
0,
0,
0,
0,
0,
0,
0,
0,
0,
0,
0,
0,
0,
0,
0,
0,
0,
0,
0,
0,
0,
0,
0,
0,
0,
0,
0,
0,
0,
0,
0,
0,
0,
0,
0,
0,
0,
0,
0,
0,
0,
0,
0,
0,
0,
0,
0,
0,
0,
0,
0,
0,
0,
0,
0,
0,
0,
0,
0,
0,
0,
0,
0,
0,
0,
0,
0,
0,
0,
0,
0,
0,
0,
0,
0,
0,
0,
0,
0,
0,
0,
0,
0,
0,
0,
0,
0,
0,
0,
0,
0,
0,
0,
0,
0,
0,
0,
0,
0,
0,
0,
0,
0,
0,
0,
0,
0,
0,
0,
0,
0,
0,
0,
0,
0,
0,
0,
0,
0,
0,
0,
0,
0,
0,
0,
0,
0,
0,
0,
0,
0,
0,
0,
0,
0,
0,
0,
0,
0,
0,
0,
0,
0,
0,
0,
0,
0,
0,
0,
0,
0,
0,
0,
0,
0,
0,
0,
0,
0,
0,
0,
0,
0,
0,
0,
0,
0,
0,
0,
0,
0,
0,
0,
0,
0,
0,
0,
0,
0,
0,
0,
0,
0,
0,
0,
0,
0,
0,
0,
0,
0,
0,
0,
0,
0,
0,
0,
0,
0,
0,
0,
0,
0,
0,
0,
0,
0,
0,
0,
0,
0,
0,
0,
0,
0,
0,
0,
0,
0,
0,
0,
0,
0,
0,
0,
0,
0,
0,
0,
0,
0,
0,
0,
0,
0,
0,
0,
0,
0,
0,
0,
0,
0,
0,
0,
0,
0,
0,
0,
0,
0,
0,
0,
0,
0,
0,
0,
0,
0,
0,
0,
0,
0,
0,
0,
0,
0,
0,
0,
0,
0,
0,
0,
0,
0,
0,
0,
0,
0,
0,
0,
0,
0,
0,
0,
0,
0,
0,
0,
0,
0,
0,
0,
0,
0,
0,
0,
0,
0,
0,
0,
0,
0,
0,
0,
0,
0,
0,
0,
0,
0,
0,
0,
0,
0,
0,
0,
0,
0,
0,
0,
0,
0,
0,
0,
0,
0,
0,
0,
0,
0,
0,
0,
0,
0,
0,
0,
0,
0,
0,
0,
0,
0,
0,
0,
0,
0,
0,
0,
0,
0,
0,
0,
0,
0,
0,
0,
0,
0,
0,
0,
#ENDOFDATA   :