File: N132962/Quantification/15 keV/Mengason MM2/MMM2 Pyrope[1][4].msa
#FORMAT      : EMSA/MAS Spectral Data File
#VERSION     : 1.0
#TITLE       : MMM2 Pyrope[1][all]
#DATE        : 28-SEP-2025
#TIME        : 21:49
#OWNER       : Unknown
#NPOINTS     : 4096
#NCOLUMNS    : 1
#XUNITS      : eV
#YUNITS      : counts
#DATATYPE    : Y
#XPERCHAN    : 9.99778
#OFFSET      : 1.69135
#BEAMKV      : 15
#SIGNALTYPE  : EDS
#ELEVANGLE   : 35
#AZIMANGLE   : 0
#LIVETIME    : 240.321
#REALTIME    : 256.74
#PROBECUR    : 1.21223
#TAUWIND     : 0
#TDEADLYR    : 0
#TACTLYR     : 0.045
#TALWIND     : 0.025
#CHOFFSET    : 0.0
#XLABEL      : Energy (eV)
#YLABEL      : Counts
#XPOSITION   : -13.93841
#YPOSITION   : -1.89656
#ZPOSITION   : 34.11879
#EDSDET      : SD
##SPECIMEN   : MMM2 Pyrope[1][all]
##D2STDCMP   : Pyrope,(O:47.6258),(Mg:18.0873),(Al:13.3861),(Si:20.9007),5.0
##DET_HASH   : 12273538-fd48-a23f-0a19-f1e6fa85caef
##CALIB_HASH : 6abaa72c-aa41-8738-0be9-f592914732f3
##WORKING    : 15.0 mm
##DET_NAME   : EDAX All
##DET_MODE   : MediumLE
#SPECTRUM    :
21,
19,
9,
18,
98,
388,
1190,
3952,
11314,
14519,
7999,
4183,
4221,
5189,
9712,
34866,
131868,
249281,
179758,
47220,
7981,
4526,
6187,
9759,
10103,
5951,
3899,
3560,
3507,
3714,
3860,
3991,
4064,
4625,
5134,
5472,
5216,
5295,
6157,
11362,
36309,
87451,
104026,
59736,
19081,
6778,
6132,
13546,
42299,
83980,
85769,
44885,
15679,
6659,
5611,
11768,
41770,
105959,
143540,
100697,
41330,
14904,
7334,
4371,
3192,
3008,
2955,
3055,
2829,
2683,
2597,
2582,
2516,
2727,
2860,
3045,
2954,
2850,
2479,
2540,
2468,
2472,
2434,
2478,
2448,
2434,
2408,
2332,
2324,
2387,
2275,
2380,
2433,
2254,
2290,
2255,
2184,
2207,
2333,
2338,
2334,
2264,
2149,
2044,
2061,
2036,
2216,
2119,
2054,
1984,
1882,
1895,
1882,
1844,
1835,
1931,
1885,
2022,
1941,
2124,
3235,
5792,
9515,
11492,
9696,
6175,
3286,
2052,
1783,
1637,
1675,
1909,
2201,
2582,
2668,
2414,
2036,
1686,
1520,
1467,
1464,
1487,
1414,
1445,
1388,
1375,
1434,
1479,
1632,
1896,
1993,
1889,
1682,
1513,
1319,
1232,
1229,
1242,
1180,
1184,
1178,
1167,
1181,
1259,
1271,
1221,
1238,
1169,
1107,
1137,
1029,
1059,
1105,
1059,
1038,
1013,
1120,
1180,
1628,
1903,
2225,
2147,
1751,
1366,
1126,
962,
950,
927,
931,
929,
947,
942,
920,
944,
1024,
1106,
1236,
1186,
1245,
1151,
981,
832,
849,
869,
843,
817,
799,
851,
949,
1345,
2315,
4065,
6038,
7236,
6930,
5120,
3066,
1691,
1051,
810,
707,
713,
714,
690,
631,
624,
669,
665,
687,
650,
721,
819,
903,
1204,
1338,
1474,
1290,
1210,
940,
720,
616,
574,
581,
593,
610,
529,
555,
578,
506,
526,
512,
506,
508,
497,
517,
522,
501,
472,
456,
473,
440,
510,
483,
495,
474,
486,
486,
439,
423,
433,
485,
473,
419,
439,
423,
436,
447,
384,
432,
393,
404,
416,
432,
359,
360,
357,
379,
370,
381,
376,
380,
404,
367,
367,
354,
357,
359,
338,
382,
382,
342,
311,
367,
315,
350,
316,
326,
328,
322,
298,
319,
295,
286,
305,
305,
309,
288,
287,
275,
268,
288,
272,
287,
276,
249,
256,
248,
284,
255,
255,
283,
266,
260,
226,
228,
269,
232,
250,
243,
232,
222,
202,
191,
230,
210,
196,
209,
224,
225,
195,
195,
202,
204,
183,
189,
189,
179,
225,
166,
175,
182,
179,
189,
168,
169,
174,
179,
170,
161,
173,
173,
163,
155,
137,
147,
126,
167,
153,
148,
156,
144,
148,
143,
135,
129,
139,
137,
124,
144,
112,
113,
101,
129,
114,
116,
98,
120,
122,
105,
114,
84,
104,
103,
99,
105,
82,
80,
85,
96,
88,
84,
83,
88,
87,
76,
79,
74,
85,
66,
67,
80,
70,
65,
70,
74,
65,
66,
61,
60,
58,
62,
62,
50,
45,
49,
59,
53,
42,
52,
36,
50,
56,
51,
49,
38,
29,
38,
39,
40,
34,
32,
41,
37,
34,
30,
29,
37,
35,
20,
23,
31,
18,
36,
18,
17,
34,
24,
17,
22,
20,
21,
28,
21,
21,
16,
13,
22,
13,
17,
12,
9,
15,
18,
9,
9,
9,
9,
3,
7,
4,
3,
5,
6,
4,
6,
2,
3,
1,
2,
0,
1,
0,
0,
0,
0,
0,
0,
0,
0,
1,
0,
2,
0,
0,
0,
0,
0,
0,
0,
0,
0,
0,
0,
0,
0,
0,
0,
0,
1,
0,
1,
0,
0,
0,
0,
0,
0,
0,
0,
0,
0,
0,
0,
0,
0,
0,
0,
1,
0,
0,
0,
0,
0,
0,
0,
0,
0,
0,
0,
0,
0,
1,
0,
0,
0,
0,
0,
0,
0,
0,
0,
0,
0,
0,
0,
0,
0,
0,
0,
0,
0,
1,
0,
0,
0,
0,
0,
0,
0,
0,
0,
0,
1,
1,
0,
0,
0,
0,
0,
0,
0,
0,
0,
0,
0,
0,
0,
0,
0,
0,
0,
0,
0,
0,
0,
0,
0,
0,
0,
0,
0,
0,
0,
0,
0,
0,
0,
0,
0,
0,
0,
0,
0,
0,
0,
0,
0,
0,
0,
0,
0,
0,
0,
0,
0,
0,
0,
0,
0,
0,
0,
0,
0,
0,
0,
0,
0,
0,
0,
0,
0,
0,
0,
0,
0,
0,
0,
0,
0,
0,
0,
0,
0,
0,
1,
0,
0,
1,
1,
0,
0,
0,
0,
0,
0,
0,
0,
0,
0,
0,
0,
0,
0,
0,
0,
0,
0,
0,
0,
0,
0,
0,
1,
0,
0,
0,
0,
0,
0,
0,
0,
0,
0,
0,
0,
0,
0,
0,
0,
0,
0,
0,
0,
0,
0,
0,
0,
0,
0,
0,
0,
0,
0,
0,
0,
0,
0,
0,
0,
0,
0,
0,
0,
0,
0,
0,
0,
0,
0,
0,
0,
0,
0,
0,
0,
0,
0,
0,
0,
0,
0,
0,
0,
0,
0,
0,
0,
0,
0,
0,
0,
0,
0,
0,
0,
0,
0,
0,
0,
0,
0,
0,
0,
0,
0,
0,
0,
0,
0,
0,
0,
0,
0,
0,
0,
0,
0,
0,
0,
0,
0,
0,
0,
0,
0,
0,
0,
0,
0,
0,
0,
0,
0,
0,
0,
0,
0,
0,
0,
0,
0,
0,
0,
0,
0,
0,
0,
0,
0,
0,
0,
0,
0,
0,
0,
0,
0,
0,
0,
0,
0,
0,
0,
0,
0,
0,
0,
0,
0,
0,
0,
0,
0,
0,
0,
0,
0,
0,
0,
0,
0,
0,
0,
0,
0,
0,
0,
0,
0,
0,
0,
0,
0,
0,
0,
0,
0,
0,
0,
0,
0,
0,
0,
0,
0,
0,
0,
0,
0,
0,
0,
0,
0,
0,
0,
0,
0,
0,
0,
0,
0,
0,
0,
0,
0,
0,
0,
0,
0,
0,
0,
0,
0,
0,
0,
0,
0,
0,
0,
0,
0,
0,
0,
0,
0,
0,
0,
0,
0,
0,
0,
0,
0,
0,
0,
0,
0,
0,
0,
0,
0,
0,
0,
0,
0,
0,
0,
0,
0,
0,
0,
0,
0,
0,
0,
0,
0,
0,
0,
0,
0,
0,
0,
0,
0,
0,
0,
0,
0,
0,
0,
0,
0,
0,
0,
0,
0,
0,
0,
0,
0,
0,
0,
0,
0,
0,
0,
0,
0,
0,
0,
0,
0,
0,
0,
0,
0,
0,
0,
0,
0,
0,
0,
0,
0,
0,
0,
0,
0,
0,
0,
0,
0,
0,
0,
0,
0,
0,
0,
0,
0,
0,
0,
0,
0,
0,
0,
0,
0,
0,
0,
0,
0,
0,
0,
0,
0,
0,
0,
0,
0,
0,
0,
0,
0,
0,
0,
0,
0,
0,
0,
0,
0,
0,
0,
0,
0,
0,
0,
0,
0,
0,
0,
0,
0,
0,
0,
0,
0,
0,
0,
0,
0,
0,
0,
0,
0,
0,
0,
0,
0,
0,
0,
0,
0,
0,
0,
0,
0,
0,
0,
0,
0,
0,
0,
0,
0,
0,
0,
0,
0,
0,
0,
0,
0,
0,
0,
0,
0,
0,
0,
0,
0,
0,
0,
0,
0,
0,
0,
0,
0,
0,
0,
0,
0,
0,
0,
0,
0,
0,
0,
0,
0,
0,
0,
0,
0,
0,
0,
0,
0,
0,
0,
0,
0,
0,
0,
0,
0,
0,
0,
0,
0,
0,
0,
0,
0,
0,
0,
0,
0,
0,
0,
0,
0,
0,
0,
0,
0,
0,
0,
0,
0,
0,
0,
0,
0,
0,
0,
0,
0,
0,
0,
0,
0,
0,
0,
0,
0,
0,
0,
0,
0,
0,
0,
0,
0,
0,
0,
0,
0,
0,
0,
0,
0,
0,
0,
0,
0,
0,
0,
0,
0,
0,
0,
0,
0,
0,
0,
0,
0,
0,
0,
0,
0,
0,
0,
0,
0,
0,
0,
0,
0,
0,
0,
0,
0,
0,
0,
0,
0,
0,
0,
0,
0,
0,
0,
0,
0,
0,
0,
0,
0,
0,
0,
0,
0,
0,
0,
0,
0,
0,
0,
0,
0,
0,
0,
0,
0,
0,
0,
0,
0,
0,
0,
0,
0,
0,
0,
0,
0,
0,
0,
0,
0,
0,
0,
0,
0,
0,
0,
0,
0,
0,
0,
0,
0,
0,
0,
0,
0,
0,
0,
0,
0,
0,
0,
0,
0,
0,
0,
0,
0,
0,
0,
0,
0,
0,
0,
0,
0,
0,
0,
0,
0,
0,
0,
0,
0,
0,
0,
0,
0,
0,
0,
0,
0,
0,
0,
0,
0,
0,
0,
0,
0,
0,
0,
0,
0,
0,
0,
0,
0,
0,
0,
0,
0,
0,
0,
0,
0,
0,
0,
0,
0,
0,
#ENDOFDATA   :