File: N132962/Quantification/15 keV/Mengason MM2/MMM2 Pyrope[2][4].msa
#FORMAT      : EMSA/MAS Spectral Data File
#VERSION     : 1.0
#TITLE       : MMM2 Pyrope[2][all]
#DATE        : 28-SEP-2025
#TIME        : 21:50
#OWNER       : Unknown
#NPOINTS     : 4096
#NCOLUMNS    : 1
#XUNITS      : eV
#YUNITS      : counts
#DATATYPE    : Y
#XPERCHAN    : 9.99778
#OFFSET      : 1.69135
#BEAMKV      : 15
#SIGNALTYPE  : EDS
#ELEVANGLE   : 35
#AZIMANGLE   : 0
#LIVETIME    : 240.1867
#REALTIME    : 256.611
#PROBECUR    : 1.21223
#TAUWIND     : 0
#TDEADLYR    : 0
#TACTLYR     : 0.045
#TALWIND     : 0.025
#CHOFFSET    : 0.0
#XLABEL      : Energy (eV)
#YLABEL      : Counts
#XPOSITION   : -13.93161
#YPOSITION   : -1.8511
#ZPOSITION   : 34.11879
#EDSDET      : SD
##SPECIMEN   : MMM2 Pyrope[2][all]
##D2STDCMP   : Pyrope,(O:47.6258),(Mg:18.0873),(Al:13.3861),(Si:20.9007),5.0
##DET_HASH   : 12273538-fd48-a23f-0a19-f1e6fa85caef
##CALIB_HASH : 6abaa72c-aa41-8738-0be9-f592914732f3
##WORKING    : 15.0 mm
##DET_NAME   : EDAX All
##DET_MODE   : MediumLE
#SPECTRUM    :
24,
22,
10,
25,
106,
355,
1140,
3938,
11054,
14643,
7943,
4286,
4141,
5340,
9616,
35623,
131853,
248569,
179647,
48278,
7995,
4623,
6148,
9931,
10098,
6070,
3835,
3611,
3633,
3849,
3839,
4004,
4140,
4629,
5074,
5272,
5267,
5249,
6172,
11416,
36122,
86836,
105489,
59401,
18862,
7037,
6330,
13617,
42103,
84041,
85354,
44842,
15636,
6775,
5736,
11949,
42182,
105668,
144017,
101726,
41497,
14815,
7427,
4380,
3128,
2949,
3034,
2977,
2831,
2663,
2598,
2560,
2576,
2700,
2894,
3014,
2933,
2636,
2594,
2467,
2540,
2386,
2483,
2490,
2436,
2457,
2379,
2440,
2362,
2333,
2293,
2353,
2438,
2272,
2245,
2100,
2143,
2192,
2311,
2292,
2260,
2251,
2104,
2041,
2059,
2051,
2140,
2140,
2078,
2106,
1999,
2023,
1942,
1806,
1927,
1831,
1850,
1923,
1955,
2285,
3202,
5754,
9383,
11560,
9717,
6150,
3365,
1996,
1674,
1650,
1696,
1864,
2210,
2569,
2731,
2512,
1919,
1683,
1500,
1459,
1484,
1438,
1443,
1425,
1335,
1369,
1384,
1425,
1564,
1763,
2068,
1913,
1709,
1499,
1273,
1232,
1224,
1151,
1233,
1232,
1202,
1226,
1247,
1300,
1249,
1234,
1236,
1189,
1112,
1046,
1135,
1046,
1094,
1054,
1117,
1048,
1080,
1228,
1574,
1958,
2188,
2100,
1813,
1353,
1068,
1012,
925,
957,
874,
903,
986,
862,
882,
981,
1043,
1125,
1269,
1296,
1256,
1102,
973,
916,
839,
829,
859,
815,
834,
847,
1002,
1386,
2377,
4017,
6010,
7261,
6827,
4895,
3100,
1604,
1096,
770,
738,
703,
667,
674,
623,
750,
643,
654,
731,
750,
715,
791,
916,
1094,
1398,
1470,
1295,
1184,
830,
743,
617,
515,
610,
605,
547,
568,
578,
502,
580,
517,
596,
505,
527,
542,
503,
525,
484,
541,
511,
505,
490,
501,
463,
437,
484,
490,
457,
481,
456,
431,
448,
424,
451,
457,
418,
449,
401,
417,
411,
392,
397,
401,
404,
427,
404,
389,
396,
370,
363,
393,
337,
357,
354,
397,
350,
349,
314,
327,
343,
344,
351,
338,
320,
337,
309,
317,
302,
327,
325,
335,
295,
299,
314,
290,
300,
246,
295,
285,
276,
274,
300,
326,
277,
281,
282,
239,
257,
269,
266,
243,
258,
254,
249,
222,
242,
254,
235,
246,
223,
179,
221,
213,
201,
224,
223,
178,
190,
200,
244,
215,
195,
200,
176,
197,
195,
204,
176,
183,
178,
200,
161,
162,
195,
191,
196,
159,
174,
149,
162,
156,
159,
160,
151,
146,
150,
129,
150,
137,
145,
139,
127,
128,
124,
130,
133,
126,
112,
119,
116,
133,
126,
121,
131,
111,
131,
105,
114,
98,
100,
103,
101,
97,
98,
92,
103,
91,
98,
95,
90,
104,
77,
81,
82,
85,
73,
86,
72,
96,
71,
68,
74,
73,
65,
70,
71,
64,
67,
58,
70,
57,
54,
71,
59,
49,
64,
44,
48,
51,
48,
44,
38,
36,
55,
45,
41,
38,
29,
49,
62,
44,
43,
36,
39,
27,
37,
36,
44,
31,
34,
24,
24,
25,
35,
27,
16,
34,
19,
26,
34,
22,
16,
18,
16,
18,
17,
14,
15,
11,
17,
16,
10,
10,
7,
10,
10,
9,
9,
5,
8,
8,
8,
2,
4,
4,
3,
3,
1,
2,
0,
1,
0,
1,
0,
0,
0,
0,
0,
0,
0,
1,
1,
1,
0,
0,
0,
0,
0,
0,
0,
1,
0,
0,
0,
0,
0,
0,
0,
0,
0,
0,
0,
0,
0,
0,
0,
0,
0,
1,
0,
0,
0,
0,
0,
0,
0,
0,
0,
0,
0,
0,
0,
0,
0,
0,
0,
0,
0,
0,
0,
1,
0,
0,
0,
0,
0,
0,
0,
0,
0,
0,
0,
0,
0,
0,
1,
0,
0,
0,
0,
0,
0,
0,
0,
0,
0,
0,
0,
0,
0,
0,
0,
0,
0,
0,
0,
0,
0,
0,
0,
0,
0,
0,
1,
0,
0,
0,
0,
1,
0,
0,
0,
0,
0,
0,
0,
0,
0,
0,
0,
0,
0,
0,
0,
0,
0,
0,
0,
0,
0,
0,
1,
0,
0,
0,
0,
0,
0,
0,
0,
0,
0,
0,
0,
0,
0,
0,
0,
0,
0,
0,
0,
0,
0,
0,
0,
0,
0,
0,
0,
0,
0,
0,
0,
0,
0,
0,
0,
0,
0,
0,
0,
0,
0,
0,
0,
0,
0,
0,
0,
0,
0,
0,
0,
0,
0,
0,
0,
0,
0,
0,
0,
0,
0,
0,
0,
0,
0,
0,
0,
0,
0,
0,
0,
0,
0,
0,
0,
0,
0,
0,
0,
0,
0,
0,
0,
0,
0,
0,
0,
0,
0,
0,
0,
0,
0,
0,
0,
0,
0,
0,
0,
0,
0,
0,
0,
0,
0,
0,
0,
0,
0,
0,
0,
0,
0,
0,
0,
0,
0,
0,
0,
0,
0,
0,
0,
0,
0,
0,
0,
0,
0,
0,
0,
0,
0,
0,
0,
0,
0,
0,
0,
0,
0,
0,
0,
0,
0,
0,
0,
0,
0,
0,
0,
0,
0,
0,
0,
0,
0,
0,
0,
0,
0,
0,
0,
0,
0,
0,
0,
0,
0,
0,
0,
0,
0,
0,
0,
0,
0,
0,
0,
0,
0,
0,
0,
0,
0,
0,
0,
0,
0,
0,
0,
0,
0,
0,
0,
0,
0,
0,
0,
0,
0,
0,
0,
0,
0,
0,
0,
0,
0,
0,
0,
0,
0,
0,
0,
0,
0,
0,
0,
0,
0,
0,
0,
0,
0,
0,
0,
0,
0,
0,
0,
0,
0,
0,
0,
0,
0,
0,
0,
0,
0,
0,
0,
0,
0,
0,
0,
0,
0,
0,
0,
0,
0,
0,
0,
0,
0,
0,
0,
0,
0,
0,
0,
0,
0,
0,
0,
0,
0,
0,
0,
0,
0,
0,
0,
0,
0,
0,
0,
0,
0,
0,
0,
0,
0,
0,
0,
0,
0,
0,
0,
0,
0,
0,
0,
0,
0,
0,
0,
0,
0,
0,
0,
0,
0,
0,
0,
0,
0,
0,
0,
0,
0,
0,
0,
0,
0,
0,
0,
0,
0,
0,
0,
0,
0,
0,
0,
0,
0,
0,
0,
0,
0,
0,
0,
0,
0,
0,
0,
0,
0,
0,
0,
0,
0,
0,
0,
0,
0,
0,
0,
0,
0,
0,
0,
0,
0,
0,
0,
0,
0,
0,
0,
0,
0,
0,
0,
0,
0,
0,
0,
0,
0,
0,
0,
0,
0,
0,
0,
0,
0,
0,
0,
0,
0,
0,
0,
0,
0,
0,
0,
0,
0,
0,
0,
0,
0,
0,
0,
0,
0,
0,
0,
0,
0,
0,
0,
0,
0,
0,
0,
0,
0,
0,
0,
0,
0,
0,
0,
0,
0,
0,
0,
0,
0,
0,
0,
0,
0,
0,
0,
0,
0,
0,
0,
0,
0,
0,
0,
0,
0,
0,
0,
0,
0,
0,
0,
0,
0,
0,
0,
0,
0,
0,
0,
0,
0,
0,
0,
0,
0,
0,
0,
0,
0,
0,
0,
0,
0,
0,
0,
0,
0,
0,
0,
0,
0,
0,
0,
0,
0,
0,
0,
0,
0,
0,
0,
0,
0,
0,
0,
0,
0,
0,
0,
0,
0,
0,
0,
0,
0,
0,
0,
0,
0,
0,
0,
0,
0,
0,
0,
0,
0,
0,
0,
0,
0,
0,
0,
0,
0,
0,
0,
0,
0,
0,
0,
0,
0,
0,
0,
0,
0,
0,
0,
0,
0,
0,
0,
0,
0,
0,
0,
0,
0,
0,
0,
0,
0,
0,
0,
0,
0,
0,
0,
0,
0,
0,
0,
0,
0,
0,
0,
0,
0,
0,
0,
0,
0,
0,
0,
0,
0,
0,
0,
0,
0,
0,
0,
0,
0,
0,
0,
0,
0,
0,
0,
0,
0,
0,
0,
0,
0,
0,
0,
0,
0,
0,
0,
0,
0,
0,
0,
0,
0,
0,
0,
0,
0,
0,
0,
0,
0,
0,
0,
0,
0,
0,
0,
0,
0,
0,
0,
0,
0,
0,
0,
0,
0,
0,
0,
0,
0,
0,
0,
0,
0,
0,
0,
0,
0,
0,
0,
0,
0,
0,
0,
0,
0,
0,
0,
0,
0,
0,
0,
0,
0,
0,
0,
0,
0,
0,
0,
0,
0,
0,
0,
0,
0,
0,
0,
0,
0,
0,
0,
0,
0,
0,
0,
0,
0,
0,
0,
0,
0,
0,
0,
0,
0,
0,
0,
0,
0,
0,
0,
0,
0,
0,
0,
0,
0,
0,
0,
0,
0,
0,
0,
0,
0,
0,
0,
0,
0,
0,
0,
0,
0,
0,
0,
0,
0,
0,
0,
0,
0,
0,
0,
0,
0,
0,
0,
0,
0,
0,
#ENDOFDATA   :