File: N132962/Quantification/15 keV/Mengason MM2/MMM2 Zircon-2[0][4].msa
#FORMAT      : EMSA/MAS Spectral Data File
#VERSION     : 1.0
#TITLE       : MMM2 Zircon-2[0][all]
#DATE        : 29-SEP-2025
#TIME        : 01:16
#OWNER       : Unknown
#NPOINTS     : 4096
#NCOLUMNS    : 1
#XUNITS      : eV
#YUNITS      : counts
#DATATYPE    : Y
#XPERCHAN    : 9.99778
#OFFSET      : 1.69135
#BEAMKV      : 15
#SIGNALTYPE  : EDS
#ELEVANGLE   : 35
#AZIMANGLE   : 0
#LIVETIME    : 240.271
#REALTIME    : 257.133
#PROBECUR    : 1.21247
#TAUWIND     : 0
#TDEADLYR    : 0
#TACTLYR     : 0.045
#TALWIND     : 0.025
#CHOFFSET    : 0.0
#XLABEL      : Energy (eV)
#YLABEL      : Counts
#XPOSITION   : -14.6734
#YPOSITION   : 7.58655
#ZPOSITION   : 34.11879
#EDSDET      : SD
##SPECIMEN   : MMM2 Zircon-2[0][all]
##DET_HASH   : 12273538-fd48-a23f-0a19-f1e6fa85caef
##CALIB_HASH : 6abaa72c-aa41-8738-0be9-f592914732f3
##WORKING    : 15.0 mm
##DET_NAME   : EDAX All
##DET_MODE   : MediumLE
#SPECTRUM    :
22,
29,
13,
69,
516,
1308,
2233,
5419,
14477,
19512,
11956,
5612,
4760,
5281,
6514,
17005,
57576,
107807,
78078,
22154,
5177,
3730,
3986,
4441,
4681,
4762,
4795,
5116,
5453,
5655,
5820,
5840,
6114,
6256,
6496,
6473,
6801,
6690,
7077,
6982,
7263,
7262,
7396,
7583,
7513,
7627,
7611,
7752,
7815,
8057,
7964,
8181,
8219,
8725,
10526,
17934,
48136,
112297,
152244,
112068,
53078,
23979,
14678,
11156,
12388,
20677,
48345,
102890,
142860,
126649,
94260,
72878,
49559,
28304,
16633,
10122,
6387,
4797,
4095,
3727,
3521,
3592,
3992,
4261,
4272,
3970,
3637,
3300,
3317,
3205,
3261,
3190,
3166,
3206,
3246,
3221,
3162,
3191,
3196,
3166,
3204,
3248,
3088,
3107,
3119,
3060,
3037,
2981,
3078,
2991,
3110,
3017,
2934,
2985,
3052,
3063,
2920,
3079,
2947,
2912,
2997,
2914,
2880,
2929,
2889,
2823,
2924,
2976,
2837,
2812,
2837,
2681,
2599,
2712,
2727,
2739,
2677,
2683,
2666,
2663,
2518,
2477,
2525,
2471,
2470,
2539,
2400,
2478,
2325,
2427,
2378,
2339,
2297,
2290,
2351,
2330,
2295,
2149,
2229,
2216,
2178,
2213,
2096,
2111,
2140,
2060,
2110,
2124,
1984,
2050,
1969,
2018,
2096,
2012,
2036,
1934,
1916,
1938,
1884,
1863,
1883,
1910,
1865,
1821,
1817,
1820,
1901,
1765,
1724,
1718,
1805,
1653,
1711,
1632,
1798,
1655,
1701,
1652,
1699,
1617,
1562,
1575,
1627,
1613,
1584,
1497,
1563,
1555,
1456,
1521,
1431,
1509,
1503,
1528,
1513,
1526,
1482,
1453,
1499,
1409,
1363,
1407,
1385,
1371,
1325,
1317,
1342,
1373,
1257,
1296,
1288,
1253,
1268,
1225,
1247,
1284,
1283,
1175,
1181,
1177,
1167,
1202,
1153,
1127,
1113,
1145,
1114,
1099,
1140,
1133,
1100,
1089,
1046,
1067,
1044,
1075,
1016,
1096,
1085,
1039,
1111,
1137,
1015,
1120,
1076,
1063,
1010,
974,
910,
913,
900,
945,
939,
945,
894,
919,
934,
899,
840,
885,
872,
863,
871,
817,
829,
795,
800,
781,
789,
788,
725,
809,
761,
845,
778,
803,
716,
777,
767,
735,
776,
751,
723,
695,
689,
666,
685,
716,
695,
679,
665,
685,
673,
687,
643,
660,
661,
634,
650,
621,
612,
624,
634,
597,
579,
564,
582,
545,
555,
621,
565,
563,
515,
515,
543,
539,
504,
527,
514,
512,
496,
519,
507,
457,
492,
484,
509,
437,
471,
477,
459,
493,
474,
460,
388,
444,
376,
394,
426,
398,
383,
411,
411,
391,
402,
375,
392,
354,
368,
369,
345,
351,
338,
355,
357,
332,
356,
343,
347,
340,
330,
338,
324,
330,
322,
279,
320,
277,
274,
309,
293,
290,
296,
264,
264,
287,
229,
268,
251,
238,
254,
202,
256,
251,
216,
208,
240,
221,
212,
180,
211,
211,
174,
185,
200,
188,
172,
199,
178,
177,
181,
170,
179,
166,
176,
174,
148,
150,
175,
140,
149,
152,
141,
130,
137,
128,
134,
122,
141,
136,
110,
110,
109,
108,
96,
106,
98,
97,
112,
108,
79,
70,
104,
82,
102,
94,
89,
84,
80,
82,
73,
72,
60,
70,
70,
65,
66,
54,
53,
72,
58,
60,
42,
46,
44,
37,
45,
43,
33,
43,
23,
37,
31,
22,
34,
23,
26,
16,
24,
17,
15,
7,
13,
15,
7,
10,
10,
8,
6,
0,
4,
5,
1,
3,
0,
1,
0,
0,
3,
0,
1,
0,
2,
1,
1,
2,
2,
1,
1,
1,
0,
0,
0,
0,
0,
1,
0,
0,
0,
2,
3,
0,
0,
0,
0,
0,
0,
0,
1,
0,
1,
0,
0,
0,
1,
0,
1,
1,
0,
1,
0,
0,
0,
0,
0,
0,
1,
1,
2,
0,
0,
1,
0,
0,
0,
0,
1,
0,
2,
0,
0,
2,
0,
0,
0,
0,
0,
0,
0,
0,
0,
0,
0,
0,
1,
0,
1,
0,
0,
0,
0,
0,
0,
0,
0,
0,
0,
0,
1,
0,
2,
0,
1,
1,
0,
1,
0,
0,
0,
1,
0,
0,
1,
0,
1,
0,
1,
0,
0,
0,
0,
0,
1,
0,
0,
0,
0,
0,
0,
0,
0,
0,
0,
0,
0,
1,
0,
0,
0,
0,
0,
0,
0,
0,
0,
1,
0,
0,
0,
1,
1,
0,
1,
0,
0,
0,
1,
0,
0,
0,
0,
0,
0,
0,
0,
0,
0,
0,
0,
0,
0,
0,
0,
0,
0,
0,
0,
0,
0,
1,
0,
0,
0,
0,
1,
0,
0,
0,
0,
0,
0,
0,
0,
0,
0,
0,
0,
0,
0,
0,
0,
0,
0,
0,
0,
0,
0,
0,
0,
0,
0,
0,
0,
0,
0,
0,
0,
0,
0,
0,
0,
0,
0,
0,
0,
0,
0,
0,
0,
0,
0,
0,
0,
0,
0,
0,
0,
0,
0,
0,
0,
0,
0,
0,
0,
0,
0,
0,
0,
0,
0,
0,
0,
0,
0,
0,
0,
0,
0,
0,
0,
0,
0,
0,
0,
0,
0,
0,
0,
0,
0,
0,
0,
0,
0,
0,
0,
0,
0,
0,
0,
1,
0,
0,
0,
0,
0,
0,
0,
0,
0,
0,
0,
0,
0,
0,
0,
0,
0,
0,
0,
0,
0,
0,
0,
0,
0,
0,
0,
0,
0,
0,
0,
0,
0,
0,
0,
0,
0,
0,
0,
0,
0,
0,
0,
0,
0,
0,
0,
0,
0,
0,
0,
0,
0,
0,
0,
0,
0,
0,
0,
0,
0,
0,
0,
0,
0,
0,
0,
0,
0,
0,
0,
0,
0,
0,
0,
0,
0,
0,
0,
0,
0,
0,
0,
0,
0,
0,
0,
0,
0,
0,
0,
0,
0,
0,
0,
0,
0,
0,
0,
0,
0,
0,
0,
0,
0,
0,
0,
0,
0,
0,
0,
0,
0,
0,
0,
0,
0,
0,
0,
0,
0,
0,
0,
0,
0,
0,
0,
0,
0,
0,
0,
0,
0,
0,
0,
0,
0,
0,
0,
0,
0,
0,
0,
0,
0,
0,
0,
0,
0,
0,
0,
0,
0,
0,
0,
0,
0,
0,
0,
0,
0,
0,
0,
0,
0,
0,
0,
0,
0,
0,
0,
0,
0,
0,
0,
0,
0,
0,
0,
0,
0,
0,
0,
0,
0,
0,
0,
0,
0,
0,
0,
0,
0,
0,
0,
0,
0,
0,
0,
0,
0,
0,
0,
0,
0,
0,
0,
0,
0,
0,
0,
0,
0,
0,
0,
0,
0,
0,
0,
0,
0,
0,
0,
0,
0,
0,
0,
0,
0,
0,
0,
0,
0,
0,
0,
0,
0,
0,
0,
0,
0,
0,
0,
0,
0,
0,
0,
0,
0,
0,
0,
0,
0,
0,
0,
0,
0,
0,
0,
0,
0,
0,
0,
0,
0,
0,
0,
0,
0,
0,
0,
0,
0,
0,
0,
0,
0,
0,
0,
0,
0,
0,
0,
0,
0,
0,
0,
0,
0,
0,
0,
0,
0,
0,
0,
0,
0,
0,
0,
0,
0,
0,
0,
0,
0,
0,
0,
0,
0,
0,
0,
0,
0,
0,
0,
0,
0,
0,
0,
0,
0,
0,
0,
0,
0,
0,
0,
0,
0,
0,
0,
0,
0,
0,
0,
0,
0,
0,
0,
0,
0,
0,
0,
0,
0,
0,
0,
0,
0,
0,
0,
0,
0,
0,
0,
0,
0,
0,
0,
0,
0,
0,
0,
0,
0,
0,
0,
0,
0,
0,
0,
0,
0,
0,
0,
0,
0,
0,
0,
0,
0,
0,
0,
0,
0,
0,
0,
0,
0,
0,
0,
0,
0,
0,
0,
0,
0,
0,
0,
0,
0,
0,
0,
0,
0,
0,
0,
0,
0,
0,
0,
0,
0,
0,
0,
0,
0,
0,
0,
0,
0,
0,
0,
0,
0,
0,
0,
0,
0,
0,
0,
0,
0,
0,
0,
0,
0,
0,
0,
0,
0,
0,
0,
0,
0,
0,
0,
0,
0,
0,
0,
0,
0,
0,
0,
0,
0,
0,
0,
0,
0,
0,
0,
0,
0,
0,
0,
0,
0,
0,
0,
0,
0,
0,
0,
0,
0,
0,
0,
0,
0,
0,
0,
0,
0,
0,
0,
0,
0,
0,
0,
0,
0,
0,
0,
0,
0,
0,
0,
0,
0,
0,
0,
0,
0,
0,
0,
0,
0,
0,
0,
0,
0,
0,
0,
0,
0,
0,
0,
0,
0,
0,
0,
0,
0,
0,
0,
0,
0,
0,
0,
0,
0,
0,
0,
0,
0,
0,
0,
0,
0,
0,
0,
0,
0,
0,
0,
0,
0,
0,
0,
0,
0,
0,
0,
0,
0,
0,
0,
0,
0,
0,
0,
0,
0,
0,
0,
0,
0,
0,
0,
0,
0,
0,
0,
0,
0,
0,
0,
0,
0,
0,
0,
0,
#ENDOFDATA   :