File: N132962/Quantification/15 keV/Mengason MM2/MMM2 Zircon[1][4].msa
#FORMAT      : EMSA/MAS Spectral Data File
#VERSION     : 1.0
#TITLE       : MMM2 Zircon[1][all]
#DATE        : 29-SEP-2025
#TIME        : 01:06
#OWNER       : Unknown
#NPOINTS     : 4096
#NCOLUMNS    : 1
#XUNITS      : eV
#YUNITS      : counts
#DATATYPE    : Y
#XPERCHAN    : 9.99778
#OFFSET      : 1.69135
#BEAMKV      : 15
#SIGNALTYPE  : EDS
#ELEVANGLE   : 35
#AZIMANGLE   : 0
#LIVETIME    : 240.266
#REALTIME    : 257.063
#PROBECUR    : 1.21248
#TAUWIND     : 0
#TDEADLYR    : 0
#TACTLYR     : 0.045
#TALWIND     : 0.025
#CHOFFSET    : 0.0
#XLABEL      : Energy (eV)
#YLABEL      : Counts
#XPOSITION   : -13.65469
#YPOSITION   : 7.00341
#ZPOSITION   : 34.11879
#EDSDET      : SD
##SPECIMEN   : MMM2 Zircon[1][all]
##D2STDCMP   : Zircon,(O:34.9128),(Si:15.3216),(Zr:49.7657),8.0
##DET_HASH   : 12273538-fd48-a23f-0a19-f1e6fa85caef
##CALIB_HASH : 6abaa72c-aa41-8738-0be9-f592914732f3
##WORKING    : 15.0 mm
##DET_NAME   : EDAX All
##DET_MODE   : MediumLE
#SPECTRUM    :
17,
23,
7,
68,
480,
1295,
2258,
5478,
14510,
20002,
12064,
5594,
4666,
5114,
6527,
16690,
57214,
107180,
77702,
21968,
4992,
3717,
4025,
4514,
4865,
4772,
4866,
5080,
5393,
5645,
5779,
5928,
5810,
6183,
6432,
6693,
6726,
6879,
6857,
6933,
7122,
7209,
7522,
7447,
7690,
7510,
7696,
7700,
7924,
8020,
8065,
8015,
8151,
8783,
10727,
17823,
48211,
111640,
150912,
111858,
52988,
23762,
14628,
11132,
12027,
20648,
48172,
102060,
140921,
127038,
93243,
72323,
49031,
28092,
16256,
10225,
6582,
5007,
4091,
3690,
3482,
3636,
3839,
4379,
4304,
3894,
3669,
3299,
3355,
3196,
3178,
3186,
3095,
3261,
3259,
3272,
3137,
3195,
3112,
3196,
3184,
3104,
3163,
3024,
3102,
3054,
3173,
3027,
3016,
3062,
3053,
3054,
2952,
2935,
2966,
2987,
2974,
2991,
2943,
2950,
2803,
2792,
2816,
2836,
2873,
3013,
2974,
2952,
2928,
2900,
2701,
2761,
2762,
2663,
2688,
2731,
2619,
2706,
2616,
2746,
2572,
2582,
2481,
2350,
2474,
2459,
2364,
2364,
2395,
2328,
2347,
2296,
2216,
2224,
2252,
2313,
2263,
2173,
2238,
2208,
2132,
2113,
2210,
2098,
2143,
2055,
2212,
2025,
2031,
2129,
2040,
2005,
1903,
2085,
1974,
2022,
1935,
1950,
1863,
1835,
1927,
1941,
1888,
1870,
1767,
1791,
1737,
1752,
1729,
1783,
1730,
1684,
1680,
1713,
1630,
1726,
1658,
1655,
1695,
1631,
1651,
1553,
1571,
1616,
1577,
1630,
1586,
1565,
1499,
1536,
1482,
1529,
1612,
1594,
1614,
1483,
1496,
1410,
1420,
1395,
1440,
1434,
1407,
1322,
1338,
1358,
1357,
1290,
1308,
1292,
1281,
1285,
1280,
1226,
1243,
1244,
1216,
1177,
1251,
1217,
1159,
1214,
1176,
1158,
1170,
1112,
1147,
1135,
1072,
1133,
1193,
1113,
1077,
1040,
1032,
986,
1024,
1018,
1074,
1030,
1041,
1147,
1110,
1091,
1083,
1033,
981,
1024,
945,
930,
931,
966,
924,
881,
903,
936,
907,
891,
800,
909,
882,
831,
876,
853,
838,
835,
853,
831,
786,
830,
745,
765,
751,
724,
782,
760,
714,
759,
814,
804,
759,
754,
721,
762,
668,
695,
663,
623,
681,
699,
655,
680,
684,
632,
638,
623,
633,
615,
621,
608,
600,
585,
554,
649,
595,
526,
585,
562,
576,
559,
595,
592,
546,
529,
481,
549,
509,
526,
499,
489,
486,
451,
448,
496,
453,
441,
482,
463,
490,
471,
469,
484,
415,
435,
456,
397,
447,
430,
413,
443,
403,
408,
356,
379,
400,
381,
375,
372,
357,
369,
380,
364,
351,
333,
333,
332,
320,
302,
316,
324,
312,
323,
345,
327,
339,
315,
307,
304,
279,
265,
301,
268,
297,
259,
293,
243,
257,
240,
244,
253,
248,
249,
225,
231,
225,
216,
239,
213,
191,
216,
190,
172,
182,
207,
178,
197,
180,
217,
165,
206,
186,
152,
165,
167,
167,
173,
159,
143,
146,
167,
160,
135,
160,
124,
114,
141,
121,
131,
121,
143,
118,
116,
91,
101,
111,
100,
109,
107,
104,
96,
97,
102,
81,
82,
77,
88,
85,
76,
79,
84,
73,
57,
79,
66,
61,
61,
55,
62,
49,
49,
54,
48,
47,
52,
44,
44,
33,
46,
40,
32,
31,
25,
29,
30,
40,
31,
24,
20,
18,
20,
16,
13,
18,
13,
7,
6,
9,
8,
3,
0,
4,
1,
1,
1,
1,
0,
2,
1,
1,
0,
0,
1,
0,
0,
1,
1,
0,
1,
2,
1,
1,
1,
0,
1,
2,
2,
0,
2,
1,
0,
0,
3,
0,
0,
0,
1,
2,
1,
0,
2,
0,
1,
0,
1,
0,
0,
0,
0,
1,
1,
0,
0,
1,
1,
1,
0,
1,
0,
1,
0,
1,
0,
1,
0,
1,
0,
0,
0,
2,
0,
1,
0,
1,
1,
0,
0,
1,
1,
1,
0,
0,
0,
0,
0,
0,
0,
0,
0,
2,
0,
0,
0,
1,
0,
0,
0,
0,
0,
1,
0,
1,
1,
1,
0,
1,
0,
1,
0,
0,
0,
0,
0,
0,
0,
0,
0,
0,
0,
0,
0,
0,
0,
0,
1,
0,
0,
0,
0,
0,
0,
0,
0,
1,
0,
0,
0,
1,
0,
0,
1,
1,
0,
0,
0,
0,
0,
0,
0,
1,
0,
0,
0,
0,
0,
0,
0,
1,
0,
0,
0,
0,
0,
0,
1,
0,
0,
0,
0,
0,
0,
0,
0,
0,
0,
0,
0,
0,
0,
0,
0,
0,
0,
0,
0,
1,
0,
0,
0,
0,
0,
0,
0,
0,
0,
0,
0,
0,
0,
1,
0,
0,
1,
0,
0,
0,
0,
0,
0,
1,
0,
0,
0,
0,
0,
2,
0,
0,
0,
1,
0,
0,
0,
0,
0,
0,
0,
0,
0,
0,
0,
0,
0,
0,
0,
0,
0,
0,
0,
0,
0,
0,
0,
0,
0,
0,
0,
0,
0,
0,
0,
0,
0,
0,
0,
0,
0,
0,
0,
0,
0,
0,
0,
0,
0,
0,
0,
0,
0,
0,
0,
0,
0,
0,
0,
0,
0,
1,
0,
0,
0,
0,
0,
0,
0,
0,
0,
0,
0,
0,
0,
0,
0,
0,
0,
0,
0,
0,
0,
0,
0,
0,
0,
0,
0,
0,
0,
0,
0,
0,
0,
0,
0,
0,
0,
0,
0,
0,
0,
0,
0,
0,
0,
0,
0,
0,
0,
0,
0,
0,
0,
0,
0,
0,
0,
0,
0,
0,
0,
0,
0,
0,
0,
0,
0,
0,
0,
0,
0,
0,
0,
0,
0,
0,
0,
0,
0,
0,
0,
0,
0,
0,
0,
0,
0,
0,
0,
0,
0,
0,
0,
0,
0,
0,
0,
0,
0,
0,
0,
0,
0,
0,
0,
0,
0,
0,
0,
0,
0,
0,
0,
0,
0,
0,
0,
0,
0,
0,
0,
0,
0,
0,
0,
0,
0,
0,
0,
0,
0,
0,
0,
0,
0,
0,
0,
0,
0,
0,
0,
0,
0,
0,
0,
0,
0,
0,
0,
0,
0,
0,
0,
0,
0,
0,
0,
0,
0,
0,
0,
0,
0,
0,
0,
0,
0,
0,
0,
0,
0,
0,
0,
0,
0,
0,
0,
0,
0,
0,
0,
0,
0,
0,
0,
0,
0,
0,
0,
0,
0,
0,
0,
0,
0,
0,
0,
0,
0,
0,
0,
0,
0,
0,
0,
0,
0,
0,
0,
0,
0,
0,
0,
0,
0,
0,
0,
0,
0,
0,
0,
0,
0,
0,
0,
0,
0,
0,
0,
0,
0,
0,
0,
0,
0,
0,
0,
0,
0,
0,
0,
0,
0,
0,
0,
0,
0,
0,
0,
0,
0,
0,
0,
0,
0,
0,
0,
0,
0,
0,
0,
0,
0,
0,
0,
0,
0,
0,
0,
0,
0,
0,
0,
0,
0,
0,
0,
0,
0,
0,
0,
0,
0,
0,
0,
0,
0,
0,
0,
0,
0,
0,
0,
0,
0,
0,
0,
0,
0,
0,
0,
0,
0,
0,
0,
0,
0,
0,
0,
0,
0,
0,
0,
0,
0,
0,
0,
0,
0,
0,
0,
0,
0,
0,
0,
0,
0,
0,
0,
0,
0,
0,
0,
0,
0,
0,
0,
0,
0,
0,
0,
0,
0,
0,
0,
0,
0,
0,
0,
0,
0,
0,
0,
0,
0,
0,
0,
0,
0,
0,
0,
0,
0,
0,
0,
0,
0,
0,
0,
0,
0,
0,
0,
0,
0,
0,
0,
0,
0,
0,
0,
0,
0,
0,
0,
0,
0,
0,
0,
0,
0,
0,
0,
0,
0,
0,
0,
0,
0,
0,
0,
0,
0,
0,
0,
0,
0,
0,
0,
0,
0,
0,
0,
0,
0,
0,
0,
0,
0,
0,
0,
0,
0,
0,
0,
0,
0,
0,
0,
0,
0,
0,
0,
0,
0,
0,
0,
0,
0,
0,
0,
0,
0,
0,
0,
0,
0,
0,
0,
0,
0,
0,
0,
0,
0,
0,
0,
0,
0,
0,
0,
0,
0,
0,
0,
0,
0,
0,
0,
0,
0,
0,
0,
0,
0,
0,
0,
0,
0,
0,
0,
0,
0,
0,
0,
0,
0,
0,
0,
0,
0,
0,
0,
0,
0,
0,
0,
0,
0,
0,
0,
0,
0,
0,
0,
0,
0,
0,
0,
0,
0,
0,
0,
0,
0,
0,
0,
0,
0,
0,
0,
0,
0,
0,
0,
0,
0,
0,
0,
0,
0,
0,
0,
0,
0,
0,
0,
0,
0,
0,
0,
0,
0,
0,
0,
0,
0,
0,
0,
0,
0,
0,
0,
0,
0,
0,
0,
0,
0,
0,
0,
0,
0,
0,
0,
0,
0,
0,
0,
0,
0,
0,
0,
0,
0,
0,
0,
0,
0,
0,
0,
0,
0,
0,
0,
0,
0,
0,
0,
#ENDOFDATA   :