File: N132962/Quantification/15 keV/Mengason MM2/MMM2 C[7][4].msa
#FORMAT      : EMSA/MAS Spectral Data File
#VERSION     : 1.0
#TITLE       : MMM2 C[7][all]
#DATE        : 29-SEP-2025
#TIME        : 00:01
#OWNER       : Unknown
#NPOINTS     : 4096
#NCOLUMNS    : 1
#XUNITS      : eV
#YUNITS      : counts
#DATATYPE    : Y
#XPERCHAN    : 9.99778
#OFFSET      : 1.69135
#BEAMKV      : 15
#SIGNALTYPE  : EDS
#ELEVANGLE   : 35
#AZIMANGLE   : 0
#LIVETIME    : 240.472
#REALTIME    : 253.803
#PROBECUR    : 1.21151
#TAUWIND     : 0
#TDEADLYR    : 0
#TACTLYR     : 0.045
#TALWIND     : 0.025
#CHOFFSET    : 0.0
#XLABEL      : Energy (eV)
#YLABEL      : Counts
#XPOSITION   : -8.79701
#YPOSITION   : 3.09878
#ZPOSITION   : 34.11879
#EDSDET      : SD
##SPECIMEN   : MMM2 C[7][all]
##D2STDCMP   : C,(C:100.0)
##DET_HASH   : 12273538-fd48-a23f-0a19-f1e6fa85caef
##CALIB_HASH : 6abaa72c-aa41-8738-0be9-f592914732f3
##WORKING    : 15.0 mm
##DET_NAME   : EDAX All
##DET_MODE   : MediumLE
#SPECTRUM    :
24,
20,
19,
75,
447,
2571,
17360,
132665,
506060,
659472,
264403,
33484,
2204,
822,
891,
1233,
2712,
5249,
5290,
2611,
1553,
1475,
1511,
1767,
1844,
1896,
2012,
2086,
2198,
2303,
2385,
2479,
2569,
2540,
2648,
2670,
2797,
2790,
2793,
2845,
2749,
2763,
2821,
2841,
2754,
2740,
2734,
2781,
2833,
2684,
2697,
2603,
2583,
2511,
2522,
2459,
2502,
2466,
2496,
2482,
2449,
2261,
2138,
2001,
1897,
1869,
1819,
1814,
1760,
1698,
1754,
1636,
1715,
1548,
1638,
1554,
1644,
1604,
1469,
1510,
1471,
1443,
1390,
1361,
1302,
1354,
1305,
1292,
1276,
1288,
1249,
1211,
1206,
1155,
1202,
1243,
1128,
1102,
1098,
1083,
1095,
1047,
1054,
1007,
1041,
996,
1029,
984,
911,
994,
960,
921,
922,
895,
877,
888,
879,
860,
810,
819,
865,
872,
791,
860,
777,
778,
771,
802,
744,
777,
725,
734,
697,
710,
677,
711,
734,
677,
591,
623,
612,
615,
651,
632,
593,
571,
599,
642,
624,
610,
560,
549,
589,
577,
581,
507,
539,
528,
511,
524,
538,
575,
516,
501,
480,
493,
505,
511,
454,
433,
495,
437,
485,
457,
418,
428,
435,
439,
433,
428,
436,
449,
440,
424,
391,
397,
376,
420,
390,
376,
374,
362,
378,
404,
383,
400,
361,
351,
320,
340,
346,
364,
341,
334,
316,
319,
323,
339,
332,
348,
324,
333,
334,
349,
316,
330,
323,
285,
309,
276,
271,
303,
300,
248,
260,
254,
250,
240,
276,
240,
259,
241,
236,
238,
224,
232,
237,
249,
216,
233,
209,
244,
237,
234,
249,
215,
198,
236,
233,
245,
211,
208,
219,
218,
217,
218,
237,
180,
195,
194,
182,
190,
213,
201,
167,
174,
168,
168,
167,
183,
168,
166,
175,
165,
143,
148,
145,
148,
149,
140,
154,
153,
138,
122,
178,
153,
127,
135,
126,
137,
122,
132,
129,
147,
122,
139,
139,
114,
135,
127,
129,
134,
110,
129,
129,
130,
96,
136,
110,
113,
107,
120,
97,
115,
104,
112,
90,
115,
105,
94,
99,
123,
108,
90,
97,
90,
112,
105,
98,
96,
95,
87,
90,
60,
79,
99,
94,
78,
93,
81,
88,
76,
79,
66,
72,
75,
94,
60,
63,
71,
68,
60,
59,
50,
90,
55,
68,
62,
60,
55,
54,
58,
56,
57,
55,
69,
55,
49,
37,
51,
48,
51,
76,
52,
51,
46,
41,
53,
56,
42,
38,
52,
41,
56,
48,
46,
44,
45,
42,
33,
41,
55,
39,
33,
45,
52,
34,
41,
21,
23,
29,
32,
28,
25,
32,
33,
31,
36,
40,
45,
23,
27,
26,
32,
25,
28,
26,
26,
36,
21,
32,
23,
27,
29,
19,
29,
25,
13,
21,
16,
18,
17,
17,
25,
15,
13,
23,
16,
16,
18,
11,
20,
7,
15,
16,
10,
15,
11,
8,
14,
9,
14,
12,
13,
9,
13,
11,
12,
7,
6,
10,
7,
4,
4,
7,
12,
8,
6,
5,
9,
6,
7,
5,
7,
4,
6,
3,
3,
4,
2,
4,
6,
6,
2,
4,
2,
3,
4,
4,
1,
2,
2,
1,
2,
0,
2,
0,
0,
1,
0,
0,
0,
1,
1,
0,
0,
0,
0,
0,
0,
0,
0,
0,
0,
0,
0,
0,
0,
0,
0,
0,
0,
0,
0,
0,
0,
1,
0,
0,
0,
0,
0,
0,
0,
0,
0,
0,
0,
0,
0,
0,
0,
0,
0,
0,
0,
0,
0,
0,
0,
0,
0,
0,
0,
0,
0,
0,
0,
0,
0,
0,
0,
0,
0,
0,
0,
0,
0,
0,
0,
0,
0,
0,
0,
0,
0,
0,
0,
0,
0,
0,
0,
0,
0,
0,
0,
0,
0,
0,
0,
0,
0,
0,
0,
0,
0,
0,
0,
0,
0,
0,
0,
0,
0,
0,
0,
0,
0,
0,
0,
0,
0,
0,
0,
1,
0,
0,
0,
0,
0,
0,
0,
0,
0,
0,
0,
0,
0,
0,
0,
0,
0,
0,
0,
0,
0,
0,
0,
0,
0,
0,
0,
0,
0,
0,
0,
0,
0,
0,
0,
0,
0,
0,
0,
0,
0,
0,
0,
0,
0,
0,
0,
0,
0,
0,
0,
0,
0,
0,
0,
0,
0,
0,
0,
0,
0,
0,
0,
0,
0,
0,
0,
0,
0,
0,
0,
0,
0,
0,
0,
0,
0,
0,
0,
0,
0,
0,
0,
0,
0,
0,
0,
0,
0,
0,
0,
0,
0,
0,
0,
0,
0,
0,
0,
0,
0,
0,
0,
0,
0,
0,
0,
0,
0,
0,
0,
0,
0,
0,
0,
0,
0,
0,
0,
0,
0,
0,
0,
0,
0,
0,
0,
0,
0,
0,
0,
0,
0,
0,
0,
0,
0,
0,
0,
0,
0,
0,
0,
0,
0,
0,
0,
0,
0,
0,
0,
0,
0,
0,
0,
0,
0,
0,
0,
0,
0,
0,
0,
0,
0,
0,
0,
0,
0,
0,
0,
0,
0,
0,
0,
0,
0,
0,
0,
0,
0,
0,
0,
0,
0,
0,
0,
0,
0,
0,
0,
0,
0,
0,
0,
0,
0,
0,
0,
0,
0,
0,
0,
0,
0,
0,
0,
0,
0,
0,
0,
0,
0,
0,
0,
0,
0,
0,
0,
0,
0,
0,
0,
0,
0,
0,
0,
0,
0,
0,
0,
0,
0,
0,
0,
0,
0,
0,
0,
0,
0,
0,
0,
0,
0,
0,
0,
0,
0,
0,
0,
0,
0,
0,
0,
0,
0,
0,
0,
0,
0,
0,
0,
0,
0,
0,
0,
0,
0,
0,
0,
0,
0,
0,
0,
0,
0,
0,
0,
0,
0,
0,
0,
0,
0,
0,
0,
0,
0,
0,
0,
0,
0,
0,
0,
0,
0,
0,
0,
0,
0,
0,
0,
0,
0,
0,
0,
0,
0,
0,
0,
0,
0,
0,
0,
0,
0,
0,
0,
0,
0,
0,
0,
0,
0,
0,
0,
0,
0,
0,
0,
0,
0,
0,
0,
0,
0,
0,
0,
0,
0,
0,
0,
0,
0,
0,
0,
0,
0,
0,
0,
0,
0,
0,
0,
0,
0,
0,
0,
0,
0,
0,
0,
0,
0,
0,
0,
0,
0,
0,
0,
0,
0,
0,
0,
0,
0,
0,
0,
0,
0,
0,
0,
0,
0,
0,
0,
0,
0,
0,
0,
0,
0,
0,
0,
0,
0,
0,
0,
0,
0,
0,
0,
0,
0,
0,
0,
0,
0,
0,
0,
0,
0,
0,
0,
0,
0,
0,
0,
0,
0,
0,
0,
0,
0,
0,
0,
0,
0,
0,
0,
0,
0,
0,
0,
0,
0,
0,
0,
0,
0,
0,
0,
0,
0,
0,
0,
0,
0,
0,
0,
0,
0,
0,
0,
0,
0,
0,
0,
0,
0,
0,
0,
0,
0,
0,
0,
0,
0,
0,
0,
0,
0,
0,
0,
0,
0,
0,
0,
0,
0,
0,
0,
0,
0,
0,
0,
0,
0,
0,
0,
0,
0,
0,
0,
0,
0,
0,
0,
0,
0,
0,
0,
0,
0,
0,
0,
0,
0,
0,
0,
0,
0,
0,
0,
0,
0,
0,
0,
0,
0,
0,
0,
0,
0,
0,
0,
0,
0,
0,
0,
0,
0,
0,
0,
0,
0,
0,
0,
0,
0,
0,
0,
0,
0,
0,
0,
0,
0,
0,
0,
0,
0,
0,
0,
0,
0,
0,
0,
0,
0,
0,
0,
0,
0,
0,
0,
0,
0,
0,
0,
0,
0,
0,
0,
0,
0,
0,
0,
0,
0,
0,
0,
0,
0,
0,
0,
0,
0,
0,
0,
0,
0,
0,
0,
0,
0,
0,
0,
0,
0,
0,
0,
0,
0,
0,
0,
0,
0,
0,
0,
0,
0,
0,
0,
0,
0,
0,
0,
0,
0,
0,
0,
0,
0,
0,
0,
0,
0,
0,
0,
0,
0,
0,
0,
0,
0,
0,
0,
0,
0,
0,
0,
0,
0,
0,
0,
0,
0,
0,
0,
0,
0,
0,
0,
0,
0,
0,
0,
0,
0,
0,
0,
0,
0,
0,
0,
0,
0,
0,
0,
0,
0,
0,
0,
0,
0,
0,
0,
0,
0,
0,
0,
0,
0,
0,
0,
0,
0,
0,
0,
0,
0,
0,
0,
0,
0,
0,
0,
0,
0,
0,
0,
0,
0,
0,
0,
0,
0,
0,
0,
0,
0,
0,
0,
0,
0,
0,
0,
0,
0,
0,
0,
0,
0,
0,
0,
0,
0,
0,
0,
0,
0,
0,
0,
0,
0,
0,
0,
0,
0,
0,
0,
0,
0,
0,
0,
0,
0,
0,
0,
#ENDOFDATA   :