File: N132962/Quantification/15 keV/Mengason MM2/MMM2 Scheelite[4][4].msa
#FORMAT      : EMSA/MAS Spectral Data File
#VERSION     : 1.0
#TITLE       : MMM2 Scheelite[4][all]
#DATE        : 29-SEP-2025
#TIME        : 00:28
#OWNER       : Unknown
#NPOINTS     : 4096
#NCOLUMNS    : 1
#XUNITS      : eV
#YUNITS      : counts
#DATATYPE    : Y
#XPERCHAN    : 9.99778
#OFFSET      : 1.69135
#BEAMKV      : 15
#SIGNALTYPE  : EDS
#ELEVANGLE   : 35
#AZIMANGLE   : 0
#LIVETIME    : 240.243
#REALTIME    : 260.591
#PROBECUR    : 1.21186
#TAUWIND     : 0
#TDEADLYR    : 0
#TACTLYR     : 0.045
#TALWIND     : 0.025
#CHOFFSET    : 0.0
#XLABEL      : Energy (eV)
#YLABEL      : Counts
#XPOSITION   : -17.47639
#YPOSITION   : 4.44086
#ZPOSITION   : 34.11879
#EDSDET      : SD
##SPECIMEN   : MMM2 Scheelite[4][all]
##DET_HASH   : 12273538-fd48-a23f-0a19-f1e6fa85caef
##CALIB_HASH : 6abaa72c-aa41-8738-0be9-f592914732f3
##WORKING    : 15.0 mm
##DET_NAME   : EDAX All
##DET_MODE   : MediumLE
#SPECTRUM    :
35,
30,
15,
42,
242,
1149,
3597,
9355,
20483,
25765,
15811,
8412,
6086,
5599,
6777,
14368,
42427,
76737,
57312,
18028,
6365,
5420,
6003,
6492,
6770,
6730,
7138,
7422,
7814,
7843,
7971,
8128,
8204,
8656,
8673,
8799,
9042,
9204,
9259,
9526,
9609,
9963,
10048,
10718,
13575,
20098,
24309,
20232,
14489,
11763,
10898,
10484,
10471,
10665,
11168,
13506,
21185,
54689,
136350,
215099,
210909,
151299,
85317,
34650,
12616,
7746,
8453,
10176,
10247,
8547,
6687,
5871,
5623,
5615,
5918,
6126,
6533,
6999,
6858,
6059,
5656,
5455,
5291,
5189,
5044,
5054,
4974,
5039,
4970,
5003,
5049,
5064,
5103,
5023,
5067,
4989,
5025,
5069,
4945,
4953,
4825,
4857,
4944,
5002,
4878,
4887,
4741,
4887,
4699,
4816,
4805,
4668,
4721,
4728,
4756,
4771,
4797,
4999,
5717,
7039,
12191,
24756,
41959,
51964,
44429,
26349,
12738,
6440,
4995,
4686,
4887,
5701,
7669,
9378,
10111,
8745,
6531,
4895,
4213,
4042,
4042,
4040,
4011,
3885,
3876,
3856,
3845,
3687,
3840,
3740,
3835,
3737,
3777,
3761,
3672,
3638,
3607,
3616,
3535,
3514,
3522,
3529,
3500,
3509,
3572,
3464,
3387,
3438,
3493,
3432,
3386,
3335,
3221,
3253,
3295,
3287,
3429,
3185,
3245,
3190,
3224,
3228,
3268,
3366,
3222,
3147,
3121,
2967,
3011,
3052,
3011,
2935,
3011,
2898,
2946,
2936,
2862,
2905,
2909,
2926,
2830,
2875,
2760,
2755,
2654,
2735,
2685,
2669,
2704,
2626,
2623,
2769,
2719,
2738,
2637,
2719,
2573,
2550,
2477,
2521,
2420,
2417,
2500,
2405,
2400,
2458,
2388,
2411,
2298,
2344,
2296,
2265,
2144,
2196,
2213,
2203,
2197,
2239,
2257,
2172,
2154,
2182,
2188,
2293,
2411,
2498,
2602,
2452,
2438,
2225,
2140,
2065,
2064,
1918,
1947,
2001,
2007,
1979,
1940,
1875,
1843,
1868,
1832,
1919,
1831,
1832,
1800,
1763,
1784,
1809,
1750,
1718,
1808,
1913,
2251,
3056,
4429,
6552,
9244,
10932,
11126,
9740,
6867,
4657,
2996,
2181,
1755,
1586,
1613,
1601,
1616,
1522,
1474,
1497,
1521,
1405,
1416,
1461,
1448,
1315,
1334,
1355,
1348,
1382,
1294,
1318,
1341,
1285,
1304,
1283,
1312,
1280,
1343,
1304,
1284,
1365,
1496,
1622,
1947,
2412,
2954,
3474,
3659,
3484,
3029,
2545,
2166,
1881,
1948,
2176,
2503,
2846,
2736,
2487,
2156,
1698,
1353,
1263,
1096,
1030,
1010,
999,
967,
965,
989,
925,
924,
911,
913,
886,
897,
910,
864,
902,
844,
854,
856,
820,
829,
821,
788,
811,
778,
815,
861,
789,
753,
751,
753,
778,
750,
827,
832,
886,
1008,
1090,
1115,
1081,
961,
920,
769,
686,
713,
631,
678,
733,
667,
691,
684,
691,
635,
626,
590,
575,
603,
535,
545,
548,
534,
507,
563,
464,
508,
500,
553,
503,
472,
475,
453,
472,
470,
443,
450,
396,
395,
430,
401,
382,
391,
402,
366,
402,
373,
368,
362,
350,
353,
329,
336,
311,
339,
328,
297,
317,
327,
311,
282,
312,
308,
276,
278,
285,
243,
304,
286,
230,
237,
269,
216,
224,
215,
223,
230,
209,
196,
189,
187,
213,
212,
188,
178,
161,
155,
168,
171,
134,
139,
158,
149,
136,
122,
133,
124,
108,
105,
110,
89,
94,
105,
67,
67,
73,
83,
69,
68,
74,
52,
50,
39,
49,
34,
44,
33,
32,
22,
28,
18,
9,
9,
9,
10,
5,
6,
8,
5,
3,
6,
2,
1,
2,
3,
3,
6,
3,
2,
0,
4,
3,
3,
7,
3,
3,
2,
4,
5,
4,
4,
0,
0,
3,
3,
0,
1,
1,
3,
1,
2,
3,
4,
0,
2,
3,
0,
1,
2,
1,
4,
1,
6,
2,
3,
1,
2,
3,
3,
0,
2,
4,
1,
1,
1,
1,
3,
5,
3,
5,
2,
3,
2,
3,
3,
4,
1,
5,
1,
2,
1,
2,
2,
0,
3,
6,
2,
1,
5,
1,
3,
1,
1,
1,
4,
3,
2,
0,
1,
0,
1,
1,
2,
1,
4,
3,
0,
3,
1,
1,
0,
0,
0,
0,
1,
1,
2,
3,
4,
1,
0,
1,
1,
2,
0,
1,
1,
1,
1,
4,
1,
1,
1,
1,
1,
1,
2,
0,
0,
0,
0,
0,
1,
3,
2,
2,
1,
0,
3,
0,
0,
0,
0,
0,
0,
0,
1,
1,
0,
1,
1,
1,
1,
3,
1,
1,
0,
1,
1,
1,
0,
0,
0,
0,
0,
1,
0,
0,
0,
0,
1,
0,
0,
1,
0,
1,
0,
1,
1,
2,
1,
1,
0,
0,
0,
1,
0,
0,
1,
0,
0,
0,
0,
1,
0,
0,
1,
0,
0,
0,
0,
1,
0,
1,
0,
1,
0,
0,
0,
0,
0,
0,
0,
0,
0,
1,
0,
0,
0,
0,
0,
1,
1,
1,
0,
1,
1,
0,
0,
0,
1,
0,
0,
1,
0,
0,
0,
1,
0,
0,
0,
0,
1,
0,
0,
0,
0,
0,
0,
0,
1,
0,
0,
1,
0,
0,
0,
0,
0,
0,
0,
0,
0,
0,
0,
0,
0,
0,
0,
0,
0,
0,
0,
0,
0,
0,
0,
0,
0,
0,
0,
0,
0,
0,
0,
0,
0,
0,
0,
0,
0,
0,
0,
0,
0,
0,
0,
0,
0,
0,
0,
0,
0,
0,
0,
0,
0,
0,
0,
0,
0,
0,
0,
0,
0,
0,
0,
0,
0,
0,
0,
0,
0,
0,
0,
0,
0,
0,
0,
0,
0,
0,
0,
0,
0,
0,
0,
0,
0,
0,
0,
0,
0,
0,
0,
0,
0,
0,
0,
0,
0,
0,
0,
0,
0,
0,
0,
0,
0,
0,
0,
0,
0,
0,
0,
0,
0,
1,
0,
0,
0,
0,
0,
0,
0,
0,
0,
0,
0,
0,
0,
0,
0,
0,
0,
0,
0,
0,
0,
0,
0,
0,
0,
0,
0,
0,
0,
0,
0,
0,
0,
0,
0,
0,
0,
0,
0,
0,
0,
0,
0,
0,
0,
0,
0,
0,
0,
0,
0,
0,
0,
0,
0,
0,
0,
0,
0,
0,
0,
0,
0,
0,
0,
0,
0,
0,
0,
0,
0,
0,
0,
0,
0,
0,
0,
0,
0,
0,
0,
0,
0,
0,
0,
0,
0,
0,
0,
0,
0,
0,
0,
0,
0,
0,
0,
0,
0,
0,
0,
0,
0,
0,
0,
0,
0,
0,
0,
0,
0,
0,
0,
0,
0,
0,
0,
0,
0,
0,
0,
0,
0,
0,
0,
0,
0,
0,
0,
0,
0,
0,
0,
0,
0,
0,
0,
0,
0,
0,
0,
0,
0,
0,
0,
0,
0,
0,
0,
0,
0,
0,
0,
0,
0,
0,
0,
0,
0,
0,
0,
0,
0,
0,
0,
0,
0,
0,
0,
0,
0,
0,
0,
0,
0,
0,
0,
0,
0,
0,
0,
0,
0,
0,
0,
0,
0,
0,
0,
0,
0,
0,
0,
0,
0,
0,
0,
0,
0,
0,
0,
0,
0,
0,
0,
0,
0,
0,
0,
0,
0,
0,
0,
0,
0,
0,
0,
0,
0,
0,
0,
0,
0,
0,
0,
0,
0,
0,
0,
0,
0,
0,
0,
0,
0,
0,
0,
0,
0,
0,
0,
0,
0,
0,
0,
0,
0,
0,
0,
0,
0,
0,
0,
0,
0,
0,
0,
0,
0,
0,
0,
0,
0,
0,
0,
0,
0,
0,
0,
0,
0,
0,
0,
0,
0,
0,
0,
0,
0,
0,
0,
0,
0,
0,
0,
0,
0,
0,
0,
0,
0,
0,
0,
0,
0,
0,
0,
0,
0,
0,
0,
0,
0,
0,
0,
0,
0,
0,
0,
0,
0,
0,
0,
0,
0,
0,
0,
0,
0,
0,
0,
0,
0,
0,
0,
0,
0,
0,
0,
0,
0,
0,
0,
0,
0,
0,
0,
0,
0,
0,
0,
0,
0,
0,
0,
0,
0,
0,
0,
0,
0,
0,
0,
0,
0,
0,
0,
0,
0,
0,
0,
0,
0,
0,
0,
0,
0,
0,
0,
0,
0,
0,
0,
0,
0,
0,
0,
0,
0,
0,
0,
0,
0,
0,
0,
0,
0,
0,
0,
0,
0,
0,
0,
0,
0,
0,
0,
0,
0,
0,
0,
0,
0,
0,
0,
0,
0,
0,
0,
0,
0,
0,
0,
0,
0,
0,
0,
0,
0,
0,
0,
0,
0,
0,
0,
0,
0,
0,
0,
0,
0,
0,
0,
0,
0,
0,
0,
0,
0,
0,
0,
0,
0,
0,
0,
0,
0,
0,
0,
0,
0,
0,
0,
0,
0,
0,
0,
0,
0,
0,
0,
0,
0,
0,
0,
0,
0,
0,
0,
0,
0,
0,
0,
0,
0,
0,
0,
0,
0,
0,
0,
0,
0,
0,
0,
0,
0,
0,
0,
0,
0,
0,
#ENDOFDATA   :