File: N132962/Quantification/15 keV/Mengason MM2/MMM2 Rhodonite[7][4].msa
#FORMAT      : EMSA/MAS Spectral Data File
#VERSION     : 1.0
#TITLE       : MMM2 Rhodonite[7][all]
#DATE        : 28-SEP-2025
#TIME        : 23:29
#OWNER       : Unknown
#NPOINTS     : 4096
#NCOLUMNS    : 1
#XUNITS      : eV
#YUNITS      : counts
#DATATYPE    : Y
#XPERCHAN    : 9.99778
#OFFSET      : 1.69135
#BEAMKV      : 15
#SIGNALTYPE  : EDS
#ELEVANGLE   : 35
#AZIMANGLE   : 0
#LIVETIME    : 240.251
#REALTIME    : 256.1
#PROBECUR    : 1.21079
#TAUWIND     : 0
#TDEADLYR    : 0
#TACTLYR     : 0.045
#TALWIND     : 0.025
#CHOFFSET    : 0.0
#XLABEL      : Energy (eV)
#YLABEL      : Counts
#XPOSITION   : -16.67437
#YPOSITION   : 1.7981
#ZPOSITION   : 34.11879
#EDSDET      : SD
##SPECIMEN   : MMM2 Rhodonite[7][all]
##DET_HASH   : 12273538-fd48-a23f-0a19-f1e6fa85caef
##CALIB_HASH : 6abaa72c-aa41-8738-0be9-f592914732f3
##WORKING    : 15.0 mm
##DET_NAME   : EDAX All
##DET_MODE   : MediumLE
#SPECTRUM    :
25,
30,
7,
20,
104,
502,
1400,
4529,
12631,
16442,
9227,
5318,
5213,
6318,
10653,
35095,
127752,
241650,
178015,
52747,
20112,
24176,
19134,
10461,
6756,
4351,
3167,
3087,
3248,
3388,
3346,
3517,
3793,
3997,
4430,
4335,
4347,
4532,
4705,
5012,
7049,
10932,
12189,
8933,
5896,
5041,
5002,
5137,
5250,
5370,
5517,
5611,
5718,
5638,
6720,
14757,
52408,
131657,
177664,
125915,
51763,
18572,
9205,
5498,
3924,
3643,
3554,
3356,
3387,
3386,
3401,
3418,
3392,
3437,
3730,
3853,
3948,
3536,
3356,
3263,
3221,
3177,
3177,
3099,
3219,
3036,
3057,
2958,
3119,
2950,
2867,
2964,
2889,
2888,
2804,
2836,
2704,
2749,
2742,
2747,
2766,
2750,
2695,
2657,
2604,
2624,
2547,
2579,
2528,
2561,
2583,
2507,
2453,
2412,
2510,
2457,
2621,
2537,
2552,
2829,
4020,
7041,
11051,
13362,
11696,
7351,
4142,
2632,
2201,
2151,
2167,
2354,
2698,
3228,
3510,
3068,
2591,
2214,
2157,
2001,
2019,
1933,
1854,
1748,
1727,
1786,
1752,
1745,
1809,
1744,
1669,
1761,
1681,
1659,
1600,
1661,
1552,
1688,
1545,
1548,
1601,
1533,
1601,
1486,
1482,
1461,
1446,
1412,
1405,
1448,
1397,
1456,
1387,
1431,
1391,
1412,
1361,
1386,
1419,
1345,
1301,
1410,
1319,
1314,
1278,
1286,
1285,
1357,
1316,
1329,
1544,
1894,
3621,
8482,
17763,
31022,
40219,
39662,
30065,
16899,
7637,
3269,
1681,
1240,
1107,
1111,
1176,
1170,
1227,
1472,
2023,
3085,
4566,
6009,
7132,
7563,
7265,
6093,
4471,
2892,
1712,
1112,
978,
902,
925,
834,
864,
806,
867,
879,
855,
985,
939,
1040,
1191,
1169,
1155,
1052,
961,
792,
781,
786,
747,
729,
759,
706,
710,
762,
705,
709,
729,
760,
738,
722,
763,
780,
704,
668,
687,
668,
652,
636,
610,
660,
599,
636,
585,
574,
573,
578,
610,
581,
603,
596,
582,
557,
625,
565,
533,
503,
538,
489,
558,
496,
521,
529,
558,
522,
506,
520,
488,
475,
486,
494,
445,
439,
506,
495,
441,
454,
465,
456,
403,
418,
441,
399,
403,
426,
444,
442,
422,
432,
399,
410,
419,
406,
384,
412,
385,
390,
411,
396,
393,
377,
344,
349,
334,
371,
394,
319,
325,
347,
339,
359,
334,
328,
313,
325,
332,
317,
298,
338,
282,
286,
321,
304,
268,
288,
271,
303,
272,
291,
257,
263,
277,
249,
252,
253,
249,
239,
247,
224,
255,
247,
242,
225,
255,
228,
245,
201,
211,
214,
219,
218,
195,
187,
210,
180,
206,
216,
209,
200,
196,
173,
177,
185,
191,
160,
169,
193,
151,
150,
158,
181,
170,
152,
149,
165,
145,
158,
151,
138,
135,
139,
122,
131,
148,
122,
133,
125,
130,
109,
109,
126,
133,
117,
118,
104,
109,
98,
109,
97,
111,
117,
82,
99,
94,
102,
88,
83,
95,
99,
75,
74,
89,
91,
73,
62,
73,
60,
65,
72,
66,
79,
48,
78,
68,
68,
66,
69,
53,
50,
55,
70,
48,
51,
45,
45,
40,
41,
36,
37,
40,
35,
41,
34,
32,
37,
33,
29,
29,
30,
30,
28,
18,
19,
17,
21,
20,
18,
24,
17,
21,
15,
18,
13,
16,
10,
10,
14,
7,
8,
8,
9,
9,
8,
1,
4,
0,
1,
1,
2,
1,
1,
2,
0,
2,
0,
1,
0,
0,
2,
0,
0,
0,
0,
0,
0,
2,
1,
1,
2,
1,
0,
0,
0,
0,
1,
0,
0,
0,
0,
0,
0,
0,
0,
1,
0,
1,
0,
0,
0,
0,
0,
0,
0,
0,
0,
0,
1,
1,
0,
0,
0,
0,
0,
1,
0,
1,
1,
0,
2,
0,
0,
0,
0,
0,
0,
0,
0,
0,
1,
1,
0,
1,
0,
0,
0,
0,
1,
1,
2,
2,
0,
3,
0,
0,
0,
0,
0,
0,
0,
1,
1,
0,
0,
0,
0,
0,
0,
1,
1,
0,
0,
0,
1,
0,
0,
0,
0,
1,
0,
0,
0,
1,
0,
0,
0,
0,
0,
0,
0,
1,
0,
0,
0,
0,
0,
0,
0,
0,
0,
0,
0,
0,
0,
0,
0,
0,
0,
0,
0,
0,
0,
0,
0,
0,
0,
0,
0,
1,
0,
0,
1,
0,
0,
0,
0,
0,
0,
0,
0,
0,
0,
0,
0,
0,
0,
0,
0,
0,
0,
1,
0,
0,
0,
0,
0,
0,
0,
0,
0,
0,
0,
0,
0,
0,
0,
0,
0,
0,
0,
0,
0,
0,
0,
0,
0,
0,
0,
0,
0,
0,
0,
0,
0,
0,
0,
0,
0,
0,
0,
0,
0,
0,
0,
0,
0,
0,
0,
0,
0,
0,
0,
0,
0,
0,
0,
0,
0,
0,
0,
0,
0,
0,
0,
0,
0,
0,
0,
0,
0,
0,
0,
0,
0,
0,
0,
0,
0,
0,
0,
0,
0,
0,
0,
0,
0,
0,
0,
0,
0,
0,
0,
0,
0,
0,
0,
0,
0,
0,
0,
0,
0,
0,
0,
0,
0,
0,
0,
0,
0,
0,
0,
0,
0,
0,
0,
0,
0,
0,
0,
0,
0,
0,
0,
0,
0,
0,
0,
0,
0,
0,
0,
0,
0,
0,
0,
0,
0,
0,
0,
0,
0,
0,
0,
0,
0,
0,
0,
0,
0,
0,
0,
0,
0,
0,
0,
0,
0,
0,
0,
0,
0,
0,
0,
0,
0,
0,
0,
0,
0,
0,
0,
0,
0,
0,
0,
0,
0,
0,
0,
0,
0,
0,
0,
0,
0,
0,
0,
0,
0,
0,
0,
0,
0,
0,
0,
0,
0,
0,
0,
0,
0,
0,
0,
0,
0,
0,
0,
0,
0,
0,
0,
0,
0,
0,
0,
0,
0,
0,
0,
0,
0,
0,
0,
0,
0,
0,
0,
0,
0,
0,
0,
0,
0,
0,
0,
0,
0,
0,
0,
0,
0,
0,
0,
0,
0,
0,
0,
0,
0,
0,
0,
0,
0,
0,
0,
0,
0,
0,
0,
0,
0,
0,
0,
0,
0,
0,
0,
0,
0,
0,
0,
0,
0,
0,
0,
0,
0,
0,
0,
0,
0,
0,
0,
0,
0,
0,
0,
0,
0,
0,
0,
0,
0,
0,
0,
0,
0,
0,
0,
0,
0,
0,
0,
0,
0,
0,
0,
0,
0,
0,
0,
0,
0,
0,
0,
0,
0,
0,
0,
0,
0,
0,
0,
0,
0,
0,
0,
0,
0,
0,
0,
0,
0,
0,
0,
0,
0,
0,
0,
0,
0,
0,
0,
0,
0,
0,
0,
0,
0,
0,
0,
0,
0,
0,
0,
0,
0,
0,
0,
0,
0,
0,
0,
0,
0,
0,
0,
0,
0,
0,
0,
0,
0,
0,
0,
0,
0,
0,
0,
0,
0,
0,
0,
0,
0,
0,
0,
0,
0,
0,
0,
0,
0,
0,
0,
0,
0,
0,
0,
0,
0,
0,
0,
0,
0,
0,
0,
0,
0,
0,
0,
0,
0,
0,
0,
0,
0,
0,
0,
0,
0,
0,
0,
0,
0,
0,
0,
0,
0,
0,
0,
0,
0,
0,
0,
0,
0,
0,
0,
0,
0,
0,
0,
0,
0,
0,
0,
0,
0,
0,
0,
0,
0,
0,
0,
0,
0,
0,
0,
0,
0,
0,
0,
0,
0,
0,
0,
0,
0,
0,
0,
0,
0,
0,
0,
0,
0,
0,
0,
0,
0,
0,
0,
0,
0,
0,
0,
0,
0,
0,
0,
0,
0,
0,
0,
0,
0,
0,
0,
0,
0,
0,
0,
0,
0,
0,
0,
0,
0,
0,
0,
0,
0,
0,
0,
0,
0,
0,
0,
0,
0,
0,
0,
0,
0,
0,
0,
0,
0,
0,
0,
0,
0,
0,
0,
0,
0,
0,
0,
0,
0,
0,
0,
0,
0,
0,
0,
0,
0,
0,
0,
0,
0,
0,
0,
0,
0,
0,
0,
0,
0,
0,
0,
0,
0,
0,
0,
0,
0,
0,
0,
0,
0,
0,
0,
0,
0,
0,
0,
0,
0,
0,
0,
0,
0,
0,
0,
0,
0,
0,
0,
0,
0,
0,
0,
0,
0,
0,
0,
0,
0,
0,
0,
0,
0,
0,
0,
0,
0,
0,
0,
0,
0,
0,
0,
0,
0,
0,
0,
0,
0,
0,
0,
0,
0,
0,
0,
0,
0,
0,
0,
0,
0,
0,
0,
0,
0,
0,
0,
0,
0,
0,
0,
0,
0,
0,
0,
0,
0,
0,
0,
0,
0,
0,
0,
0,
0,
0,
0,
0,
0,
0,
0,
0,
0,
0,
0,
0,
0,
0,
0,
0,
0,
0,
0,
0,
0,
0,
0,
0,
0,
0,
0,
0,
0,
0,
0,
0,
0,
0,
0,
0,
0,
#ENDOFDATA   :