File: N132962/Quantification/15 keV/Mengason MM2/MMM2 Pyrite[7][4].msa
#FORMAT      : EMSA/MAS Spectral Data File
#VERSION     : 1.0
#TITLE       : MMM2 Pyrite[7][all]
#DATE        : 28-SEP-2025
#TIME        : 20:54
#OWNER       : Unknown
#NPOINTS     : 4096
#NCOLUMNS    : 1
#XUNITS      : eV
#YUNITS      : counts
#DATATYPE    : Y
#XPERCHAN    : 9.99778
#OFFSET      : 1.69135
#BEAMKV      : 15
#SIGNALTYPE  : EDS
#ELEVANGLE   : 35
#AZIMANGLE   : 0
#LIVETIME    : 240.197
#REALTIME    : 259.05
#PROBECUR    : 1.21333
#TAUWIND     : 0
#TDEADLYR    : 0
#TACTLYR     : 0.045
#TALWIND     : 0.025
#CHOFFSET    : 0.0
#XLABEL      : Energy (eV)
#YLABEL      : Counts
#XPOSITION   : -11.59591
#YPOSITION   : -4.4273
#ZPOSITION   : 34.11879
#EDSDET      : SD
##SPECIMEN   : MMM2 Pyrite[7][all]
##D2STDCMP   : Pyrite,(S:53.4528),(Fe:46.5472)
##DET_HASH   : 12273538-fd48-a23f-0a19-f1e6fa85caef
##CALIB_HASH : 6abaa72c-aa41-8738-0be9-f592914732f3
##WORKING    : 15.0 mm
##DET_NAME   : EDAX All
##DET_MODE   : MediumLE
#SPECTRUM    :
22,
18,
14,
87,
565,
1296,
1649,
4588,
13179,
16652,
8158,
3359,
2970,
3261,
3586,
4679,
5932,
8522,
13931,
21259,
26917,
29023,
47865,
83757,
69703,
26297,
8271,
5465,
4799,
4661,
4635,
4681,
4871,
5071,
5022,
5230,
5287,
5487,
5628,
5761,
5772,
5911,
6052,
6170,
6276,
6396,
6254,
6545,
6668,
6562,
6604,
6420,
6516,
6386,
6435,
6534,
6679,
7088,
7341,
7296,
7012,
6550,
6037,
5931,
5848,
5889,
5990,
6167,
6114,
6108,
6511,
7593,
10797,
19233,
46555,
127676,
260807,
326351,
235861,
101424,
34545,
23939,
26375,
22183,
12691,
6397,
4029,
3252,
3230,
3215,
3114,
3271,
3201,
3293,
3256,
3319,
3321,
3278,
3328,
3342,
3442,
3415,
3292,
3154,
3148,
3091,
2997,
3016,
3027,
2974,
2938,
2956,
2900,
2900,
2876,
2862,
2909,
2929,
2700,
2819,
2736,
2761,
2780,
2701,
2609,
2635,
2631,
2549,
2668,
2568,
2543,
2521,
2579,
2621,
2479,
2536,
2519,
2510,
2432,
2373,
2364,
2381,
2339,
2278,
2258,
2328,
2370,
2245,
2236,
2279,
2270,
2362,
2554,
2799,
2880,
2839,
2603,
2478,
2232,
2154,
2121,
2066,
1997,
2018,
1970,
1972,
1901,
2030,
1955,
1920,
1861,
1983,
1975,
1765,
1824,
1813,
1864,
1858,
1843,
1766,
1774,
1818,
1717,
1696,
1685,
1727,
1710,
1717,
1742,
1636,
1618,
1630,
1546,
1567,
1608,
1513,
1519,
1499,
1582,
1574,
1586,
1511,
1537,
1507,
1550,
1547,
1683,
1887,
2924,
5915,
13271,
25553,
40546,
48517,
45397,
32677,
18451,
8380,
3662,
1932,
1432,
1339,
1303,
1329,
1256,
1321,
1350,
1322,
1333,
1488,
1569,
2186,
3201,
4793,
6447,
7271,
6569,
5032,
3275,
1935,
1372,
1140,
1041,
1050,
977,
951,
976,
995,
970,
970,
939,
929,
957,
996,
958,
916,
933,
896,
934,
887,
866,
932,
904,
883,
833,
847,
858,
903,
826,
846,
902,
820,
825,
755,
752,
842,
754,
797,
759,
817,
761,
779,
793,
721,
762,
712,
790,
751,
750,
816,
899,
819,
826,
709,
732,
721,
619,
659,
655,
705,
658,
613,
623,
617,
649,
587,
605,
637,
627,
590,
549,
585,
600,
611,
578,
547,
586,
537,
570,
523,
549,
511,
526,
535,
507,
520,
518,
542,
498,
526,
486,
535,
513,
526,
475,
444,
468,
452,
436,
445,
453,
428,
435,
409,
399,
460,
434,
391,
434,
380,
413,
386,
375,
383,
422,
413,
358,
360,
388,
365,
386,
326,
334,
374,
343,
320,
359,
384,
323,
319,
348,
298,
344,
284,
284,
324,
349,
298,
285,
299,
285,
267,
294,
260,
304,
285,
246,
262,
266,
283,
224,
248,
264,
236,
224,
235,
227,
205,
213,
220,
227,
205,
209,
216,
186,
213,
184,
175,
203,
193,
193,
189,
182,
194,
193,
149,
183,
156,
156,
149,
178,
175,
175,
155,
161,
145,
144,
180,
162,
136,
138,
126,
132,
143,
131,
129,
124,
133,
109,
107,
89,
99,
102,
97,
94,
117,
72,
105,
83,
93,
89,
72,
79,
81,
81,
75,
80,
62,
55,
71,
74,
71,
61,
56,
52,
57,
78,
57,
40,
49,
37,
46,
43,
54,
23,
41,
32,
42,
29,
24,
23,
30,
26,
31,
27,
36,
19,
11,
14,
24,
14,
15,
18,
11,
14,
10,
7,
4,
9,
3,
3,
1,
0,
3,
0,
0,
0,
4,
2,
2,
1,
2,
1,
1,
0,
2,
3,
2,
0,
1,
3,
2,
2,
2,
0,
2,
0,
2,
0,
0,
0,
1,
0,
0,
0,
2,
1,
0,
3,
0,
0,
1,
0,
0,
1,
2,
2,
2,
1,
0,
0,
1,
0,
5,
0,
1,
2,
0,
1,
2,
1,
0,
1,
0,
2,
2,
1,
1,
0,
4,
2,
4,
2,
1,
0,
0,
1,
0,
0,
1,
0,
0,
0,
0,
2,
0,
0,
2,
0,
2,
0,
1,
0,
1,
2,
0,
0,
0,
0,
1,
0,
0,
0,
0,
0,
0,
0,
1,
0,
2,
0,
1,
0,
0,
0,
1,
0,
0,
1,
0,
0,
0,
1,
1,
1,
1,
0,
0,
0,
0,
0,
0,
0,
0,
0,
0,
0,
0,
0,
0,
0,
1,
0,
1,
0,
0,
0,
1,
0,
0,
0,
0,
0,
0,
1,
0,
0,
1,
0,
0,
0,
0,
0,
0,
0,
0,
0,
0,
0,
0,
3,
0,
0,
0,
0,
0,
0,
0,
1,
0,
0,
0,
1,
0,
0,
0,
0,
0,
0,
0,
0,
0,
0,
0,
0,
0,
0,
0,
0,
0,
0,
0,
1,
0,
0,
0,
0,
0,
0,
0,
0,
0,
0,
0,
0,
0,
0,
1,
0,
0,
0,
0,
0,
0,
0,
0,
0,
0,
1,
0,
0,
0,
0,
0,
0,
0,
1,
0,
0,
0,
0,
0,
0,
0,
0,
0,
0,
0,
0,
0,
0,
0,
0,
0,
0,
0,
0,
0,
0,
0,
0,
0,
0,
0,
0,
0,
0,
0,
0,
0,
0,
0,
0,
0,
0,
0,
0,
0,
0,
0,
0,
0,
0,
0,
0,
0,
0,
0,
0,
0,
0,
0,
0,
0,
0,
0,
0,
0,
0,
0,
0,
0,
0,
0,
0,
0,
0,
0,
0,
0,
0,
0,
0,
0,
0,
0,
0,
0,
0,
0,
0,
0,
0,
0,
0,
0,
0,
0,
0,
0,
0,
0,
0,
0,
0,
0,
0,
0,
0,
0,
0,
0,
0,
0,
0,
0,
0,
0,
0,
0,
0,
0,
0,
0,
0,
0,
0,
0,
0,
0,
0,
0,
0,
0,
0,
0,
0,
0,
0,
0,
0,
0,
0,
0,
0,
0,
0,
0,
0,
0,
0,
0,
0,
0,
0,
0,
0,
0,
0,
0,
0,
0,
0,
0,
0,
0,
0,
0,
0,
0,
0,
0,
0,
0,
0,
0,
0,
0,
0,
0,
0,
0,
0,
0,
0,
0,
0,
0,
0,
0,
0,
0,
0,
0,
0,
0,
0,
0,
0,
0,
0,
0,
0,
0,
0,
0,
0,
0,
0,
0,
0,
0,
0,
0,
0,
0,
0,
0,
0,
0,
0,
0,
0,
0,
0,
0,
0,
0,
0,
0,
0,
0,
0,
0,
0,
0,
0,
0,
0,
0,
0,
0,
0,
0,
0,
0,
0,
0,
0,
0,
0,
0,
0,
0,
0,
0,
0,
0,
0,
0,
0,
0,
0,
0,
0,
0,
0,
0,
0,
0,
0,
0,
0,
0,
0,
0,
0,
0,
0,
0,
0,
0,
0,
0,
0,
0,
0,
0,
0,
0,
0,
0,
0,
0,
0,
0,
0,
0,
0,
0,
0,
0,
0,
0,
0,
0,
0,
0,
0,
0,
0,
0,
0,
0,
0,
0,
0,
0,
0,
0,
0,
0,
0,
0,
0,
0,
0,
0,
0,
0,
0,
0,
0,
0,
0,
0,
0,
0,
0,
0,
0,
0,
0,
0,
0,
0,
0,
0,
0,
0,
0,
0,
0,
0,
0,
0,
0,
0,
0,
0,
0,
0,
0,
0,
0,
0,
0,
0,
0,
0,
0,
0,
0,
0,
0,
0,
0,
0,
0,
0,
0,
0,
0,
0,
0,
0,
0,
0,
0,
0,
0,
0,
0,
0,
0,
0,
0,
0,
0,
0,
0,
0,
0,
0,
0,
0,
0,
0,
0,
0,
0,
0,
0,
0,
0,
0,
0,
0,
0,
0,
0,
0,
0,
0,
0,
0,
0,
0,
0,
0,
0,
0,
0,
0,
0,
0,
0,
0,
0,
0,
0,
0,
0,
0,
0,
0,
0,
0,
0,
0,
0,
0,
0,
0,
0,
0,
0,
0,
0,
0,
0,
0,
0,
0,
0,
0,
0,
0,
0,
0,
0,
0,
0,
0,
0,
0,
0,
0,
0,
0,
0,
0,
0,
0,
0,
0,
0,
0,
0,
0,
0,
0,
0,
0,
0,
0,
0,
0,
0,
0,
0,
0,
0,
0,
0,
0,
0,
0,
0,
0,
0,
0,
0,
0,
0,
0,
0,
0,
0,
0,
0,
0,
0,
0,
0,
0,
0,
0,
0,
0,
0,
0,
0,
0,
0,
0,
0,
0,
0,
0,
0,
0,
0,
0,
0,
0,
0,
0,
0,
0,
0,
0,
0,
0,
0,
0,
0,
0,
0,
0,
0,
0,
0,
0,
0,
0,
0,
0,
0,
0,
0,
0,
0,
0,
0,
0,
0,
0,
0,
0,
0,
0,
0,
0,
0,
0,
0,
0,
0,
0,
0,
0,
0,
0,
0,
0,
0,
0,
0,
0,
0,
0,
0,
0,
0,
0,
0,
0,
0,
0,
0,
0,
0,
0,
0,
0,
0,
0,
0,
0,
0,
0,
0,
0,
0,
0,
0,
0,
0,
0,
0,
0,
0,
0,
0,
0,
#ENDOFDATA   :