File: N132962/Quantification/15 keV/Mengason MM2/MMM2 Pentlandite[4][4].msa
#FORMAT      : EMSA/MAS Spectral Data File
#VERSION     : 1.0
#TITLE       : MMM2 Pentlandite[4][all]
#DATE        : 28-SEP-2025
#TIME        : 21:42
#OWNER       : Unknown
#NPOINTS     : 4096
#NCOLUMNS    : 1
#XUNITS      : eV
#YUNITS      : counts
#DATATYPE    : Y
#XPERCHAN    : 9.99778
#OFFSET      : 1.69135
#BEAMKV      : 15
#SIGNALTYPE  : EDS
#ELEVANGLE   : 35
#AZIMANGLE   : 0
#LIVETIME    : 240.257
#REALTIME    : 257.84
#PROBECUR    : 1.21217
#TAUWIND     : 0
#TDEADLYR    : 0
#TACTLYR     : 0.045
#TALWIND     : 0.025
#CHOFFSET    : 0.0
#XLABEL      : Energy (eV)
#YLABEL      : Counts
#XPOSITION   : -15.84533
#YPOSITION   : -2.33825
#ZPOSITION   : 34.11879
#EDSDET      : SD
##SPECIMEN   : MMM2 Pentlandite[4][all]
##DET_HASH   : 12273538-fd48-a23f-0a19-f1e6fa85caef
##CALIB_HASH : 6abaa72c-aa41-8738-0be9-f592914732f3
##WORKING    : 15.0 mm
##DET_NAME   : EDAX All
##DET_MODE   : MediumLE
#SPECTRUM    :
29,
21,
12,
44,
331,
835,
1609,
4975,
14176,
17837,
9146,
4052,
3777,
4229,
4737,
5765,
7469,
9981,
13435,
18300,
23924,
25249,
37759,
63659,
59862,
33071,
24733,
50136,
88070,
73772,
29508,
9093,
5313,
4525,
4368,
4394,
4440,
4697,
4914,
5017,
5003,
5189,
5344,
5518,
5579,
5762,
5701,
5822,
5944,
6112,
6248,
6225,
6013,
6031,
6023,
6023,
6288,
6727,
7008,
6738,
6678,
6295,
5862,
5718,
5631,
5651,
5703,
5675,
5858,
5821,
5894,
6630,
8508,
13330,
29033,
76418,
155122,
193046,
140434,
61694,
22437,
16479,
18196,
15602,
9691,
5767,
4313,
3979,
3909,
3770,
3830,
3844,
3885,
3823,
3901,
3885,
3913,
3764,
3788,
3840,
3818,
3806,
3644,
3717,
3805,
3805,
3693,
3592,
3469,
3489,
3369,
3352,
3422,
3353,
3327,
3205,
3311,
3191,
3175,
3182,
3212,
3126,
3193,
3091,
3150,
3132,
2993,
3063,
2960,
3006,
3022,
2840,
2943,
2838,
2965,
2827,
2907,
2790,
2823,
2689,
2719,
2730,
2711,
2697,
2720,
2618,
2547,
2599,
2561,
2457,
2500,
2520,
2530,
2747,
2764,
2692,
2665,
2504,
2499,
2283,
2329,
2357,
2302,
2338,
2273,
2188,
2229,
2307,
2260,
2097,
2160,
2183,
2105,
2187,
2130,
2098,
2138,
2123,
2092,
1914,
1963,
1984,
2054,
1948,
1950,
1944,
1927,
1933,
1898,
1899,
1918,
1940,
1916,
1851,
1855,
1760,
1761,
1800,
1789,
1693,
1726,
1772,
1745,
1683,
1732,
1813,
1829,
1938,
2633,
4666,
9696,
18860,
29225,
35113,
33247,
24068,
13825,
6648,
3224,
1948,
1541,
1514,
1481,
1492,
1496,
1451,
1450,
1630,
1625,
1801,
2104,
2487,
3086,
4212,
5169,
5915,
5293,
4033,
2850,
2003,
1537,
1426,
1420,
1614,
2451,
4763,
9167,
15302,
21211,
23354,
20722,
14737,
8697,
4540,
2409,
1499,
1219,
1084,
1123,
1033,
1089,
1043,
1031,
1035,
1048,
1030,
991,
1070,
1059,
1037,
1178,
1430,
2004,
2640,
3438,
3747,
3598,
2973,
2192,
1584,
1138,
963,
858,
819,
815,
808,
841,
785,
889,
829,
846,
819,
822,
838,
737,
798,
743,
724,
729,
798,
774,
741,
736,
719,
746,
749,
707,
658,
680,
703,
643,
653,
636,
685,
635,
676,
630,
619,
606,
627,
575,
572,
655,
595,
655,
669,
654,
625,
607,
604,
581,
559,
523,
530,
530,
573,
556,
527,
528,
556,
531,
476,
499,
462,
519,
514,
490,
454,
462,
464,
453,
464,
453,
480,
443,
481,
450,
417,
462,
432,
397,
429,
422,
360,
406,
397,
352,
386,
393,
397,
373,
362,
382,
385,
335,
366,
378,
344,
306,
376,
305,
333,
310,
314,
324,
308,
294,
292,
270,
275,
281,
283,
266,
271,
290,
233,
282,
251,
269,
276,
252,
246,
244,
259,
212,
252,
236,
236,
223,
214,
221,
217,
212,
223,
176,
205,
212,
214,
216,
184,
198,
170,
187,
173,
167,
182,
150,
178,
173,
166,
168,
160,
136,
152,
141,
132,
131,
130,
131,
102,
143,
121,
121,
122,
99,
119,
104,
97,
114,
103,
99,
109,
95,
82,
94,
77,
90,
104,
69,
79,
84,
96,
77,
78,
71,
68,
72,
59,
65,
60,
51,
46,
48,
51,
59,
62,
33,
36,
41,
29,
43,
26,
42,
44,
32,
21,
24,
26,
27,
18,
22,
19,
17,
9,
15,
8,
13,
11,
8,
5,
5,
3,
3,
1,
1,
1,
3,
0,
2,
2,
3,
3,
2,
0,
0,
1,
3,
1,
1,
0,
1,
1,
0,
3,
1,
4,
1,
2,
2,
3,
3,
2,
1,
1,
2,
0,
1,
3,
0,
0,
1,
1,
0,
1,
0,
2,
3,
0,
3,
0,
1,
2,
0,
0,
0,
0,
0,
1,
0,
0,
0,
2,
2,
0,
3,
0,
0,
0,
2,
1,
2,
0,
1,
1,
1,
0,
1,
0,
0,
1,
0,
0,
1,
2,
2,
0,
2,
1,
0,
1,
0,
0,
0,
1,
0,
2,
0,
2,
0,
0,
0,
0,
1,
2,
1,
0,
0,
1,
0,
0,
3,
0,
1,
3,
1,
0,
0,
1,
0,
1,
0,
1,
0,
0,
0,
0,
0,
0,
1,
0,
2,
0,
1,
0,
0,
0,
1,
0,
1,
0,
0,
0,
0,
1,
0,
1,
1,
0,
0,
0,
0,
0,
0,
0,
1,
1,
0,
0,
1,
0,
0,
0,
0,
0,
1,
0,
0,
1,
0,
0,
0,
0,
0,
1,
0,
0,
0,
0,
0,
0,
0,
1,
0,
0,
0,
0,
0,
0,
1,
0,
1,
0,
0,
1,
0,
0,
0,
0,
0,
0,
0,
0,
1,
0,
0,
0,
0,
0,
0,
0,
0,
0,
0,
0,
0,
1,
0,
1,
0,
0,
0,
0,
0,
0,
0,
0,
0,
0,
0,
0,
0,
0,
0,
0,
0,
1,
0,
0,
0,
0,
0,
0,
0,
1,
0,
0,
0,
0,
0,
0,
0,
0,
0,
0,
0,
0,
0,
0,
0,
0,
0,
0,
0,
0,
0,
0,
0,
0,
0,
0,
0,
1,
0,
0,
0,
0,
0,
0,
0,
0,
0,
0,
0,
0,
0,
0,
0,
0,
0,
0,
0,
0,
0,
0,
0,
0,
0,
0,
0,
0,
0,
0,
0,
0,
0,
0,
0,
0,
0,
0,
0,
0,
0,
0,
0,
0,
0,
0,
0,
0,
0,
0,
0,
0,
0,
0,
0,
0,
0,
0,
0,
0,
0,
0,
0,
0,
0,
0,
0,
0,
0,
0,
0,
0,
0,
0,
0,
0,
0,
0,
0,
0,
0,
0,
0,
0,
0,
0,
0,
0,
0,
1,
0,
0,
0,
0,
0,
0,
0,
0,
0,
0,
0,
0,
0,
0,
0,
0,
0,
0,
0,
0,
0,
0,
0,
0,
0,
0,
0,
0,
0,
0,
0,
0,
0,
0,
0,
0,
0,
0,
0,
0,
0,
0,
0,
0,
0,
0,
0,
0,
0,
0,
0,
0,
0,
0,
0,
0,
0,
0,
0,
0,
0,
0,
0,
0,
0,
0,
0,
0,
0,
0,
0,
0,
0,
0,
0,
0,
0,
0,
0,
0,
0,
0,
0,
0,
0,
0,
0,
0,
0,
0,
0,
0,
0,
0,
0,
0,
0,
0,
0,
0,
0,
0,
0,
0,
0,
0,
0,
0,
0,
0,
0,
0,
0,
0,
0,
0,
0,
0,
0,
0,
0,
0,
0,
0,
0,
0,
0,
0,
0,
0,
0,
0,
0,
0,
0,
0,
0,
0,
0,
0,
0,
0,
0,
0,
0,
0,
0,
0,
0,
0,
0,
0,
0,
0,
0,
0,
0,
0,
0,
0,
0,
0,
0,
0,
0,
0,
0,
0,
0,
0,
0,
0,
0,
0,
0,
0,
0,
0,
0,
0,
0,
0,
0,
0,
0,
0,
0,
0,
0,
0,
0,
0,
0,
0,
0,
0,
0,
0,
0,
0,
0,
0,
0,
0,
0,
0,
0,
0,
0,
0,
0,
0,
0,
0,
0,
0,
0,
0,
0,
0,
0,
0,
0,
0,
0,
0,
0,
0,
0,
0,
0,
0,
0,
0,
0,
0,
0,
0,
0,
0,
0,
0,
0,
0,
0,
0,
0,
0,
0,
0,
0,
0,
0,
0,
0,
0,
0,
0,
0,
0,
0,
0,
0,
0,
0,
0,
0,
0,
0,
0,
0,
0,
0,
0,
0,
0,
0,
0,
0,
0,
0,
0,
0,
0,
0,
0,
0,
0,
0,
0,
0,
0,
0,
0,
0,
0,
0,
0,
0,
0,
0,
0,
0,
0,
0,
0,
0,
0,
0,
0,
0,
0,
0,
0,
0,
0,
0,
0,
0,
0,
0,
0,
0,
0,
0,
0,
0,
0,
0,
0,
0,
0,
0,
0,
0,
0,
0,
0,
0,
0,
0,
0,
0,
0,
0,
0,
0,
0,
0,
0,
0,
0,
0,
0,
0,
0,
0,
0,
0,
0,
0,
0,
0,
0,
0,
0,
0,
0,
0,
0,
0,
0,
0,
0,
0,
0,
0,
0,
0,
0,
0,
0,
0,
0,
0,
0,
0,
0,
0,
0,
0,
0,
0,
0,
0,
0,
0,
0,
0,
0,
0,
0,
0,
0,
0,
0,
0,
0,
0,
0,
0,
0,
0,
0,
0,
0,
0,
0,
0,
0,
0,
0,
0,
0,
0,
0,
0,
0,
0,
0,
0,
0,
0,
0,
0,
0,
0,
0,
0,
0,
0,
0,
0,
0,
0,
0,
0,
0,
0,
0,
0,
0,
0,
0,
0,
0,
0,
0,
0,
0,
0,
0,
0,
0,
0,
0,
0,
0,
0,
0,
0,
0,
0,
0,
0,
0,
0,
0,
0,
0,
0,
0,
0,
0,
0,
0,
0,
0,
0,
0,
0,
0,
0,
0,
0,
0,
0,
0,
0,
0,
0,
0,
0,
0,
#ENDOFDATA   :