File: N132962/Quantification/15 keV/Mengason MM2/MMM2 Rhodonite[5][4].msa
#FORMAT      : EMSA/MAS Spectral Data File
#VERSION     : 1.0
#TITLE       : MMM2 Rhodonite[5][all]
#DATE        : 28-SEP-2025
#TIME        : 23:27
#OWNER       : Unknown
#NPOINTS     : 4096
#NCOLUMNS    : 1
#XUNITS      : eV
#YUNITS      : counts
#DATATYPE    : Y
#XPERCHAN    : 9.99778
#OFFSET      : 1.69135
#BEAMKV      : 15
#SIGNALTYPE  : EDS
#ELEVANGLE   : 35
#AZIMANGLE   : 0
#LIVETIME    : 240.217
#REALTIME    : 256.066
#PROBECUR    : 1.21079
#TAUWIND     : 0
#TDEADLYR    : 0
#TACTLYR     : 0.045
#TALWIND     : 0.025
#CHOFFSET    : 0.0
#XLABEL      : Energy (eV)
#YLABEL      : Counts
#XPOSITION   : -16.69999
#YPOSITION   : 1.80557
#ZPOSITION   : 34.11879
#EDSDET      : SD
##SPECIMEN   : MMM2 Rhodonite[5][all]
##DET_HASH   : 12273538-fd48-a23f-0a19-f1e6fa85caef
##CALIB_HASH : 6abaa72c-aa41-8738-0be9-f592914732f3
##WORKING    : 15.0 mm
##DET_NAME   : EDAX All
##DET_MODE   : MediumLE
#SPECTRUM    :
24,
28,
7,
20,
121,
492,
1407,
4468,
12521,
16339,
9378,
5324,
5237,
6310,
10510,
35131,
128070,
242535,
178508,
52783,
20118,
24065,
19058,
10341,
6668,
4162,
3221,
3145,
3301,
3321,
3370,
3496,
3778,
3992,
4411,
4350,
4285,
4373,
4394,
4954,
7124,
11000,
12396,
8826,
5900,
5038,
4971,
5181,
5093,
5382,
5453,
5564,
5689,
5770,
6906,
14849,
52528,
131600,
177753,
124953,
51406,
18511,
9261,
5454,
3988,
3557,
3360,
3438,
3441,
3442,
3406,
3431,
3313,
3514,
3843,
3950,
3815,
3547,
3519,
3373,
3337,
3204,
3211,
3156,
3132,
3109,
3047,
3074,
2887,
3046,
2987,
2966,
2978,
2870,
2905,
2803,
2811,
2853,
2783,
2757,
2696,
2670,
2637,
2703,
2684,
2572,
2611,
2566,
2559,
2529,
2473,
2427,
2472,
2325,
2526,
2510,
2493,
2476,
2543,
2820,
4022,
7021,
11051,
13354,
11484,
7265,
4006,
2556,
2156,
2120,
2153,
2424,
2799,
3270,
3331,
2995,
2529,
2228,
2088,
2062,
2051,
1939,
1861,
1847,
1802,
1789,
1732,
1894,
1780,
1729,
1672,
1681,
1615,
1639,
1667,
1692,
1712,
1634,
1647,
1572,
1668,
1539,
1590,
1541,
1550,
1483,
1463,
1477,
1488,
1501,
1460,
1420,
1514,
1349,
1348,
1384,
1377,
1316,
1322,
1351,
1350,
1317,
1360,
1281,
1379,
1268,
1311,
1369,
1268,
1370,
1495,
2021,
3654,
8505,
17937,
30733,
40377,
39346,
29882,
16976,
7588,
3185,
1646,
1246,
1134,
1184,
1142,
1148,
1208,
1455,
1992,
3094,
4463,
5932,
7068,
7661,
7411,
6040,
4447,
2842,
1740,
1160,
947,
891,
859,
852,
839,
854,
842,
844,
869,
963,
980,
1089,
1169,
1175,
1152,
1114,
918,
811,
767,
798,
755,
746,
732,
702,
670,
683,
736,
741,
676,
694,
710,
695,
729,
752,
699,
698,
689,
630,
645,
658,
637,
637,
619,
569,
639,
603,
598,
619,
564,
585,
616,
633,
573,
619,
538,
569,
533,
550,
544,
535,
524,
523,
543,
535,
549,
501,
520,
569,
510,
448,
480,
472,
472,
494,
469,
486,
480,
433,
462,
476,
450,
474,
447,
431,
439,
412,
414,
430,
407,
471,
386,
429,
445,
417,
412,
369,
375,
389,
391,
388,
396,
385,
380,
358,
365,
340,
323,
371,
348,
383,
332,
322,
316,
327,
323,
347,
323,
293,
319,
310,
314,
281,
293,
313,
295,
277,
303,
294,
287,
264,
258,
267,
260,
262,
261,
277,
248,
281,
280,
260,
240,
224,
238,
232,
250,
230,
261,
216,
234,
204,
195,
213,
212,
196,
206,
180,
206,
192,
173,
167,
181,
190,
197,
167,
192,
190,
168,
166,
164,
178,
178,
179,
153,
173,
155,
150,
189,
164,
144,
138,
150,
171,
146,
137,
115,
130,
143,
126,
111,
125,
131,
119,
112,
120,
113,
113,
94,
107,
116,
93,
109,
118,
99,
129,
86,
105,
96,
90,
86,
79,
71,
72,
84,
73,
64,
80,
71,
79,
88,
80,
73,
57,
66,
60,
59,
52,
74,
59,
51,
48,
51,
67,
49,
49,
47,
36,
40,
46,
37,
42,
37,
36,
36,
34,
30,
31,
29,
31,
36,
28,
26,
31,
24,
24,
23,
29,
16,
22,
15,
26,
8,
11,
7,
8,
13,
6,
4,
9,
8,
6,
7,
11,
4,
8,
3,
3,
3,
0,
1,
1,
1,
0,
0,
2,
2,
0,
1,
0,
2,
1,
0,
2,
0,
0,
0,
0,
1,
0,
1,
0,
0,
1,
3,
0,
1,
0,
1,
0,
0,
1,
1,
0,
0,
1,
0,
0,
1,
1,
0,
2,
1,
1,
0,
1,
1,
0,
0,
0,
1,
0,
0,
0,
0,
0,
0,
0,
0,
0,
1,
1,
0,
0,
0,
0,
0,
0,
0,
0,
1,
0,
0,
2,
1,
0,
0,
0,
0,
1,
0,
1,
0,
0,
0,
0,
0,
0,
1,
1,
0,
0,
1,
0,
0,
0,
0,
0,
0,
0,
0,
0,
0,
0,
0,
0,
0,
0,
0,
0,
0,
0,
0,
0,
0,
0,
1,
0,
0,
0,
0,
0,
1,
0,
0,
0,
0,
0,
0,
0,
1,
0,
0,
0,
0,
1,
0,
0,
0,
0,
0,
0,
1,
0,
0,
0,
0,
2,
0,
0,
0,
0,
0,
0,
0,
0,
0,
0,
0,
1,
0,
1,
0,
0,
0,
0,
0,
0,
0,
0,
0,
0,
0,
0,
0,
0,
0,
0,
0,
0,
0,
0,
0,
0,
0,
0,
0,
0,
0,
0,
0,
0,
0,
0,
0,
0,
0,
0,
0,
0,
0,
0,
0,
0,
0,
0,
0,
0,
0,
0,
0,
0,
0,
0,
0,
0,
0,
0,
0,
0,
0,
0,
0,
0,
0,
0,
0,
0,
0,
0,
0,
0,
0,
0,
0,
0,
0,
0,
0,
0,
0,
0,
0,
0,
0,
0,
0,
0,
0,
0,
0,
0,
0,
0,
0,
0,
0,
1,
0,
0,
0,
0,
0,
0,
0,
0,
0,
0,
0,
0,
0,
0,
0,
0,
0,
0,
0,
0,
0,
0,
0,
0,
0,
0,
0,
0,
0,
0,
0,
0,
0,
0,
0,
0,
0,
0,
0,
0,
0,
0,
0,
0,
0,
0,
0,
0,
0,
0,
0,
0,
0,
0,
0,
0,
0,
0,
0,
0,
0,
0,
0,
0,
0,
0,
0,
0,
0,
0,
0,
0,
0,
0,
0,
0,
0,
0,
0,
0,
0,
0,
0,
0,
0,
0,
0,
0,
0,
0,
0,
0,
0,
0,
0,
0,
0,
0,
0,
0,
0,
0,
0,
0,
0,
0,
0,
0,
0,
0,
0,
0,
0,
0,
0,
0,
0,
0,
0,
0,
0,
0,
0,
0,
0,
0,
0,
0,
0,
0,
0,
0,
0,
0,
0,
0,
0,
0,
0,
0,
0,
0,
0,
0,
0,
0,
0,
0,
0,
0,
0,
0,
0,
0,
0,
0,
0,
0,
0,
0,
0,
0,
0,
0,
0,
0,
0,
0,
0,
0,
0,
0,
0,
0,
0,
0,
0,
0,
0,
0,
0,
0,
0,
0,
0,
0,
0,
0,
0,
0,
0,
0,
0,
0,
0,
0,
0,
0,
0,
0,
0,
0,
0,
0,
0,
0,
0,
0,
0,
0,
0,
0,
0,
0,
0,
0,
0,
0,
0,
0,
0,
0,
0,
0,
0,
0,
0,
0,
0,
0,
0,
0,
0,
0,
0,
0,
0,
0,
0,
0,
0,
0,
0,
0,
0,
0,
0,
0,
0,
0,
0,
0,
0,
0,
0,
0,
0,
0,
0,
0,
0,
0,
0,
0,
0,
0,
0,
0,
0,
0,
0,
0,
0,
0,
0,
0,
0,
0,
0,
0,
0,
0,
0,
0,
0,
0,
0,
0,
0,
0,
0,
0,
0,
0,
0,
0,
0,
0,
0,
0,
0,
0,
0,
0,
0,
0,
0,
0,
0,
0,
0,
0,
0,
0,
0,
0,
0,
0,
0,
0,
0,
0,
0,
0,
0,
0,
0,
0,
0,
0,
0,
0,
0,
0,
0,
0,
0,
0,
0,
0,
0,
0,
0,
0,
0,
0,
0,
0,
0,
0,
0,
0,
0,
0,
0,
0,
0,
0,
0,
0,
0,
0,
0,
0,
0,
0,
0,
0,
0,
0,
0,
0,
0,
0,
0,
0,
0,
0,
0,
0,
0,
0,
0,
0,
0,
0,
0,
0,
0,
0,
0,
0,
0,
0,
0,
0,
0,
0,
0,
0,
0,
0,
0,
0,
0,
0,
0,
0,
0,
0,
0,
0,
0,
0,
0,
0,
0,
0,
0,
0,
0,
0,
0,
0,
0,
0,
0,
0,
0,
0,
0,
0,
0,
0,
0,
0,
0,
0,
0,
0,
0,
0,
0,
0,
0,
0,
0,
0,
0,
0,
0,
0,
0,
0,
0,
0,
0,
0,
0,
0,
0,
0,
0,
0,
0,
0,
0,
0,
0,
0,
0,
0,
0,
0,
0,
0,
0,
0,
0,
0,
0,
0,
0,
0,
0,
0,
0,
0,
0,
0,
0,
0,
0,
0,
0,
0,
0,
0,
0,
0,
0,
0,
0,
0,
0,
0,
0,
0,
0,
0,
0,
0,
0,
0,
0,
0,
0,
0,
0,
0,
0,
0,
0,
0,
0,
0,
0,
0,
0,
0,
0,
0,
0,
0,
0,
0,
0,
0,
0,
0,
0,
0,
0,
0,
0,
0,
0,
0,
0,
0,
0,
0,
0,
0,
0,
0,
0,
0,
0,
0,
0,
0,
0,
0,
0,
0,
0,
0,
0,
0,
0,
0,
0,
0,
0,
0,
0,
0,
0,
0,
0,
0,
0,
0,
0,
0,
0,
0,
0,
0,
0,
0,
0,
0,
0,
0,
0,
0,
0,
0,
0,
0,
0,
0,
0,
0,
0,
0,
#ENDOFDATA   :