File: N132962/Quantification/15 keV/Mengason MM2/MMM2 Pyrite[4][4].msa
#FORMAT      : EMSA/MAS Spectral Data File
#VERSION     : 1.0
#TITLE       : MMM2 Pyrite[4][all]
#DATE        : 28-SEP-2025
#TIME        : 20:50
#OWNER       : Unknown
#NPOINTS     : 4096
#NCOLUMNS    : 1
#XUNITS      : eV
#YUNITS      : counts
#DATATYPE    : Y
#XPERCHAN    : 9.99778
#OFFSET      : 1.69135
#BEAMKV      : 15
#SIGNALTYPE  : EDS
#ELEVANGLE   : 35
#AZIMANGLE   : 0
#LIVETIME    : 240.162
#REALTIME    : 258.987
#PROBECUR    : 1.21333
#TAUWIND     : 0
#TDEADLYR    : 0
#TACTLYR     : 0.045
#TALWIND     : 0.025
#CHOFFSET    : 0.0
#XLABEL      : Energy (eV)
#YLABEL      : Counts
#XPOSITION   : -11.66347
#YPOSITION   : -4.38606
#ZPOSITION   : 34.11879
#EDSDET      : SD
##SPECIMEN   : MMM2 Pyrite[4][all]
##D2STDCMP   : Pyrite,(S:53.4528),(Fe:46.5472)
##DET_HASH   : 12273538-fd48-a23f-0a19-f1e6fa85caef
##CALIB_HASH : 6abaa72c-aa41-8738-0be9-f592914732f3
##WORKING    : 15.0 mm
##DET_NAME   : EDAX All
##DET_MODE   : MediumLE
#SPECTRUM    :
17,
26,
18,
78,
566,
1178,
1661,
4395,
12942,
16420,
8100,
3187,
2908,
3141,
3626,
4452,
5842,
8227,
13682,
21375,
27017,
29276,
47798,
82666,
68894,
26088,
8275,
5396,
4719,
4654,
4535,
4711,
4779,
4955,
5090,
5108,
5293,
5493,
5616,
5645,
5707,
5769,
6018,
6207,
6178,
6321,
6308,
6549,
6496,
6645,
6601,
6591,
6432,
6377,
6354,
6416,
6784,
7127,
7268,
7133,
6840,
6632,
6102,
5819,
5814,
5980,
5999,
6170,
6160,
6078,
6313,
7401,
10864,
19451,
46336,
127030,
261210,
325935,
235987,
101509,
34921,
23887,
26765,
21948,
12809,
6319,
3888,
3352,
3328,
3237,
3274,
3174,
3230,
3259,
3181,
3241,
3138,
3247,
3384,
3428,
3566,
3431,
3255,
3093,
3018,
3019,
3038,
3094,
2976,
2900,
2913,
2920,
2895,
2860,
2823,
2850,
2815,
2679,
2795,
2823,
2857,
2832,
2773,
2676,
2747,
2717,
2638,
2679,
2661,
2508,
2560,
2555,
2633,
2445,
2459,
2540,
2496,
2493,
2425,
2474,
2377,
2355,
2436,
2384,
2253,
2229,
2230,
2307,
2326,
2231,
2290,
2436,
2584,
2652,
2880,
2736,
2600,
2368,
2269,
2244,
2093,
2050,
2019,
2004,
1969,
1895,
1972,
1956,
1911,
1900,
1864,
1856,
1891,
1872,
1790,
1859,
1848,
1810,
1779,
1833,
1712,
1782,
1756,
1783,
1718,
1754,
1702,
1695,
1608,
1637,
1636,
1640,
1551,
1568,
1538,
1564,
1597,
1574,
1494,
1535,
1536,
1527,
1518,
1553,
1596,
1568,
1664,
1922,
2818,
5924,
12855,
25823,
39840,
48482,
45658,
32742,
18394,
8532,
3709,
1944,
1487,
1331,
1338,
1359,
1333,
1343,
1305,
1272,
1321,
1374,
1666,
2061,
3263,
4816,
6482,
7299,
6650,
5015,
3176,
2107,
1392,
1053,
1010,
992,
1000,
988,
953,
964,
986,
947,
964,
971,
987,
933,
915,
943,
930,
906,
865,
901,
852,
954,
933,
844,
879,
903,
805,
829,
834,
849,
795,
855,
791,
772,
817,
832,
816,
797,
758,
786,
740,
739,
748,
788,
746,
724,
735,
768,
724,
809,
833,
807,
793,
698,
679,
680,
706,
697,
676,
625,
615,
639,
656,
638,
622,
606,
644,
639,
579,
581,
606,
635,
591,
597,
591,
559,
579,
538,
553,
549,
550,
527,
531,
497,
530,
509,
542,
500,
494,
449,
508,
471,
479,
463,
487,
490,
454,
448,
427,
462,
445,
420,
449,
421,
419,
460,
430,
394,
370,
437,
360,
352,
367,
357,
402,
385,
385,
352,
398,
367,
338,
362,
343,
331,
325,
332,
324,
344,
329,
329,
306,
310,
342,
314,
290,
303,
314,
286,
295,
276,
277,
271,
279,
244,
276,
261,
256,
263,
242,
255,
274,
223,
249,
276,
228,
204,
196,
232,
231,
227,
218,
229,
175,
209,
195,
188,
193,
189,
182,
195,
178,
200,
176,
161,
147,
184,
153,
168,
168,
162,
174,
161,
148,
138,
156,
168,
156,
137,
145,
137,
129,
126,
123,
129,
120,
127,
113,
99,
126,
126,
114,
116,
97,
116,
98,
81,
91,
74,
73,
87,
79,
90,
81,
89,
61,
76,
88,
66,
78,
69,
72,
65,
62,
53,
44,
58,
50,
42,
51,
52,
42,
45,
39,
46,
38,
41,
37,
45,
28,
30,
25,
30,
25,
25,
24,
18,
18,
18,
22,
17,
5,
10,
16,
9,
9,
12,
3,
7,
6,
7,
3,
1,
2,
1,
0,
0,
3,
2,
0,
1,
1,
1,
1,
3,
2,
0,
1,
1,
3,
1,
0,
0,
1,
1,
3,
1,
0,
1,
1,
0,
0,
3,
1,
0,
0,
2,
0,
0,
1,
2,
0,
1,
0,
2,
0,
3,
1,
0,
2,
0,
0,
3,
2,
1,
0,
0,
0,
0,
0,
0,
1,
1,
3,
2,
0,
1,
0,
0,
0,
0,
0,
0,
1,
0,
1,
1,
2,
1,
0,
0,
1,
1,
1,
0,
1,
2,
1,
0,
1,
0,
0,
0,
0,
0,
0,
0,
0,
0,
0,
0,
1,
0,
1,
2,
0,
1,
0,
1,
0,
1,
0,
0,
1,
1,
0,
1,
0,
0,
0,
0,
0,
0,
1,
0,
1,
1,
0,
0,
0,
0,
1,
0,
1,
0,
0,
0,
0,
0,
0,
1,
0,
0,
0,
0,
0,
0,
0,
0,
2,
0,
0,
0,
1,
0,
0,
1,
0,
0,
1,
1,
0,
0,
0,
0,
1,
0,
0,
2,
0,
0,
0,
0,
0,
0,
0,
0,
0,
0,
0,
0,
1,
0,
0,
0,
0,
0,
0,
0,
0,
0,
0,
0,
0,
0,
0,
0,
0,
0,
0,
0,
0,
0,
0,
0,
0,
0,
0,
1,
0,
0,
0,
0,
0,
0,
0,
0,
0,
0,
0,
0,
0,
0,
0,
0,
0,
0,
0,
0,
0,
0,
0,
0,
0,
0,
0,
0,
0,
1,
0,
0,
0,
0,
0,
0,
0,
0,
0,
0,
0,
0,
0,
0,
0,
0,
0,
0,
0,
0,
0,
0,
0,
0,
0,
0,
0,
0,
0,
0,
0,
0,
0,
0,
0,
0,
0,
0,
0,
0,
0,
0,
0,
0,
0,
0,
0,
0,
0,
0,
0,
0,
0,
0,
0,
0,
0,
0,
0,
0,
0,
0,
0,
0,
0,
0,
0,
0,
0,
0,
0,
0,
0,
0,
0,
0,
0,
0,
0,
0,
0,
0,
0,
0,
0,
0,
0,
0,
0,
0,
0,
0,
0,
0,
0,
0,
0,
0,
0,
0,
0,
0,
0,
0,
0,
0,
0,
0,
0,
0,
0,
0,
0,
0,
0,
0,
0,
0,
0,
0,
0,
0,
0,
0,
0,
0,
0,
0,
0,
0,
0,
0,
0,
0,
0,
0,
0,
0,
0,
0,
0,
0,
0,
0,
0,
0,
0,
0,
0,
0,
0,
0,
0,
0,
0,
0,
0,
0,
0,
0,
0,
0,
0,
0,
0,
0,
0,
0,
0,
0,
0,
0,
0,
0,
0,
0,
0,
0,
0,
0,
0,
0,
0,
0,
0,
0,
0,
0,
0,
0,
0,
0,
0,
0,
0,
0,
0,
0,
0,
0,
0,
0,
0,
0,
0,
0,
0,
0,
0,
0,
0,
0,
0,
0,
0,
0,
0,
0,
0,
0,
0,
0,
0,
0,
0,
0,
0,
0,
0,
0,
0,
0,
0,
0,
0,
0,
0,
0,
0,
0,
0,
0,
0,
0,
0,
0,
0,
0,
0,
0,
0,
0,
0,
0,
0,
0,
0,
0,
0,
0,
0,
0,
0,
0,
0,
0,
0,
0,
0,
0,
0,
0,
0,
0,
0,
0,
0,
0,
0,
0,
0,
0,
0,
0,
0,
0,
0,
0,
0,
0,
0,
0,
0,
0,
0,
0,
0,
0,
0,
0,
0,
0,
0,
0,
0,
0,
0,
0,
0,
0,
0,
0,
0,
0,
0,
0,
0,
0,
0,
0,
0,
0,
0,
0,
0,
0,
0,
0,
0,
0,
0,
0,
0,
0,
0,
0,
0,
0,
0,
0,
0,
0,
0,
0,
0,
0,
0,
0,
0,
0,
0,
0,
0,
0,
0,
0,
0,
0,
0,
0,
0,
0,
0,
0,
0,
0,
0,
0,
0,
0,
0,
0,
0,
0,
0,
0,
0,
0,
0,
0,
0,
0,
0,
0,
0,
0,
0,
0,
0,
0,
0,
0,
0,
0,
0,
0,
0,
0,
0,
0,
0,
0,
0,
0,
0,
0,
0,
0,
0,
0,
0,
0,
0,
0,
0,
0,
0,
0,
0,
0,
0,
0,
0,
0,
0,
0,
0,
0,
0,
0,
0,
0,
0,
0,
0,
0,
0,
0,
0,
0,
0,
0,
0,
0,
0,
0,
0,
0,
0,
0,
0,
0,
0,
0,
0,
0,
0,
0,
0,
0,
0,
0,
0,
0,
0,
0,
0,
0,
0,
0,
0,
0,
0,
0,
0,
0,
0,
0,
0,
0,
0,
0,
0,
0,
0,
0,
0,
0,
0,
0,
0,
0,
0,
0,
0,
0,
0,
0,
0,
0,
0,
0,
0,
0,
0,
0,
0,
0,
0,
0,
0,
0,
0,
0,
0,
0,
0,
0,
0,
0,
0,
0,
0,
0,
0,
0,
0,
0,
0,
0,
0,
0,
0,
0,
0,
0,
0,
0,
0,
0,
0,
0,
0,
0,
0,
0,
0,
0,
0,
0,
0,
0,
0,
0,
0,
0,
0,
0,
0,
0,
0,
0,
0,
0,
0,
0,
0,
0,
0,
0,
0,
0,
0,
0,
0,
0,
0,
0,
0,
0,
0,
0,
0,
0,
0,
0,
0,
0,
0,
0,
0,
0,
0,
0,
0,
0,
0,
0,
0,
0,
0,
0,
0,
0,
0,
0,
0,
0,
0,
0,
0,
0,
0,
0,
0,
0,
0,
0,
0,
0,
0,
0,
0,
0,
0,
0,
0,
0,
#ENDOFDATA   :