File: N132962/Quantification/15 keV/Mengason MM2/MMM2 Orthoclaise[4][4].msa
#FORMAT      : EMSA/MAS Spectral Data File
#VERSION     : 1.0
#TITLE       : MMM2 Orthoclaise[4][all]
#DATE        : 28-SEP-2025
#TIME        : 21:01
#OWNER       : Unknown
#NPOINTS     : 4096
#NCOLUMNS    : 1
#XUNITS      : eV
#YUNITS      : counts
#DATATYPE    : Y
#XPERCHAN    : 9.99778
#OFFSET      : 1.69135
#BEAMKV      : 15
#SIGNALTYPE  : EDS
#ELEVANGLE   : 35
#AZIMANGLE   : 0
#LIVETIME    : 240.202
#REALTIME    : 256.268
#PROBECUR    : 1.21333
#TAUWIND     : 0
#TDEADLYR    : 0
#TACTLYR     : 0.045
#TALWIND     : 0.025
#CHOFFSET    : 0.0
#XLABEL      : Energy (eV)
#YLABEL      : Counts
#XPOSITION   : -14.12321
#YPOSITION   : -3.86126
#ZPOSITION   : 34.11879
#EDSDET      : SD
##SPECIMEN   : MMM2 Orthoclaise[4][all]
##DET_HASH   : 12273538-fd48-a23f-0a19-f1e6fa85caef
##CALIB_HASH : 6abaa72c-aa41-8738-0be9-f592914732f3
##WORKING    : 15.0 mm
##DET_NAME   : EDAX All
##DET_MODE   : MediumLE
#SPECTRUM    :
19,
28,
10,
25,
87,
383,
1335,
4749,
12800,
15225,
7428,
3310,
3082,
3899,
7011,
26195,
98183,
186407,
134919,
35674,
5692,
3013,
3723,
4956,
5011,
3868,
3350,
3376,
3615,
3711,
3776,
3915,
4217,
4849,
5683,
5810,
5336,
4720,
4799,
4732,
4845,
5079,
5185,
5299,
5250,
5533,
6615,
13326,
37693,
72979,
75030,
40232,
15645,
8284,
7639,
18639,
70856,
180514,
245963,
172821,
69691,
23061,
10533,
5485,
3402,
2814,
2790,
2932,
2721,
2632,
2669,
2549,
2590,
2639,
2967,
3241,
3055,
2669,
2651,
2578,
2419,
2529,
2533,
2480,
2457,
2502,
2383,
2316,
2395,
2393,
2372,
2324,
2278,
2401,
2308,
2184,
2241,
2326,
2289,
2253,
2250,
2050,
2147,
2171,
2371,
2600,
3388,
5994,
14234,
30833,
46720,
46809,
30551,
13606,
5282,
2882,
2815,
3400,
4967,
6667,
7006,
5640,
3484,
2300,
1793,
1602,
1612,
1675,
1625,
1648,
1591,
1437,
1492,
1508,
1461,
1431,
1409,
1465,
1408,
1376,
1330,
1349,
1363,
1360,
1277,
1430,
1345,
1290,
1341,
1416,
1312,
1316,
1307,
1282,
1277,
1227,
1236,
1174,
1216,
1222,
1220,
1197,
1171,
1147,
1147,
1163,
1197,
1245,
1250,
1210,
1176,
1137,
1129,
1131,
1011,
1031,
1092,
1073,
1028,
1045,
1002,
984,
1000,
900,
992,
911,
873,
962,
920,
885,
924,
881,
893,
812,
866,
835,
840,
857,
884,
838,
781,
836,
838,
780,
836,
782,
799,
755,
859,
929,
1180,
1714,
2247,
2561,
2461,
1984,
1317,
949,
825,
795,
735,
712,
633,
726,
690,
702,
694,
675,
646,
629,
668,
643,
716,
799,
825,
815,
852,
737,
688,
595,
627,
552,
574,
602,
575,
556,
600,
579,
541,
571,
571,
551,
548,
532,
528,
496,
516,
551,
482,
481,
496,
504,
488,
465,
434,
464,
483,
461,
468,
443,
474,
428,
458,
455,
419,
453,
415,
399,
406,
384,
396,
396,
424,
379,
380,
381,
384,
389,
364,
338,
367,
379,
354,
382,
376,
370,
370,
350,
316,
341,
322,
310,
320,
313,
355,
328,
320,
319,
316,
321,
300,
307,
294,
300,
280,
292,
293,
263,
281,
265,
255,
291,
276,
262,
224,
252,
259,
257,
235,
275,
263,
273,
242,
226,
224,
232,
248,
228,
236,
226,
233,
210,
225,
235,
201,
214,
194,
213,
200,
197,
195,
172,
188,
188,
190,
197,
188,
165,
192,
195,
183,
180,
191,
142,
168,
176,
155,
162,
161,
177,
146,
164,
150,
159,
158,
148,
161,
127,
127,
123,
150,
134,
149,
127,
130,
119,
115,
118,
111,
126,
139,
122,
110,
107,
113,
118,
101,
84,
99,
115,
108,
91,
100,
85,
118,
94,
86,
96,
83,
95,
75,
78,
71,
74,
75,
95,
65,
66,
90,
60,
67,
66,
74,
77,
65,
78,
79,
65,
65,
58,
64,
53,
56,
43,
58,
54,
45,
29,
54,
44,
54,
51,
48,
48,
51,
53,
48,
34,
42,
34,
30,
33,
40,
27,
45,
38,
40,
31,
25,
34,
27,
27,
28,
33,
28,
31,
18,
15,
15,
20,
20,
20,
28,
27,
15,
18,
12,
19,
19,
17,
10,
12,
10,
18,
14,
8,
5,
9,
5,
5,
11,
9,
5,
6,
2,
9,
1,
1,
1,
1,
0,
1,
1,
1,
0,
1,
1,
1,
0,
0,
0,
0,
0,
0,
0,
0,
0,
0,
0,
0,
0,
0,
0,
0,
0,
0,
0,
0,
0,
0,
0,
0,
0,
0,
0,
0,
0,
0,
0,
0,
0,
2,
0,
0,
0,
0,
0,
0,
0,
0,
0,
0,
0,
0,
0,
0,
0,
0,
1,
0,
0,
0,
0,
0,
0,
1,
0,
0,
0,
0,
1,
0,
0,
0,
0,
0,
0,
0,
0,
0,
0,
0,
0,
0,
0,
0,
0,
0,
0,
0,
0,
0,
0,
0,
0,
0,
0,
0,
0,
0,
0,
0,
0,
0,
0,
0,
0,
0,
0,
0,
0,
0,
0,
0,
0,
0,
0,
0,
0,
0,
0,
0,
0,
0,
0,
0,
1,
0,
0,
0,
0,
0,
0,
0,
0,
0,
0,
0,
0,
0,
0,
0,
0,
0,
0,
0,
0,
0,
0,
0,
0,
0,
0,
0,
0,
0,
0,
0,
0,
0,
0,
0,
0,
0,
0,
0,
0,
0,
0,
0,
0,
0,
0,
0,
0,
0,
0,
1,
0,
0,
0,
0,
0,
0,
0,
0,
0,
0,
0,
0,
0,
0,
0,
0,
0,
0,
0,
0,
0,
0,
0,
0,
0,
0,
0,
0,
0,
0,
0,
0,
0,
0,
0,
0,
0,
0,
0,
0,
0,
0,
0,
0,
0,
0,
0,
0,
0,
0,
0,
0,
0,
0,
0,
0,
0,
0,
0,
0,
0,
0,
0,
0,
0,
0,
0,
0,
0,
0,
0,
0,
0,
0,
0,
0,
0,
0,
0,
0,
0,
0,
0,
0,
0,
0,
0,
0,
0,
0,
0,
0,
0,
0,
0,
0,
0,
0,
0,
0,
0,
0,
0,
0,
0,
0,
0,
0,
0,
0,
0,
0,
0,
0,
0,
0,
0,
0,
0,
0,
0,
0,
0,
0,
0,
0,
0,
0,
0,
0,
0,
0,
0,
0,
0,
0,
0,
0,
0,
0,
0,
0,
0,
0,
0,
0,
0,
0,
0,
0,
0,
0,
0,
0,
0,
0,
0,
0,
0,
0,
0,
0,
0,
0,
0,
0,
0,
0,
0,
0,
0,
0,
0,
0,
0,
0,
0,
0,
0,
0,
0,
0,
0,
0,
0,
0,
0,
1,
0,
0,
0,
0,
0,
0,
0,
0,
0,
0,
0,
0,
0,
0,
0,
0,
0,
0,
0,
0,
0,
0,
0,
0,
0,
0,
0,
0,
0,
0,
0,
0,
0,
0,
0,
0,
0,
0,
0,
0,
0,
0,
0,
0,
0,
0,
0,
0,
0,
0,
0,
0,
0,
0,
0,
0,
0,
0,
0,
0,
0,
0,
0,
0,
0,
0,
0,
0,
0,
0,
0,
0,
0,
0,
0,
0,
0,
0,
0,
0,
0,
0,
0,
0,
0,
0,
0,
0,
0,
0,
0,
0,
0,
0,
0,
0,
0,
0,
0,
0,
0,
0,
0,
0,
0,
0,
0,
0,
0,
0,
0,
0,
0,
0,
0,
0,
0,
0,
0,
0,
0,
0,
0,
0,
0,
0,
0,
0,
0,
0,
0,
0,
0,
0,
0,
0,
0,
0,
0,
0,
0,
0,
0,
0,
0,
0,
0,
0,
0,
0,
0,
0,
0,
0,
0,
0,
0,
0,
0,
0,
0,
0,
0,
0,
0,
0,
0,
0,
0,
0,
0,
0,
0,
0,
0,
0,
0,
0,
0,
0,
0,
0,
0,
0,
0,
0,
0,
0,
0,
0,
0,
0,
0,
0,
0,
0,
0,
0,
0,
0,
0,
0,
0,
0,
0,
0,
0,
0,
0,
0,
0,
0,
0,
0,
0,
0,
0,
0,
0,
0,
0,
0,
0,
0,
0,
0,
0,
0,
0,
0,
0,
0,
0,
0,
0,
0,
0,
0,
0,
0,
0,
0,
0,
0,
0,
0,
0,
0,
0,
0,
0,
0,
0,
0,
0,
0,
0,
0,
0,
0,
0,
0,
0,
0,
0,
0,
0,
0,
0,
0,
0,
0,
0,
0,
0,
0,
0,
0,
0,
0,
0,
0,
0,
0,
0,
0,
0,
0,
0,
0,
0,
0,
0,
0,
0,
0,
0,
0,
0,
0,
0,
0,
0,
0,
0,
0,
0,
0,
0,
0,
0,
0,
0,
0,
0,
0,
0,
0,
0,
0,
0,
0,
0,
0,
0,
0,
0,
0,
0,
0,
0,
0,
0,
0,
0,
0,
0,
0,
0,
0,
0,
0,
0,
0,
0,
0,
0,
0,
0,
0,
0,
0,
0,
0,
0,
0,
0,
0,
0,
0,
0,
0,
0,
0,
0,
0,
0,
0,
0,
0,
0,
0,
0,
0,
0,
0,
0,
0,
0,
0,
0,
0,
0,
0,
0,
0,
0,
0,
0,
0,
0,
0,
0,
0,
0,
0,
0,
0,
0,
0,
0,
0,
0,
0,
0,
0,
0,
0,
0,
0,
0,
0,
0,
0,
0,
0,
0,
0,
0,
0,
0,
0,
0,
0,
0,
0,
0,
0,
0,
0,
0,
0,
0,
0,
0,
0,
0,
0,
0,
0,
0,
0,
0,
0,
0,
0,
0,
0,
0,
0,
0,
0,
0,
0,
0,
0,
0,
0,
0,
0,
0,
0,
0,
0,
0,
0,
0,
0,
0,
0,
0,
0,
0,
0,
0,
0,
0,
0,
0,
0,
0,
0,
0,
0,
0,
0,
0,
0,
0,
0,
0,
0,
0,
0,
0,
0,
0,
0,
0,
0,
#ENDOFDATA   :