File: N132962/Quantification/15 keV/Mengason MM2/MMM2 Uvarovite[1][4].msa
#FORMAT      : EMSA/MAS Spectral Data File
#VERSION     : 1.0
#TITLE       : MMM2 Uvarovite[1][all]
#DATE        : 28-SEP-2025
#TIME        : 22:10
#OWNER       : Unknown
#NPOINTS     : 4096
#NCOLUMNS    : 1
#XUNITS      : eV
#YUNITS      : counts
#DATATYPE    : Y
#XPERCHAN    : 9.99778
#OFFSET      : 1.69135
#BEAMKV      : 15
#SIGNALTYPE  : EDS
#ELEVANGLE   : 35
#AZIMANGLE   : 0
#LIVETIME    : 240.192
#REALTIME    : 254.376
#PROBECUR    : 1.21223
#TAUWIND     : 0
#TDEADLYR    : 0
#TACTLYR     : 0.045
#TALWIND     : 0.025
#CHOFFSET    : 0.0
#XLABEL      : Energy (eV)
#YLABEL      : Counts
#XPOSITION   : -9.27452
#YPOSITION   : -0.10869
#ZPOSITION   : 34.11879
#EDSDET      : SD
##SPECIMEN   : MMM2 Uvarovite[1][all]
##DET_HASH   : 12273538-fd48-a23f-0a19-f1e6fa85caef
##CALIB_HASH : 6abaa72c-aa41-8738-0be9-f592914732f3
##WORKING    : 15.0 mm
##DET_NAME   : EDAX All
##DET_MODE   : MediumLE
#SPECTRUM    :
26,
24,
12,
16,
93,
449,
1381,
4772,
14284,
20846,
14385,
7598,
4985,
4398,
6720,
20550,
72154,
132779,
98385,
29558,
6918,
3316,
3120,
3525,
3635,
3086,
2980,
3222,
3370,
3588,
3704,
3775,
3889,
4230,
4389,
4508,
4469,
4541,
4548,
4796,
4872,
5036,
5261,
5181,
5240,
5303,
5637,
7817,
16247,
28673,
28964,
17183,
8706,
6260,
6473,
12694,
42066,
104264,
140540,
99231,
41452,
15405,
8109,
5375,
4509,
4319,
4026,
3675,
3510,
3373,
3339,
3393,
3484,
3434,
3496,
3543,
3567,
3318,
3157,
3215,
3112,
3129,
3071,
3046,
3070,
2935,
2886,
2958,
2945,
2887,
2921,
2855,
2778,
2759,
2720,
2682,
2799,
2566,
2642,
2577,
2650,
2557,
2607,
2531,
2493,
2556,
2416,
2599,
2518,
2447,
2349,
2354,
2332,
2346,
2426,
2441,
2636,
2878,
3613,
5793,
14445,
35832,
65812,
83265,
69664,
39368,
15670,
5493,
2697,
2443,
2964,
4363,
7391,
10581,
11592,
9366,
5757,
3246,
2099,
1774,
1720,
1762,
1728,
1643,
1622,
1528,
1707,
1775,
2402,
3108,
3578,
3378,
2800,
2027,
1659,
1546,
1468,
1446,
1408,
1339,
1364,
1438,
1622,
1715,
1925,
1986,
1803,
1591,
1388,
1285,
1278,
1344,
1331,
1324,
1390,
1576,
2304,
4542,
9303,
15251,
19862,
19063,
13763,
7545,
3664,
1912,
1301,
1154,
1161,
1169,
1168,
1065,
1211,
1218,
1296,
1696,
2459,
3152,
3521,
3250,
2442,
1720,
1276,
1018,
998,
924,
874,
914,
895,
987,
1107,
1324,
1609,
1702,
1657,
1518,
1117,
983,
900,
870,
841,
846,
819,
801,
807,
817,
792,
791,
775,
758,
750,
785,
792,
843,
887,
849,
858,
829,
757,
776,
709,
728,
716,
708,
735,
712,
715,
742,
642,
691,
633,
700,
636,
621,
639,
585,
635,
655,
576,
627,
577,
547,
586,
604,
566,
581,
546,
530,
582,
535,
564,
551,
546,
504,
544,
517,
543,
525,
486,
480,
473,
462,
456,
500,
462,
475,
476,
450,
490,
440,
447,
420,
468,
448,
401,
382,
433,
461,
426,
430,
405,
427,
435,
424,
433,
421,
408,
369,
374,
369,
386,
334,
365,
358,
362,
374,
350,
372,
341,
355,
348,
353,
363,
286,
336,
289,
296,
328,
306,
294,
291,
329,
304,
326,
284,
288,
305,
281,
296,
287,
281,
286,
272,
270,
269,
279,
270,
251,
268,
243,
265,
256,
246,
235,
248,
240,
238,
232,
231,
236,
199,
221,
237,
219,
217,
200,
198,
244,
210,
204,
192,
193,
189,
173,
168,
177,
173,
182,
185,
181,
166,
166,
167,
172,
174,
162,
160,
157,
136,
130,
161,
148,
140,
149,
139,
143,
129,
136,
122,
136,
127,
145,
138,
129,
138,
118,
127,
120,
113,
111,
125,
97,
118,
103,
110,
111,
86,
86,
93,
80,
102,
97,
90,
80,
77,
88,
86,
86,
71,
81,
67,
80,
81,
68,
86,
72,
57,
61,
65,
64,
64,
53,
52,
63,
37,
46,
59,
47,
55,
46,
52,
53,
37,
49,
42,
35,
51,
36,
20,
34,
41,
35,
29,
31,
36,
23,
33,
30,
34,
24,
30,
19,
29,
28,
28,
24,
20,
22,
10,
17,
8,
17,
19,
12,
16,
11,
10,
10,
8,
6,
11,
8,
8,
6,
4,
6,
4,
3,
2,
2,
2,
0,
0,
0,
1,
0,
0,
1,
0,
1,
0,
3,
1,
0,
0,
1,
0,
0,
0,
0,
0,
0,
0,
0,
0,
1,
1,
3,
1,
2,
0,
1,
0,
0,
1,
0,
0,
0,
0,
0,
0,
1,
0,
0,
0,
0,
0,
1,
1,
0,
0,
0,
2,
0,
0,
0,
0,
0,
0,
0,
1,
1,
0,
0,
0,
1,
0,
1,
0,
0,
0,
1,
0,
0,
2,
0,
0,
0,
0,
0,
0,
0,
0,
1,
0,
1,
0,
0,
0,
0,
0,
1,
0,
0,
0,
0,
0,
1,
1,
0,
0,
0,
0,
0,
0,
0,
0,
0,
0,
0,
0,
0,
0,
0,
0,
0,
0,
0,
0,
0,
0,
0,
0,
0,
0,
0,
0,
1,
0,
0,
0,
0,
0,
0,
0,
0,
0,
0,
0,
0,
0,
0,
0,
0,
0,
0,
0,
0,
0,
0,
0,
0,
0,
0,
0,
1,
0,
0,
0,
0,
0,
0,
0,
0,
0,
0,
0,
0,
0,
0,
0,
0,
0,
0,
0,
0,
0,
0,
0,
0,
0,
0,
0,
0,
0,
0,
0,
0,
0,
0,
0,
0,
0,
0,
0,
0,
0,
0,
0,
0,
0,
0,
0,
0,
0,
0,
0,
0,
0,
0,
0,
0,
0,
0,
0,
0,
0,
0,
0,
0,
0,
0,
0,
0,
0,
0,
0,
0,
0,
0,
0,
0,
0,
0,
0,
0,
0,
0,
0,
0,
0,
0,
0,
0,
0,
0,
0,
0,
0,
0,
0,
0,
0,
0,
0,
0,
0,
0,
0,
0,
0,
0,
0,
0,
0,
0,
0,
0,
0,
0,
0,
0,
0,
0,
0,
0,
0,
0,
0,
0,
0,
0,
0,
0,
0,
0,
0,
0,
0,
0,
0,
0,
0,
0,
0,
0,
0,
0,
0,
0,
0,
0,
0,
0,
0,
0,
0,
0,
0,
0,
0,
0,
0,
0,
0,
0,
0,
0,
0,
0,
0,
0,
0,
0,
0,
0,
0,
0,
0,
0,
0,
0,
0,
0,
0,
0,
0,
0,
0,
0,
0,
0,
0,
0,
0,
0,
0,
0,
0,
0,
0,
0,
0,
0,
0,
0,
0,
0,
0,
0,
0,
0,
0,
0,
0,
0,
0,
0,
0,
0,
0,
0,
0,
0,
0,
0,
0,
0,
0,
0,
0,
0,
0,
0,
0,
0,
0,
0,
0,
0,
0,
0,
0,
0,
0,
0,
0,
0,
0,
0,
0,
0,
0,
0,
0,
0,
0,
0,
0,
0,
0,
0,
1,
0,
0,
0,
0,
0,
0,
0,
0,
0,
0,
0,
0,
0,
0,
0,
0,
0,
0,
0,
0,
0,
0,
0,
0,
0,
0,
0,
0,
0,
0,
0,
0,
0,
0,
0,
0,
0,
0,
0,
0,
0,
0,
0,
0,
0,
0,
0,
0,
0,
0,
0,
0,
0,
0,
0,
0,
0,
0,
0,
0,
0,
0,
0,
0,
0,
0,
0,
0,
0,
0,
0,
0,
0,
0,
0,
0,
0,
0,
0,
0,
0,
0,
0,
0,
0,
0,
0,
0,
0,
0,
0,
0,
0,
0,
0,
0,
0,
0,
0,
0,
0,
0,
0,
0,
0,
0,
0,
0,
0,
0,
0,
0,
0,
0,
0,
0,
0,
0,
0,
0,
0,
0,
0,
0,
0,
0,
0,
0,
0,
0,
0,
0,
0,
0,
0,
0,
0,
0,
0,
0,
0,
0,
0,
0,
0,
0,
0,
0,
0,
0,
0,
0,
0,
0,
0,
0,
0,
0,
0,
0,
0,
0,
0,
0,
0,
0,
0,
0,
0,
0,
0,
0,
0,
0,
0,
0,
0,
0,
0,
0,
0,
0,
0,
0,
0,
0,
0,
0,
0,
0,
0,
0,
0,
0,
0,
0,
0,
0,
0,
0,
0,
0,
0,
0,
0,
0,
0,
0,
0,
0,
0,
0,
0,
0,
0,
0,
0,
0,
0,
0,
0,
0,
0,
0,
0,
0,
0,
0,
0,
0,
0,
0,
0,
0,
0,
0,
0,
0,
0,
0,
0,
0,
0,
0,
0,
0,
0,
0,
0,
0,
0,
0,
0,
0,
0,
0,
0,
0,
0,
0,
0,
0,
0,
0,
0,
0,
0,
0,
0,
0,
0,
0,
0,
0,
0,
0,
0,
0,
0,
0,
0,
0,
0,
0,
0,
0,
0,
0,
0,
0,
0,
0,
0,
0,
0,
0,
0,
0,
0,
0,
0,
0,
0,
0,
0,
0,
0,
0,
0,
0,
0,
0,
0,
0,
0,
0,
0,
0,
0,
0,
0,
0,
0,
0,
0,
0,
0,
0,
0,
0,
0,
0,
0,
0,
0,
0,
0,
0,
0,
0,
0,
0,
0,
0,
0,
0,
0,
0,
0,
0,
0,
0,
0,
0,
0,
0,
0,
0,
0,
0,
0,
0,
0,
0,
0,
0,
0,
0,
0,
0,
0,
0,
0,
0,
0,
0,
0,
0,
0,
0,
0,
0,
0,
0,
0,
0,
0,
0,
0,
0,
0,
0,
0,
0,
0,
0,
0,
0,
0,
0,
0,
0,
0,
0,
0,
0,
0,
0,
0,
0,
0,
0,
0,
0,
0,
0,
0,
0,
0,
0,
0,
0,
0,
0,
0,
0,
0,
0,
0,
0,
0,
0,
0,
0,
0,
0,
0,
0,
0,
0,
0,
0,
0,
0,
0,
0,
0,
0,
0,
0,
0,
0,
0,
#ENDOFDATA   :