File: N132962/Quantification/15 keV/Mengason MM2/MMM2 Pyrope[5][4].msa
#FORMAT      : EMSA/MAS Spectral Data File
#VERSION     : 1.0
#TITLE       : MMM2 Pyrope[5][all]
#DATE        : 28-SEP-2025
#TIME        : 21:54
#OWNER       : Unknown
#NPOINTS     : 4096
#NCOLUMNS    : 1
#XUNITS      : eV
#YUNITS      : counts
#DATATYPE    : Y
#XPERCHAN    : 9.99778
#OFFSET      : 1.69135
#BEAMKV      : 15
#SIGNALTYPE  : EDS
#ELEVANGLE   : 35
#AZIMANGLE   : 0
#LIVETIME    : 240.436
#REALTIME    : 256.93
#PROBECUR    : 1.21223
#TAUWIND     : 0
#TDEADLYR    : 0
#TACTLYR     : 0.045
#TALWIND     : 0.025
#CHOFFSET    : 0.0
#XLABEL      : Energy (eV)
#YLABEL      : Counts
#XPOSITION   : -13.89438
#YPOSITION   : -1.89011
#ZPOSITION   : 34.11879
#EDSDET      : SD
##SPECIMEN   : MMM2 Pyrope[5][all]
##D2STDCMP   : Pyrope,(O:47.6258),(Mg:18.0873),(Al:13.3861),(Si:20.9007),5.0
##DET_HASH   : 12273538-fd48-a23f-0a19-f1e6fa85caef
##CALIB_HASH : 6abaa72c-aa41-8738-0be9-f592914732f3
##WORKING    : 15.0 mm
##DET_NAME   : EDAX All
##DET_MODE   : MediumLE
#SPECTRUM    :
29,
24,
7,
13,
97,
378,
1163,
3966,
11218,
14579,
7967,
4124,
4131,
5250,
9516,
34937,
132956,
250580,
181601,
48332,
8066,
4605,
6262,
9898,
9990,
6000,
3859,
3646,
3559,
3669,
3869,
3965,
4176,
4523,
5199,
5481,
5158,
5370,
6265,
11292,
36441,
88053,
104889,
60726,
19063,
7042,
6311,
13765,
42983,
85296,
86944,
45765,
15885,
6762,
5683,
11765,
42197,
105558,
142932,
101629,
41756,
14564,
7307,
4402,
3145,
2934,
3011,
3049,
2849,
2819,
2655,
2581,
2545,
2701,
2861,
3020,
3010,
2788,
2560,
2593,
2476,
2573,
2482,
2521,
2372,
2366,
2433,
2403,
2390,
2380,
2355,
2352,
2412,
2233,
2280,
2246,
2173,
2179,
2257,
2398,
2315,
2223,
2140,
2076,
2082,
2084,
2092,
2121,
2069,
2047,
2023,
1817,
1899,
1830,
1860,
2004,
1919,
1970,
1953,
2129,
3142,
5792,
9347,
11419,
9783,
6028,
3293,
2022,
1771,
1613,
1687,
1805,
2188,
2599,
2713,
2430,
1989,
1698,
1533,
1473,
1414,
1377,
1396,
1443,
1361,
1312,
1371,
1398,
1545,
1787,
1906,
1817,
1640,
1365,
1330,
1264,
1330,
1230,
1252,
1166,
1216,
1261,
1215,
1228,
1327,
1302,
1248,
1131,
1111,
1145,
1072,
1054,
1069,
1051,
1074,
1099,
1135,
1205,
1409,
1901,
2153,
2092,
1817,
1445,
1061,
974,
931,
971,
937,
899,
912,
910,
947,
970,
1060,
1184,
1211,
1289,
1135,
1104,
935,
918,
855,
822,
851,
833,
783,
901,
985,
1424,
2339,
3948,
5994,
7104,
6673,
5099,
3072,
1772,
1081,
800,
713,
705,
693,
737,
628,
696,
685,
687,
675,
704,
701,
827,
1004,
1109,
1296,
1370,
1317,
1106,
899,
720,
654,
590,
550,
536,
529,
556,
512,
592,
564,
547,
561,
542,
536,
552,
516,
483,
506,
524,
548,
486,
484,
473,
458,
480,
497,
439,
475,
463,
410,
451,
488,
458,
461,
473,
407,
404,
453,
384,
430,
421,
424,
387,
372,
380,
387,
387,
388,
362,
381,
365,
378,
348,
369,
394,
326,
360,
329,
348,
338,
332,
326,
317,
328,
342,
307,
330,
330,
328,
341,
344,
335,
299,
310,
288,
282,
294,
292,
281,
258,
301,
259,
243,
258,
329,
264,
252,
260,
239,
264,
242,
213,
241,
233,
243,
244,
212,
227,
242,
224,
247,
208,
212,
220,
206,
214,
191,
204,
224,
199,
207,
205,
205,
180,
194,
172,
179,
185,
185,
174,
170,
171,
169,
171,
185,
191,
154,
170,
134,
162,
177,
157,
138,
138,
150,
149,
163,
153,
138,
139,
129,
131,
136,
120,
153,
109,
109,
126,
128,
130,
133,
125,
107,
118,
115,
101,
101,
112,
113,
109,
127,
106,
106,
108,
112,
98,
108,
92,
93,
96,
81,
94,
72,
79,
78,
73,
98,
78,
71,
76,
77,
65,
67,
63,
72,
73,
64,
63,
57,
54,
62,
67,
59,
72,
64,
48,
52,
60,
45,
61,
37,
46,
44,
43,
59,
46,
49,
46,
42,
44,
28,
29,
36,
32,
29,
29,
28,
39,
31,
36,
29,
23,
26,
31,
25,
35,
30,
27,
31,
17,
20,
21,
18,
20,
22,
15,
18,
17,
22,
14,
14,
10,
8,
8,
17,
8,
13,
8,
12,
7,
5,
4,
8,
7,
7,
3,
3,
4,
2,
2,
4,
1,
0,
1,
0,
0,
0,
0,
0,
0,
0,
0,
0,
0,
1,
0,
0,
0,
0,
0,
0,
0,
0,
1,
0,
0,
0,
0,
0,
0,
1,
0,
0,
1,
0,
0,
0,
0,
0,
1,
0,
0,
1,
1,
0,
0,
0,
1,
1,
0,
0,
0,
0,
0,
0,
0,
0,
0,
0,
0,
1,
0,
0,
0,
0,
0,
0,
0,
0,
0,
0,
0,
0,
0,
0,
0,
0,
1,
0,
0,
0,
0,
0,
0,
0,
0,
0,
0,
1,
0,
0,
0,
0,
0,
1,
0,
0,
0,
0,
0,
0,
0,
1,
0,
0,
0,
0,
0,
0,
0,
0,
0,
0,
0,
1,
0,
0,
0,
1,
0,
0,
0,
1,
0,
0,
0,
0,
0,
0,
0,
0,
0,
0,
0,
0,
0,
0,
0,
0,
0,
0,
0,
0,
0,
0,
0,
0,
1,
0,
0,
0,
0,
0,
0,
0,
0,
0,
0,
0,
0,
0,
0,
0,
0,
0,
0,
0,
0,
0,
0,
0,
0,
0,
0,
0,
0,
0,
0,
0,
0,
0,
0,
0,
0,
0,
0,
0,
0,
0,
0,
0,
1,
0,
0,
0,
0,
0,
0,
0,
0,
0,
0,
0,
0,
0,
0,
0,
0,
0,
0,
0,
0,
0,
0,
0,
0,
0,
0,
0,
0,
0,
0,
0,
0,
0,
0,
0,
0,
0,
0,
0,
0,
0,
0,
0,
0,
0,
0,
0,
0,
0,
0,
0,
0,
0,
0,
0,
0,
0,
0,
0,
0,
0,
0,
0,
0,
0,
0,
0,
0,
0,
0,
0,
0,
0,
0,
0,
0,
0,
0,
0,
0,
0,
0,
0,
0,
0,
0,
0,
0,
0,
0,
0,
0,
0,
0,
0,
0,
0,
0,
0,
0,
0,
0,
0,
0,
0,
0,
0,
0,
0,
0,
0,
0,
0,
0,
0,
0,
0,
0,
0,
0,
0,
0,
0,
0,
0,
0,
0,
0,
0,
0,
0,
0,
0,
0,
0,
0,
0,
0,
0,
0,
0,
0,
0,
0,
0,
0,
0,
0,
0,
0,
0,
0,
0,
0,
0,
0,
0,
0,
0,
0,
0,
0,
0,
0,
0,
0,
0,
0,
0,
0,
0,
0,
0,
0,
0,
0,
0,
0,
0,
0,
0,
0,
0,
0,
0,
0,
0,
0,
0,
0,
0,
0,
0,
0,
0,
0,
0,
0,
0,
0,
0,
0,
0,
0,
0,
0,
0,
0,
0,
0,
0,
0,
0,
0,
0,
0,
0,
0,
0,
0,
0,
0,
0,
0,
0,
0,
0,
0,
0,
0,
0,
0,
0,
0,
0,
0,
0,
0,
0,
0,
0,
0,
0,
0,
0,
0,
0,
0,
0,
0,
0,
0,
0,
0,
0,
0,
0,
0,
0,
0,
0,
0,
0,
0,
0,
0,
0,
0,
0,
0,
0,
0,
0,
0,
0,
0,
0,
0,
0,
0,
0,
0,
0,
0,
0,
0,
0,
0,
0,
0,
0,
0,
0,
0,
0,
0,
0,
0,
0,
0,
0,
0,
0,
0,
0,
0,
0,
0,
0,
0,
0,
0,
0,
0,
0,
0,
0,
0,
0,
0,
0,
0,
0,
0,
0,
0,
0,
0,
0,
0,
0,
0,
0,
0,
0,
0,
0,
0,
0,
0,
0,
0,
0,
0,
0,
0,
0,
0,
0,
0,
0,
0,
0,
0,
0,
0,
0,
0,
0,
0,
0,
0,
0,
0,
0,
0,
0,
0,
0,
0,
0,
0,
0,
0,
0,
0,
0,
0,
0,
0,
0,
0,
0,
0,
0,
0,
0,
0,
0,
0,
0,
0,
0,
0,
0,
0,
0,
0,
0,
0,
0,
0,
0,
0,
0,
0,
0,
0,
0,
0,
0,
0,
0,
0,
0,
0,
0,
0,
0,
0,
0,
0,
0,
0,
0,
0,
0,
0,
0,
0,
0,
0,
0,
0,
0,
0,
0,
0,
0,
0,
0,
0,
0,
0,
0,
0,
0,
0,
0,
0,
0,
0,
0,
0,
0,
0,
0,
0,
0,
0,
0,
0,
0,
0,
0,
0,
0,
0,
0,
0,
0,
0,
0,
0,
0,
0,
0,
0,
0,
0,
0,
0,
0,
0,
0,
0,
0,
0,
0,
0,
0,
0,
0,
0,
0,
0,
0,
0,
0,
0,
0,
0,
0,
0,
0,
0,
0,
0,
0,
0,
0,
0,
0,
0,
0,
0,
0,
0,
0,
0,
0,
0,
0,
0,
0,
0,
0,
0,
0,
0,
0,
0,
0,
0,
0,
0,
0,
0,
0,
0,
0,
0,
0,
0,
0,
0,
0,
0,
0,
0,
0,
0,
0,
0,
0,
0,
0,
0,
0,
0,
0,
0,
0,
0,
0,
0,
0,
0,
0,
0,
0,
0,
0,
0,
0,
0,
0,
0,
0,
0,
0,
0,
0,
0,
0,
0,
0,
0,
0,
0,
0,
0,
0,
0,
0,
0,
0,
0,
0,
0,
0,
0,
0,
0,
0,
0,
0,
0,
0,
0,
0,
0,
0,
0,
0,
0,
0,
0,
0,
0,
0,
0,
0,
0,
0,
0,
0,
0,
0,
0,
0,
0,
0,
0,
0,
0,
0,
0,
0,
0,
0,
0,
0,
0,
0,
0,
0,
0,
0,
0,
0,
0,
0,
0,
0,
0,
0,
0,
0,
0,
0,
0,
0,
0,
0,
0,
0,
0,
0,
0,
0,
0,
0,
0,
0,
#ENDOFDATA   :