File: N132962/Quantification/15 keV/Mengason MM2/MMM2 Zircon[0][4].msa
#FORMAT      : EMSA/MAS Spectral Data File
#VERSION     : 1.0
#TITLE       : MMM2 Zircon[0][all]
#DATE        : 29-SEP-2025
#TIME        : 01:05
#OWNER       : Unknown
#NPOINTS     : 4096
#NCOLUMNS    : 1
#XUNITS      : eV
#YUNITS      : counts
#DATATYPE    : Y
#XPERCHAN    : 9.99778
#OFFSET      : 1.69135
#BEAMKV      : 15
#SIGNALTYPE  : EDS
#ELEVANGLE   : 35
#AZIMANGLE   : 0
#LIVETIME    : 240.29
#REALTIME    : 257.125
#PROBECUR    : 1.21248
#TAUWIND     : 0
#TDEADLYR    : 0
#TACTLYR     : 0.045
#TALWIND     : 0.025
#CHOFFSET    : 0.0
#XLABEL      : Energy (eV)
#YLABEL      : Counts
#XPOSITION   : -13.66119
#YPOSITION   : 6.99355
#ZPOSITION   : 34.11879
#EDSDET      : SD
##SPECIMEN   : MMM2 Zircon[0][all]
##D2STDCMP   : Zircon,(O:34.9128),(Si:15.3216),(Zr:49.7657),8.0
##DET_HASH   : 12273538-fd48-a23f-0a19-f1e6fa85caef
##CALIB_HASH : 6abaa72c-aa41-8738-0be9-f592914732f3
##WORKING    : 15.0 mm
##DET_NAME   : EDAX All
##DET_MODE   : MediumLE
#SPECTRUM    :
14,
30,
9,
74,
449,
1352,
2253,
5325,
14625,
20185,
12069,
5599,
4586,
5181,
6394,
17101,
57572,
106577,
78089,
21596,
5188,
3794,
3906,
4538,
4863,
4871,
4884,
5216,
5477,
5581,
5766,
6046,
6172,
6423,
6560,
6598,
6676,
6868,
6810,
7158,
7129,
7240,
7434,
7686,
7501,
7627,
7650,
7730,
7866,
7959,
8041,
8086,
8152,
8659,
10640,
17758,
48424,
112717,
151862,
111785,
52938,
24042,
14360,
11399,
12164,
20559,
48271,
101839,
141811,
126528,
93595,
72381,
49612,
28251,
16467,
10038,
6582,
4803,
4087,
3661,
3528,
3635,
3749,
4355,
4244,
4034,
3743,
3322,
3138,
3328,
3116,
3208,
3212,
3153,
3153,
3155,
3142,
3166,
3268,
3173,
3200,
3191,
2978,
3104,
3014,
3075,
3155,
3126,
3067,
3093,
3048,
3078,
2952,
2993,
3031,
3023,
3003,
2953,
2853,
2958,
2816,
2904,
2964,
2898,
2891,
2986,
3059,
2990,
2853,
2783,
2800,
2685,
2677,
2673,
2648,
2739,
2689,
2762,
2665,
2664,
2611,
2505,
2472,
2460,
2507,
2458,
2411,
2488,
2307,
2488,
2354,
2288,
2308,
2341,
2301,
2303,
2262,
2228,
2112,
2198,
2177,
2096,
2131,
2151,
2132,
2161,
2137,
2115,
2100,
1956,
1939,
2042,
2001,
1992,
2004,
1950,
1941,
1911,
1875,
1882,
1838,
1857,
1801,
1829,
1831,
1772,
1832,
1774,
1753,
1824,
1787,
1815,
1697,
1715,
1661,
1655,
1671,
1696,
1695,
1632,
1619,
1583,
1662,
1596,
1619,
1590,
1596,
1473,
1567,
1578,
1448,
1505,
1503,
1534,
1529,
1451,
1447,
1398,
1373,
1405,
1372,
1447,
1451,
1262,
1327,
1389,
1299,
1308,
1291,
1310,
1231,
1277,
1309,
1264,
1254,
1228,
1248,
1247,
1265,
1221,
1247,
1238,
1215,
1182,
1098,
1169,
1178,
1135,
1169,
1204,
1119,
1081,
1102,
1039,
1009,
1057,
1073,
1027,
1023,
1079,
1083,
1137,
1188,
1165,
1104,
1054,
1027,
979,
937,
923,
932,
928,
885,
895,
851,
885,
844,
878,
893,
862,
843,
879,
821,
853,
813,
815,
857,
803,
813,
762,
785,
784,
772,
817,
760,
813,
760,
748,
735,
776,
819,
778,
735,
692,
706,
727,
676,
744,
733,
696,
655,
689,
707,
645,
672,
630,
643,
631,
610,
596,
636,
599,
612,
588,
589,
584,
558,
580,
550,
568,
561,
557,
556,
522,
568,
534,
476,
527,
537,
560,
535,
486,
528,
478,
452,
463,
494,
494,
460,
485,
448,
412,
465,
433,
473,
431,
405,
408,
409,
432,
423,
412,
430,
394,
398,
399,
391,
343,
400,
357,
349,
364,
351,
389,
359,
369,
332,
333,
320,
336,
298,
348,
320,
309,
292,
280,
277,
309,
272,
274,
292,
267,
286,
258,
271,
275,
258,
289,
236,
228,
250,
263,
237,
262,
234,
241,
244,
211,
233,
192,
209,
187,
218,
209,
188,
221,
191,
187,
192,
162,
176,
184,
166,
138,
154,
160,
158,
170,
157,
154,
139,
143,
137,
127,
129,
128,
131,
135,
129,
125,
115,
132,
125,
100,
116,
117,
126,
102,
106,
109,
82,
88,
76,
83,
93,
100,
73,
85,
78,
69,
75,
85,
81,
80,
57,
70,
60,
54,
56,
52,
56,
43,
43,
48,
50,
42,
47,
50,
28,
52,
33,
30,
31,
24,
39,
30,
16,
15,
19,
15,
13,
13,
6,
14,
9,
6,
7,
5,
3,
2,
2,
3,
2,
2,
2,
0,
1,
1,
2,
1,
0,
2,
0,
0,
1,
1,
1,
2,
1,
1,
0,
0,
1,
1,
0,
1,
0,
0,
0,
0,
0,
1,
1,
1,
0,
0,
1,
0,
3,
0,
0,
0,
0,
1,
0,
0,
0,
1,
0,
0,
0,
0,
0,
0,
1,
1,
0,
1,
1,
0,
0,
2,
0,
0,
1,
0,
0,
2,
0,
0,
1,
0,
0,
0,
0,
0,
0,
0,
1,
0,
0,
1,
0,
0,
0,
0,
0,
0,
0,
0,
1,
0,
0,
0,
0,
1,
0,
1,
0,
0,
0,
0,
0,
0,
0,
0,
0,
0,
1,
0,
0,
1,
0,
0,
0,
0,
0,
0,
0,
1,
0,
0,
0,
0,
1,
0,
0,
0,
0,
0,
0,
0,
0,
0,
0,
0,
0,
0,
0,
0,
0,
0,
0,
0,
0,
0,
0,
0,
0,
0,
0,
0,
0,
1,
0,
0,
0,
0,
0,
0,
1,
0,
0,
0,
0,
0,
0,
0,
0,
0,
0,
0,
0,
0,
0,
0,
0,
0,
0,
0,
0,
0,
0,
0,
0,
0,
1,
0,
0,
0,
0,
0,
0,
0,
0,
0,
0,
0,
0,
0,
0,
1,
0,
0,
0,
0,
0,
0,
1,
0,
0,
0,
0,
0,
0,
0,
0,
0,
0,
0,
1,
0,
1,
0,
0,
0,
0,
0,
0,
0,
0,
0,
0,
0,
0,
0,
0,
0,
0,
0,
0,
0,
0,
0,
0,
0,
0,
0,
0,
0,
0,
1,
0,
0,
0,
0,
0,
0,
0,
0,
0,
0,
0,
0,
0,
0,
0,
0,
0,
0,
0,
0,
0,
0,
0,
0,
0,
0,
0,
0,
0,
0,
0,
0,
0,
0,
0,
0,
0,
0,
0,
0,
0,
0,
0,
0,
0,
0,
0,
0,
0,
0,
0,
0,
0,
0,
0,
0,
0,
0,
0,
0,
0,
0,
0,
0,
0,
0,
0,
0,
0,
0,
0,
0,
0,
0,
0,
0,
0,
0,
0,
0,
0,
0,
0,
0,
0,
0,
0,
0,
1,
0,
0,
0,
0,
0,
0,
0,
0,
0,
0,
0,
0,
0,
0,
0,
0,
0,
0,
0,
0,
0,
0,
0,
0,
0,
0,
0,
0,
0,
0,
0,
0,
0,
0,
0,
0,
0,
0,
0,
0,
0,
0,
0,
0,
0,
0,
0,
0,
0,
0,
0,
0,
0,
0,
0,
0,
0,
0,
0,
0,
0,
0,
0,
0,
0,
0,
0,
0,
0,
0,
0,
0,
0,
0,
0,
0,
0,
0,
0,
0,
0,
0,
0,
0,
0,
0,
0,
0,
0,
0,
0,
0,
0,
0,
0,
0,
0,
0,
0,
0,
0,
0,
0,
0,
0,
0,
0,
0,
0,
0,
0,
0,
0,
0,
0,
0,
0,
0,
0,
0,
0,
0,
0,
0,
0,
0,
0,
0,
0,
0,
0,
0,
0,
0,
0,
0,
0,
0,
0,
0,
0,
0,
0,
0,
0,
0,
0,
0,
0,
0,
0,
0,
0,
0,
0,
0,
0,
0,
0,
0,
0,
0,
0,
0,
0,
0,
0,
0,
0,
0,
0,
0,
0,
0,
0,
0,
0,
0,
0,
0,
0,
0,
0,
0,
0,
0,
0,
0,
0,
0,
0,
0,
0,
0,
0,
0,
0,
0,
0,
0,
0,
0,
0,
0,
0,
0,
0,
0,
0,
0,
0,
0,
0,
0,
0,
0,
0,
0,
0,
0,
0,
0,
0,
0,
0,
0,
0,
0,
0,
0,
0,
0,
0,
0,
0,
0,
0,
0,
0,
0,
0,
0,
0,
0,
0,
0,
0,
0,
0,
0,
0,
0,
0,
0,
0,
0,
0,
0,
0,
0,
0,
0,
0,
0,
0,
0,
0,
0,
0,
0,
0,
0,
0,
0,
0,
0,
0,
0,
0,
0,
0,
0,
0,
0,
0,
0,
0,
0,
0,
0,
0,
0,
0,
0,
0,
0,
0,
0,
0,
0,
0,
0,
0,
0,
0,
0,
0,
0,
0,
0,
0,
0,
0,
0,
0,
0,
0,
0,
0,
0,
0,
0,
0,
0,
0,
0,
0,
0,
0,
0,
0,
0,
0,
0,
0,
0,
0,
0,
0,
0,
0,
0,
0,
0,
0,
0,
0,
0,
0,
0,
0,
0,
0,
0,
0,
0,
0,
0,
0,
0,
0,
0,
0,
0,
0,
0,
0,
0,
0,
0,
0,
0,
0,
0,
0,
0,
0,
0,
0,
0,
0,
0,
0,
0,
0,
0,
0,
0,
0,
0,
0,
0,
0,
0,
0,
0,
0,
0,
0,
0,
0,
0,
0,
0,
0,
0,
0,
0,
0,
0,
0,
0,
0,
0,
0,
0,
0,
0,
0,
0,
0,
0,
0,
0,
0,
0,
0,
0,
0,
0,
0,
0,
0,
0,
0,
0,
0,
0,
0,
0,
0,
0,
0,
0,
0,
0,
0,
0,
0,
0,
0,
0,
0,
0,
0,
0,
0,
0,
0,
0,
0,
0,
0,
0,
0,
0,
0,
0,
0,
0,
0,
0,
0,
0,
0,
0,
0,
0,
0,
0,
0,
0,
0,
0,
0,
0,
0,
0,
0,
0,
0,
0,
0,
0,
0,
0,
0,
0,
0,
0,
0,
0,
0,
0,
0,
0,
0,
0,
0,
0,
0,
0,
0,
0,
0,
0,
0,
0,
0,
0,
0,
0,
0,
0,
0,
#ENDOFDATA   :