File: N132962/Quantification/15 keV/Mengason MM2/MMM2 Zircon-2[6][4].msa
#FORMAT      : EMSA/MAS Spectral Data File
#VERSION     : 1.0
#TITLE       : MMM2 Zircon-2[6][all]
#DATE        : 29-SEP-2025
#TIME        : 01:22
#OWNER       : Unknown
#NPOINTS     : 4096
#NCOLUMNS    : 1
#XUNITS      : eV
#YUNITS      : counts
#DATATYPE    : Y
#XPERCHAN    : 9.99778
#OFFSET      : 1.69135
#BEAMKV      : 15
#SIGNALTYPE  : EDS
#ELEVANGLE   : 35
#AZIMANGLE   : 0
#LIVETIME    : 240.327
#REALTIME    : 257.127
#PROBECUR    : 1.21248
#TAUWIND     : 0
#TDEADLYR    : 0
#TACTLYR     : 0.045
#TALWIND     : 0.025
#CHOFFSET    : 0.0
#XLABEL      : Energy (eV)
#YLABEL      : Counts
#XPOSITION   : -14.67849
#YPOSITION   : 7.55358
#ZPOSITION   : 34.11879
#EDSDET      : SD
##SPECIMEN   : MMM2 Zircon-2[6][all]
##DET_HASH   : 12273538-fd48-a23f-0a19-f1e6fa85caef
##CALIB_HASH : 6abaa72c-aa41-8738-0be9-f592914732f3
##WORKING    : 15.0 mm
##DET_NAME   : EDAX All
##DET_MODE   : MediumLE
#SPECTRUM    :
23,
26,
10,
61,
451,
1292,
2296,
5320,
14689,
19946,
12019,
5599,
4711,
5269,
6536,
16883,
58155,
107893,
78721,
22254,
5178,
3853,
4269,
4628,
4603,
4745,
4833,
5216,
5530,
5641,
5746,
5956,
6269,
6273,
6530,
6746,
6578,
6747,
6896,
7150,
7043,
7465,
7578,
7561,
7545,
7704,
7791,
7898,
7901,
8252,
8177,
8412,
8532,
8858,
10579,
17563,
47158,
110076,
148334,
110398,
52304,
23909,
14728,
12416,
13958,
22587,
50127,
102492,
140350,
124700,
91762,
71046,
47977,
27665,
16357,
9873,
6357,
4892,
4190,
3687,
3609,
3633,
3799,
4322,
4299,
3892,
3570,
3449,
3333,
3160,
3274,
3250,
3263,
3111,
3084,
3082,
3181,
3155,
3144,
3081,
3141,
3154,
3187,
3082,
3182,
3048,
3076,
3052,
3077,
3070,
3151,
3030,
3024,
2915,
3028,
3021,
3105,
3003,
2972,
2900,
3058,
2920,
3031,
2918,
3072,
3019,
2919,
3096,
2847,
2805,
2773,
2755,
2688,
2764,
2696,
2764,
2748,
2832,
2711,
2755,
2580,
2540,
2539,
2526,
2369,
2341,
2430,
2382,
2398,
2302,
2368,
2305,
2283,
2278,
2233,
2199,
2289,
2235,
2132,
2196,
2107,
2212,
2154,
2120,
2133,
2128,
2162,
2033,
2041,
2009,
2124,
2015,
2061,
1976,
1948,
1991,
1899,
1885,
1961,
1906,
1951,
1927,
1800,
1910,
1812,
1862,
1767,
1778,
1808,
1713,
1678,
1727,
1764,
1698,
1660,
1674,
1719,
1623,
1745,
1651,
1605,
1667,
1610,
1589,
1590,
1557,
1612,
1605,
1562,
1525,
1546,
1589,
1512,
1622,
1652,
1483,
1507,
1469,
1470,
1415,
1423,
1406,
1388,
1296,
1328,
1327,
1325,
1331,
1295,
1282,
1251,
1312,
1244,
1323,
1254,
1399,
1244,
1268,
1196,
1204,
1130,
1270,
1200,
1147,
1178,
1154,
1138,
1137,
1121,
1116,
1119,
1137,
1123,
1090,
1128,
1014,
1091,
999,
1014,
1067,
1057,
1112,
1105,
1124,
1127,
1054,
999,
1023,
998,
941,
911,
914,
950,
988,
929,
922,
850,
908,
902,
888,
835,
884,
886,
837,
796,
809,
845,
789,
792,
808,
806,
752,
780,
818,
795,
763,
792,
784,
778,
771,
815,
754,
712,
751,
702,
734,
692,
725,
666,
717,
743,
698,
661,
654,
645,
650,
646,
591,
593,
650,
632,
580,
593,
610,
600,
614,
579,
583,
542,
571,
571,
542,
553,
527,
524,
518,
548,
522,
525,
530,
495,
514,
490,
506,
510,
516,
436,
503,
495,
486,
419,
444,
425,
427,
420,
414,
436,
431,
448,
419,
407,
416,
415,
376,
419,
364,
390,
371,
390,
362,
329,
358,
358,
333,
338,
325,
302,
320,
307,
339,
330,
324,
336,
316,
308,
298,
296,
285,
290,
286,
307,
296,
231,
242,
277,
250,
248,
251,
239,
248,
257,
245,
232,
260,
229,
246,
211,
198,
213,
220,
206,
219,
224,
190,
187,
184,
180,
177,
180,
184,
191,
174,
170,
179,
172,
169,
163,
161,
177,
150,
169,
153,
138,
149,
134,
133,
139,
108,
120,
135,
126,
103,
109,
111,
113,
103,
105,
117,
84,
105,
80,
94,
107,
87,
86,
96,
74,
76,
75,
59,
54,
81,
89,
76,
64,
61,
63,
49,
50,
52,
62,
47,
52,
42,
43,
46,
38,
39,
34,
41,
45,
32,
35,
31,
21,
22,
28,
22,
15,
17,
15,
9,
11,
13,
16,
11,
9,
6,
6,
4,
1,
0,
3,
4,
0,
0,
0,
2,
3,
1,
0,
2,
2,
1,
1,
0,
0,
1,
2,
0,
0,
0,
0,
0,
1,
1,
0,
2,
2,
1,
1,
1,
0,
0,
1,
1,
0,
0,
0,
0,
0,
0,
0,
1,
0,
2,
1,
0,
1,
1,
2,
0,
0,
0,
0,
1,
0,
0,
2,
0,
0,
1,
0,
1,
0,
0,
0,
0,
0,
0,
1,
0,
1,
0,
0,
0,
0,
1,
0,
0,
0,
1,
1,
2,
1,
0,
2,
0,
0,
0,
0,
0,
0,
1,
1,
1,
1,
0,
0,
1,
0,
0,
0,
0,
0,
0,
0,
0,
1,
0,
0,
0,
0,
0,
0,
0,
0,
0,
0,
0,
0,
0,
0,
1,
0,
0,
0,
1,
0,
0,
0,
0,
0,
0,
1,
0,
1,
0,
0,
1,
1,
0,
0,
0,
0,
0,
0,
0,
0,
0,
0,
1,
0,
1,
0,
0,
1,
0,
0,
0,
0,
0,
1,
1,
1,
0,
0,
0,
0,
0,
0,
0,
0,
0,
0,
0,
1,
0,
1,
0,
0,
0,
0,
1,
0,
0,
1,
0,
0,
0,
0,
0,
0,
0,
0,
0,
0,
0,
0,
0,
0,
0,
0,
0,
0,
0,
0,
0,
0,
1,
0,
0,
0,
0,
0,
0,
0,
0,
0,
0,
0,
0,
0,
0,
0,
0,
0,
0,
0,
0,
0,
0,
0,
0,
0,
0,
0,
1,
0,
0,
0,
0,
0,
0,
0,
0,
0,
0,
0,
0,
0,
0,
0,
0,
0,
0,
0,
0,
0,
0,
0,
0,
0,
0,
0,
0,
0,
0,
0,
0,
0,
0,
0,
0,
0,
0,
0,
0,
0,
0,
0,
0,
0,
0,
0,
0,
0,
0,
0,
0,
0,
0,
0,
0,
0,
0,
0,
0,
0,
0,
0,
0,
0,
0,
0,
0,
0,
0,
0,
0,
0,
0,
0,
0,
0,
0,
0,
0,
0,
0,
0,
0,
0,
0,
0,
0,
0,
0,
0,
0,
0,
0,
0,
0,
0,
0,
0,
0,
0,
0,
0,
0,
0,
0,
0,
0,
0,
0,
0,
0,
0,
0,
0,
0,
0,
0,
0,
0,
0,
0,
0,
0,
0,
0,
0,
0,
0,
0,
0,
0,
0,
0,
0,
0,
0,
0,
0,
0,
0,
0,
0,
0,
0,
0,
0,
0,
0,
0,
0,
0,
0,
0,
0,
0,
0,
0,
0,
0,
0,
0,
0,
0,
0,
0,
0,
0,
0,
0,
0,
0,
0,
0,
0,
0,
0,
0,
0,
0,
0,
0,
0,
0,
0,
0,
0,
0,
0,
0,
0,
0,
0,
0,
0,
0,
0,
0,
0,
0,
0,
0,
0,
0,
0,
0,
0,
0,
0,
0,
0,
0,
0,
0,
0,
0,
0,
0,
0,
0,
0,
0,
0,
0,
0,
0,
0,
0,
0,
0,
0,
0,
0,
0,
0,
0,
0,
0,
0,
0,
0,
0,
0,
0,
0,
0,
0,
0,
0,
0,
0,
0,
0,
0,
0,
0,
0,
0,
0,
0,
0,
0,
0,
0,
0,
0,
0,
0,
0,
0,
0,
0,
0,
0,
0,
0,
0,
0,
0,
0,
0,
0,
0,
0,
0,
0,
0,
0,
0,
0,
0,
0,
0,
0,
0,
0,
0,
0,
0,
0,
0,
0,
0,
0,
0,
0,
0,
0,
0,
0,
0,
0,
0,
0,
0,
0,
0,
0,
0,
0,
0,
0,
0,
0,
0,
0,
0,
0,
0,
0,
0,
0,
0,
0,
0,
0,
0,
0,
0,
0,
0,
0,
0,
0,
0,
0,
0,
0,
0,
0,
0,
0,
0,
0,
0,
0,
0,
0,
0,
0,
0,
0,
0,
0,
0,
0,
0,
0,
0,
0,
0,
0,
0,
0,
0,
0,
0,
0,
0,
0,
0,
0,
0,
0,
0,
0,
0,
0,
0,
0,
0,
0,
0,
0,
0,
0,
0,
0,
0,
0,
0,
0,
0,
0,
0,
0,
0,
0,
0,
0,
0,
0,
0,
0,
0,
0,
0,
0,
0,
0,
0,
0,
0,
0,
0,
0,
0,
0,
0,
0,
0,
0,
0,
0,
0,
0,
0,
0,
0,
0,
0,
0,
0,
0,
0,
0,
0,
0,
0,
0,
0,
0,
0,
0,
0,
0,
0,
0,
0,
0,
0,
0,
0,
0,
0,
0,
0,
0,
0,
0,
0,
0,
0,
0,
0,
0,
0,
0,
0,
0,
0,
0,
0,
0,
0,
0,
0,
0,
0,
0,
0,
0,
0,
0,
0,
0,
0,
0,
0,
0,
0,
0,
0,
0,
0,
0,
0,
0,
0,
0,
0,
0,
0,
0,
0,
0,
0,
0,
0,
0,
0,
0,
0,
0,
0,
0,
0,
0,
0,
0,
0,
0,
0,
0,
0,
0,
0,
0,
0,
0,
0,
0,
0,
0,
0,
0,
0,
0,
0,
0,
0,
0,
0,
0,
0,
0,
0,
0,
0,
0,
0,
0,
0,
0,
0,
0,
0,
0,
0,
0,
0,
0,
0,
0,
0,
0,
0,
0,
0,
0,
0,
0,
0,
0,
0,
0,
0,
0,
0,
0,
0,
0,
0,
0,
0,
0,
0,
0,
0,
0,
0,
0,
0,
0,
0,
0,
0,
0,
0,
0,
0,
0,
0,
0,
0,
0,
0,
0,
0,
0,
0,
0,
0,
0,
0,
0,
0,
0,
#ENDOFDATA   :