File: N132962/Quantification/15 keV/Mengason MM2/MMM2 Willemite[1][4].msa
#FORMAT      : EMSA/MAS Spectral Data File
#VERSION     : 1.0
#TITLE       : MMM2 Willemite[1][all]
#DATE        : 28-SEP-2025
#TIME        : 23:43
#OWNER       : Unknown
#NPOINTS     : 4096
#NCOLUMNS    : 1
#XUNITS      : eV
#YUNITS      : counts
#DATATYPE    : Y
#XPERCHAN    : 9.99778
#OFFSET      : 1.69135
#BEAMKV      : 15
#SIGNALTYPE  : EDS
#ELEVANGLE   : 35
#AZIMANGLE   : 0
#LIVETIME    : 240.269
#REALTIME    : 257.9
#PROBECUR    : 1.21079
#TAUWIND     : 0
#TDEADLYR    : 0
#TACTLYR     : 0.045
#TALWIND     : 0.025
#CHOFFSET    : 0.0
#XLABEL      : Energy (eV)
#YLABEL      : Counts
#XPOSITION   : -11.6
#YPOSITION   : 2.17759
#ZPOSITION   : 34.11879
#EDSDET      : SD
##SPECIMEN   : MMM2 Willemite[1][all]
##DET_HASH   : 12273538-fd48-a23f-0a19-f1e6fa85caef
##CALIB_HASH : 6abaa72c-aa41-8738-0be9-f592914732f3
##WORKING    : 15.0 mm
##DET_NAME   : EDAX All
##DET_MODE   : MediumLE
#SPECTRUM    :
33,
32,
13,
34,
125,
522,
1550,
5077,
13590,
17601,
9073,
4782,
4891,
5991,
9320,
26586,
91708,
171240,
124530,
35870,
10129,
9753,
8517,
6708,
6315,
6425,
7023,
8923,
14450,
22687,
24341,
29089,
83090,
206629,
256019,
146965,
43759,
10951,
5360,
4114,
4093,
4761,
5022,
4648,
4193,
4138,
4292,
4451,
4625,
4928,
5209,
5395,
5372,
5167,
5627,
9344,
27264,
64499,
86074,
61842,
27228,
11342,
6798,
5048,
4138,
4009,
4249,
4270,
4257,
4244,
4081,
3911,
3848,
4042,
4018,
4025,
4158,
4040,
3874,
3895,
3806,
3860,
3722,
3898,
3744,
3803,
3814,
3740,
3852,
3812,
3720,
3772,
3833,
3846,
3582,
3472,
3515,
3474,
3404,
3388,
3380,
3348,
3307,
3257,
3369,
3268,
3219,
3151,
3138,
3101,
3098,
3095,
3012,
2939,
2979,
3062,
2971,
2873,
2994,
2878,
2809,
2780,
2860,
2793,
2781,
2705,
2655,
2744,
2667,
2661,
2705,
2594,
2542,
2630,
2578,
2444,
2497,
2452,
2507,
2557,
2442,
2491,
2374,
2365,
2300,
2274,
2280,
2376,
2255,
2273,
2161,
2234,
2201,
2199,
2169,
2126,
2058,
2058,
2043,
2102,
2100,
2071,
2029,
2053,
1961,
1959,
1897,
1907,
1928,
1913,
1972,
1879,
1846,
1796,
1852,
1769,
1794,
1692,
1775,
1819,
1743,
1700,
1736,
1683,
1732,
1717,
1641,
1635,
1735,
1560,
1659,
1690,
1954,
2613,
4055,
6064,
7522,
7354,
5933,
3960,
2506,
1826,
1500,
1453,
1491,
1444,
1403,
1430,
1364,
1380,
1432,
1458,
1531,
1606,
1827,
2082,
2091,
2097,
1777,
1522,
1382,
1241,
1266,
1261,
1212,
1179,
1232,
1198,
1198,
1199,
1201,
1199,
1180,
1183,
1146,
1156,
1126,
1112,
1097,
1008,
1066,
1090,
1018,
1054,
1065,
974,
1027,
1044,
996,
1025,
1022,
1015,
1002,
963,
968,
950,
915,
900,
898,
940,
903,
911,
963,
893,
902,
849,
881,
892,
864,
860,
887,
821,
812,
849,
840,
795,
847,
825,
841,
834,
894,
979,
1606,
2958,
5543,
9806,
14415,
17522,
17910,
14801,
10245,
5746,
3007,
1491,
915,
833,
682,
666,
675,
604,
663,
634,
726,
661,
667,
689,
617,
629,
631,
600,
637,
613,
656,
713,
858,
1170,
1614,
2257,
2743,
2841,
2581,
2085,
1464,
1030,
717,
590,
527,
549,
499,
471,
489,
468,
479,
455,
445,
457,
409,
449,
400,
436,
430,
409,
415,
445,
444,
451,
414,
390,
379,
423,
371,
375,
346,
382,
423,
389,
366,
345,
315,
367,
363,
346,
337,
358,
360,
318,
333,
319,
323,
318,
345,
319,
325,
309,
291,
294,
266,
286,
289,
284,
284,
277,
286,
283,
273,
279,
268,
240,
223,
261,
234,
233,
235,
245,
222,
228,
245,
204,
223,
197,
182,
216,
206,
197,
206,
199,
178,
161,
205,
190,
184,
197,
162,
161,
158,
162,
167,
148,
149,
147,
134,
162,
147,
148,
151,
133,
144,
128,
149,
107,
130,
116,
121,
116,
116,
111,
112,
131,
120,
84,
106,
96,
90,
120,
103,
94,
110,
107,
94,
81,
75,
82,
68,
84,
80,
77,
83,
62,
62,
61,
50,
60,
77,
67,
40,
46,
50,
49,
54,
47,
41,
53,
56,
35,
38,
31,
30,
31,
29,
27,
21,
30,
22,
17,
17,
28,
19,
22,
20,
11,
11,
10,
8,
9,
13,
5,
4,
4,
4,
2,
4,
1,
2,
2,
0,
1,
0,
2,
3,
0,
2,
0,
3,
1,
4,
1,
2,
2,
0,
0,
3,
0,
4,
0,
4,
0,
1,
1,
1,
2,
0,
1,
1,
1,
0,
0,
0,
1,
1,
0,
2,
0,
1,
0,
0,
0,
0,
0,
0,
0,
1,
0,
1,
0,
0,
1,
0,
1,
1,
0,
1,
0,
1,
0,
1,
1,
0,
0,
0,
3,
2,
3,
3,
1,
3,
5,
3,
2,
0,
3,
0,
2,
2,
0,
0,
0,
0,
1,
1,
0,
1,
0,
0,
1,
0,
0,
0,
0,
0,
0,
0,
0,
0,
0,
1,
3,
1,
3,
0,
0,
0,
1,
0,
1,
0,
0,
0,
0,
0,
1,
0,
0,
0,
0,
1,
0,
0,
0,
1,
0,
0,
0,
0,
1,
0,
0,
0,
2,
0,
0,
0,
0,
0,
0,
0,
0,
0,
0,
0,
0,
0,
0,
0,
0,
1,
0,
0,
0,
1,
0,
0,
0,
0,
0,
0,
0,
0,
0,
0,
0,
0,
1,
0,
1,
0,
0,
0,
1,
0,
0,
0,
0,
0,
0,
0,
0,
0,
0,
0,
0,
0,
0,
0,
0,
0,
1,
0,
0,
0,
1,
0,
0,
0,
0,
0,
0,
0,
0,
0,
0,
0,
0,
0,
0,
0,
0,
0,
0,
0,
0,
0,
0,
0,
0,
0,
0,
0,
0,
0,
0,
0,
0,
0,
0,
0,
0,
1,
0,
0,
0,
0,
0,
0,
0,
0,
0,
0,
0,
0,
1,
0,
0,
0,
0,
0,
0,
0,
0,
0,
0,
0,
0,
1,
0,
0,
0,
0,
0,
0,
0,
0,
0,
0,
0,
0,
0,
0,
0,
0,
0,
0,
0,
0,
0,
0,
0,
0,
0,
0,
0,
0,
0,
0,
0,
0,
0,
0,
0,
0,
0,
0,
0,
0,
0,
0,
0,
0,
0,
0,
0,
0,
0,
0,
0,
0,
0,
1,
0,
0,
0,
0,
0,
0,
0,
0,
0,
0,
0,
0,
0,
0,
0,
0,
0,
0,
0,
0,
0,
0,
0,
0,
0,
0,
0,
0,
0,
0,
0,
0,
0,
0,
0,
0,
0,
0,
0,
0,
0,
0,
0,
0,
0,
0,
0,
0,
0,
0,
0,
0,
0,
0,
0,
0,
0,
0,
0,
0,
0,
0,
0,
0,
0,
0,
0,
0,
0,
0,
0,
0,
0,
0,
0,
0,
0,
0,
0,
0,
0,
0,
0,
0,
0,
0,
0,
0,
0,
0,
0,
0,
0,
0,
0,
0,
0,
0,
0,
0,
0,
0,
0,
0,
0,
0,
0,
0,
0,
0,
0,
0,
0,
0,
0,
0,
0,
0,
0,
0,
0,
0,
0,
0,
0,
0,
0,
0,
0,
0,
0,
0,
0,
0,
0,
0,
0,
0,
0,
0,
0,
0,
0,
0,
0,
0,
0,
0,
0,
0,
0,
0,
0,
0,
0,
0,
0,
0,
0,
0,
0,
0,
0,
0,
0,
0,
0,
0,
0,
0,
0,
0,
0,
0,
0,
0,
0,
0,
0,
0,
0,
0,
0,
0,
0,
0,
0,
0,
0,
0,
0,
0,
0,
0,
0,
0,
0,
0,
0,
0,
0,
0,
0,
0,
0,
0,
0,
0,
0,
0,
0,
0,
0,
0,
0,
0,
0,
0,
0,
0,
0,
0,
0,
0,
0,
0,
0,
0,
0,
0,
0,
0,
0,
0,
0,
0,
0,
0,
0,
0,
0,
0,
0,
0,
0,
0,
0,
0,
0,
0,
0,
0,
0,
0,
0,
0,
0,
0,
0,
0,
0,
0,
0,
0,
0,
0,
0,
0,
0,
0,
0,
0,
0,
0,
0,
0,
0,
0,
0,
0,
0,
0,
0,
0,
0,
0,
0,
0,
0,
0,
0,
0,
0,
0,
0,
0,
0,
0,
0,
0,
0,
0,
0,
0,
0,
0,
0,
0,
0,
0,
0,
0,
0,
0,
0,
0,
0,
0,
0,
0,
0,
0,
0,
0,
0,
0,
0,
0,
0,
0,
0,
0,
0,
0,
0,
0,
0,
0,
0,
0,
0,
0,
0,
0,
0,
0,
0,
0,
0,
0,
0,
0,
0,
0,
0,
0,
0,
0,
0,
0,
0,
0,
0,
0,
0,
0,
0,
0,
0,
0,
0,
0,
0,
0,
0,
0,
0,
0,
0,
0,
0,
0,
0,
0,
0,
0,
0,
0,
0,
0,
0,
0,
0,
0,
0,
0,
0,
0,
0,
0,
0,
0,
0,
0,
0,
0,
0,
0,
0,
0,
0,
0,
0,
0,
0,
0,
0,
0,
0,
0,
0,
0,
0,
0,
0,
0,
0,
0,
0,
0,
0,
0,
0,
0,
0,
0,
0,
0,
0,
0,
0,
0,
0,
0,
0,
0,
0,
0,
0,
0,
0,
0,
0,
0,
0,
0,
0,
0,
0,
0,
0,
0,
0,
0,
0,
0,
0,
0,
0,
0,
0,
0,
0,
0,
0,
0,
0,
0,
0,
0,
0,
0,
0,
0,
0,
0,
0,
0,
0,
0,
0,
0,
0,
0,
0,
0,
0,
0,
0,
0,
0,
0,
0,
0,
0,
0,
0,
0,
0,
0,
0,
0,
0,
0,
0,
0,
0,
0,
0,
0,
0,
0,
0,
0,
0,
0,
0,
0,
0,
0,
0,
0,
0,
0,
0,
0,
0,
0,
0,
0,
0,
0,
0,
0,
0,
0,
0,
0,
0,
#ENDOFDATA   :