File: N132962/Quantification/15 keV/Mengason MM2/MMM2 Tugtupite[6][4].msa
#FORMAT      : EMSA/MAS Spectral Data File
#VERSION     : 1.0
#TITLE       : MMM2 Tugtupite[6][all]
#DATE        : 29-SEP-2025
#TIME        : 01:02
#OWNER       : Unknown
#NPOINTS     : 4096
#NCOLUMNS    : 1
#XUNITS      : eV
#YUNITS      : counts
#DATATYPE    : Y
#XPERCHAN    : 9.99778
#OFFSET      : 1.69135
#BEAMKV      : 15
#SIGNALTYPE  : EDS
#ELEVANGLE   : 35
#AZIMANGLE   : 0
#LIVETIME    : 240.336
#REALTIME    : 257.201
#PROBECUR    : 1.21248
#TAUWIND     : 0
#TDEADLYR    : 0
#TACTLYR     : 0.045
#TALWIND     : 0.025
#CHOFFSET    : 0.0
#XLABEL      : Energy (eV)
#YLABEL      : Counts
#XPOSITION   : -17.27483
#YPOSITION   : 6.77591
#ZPOSITION   : 34.11879
#EDSDET      : SD
##SPECIMEN   : MMM2 Tugtupite[6][all]
##DET_HASH   : 12273538-fd48-a23f-0a19-f1e6fa85caef
##CALIB_HASH : 6abaa72c-aa41-8738-0be9-f592914732f3
##WORKING    : 15.0 mm
##DET_NAME   : EDAX All
##DET_MODE   : MediumLE
#SPECTRUM    :
27,
27,
10,
22,
108,
486,
1231,
3720,
10349,
13186,
6783,
3398,
3476,
4455,
8489,
30510,
115640,
220897,
159260,
41998,
6049,
2740,
2889,
3260,
3295,
3529,
3715,
4133,
4736,
5204,
5876,
7162,
15870,
55553,
134482,
148614,
72512,
17712,
5066,
3912,
3786,
3885,
3984,
4161,
4315,
4350,
5032,
9111,
24273,
46326,
47174,
26388,
11069,
6369,
6173,
14228,
54542,
139666,
190516,
134410,
53819,
18328,
8576,
4645,
3066,
2673,
2656,
2607,
2672,
2668,
2611,
2425,
2515,
2616,
2847,
3054,
2932,
2712,
2538,
2479,
2401,
2474,
2747,
3285,
4979,
10304,
22327,
34681,
33693,
20139,
8580,
4213,
4060,
5069,
5302,
4406,
3079,
2380,
2041,
1843,
1915,
1972,
1889,
1868,
1981,
1912,
1910,
1919,
1846,
1867,
1827,
1771,
1720,
1698,
1733,
1760,
1881,
1799,
1712,
1637,
1594,
1639,
1559,
1607,
1565,
1608,
1423,
1486,
1426,
1424,
1411,
1399,
1433,
1344,
1387,
1379,
1325,
1283,
1325,
1372,
1333,
1256,
1321,
1374,
1330,
1340,
1272,
1322,
1242,
1239,
1220,
1223,
1171,
1188,
1141,
1130,
1126,
1093,
1064,
1127,
1136,
1042,
1068,
1066,
996,
1009,
1069,
1074,
1061,
1051,
1011,
1002,
978,
951,
982,
968,
960,
943,
946,
916,
923,
873,
881,
894,
862,
882,
857,
861,
822,
814,
857,
824,
859,
831,
807,
806,
804,
814,
747,
768,
745,
771,
734,
752,
758,
709,
719,
767,
724,
741,
716,
659,
692,
738,
705,
703,
695,
624,
693,
663,
611,
654,
592,
602,
626,
617,
589,
593,
615,
567,
589,
624,
604,
574,
602,
594,
558,
528,
610,
533,
512,
501,
566,
521,
536,
535,
517,
561,
496,
467,
471,
514,
491,
496,
500,
460,
423,
483,
466,
456,
435,
434,
443,
425,
439,
417,
414,
398,
383,
406,
415,
428,
424,
409,
398,
410,
380,
377,
378,
355,
371,
352,
341,
391,
364,
351,
313,
361,
361,
371,
344,
337,
342,
362,
304,
296,
336,
291,
325,
310,
310,
283,
301,
327,
308,
303,
303,
300,
298,
275,
304,
285,
278,
298,
246,
258,
258,
271,
228,
269,
249,
254,
238,
240,
253,
227,
245,
213,
251,
222,
209,
200,
185,
227,
197,
202,
218,
215,
226,
209,
222,
187,
193,
197,
168,
177,
186,
191,
177,
169,
165,
180,
194,
161,
182,
172,
162,
166,
185,
184,
146,
157,
144,
165,
146,
175,
177,
117,
139,
150,
154,
149,
137,
141,
125,
136,
127,
133,
139,
136,
125,
103,
97,
122,
109,
112,
111,
108,
100,
98,
113,
102,
99,
116,
103,
96,
87,
108,
82,
85,
85,
85,
77,
116,
96,
90,
61,
74,
85,
71,
62,
77,
69,
78,
65,
57,
85,
71,
60,
59,
67,
64,
52,
50,
62,
67,
71,
53,
62,
48,
55,
53,
71,
52,
54,
47,
56,
42,
48,
39,
37,
37,
34,
32,
41,
29,
36,
39,
30,
35,
35,
41,
31,
37,
30,
33,
26,
35,
24,
30,
18,
31,
27,
19,
18,
18,
16,
19,
21,
15,
16,
18,
17,
18,
11,
14,
13,
12,
20,
11,
11,
10,
8,
9,
15,
7,
2,
9,
5,
5,
6,
4,
5,
2,
4,
6,
3,
3,
1,
0,
0,
0,
0,
0,
4,
0,
0,
0,
0,
1,
0,
0,
1,
0,
0,
0,
1,
0,
0,
0,
0,
0,
0,
1,
1,
0,
0,
0,
0,
0,
0,
1,
0,
0,
0,
0,
0,
0,
0,
0,
0,
1,
0,
0,
0,
0,
0,
0,
0,
0,
0,
0,
0,
0,
0,
0,
0,
0,
0,
0,
0,
0,
0,
0,
0,
0,
0,
0,
0,
0,
0,
0,
0,
0,
0,
0,
0,
0,
0,
0,
0,
0,
0,
0,
0,
0,
0,
0,
0,
1,
0,
0,
0,
0,
0,
0,
0,
0,
0,
0,
0,
0,
0,
0,
0,
0,
0,
0,
0,
1,
0,
0,
0,
0,
0,
0,
0,
0,
0,
0,
0,
0,
0,
0,
0,
0,
0,
0,
0,
0,
0,
0,
0,
0,
0,
0,
0,
0,
0,
0,
0,
0,
0,
0,
0,
0,
0,
0,
0,
0,
0,
0,
0,
0,
0,
0,
0,
0,
0,
0,
0,
0,
0,
0,
0,
0,
0,
0,
0,
0,
0,
0,
0,
0,
0,
0,
0,
0,
0,
0,
0,
0,
0,
0,
0,
0,
0,
0,
0,
0,
0,
0,
0,
0,
1,
0,
0,
0,
0,
0,
0,
0,
0,
0,
0,
0,
0,
0,
0,
0,
0,
0,
0,
0,
0,
0,
0,
0,
0,
0,
0,
0,
0,
0,
0,
0,
0,
0,
0,
0,
0,
0,
0,
0,
0,
0,
0,
0,
0,
0,
0,
0,
0,
0,
0,
0,
0,
0,
0,
0,
0,
0,
0,
0,
0,
0,
0,
0,
0,
0,
0,
0,
0,
0,
0,
0,
0,
0,
0,
0,
0,
0,
0,
0,
0,
0,
0,
0,
0,
0,
0,
0,
0,
0,
0,
0,
0,
0,
0,
0,
0,
0,
0,
0,
0,
0,
0,
0,
0,
0,
0,
0,
0,
0,
0,
0,
0,
0,
0,
0,
0,
0,
0,
0,
0,
0,
0,
0,
0,
0,
0,
0,
0,
0,
0,
0,
0,
0,
0,
0,
0,
0,
0,
0,
0,
0,
0,
0,
0,
0,
0,
0,
0,
0,
0,
0,
0,
0,
0,
0,
0,
0,
0,
0,
0,
0,
0,
0,
0,
0,
0,
0,
0,
0,
0,
0,
0,
0,
0,
0,
0,
0,
0,
0,
0,
0,
0,
0,
0,
0,
0,
0,
0,
0,
0,
0,
0,
0,
0,
0,
0,
0,
0,
0,
0,
0,
0,
0,
0,
0,
0,
0,
0,
0,
0,
0,
0,
0,
0,
0,
0,
0,
0,
0,
0,
0,
0,
0,
0,
0,
0,
0,
0,
0,
0,
0,
0,
0,
0,
0,
0,
0,
0,
0,
0,
0,
0,
0,
0,
0,
0,
0,
0,
0,
0,
0,
0,
0,
0,
0,
0,
0,
0,
0,
0,
0,
0,
0,
0,
0,
0,
0,
0,
0,
0,
0,
0,
0,
0,
0,
0,
0,
0,
0,
0,
0,
0,
0,
0,
0,
0,
0,
0,
0,
0,
0,
0,
0,
0,
0,
0,
0,
0,
0,
0,
0,
0,
0,
0,
0,
0,
0,
0,
0,
0,
0,
0,
0,
0,
0,
0,
0,
0,
0,
0,
0,
0,
0,
0,
0,
0,
0,
0,
0,
0,
0,
0,
0,
0,
0,
0,
0,
0,
0,
0,
0,
0,
0,
0,
0,
0,
0,
0,
0,
0,
0,
0,
0,
0,
0,
0,
0,
0,
0,
0,
0,
0,
0,
0,
0,
0,
0,
0,
0,
0,
0,
0,
0,
0,
0,
0,
0,
0,
0,
0,
0,
0,
0,
0,
0,
0,
0,
0,
0,
0,
0,
0,
0,
0,
0,
0,
0,
0,
0,
0,
0,
0,
0,
0,
0,
0,
0,
0,
0,
0,
0,
0,
0,
0,
0,
0,
0,
0,
0,
0,
0,
0,
0,
0,
0,
0,
0,
0,
0,
0,
0,
0,
0,
0,
0,
0,
0,
0,
0,
0,
0,
0,
0,
0,
0,
0,
0,
0,
0,
0,
0,
0,
0,
0,
0,
0,
0,
0,
0,
0,
0,
0,
0,
0,
0,
0,
0,
0,
0,
0,
0,
0,
0,
0,
0,
0,
0,
0,
0,
0,
0,
0,
0,
0,
0,
0,
0,
0,
0,
0,
0,
0,
0,
0,
0,
0,
0,
0,
0,
0,
0,
0,
0,
0,
0,
0,
0,
0,
0,
0,
0,
0,
0,
0,
0,
0,
0,
0,
0,
0,
0,
0,
0,
0,
0,
0,
0,
0,
0,
0,
0,
0,
0,
0,
0,
0,
0,
0,
0,
0,
0,
0,
0,
0,
0,
0,
0,
0,
0,
0,
0,
0,
0,
0,
0,
0,
0,
0,
0,
0,
0,
0,
0,
0,
0,
0,
0,
0,
0,
0,
0,
0,
0,
0,
0,
0,
0,
0,
0,
0,
0,
0,
0,
0,
0,
0,
0,
0,
0,
0,
0,
0,
0,
0,
0,
0,
0,
0,
0,
0,
0,
0,
0,
0,
0,
0,
0,
0,
0,
0,
0,
0,
0,
0,
0,
0,
0,
0,
0,
0,
0,
0,
0,
0,
0,
0,
0,
0,
0,
0,
0,
0,
0,
0,
0,
0,
0,
0,
0,
0,
0,
0,
0,
0,
0,
0,
0,
0,
0,
0,
0,
0,
0,
0,
0,
0,
0,
0,
0,
0,
0,
0,
0,
0,
0,
0,
0,
0,
0,
0,
0,
#ENDOFDATA   :