File: N132962/Quantification/15 keV/Mengason MM2/MMM2 Orthoclaise[0][4].msa
#FORMAT      : EMSA/MAS Spectral Data File
#VERSION     : 1.0
#TITLE       : MMM2 Orthoclaise[0][all]
#DATE        : 28-SEP-2025
#TIME        : 20:56
#OWNER       : Unknown
#NPOINTS     : 4096
#NCOLUMNS    : 1
#XUNITS      : eV
#YUNITS      : counts
#DATATYPE    : Y
#XPERCHAN    : 9.99778
#OFFSET      : 1.69135
#BEAMKV      : 15
#SIGNALTYPE  : EDS
#ELEVANGLE   : 35
#AZIMANGLE   : 0
#LIVETIME    : 240.2124
#REALTIME    : 256.278
#PROBECUR    : 1.21333
#TAUWIND     : 0
#TDEADLYR    : 0
#TACTLYR     : 0.045
#TALWIND     : 0.025
#CHOFFSET    : 0.0
#XLABEL      : Energy (eV)
#YLABEL      : Counts
#XPOSITION   : -14.09997
#YPOSITION   : -3.89873
#ZPOSITION   : 34.11879
#EDSDET      : SD
##SPECIMEN   : MMM2 Orthoclaise[0][all]
##DET_HASH   : 12273538-fd48-a23f-0a19-f1e6fa85caef
##CALIB_HASH : 6abaa72c-aa41-8738-0be9-f592914732f3
##WORKING    : 15.0 mm
##DET_NAME   : EDAX All
##DET_MODE   : MediumLE
#SPECTRUM    :
22,
19,
7,
16,
85,
377,
1277,
4741,
12498,
15218,
7328,
3404,
3081,
3853,
7000,
26209,
98692,
186567,
134453,
36014,
5876,
3006,
3667,
5077,
4978,
3892,
3294,
3374,
3648,
3799,
3877,
4010,
4197,
4735,
5668,
5922,
5310,
4835,
4701,
4738,
4885,
5007,
5221,
5245,
5272,
5616,
6663,
13134,
38067,
73393,
73936,
40381,
15825,
8202,
7598,
18610,
71028,
181769,
245758,
173095,
69644,
23458,
10627,
5401,
3335,
2764,
2826,
2836,
2835,
2579,
2592,
2604,
2718,
2866,
2989,
3268,
3092,
2822,
2570,
2516,
2472,
2447,
2484,
2430,
2319,
2465,
2355,
2383,
2330,
2418,
2353,
2299,
2266,
2316,
2319,
2268,
2240,
2201,
2265,
2198,
2180,
2194,
2159,
2250,
2329,
2676,
3267,
5934,
14121,
30659,
46769,
46712,
31001,
13696,
5187,
2908,
2759,
3473,
5066,
6678,
7214,
5581,
3551,
2261,
1776,
1656,
1583,
1619,
1625,
1600,
1507,
1528,
1435,
1455,
1427,
1419,
1390,
1440,
1430,
1341,
1352,
1340,
1443,
1347,
1310,
1271,
1289,
1321,
1355,
1337,
1321,
1363,
1292,
1254,
1246,
1220,
1292,
1288,
1189,
1186,
1219,
1172,
1212,
1129,
1153,
1107,
1125,
1285,
1173,
1232,
1182,
1167,
1065,
1081,
1017,
1024,
1060,
1023,
970,
989,
1010,
1000,
1020,
963,
935,
916,
1031,
975,
906,
862,
900,
898,
860,
885,
908,
850,
815,
894,
846,
885,
845,
815,
866,
784,
844,
759,
771,
817,
824,
913,
1234,
1652,
2240,
2575,
2384,
1988,
1366,
1006,
829,
739,
725,
765,
699,
716,
667,
669,
693,
697,
615,
647,
623,
685,
691,
788,
830,
825,
840,
727,
653,
641,
596,
588,
595,
554,
577,
586,
547,
596,
499,
595,
528,
512,
530,
482,
527,
458,
512,
522,
491,
465,
488,
451,
503,
485,
433,
438,
472,
471,
431,
490,
465,
448,
451,
414,
454,
453,
445,
416,
410,
403,
363,
432,
398,
369,
351,
376,
373,
394,
344,
361,
377,
392,
375,
361,
359,
347,
363,
364,
341,
354,
326,
347,
339,
325,
335,
312,
306,
313,
289,
306,
297,
315,
281,
299,
275,
303,
319,
257,
285,
288,
263,
248,
267,
279,
257,
276,
250,
260,
247,
253,
252,
260,
254,
246,
251,
237,
228,
229,
208,
219,
217,
245,
212,
218,
209,
210,
194,
202,
208,
166,
180,
215,
183,
198,
189,
225,
157,
207,
187,
188,
165,
178,
174,
164,
162,
167,
161,
157,
179,
153,
132,
160,
150,
158,
150,
138,
126,
136,
118,
136,
124,
119,
134,
126,
131,
132,
131,
114,
133,
133,
111,
105,
104,
105,
113,
105,
111,
84,
123,
109,
111,
111,
105,
102,
107,
84,
93,
84,
83,
102,
71,
75,
90,
77,
78,
93,
86,
70,
79,
61,
70,
68,
81,
66,
63,
71,
64,
58,
49,
58,
63,
71,
62,
57,
63,
66,
53,
43,
46,
47,
34,
59,
36,
42,
35,
44,
55,
49,
32,
36,
30,
42,
37,
41,
26,
31,
28,
33,
31,
20,
29,
28,
31,
14,
21,
26,
26,
30,
20,
30,
19,
13,
13,
11,
13,
13,
10,
16,
12,
12,
14,
15,
15,
15,
9,
10,
8,
6,
7,
8,
4,
6,
8,
6,
6,
7,
3,
3,
1,
1,
0,
1,
2,
2,
0,
0,
0,
0,
0,
0,
0,
0,
1,
0,
2,
0,
0,
0,
0,
1,
1,
0,
0,
0,
2,
0,
0,
0,
0,
0,
0,
0,
0,
0,
0,
0,
0,
0,
0,
1,
0,
0,
1,
0,
0,
0,
0,
0,
0,
0,
0,
0,
0,
0,
0,
0,
0,
0,
0,
0,
0,
0,
0,
0,
0,
0,
0,
0,
0,
0,
0,
0,
0,
0,
0,
0,
0,
0,
0,
1,
0,
0,
0,
0,
0,
0,
0,
0,
0,
0,
0,
0,
0,
0,
0,
1,
0,
0,
0,
0,
0,
0,
0,
0,
0,
0,
0,
0,
0,
0,
0,
0,
0,
0,
0,
0,
0,
0,
0,
0,
0,
0,
0,
0,
0,
0,
0,
0,
0,
0,
0,
0,
0,
0,
0,
0,
0,
1,
0,
0,
0,
0,
0,
0,
0,
0,
0,
0,
0,
0,
0,
0,
0,
0,
0,
0,
0,
0,
0,
0,
0,
0,
0,
0,
0,
0,
0,
0,
0,
0,
0,
0,
0,
0,
0,
0,
0,
0,
0,
0,
0,
0,
0,
0,
0,
0,
0,
0,
0,
0,
0,
0,
0,
0,
0,
0,
0,
0,
0,
0,
0,
0,
0,
0,
0,
0,
0,
0,
0,
0,
0,
0,
0,
0,
0,
0,
0,
0,
0,
0,
0,
0,
0,
0,
0,
0,
0,
0,
0,
0,
0,
0,
0,
0,
0,
0,
0,
0,
0,
0,
0,
0,
0,
0,
0,
0,
0,
0,
0,
0,
0,
0,
0,
0,
0,
0,
0,
0,
0,
0,
0,
0,
0,
0,
0,
0,
0,
0,
0,
0,
0,
0,
0,
0,
0,
0,
0,
0,
0,
0,
0,
0,
0,
0,
0,
0,
0,
0,
0,
0,
0,
0,
0,
0,
0,
0,
0,
0,
0,
0,
0,
0,
0,
0,
0,
0,
0,
0,
0,
0,
0,
0,
0,
0,
0,
0,
0,
0,
0,
0,
0,
0,
0,
0,
0,
0,
0,
0,
0,
0,
0,
0,
0,
0,
0,
0,
0,
0,
0,
0,
0,
0,
0,
0,
0,
0,
0,
0,
0,
0,
0,
0,
0,
0,
0,
0,
0,
0,
0,
0,
0,
0,
0,
0,
0,
0,
0,
0,
0,
0,
0,
0,
0,
0,
0,
0,
0,
0,
0,
0,
0,
0,
0,
0,
0,
0,
0,
0,
0,
0,
0,
0,
0,
0,
0,
0,
0,
0,
0,
0,
0,
0,
0,
0,
0,
0,
0,
0,
0,
0,
0,
0,
0,
0,
0,
0,
0,
0,
0,
0,
0,
0,
0,
0,
0,
0,
0,
0,
0,
0,
0,
0,
0,
0,
0,
0,
0,
0,
0,
0,
0,
0,
0,
0,
0,
0,
0,
0,
0,
0,
0,
0,
0,
0,
0,
0,
0,
0,
0,
0,
0,
0,
0,
0,
0,
0,
0,
0,
0,
0,
0,
0,
0,
0,
0,
0,
0,
0,
0,
0,
0,
0,
0,
0,
0,
0,
0,
0,
0,
0,
0,
0,
0,
0,
0,
0,
0,
0,
0,
0,
0,
0,
0,
0,
0,
0,
0,
0,
0,
0,
0,
0,
0,
0,
0,
0,
0,
0,
0,
0,
0,
0,
0,
0,
0,
0,
0,
0,
0,
0,
0,
0,
0,
0,
0,
0,
0,
0,
0,
0,
0,
0,
0,
0,
0,
0,
0,
0,
0,
0,
0,
0,
0,
0,
0,
0,
0,
0,
0,
0,
0,
0,
0,
0,
0,
0,
0,
0,
0,
0,
0,
0,
0,
0,
0,
0,
0,
0,
0,
0,
0,
0,
0,
0,
0,
0,
0,
0,
0,
0,
0,
0,
0,
0,
0,
0,
0,
0,
0,
0,
0,
0,
0,
0,
0,
0,
0,
0,
0,
0,
0,
0,
0,
0,
0,
0,
0,
0,
0,
0,
0,
0,
0,
0,
0,
0,
0,
0,
0,
0,
0,
0,
0,
0,
0,
0,
0,
0,
0,
0,
0,
0,
0,
0,
0,
0,
0,
0,
0,
0,
0,
0,
0,
0,
0,
0,
0,
0,
0,
0,
0,
0,
0,
0,
0,
0,
0,
0,
0,
0,
0,
0,
0,
0,
0,
0,
0,
0,
0,
0,
0,
0,
0,
0,
0,
0,
0,
0,
0,
0,
0,
0,
0,
0,
0,
0,
0,
0,
0,
0,
0,
0,
0,
0,
0,
0,
0,
0,
0,
0,
0,
0,
0,
0,
0,
0,
0,
0,
0,
0,
0,
0,
0,
0,
0,
0,
0,
0,
0,
0,
0,
0,
0,
0,
0,
0,
0,
0,
0,
0,
0,
0,
0,
0,
0,
0,
0,
0,
0,
0,
0,
0,
0,
0,
0,
0,
0,
0,
0,
0,
0,
0,
0,
0,
0,
0,
0,
0,
0,
0,
0,
0,
0,
0,
0,
0,
0,
0,
0,
0,
0,
0,
0,
0,
0,
0,
0,
0,
0,
0,
0,
0,
0,
0,
0,
0,
0,
0,
0,
0,
0,
0,
0,
0,
0,
0,
0,
0,
0,
0,
0,
0,
0,
0,
0,
0,
0,
0,
0,
0,
0,
0,
0,
0,
0,
0,
0,
0,
0,
0,
0,
0,
0,
0,
0,
0,
0,
0,
0,
0,
0,
0,
0,
0,
0,
0,
0,
0,
0,
0,
0,
0,
0,
0,
0,
0,
0,
0,
0,
0,
0,
0,
0,
0,
0,
0,
#ENDOFDATA   :