File: N132962/Quantification/15 keV/Mengason MM2/MMM2 Pollucite[7][4].msa
#FORMAT      : EMSA/MAS Spectral Data File
#VERSION     : 1.0
#TITLE       : MMM2 Pollucite[7][all]
#DATE        : 29-SEP-2025
#TIME        : 00:42
#OWNER       : Unknown
#NPOINTS     : 4096
#NCOLUMNS    : 1
#XUNITS      : eV
#YUNITS      : counts
#DATATYPE    : Y
#XPERCHAN    : 9.99778
#OFFSET      : 1.69135
#BEAMKV      : 15
#SIGNALTYPE  : EDS
#ELEVANGLE   : 35
#AZIMANGLE   : 0
#LIVETIME    : 240.32
#REALTIME    : 257.569
#PROBECUR    : 1.21186
#TAUWIND     : 0
#TDEADLYR    : 0
#TACTLYR     : 0.045
#TALWIND     : 0.025
#CHOFFSET    : 0.0
#XLABEL      : Energy (eV)
#YLABEL      : Counts
#XPOSITION   : -20.65058
#YPOSITION   : 3.75682
#ZPOSITION   : 34.11879
#EDSDET      : SD
##SPECIMEN   : MMM2 Pollucite[7][all]
##DET_HASH   : 12273538-fd48-a23f-0a19-f1e6fa85caef
##CALIB_HASH : 6abaa72c-aa41-8738-0be9-f592914732f3
##WORKING    : 15.0 mm
##DET_NAME   : EDAX All
##DET_MODE   : MediumLE
#SPECTRUM    :
22,
27,
18,
21,
131,
529,
1650,
5208,
13678,
17256,
9478,
5454,
5590,
6995,
11497,
36488,
130489,
245835,
181031,
51434,
9596,
4767,
4920,
6156,
6936,
6091,
4869,
4519,
4703,
4982,
5850,
6536,
6546,
8565,
12037,
12468,
8314,
5506,
4987,
5025,
5191,
5208,
5339,
5434,
5607,
5904,
6831,
12385,
32255,
61018,
62470,
34510,
13972,
7750,
7087,
14136,
47631,
116408,
156544,
111554,
46347,
17432,
8997,
5652,
4438,
4158,
4364,
4563,
4271,
3978,
3850,
3785,
3969,
3948,
4112,
4379,
4311,
3963,
3820,
3680,
3737,
3823,
3706,
3836,
3931,
3926,
3718,
3612,
3474,
3543,
3487,
3533,
3449,
3568,
3505,
3539,
3449,
3431,
3321,
3349,
3175,
3252,
3346,
3175,
3280,
3151,
3171,
3307,
3290,
3249,
3366,
3212,
3024,
3097,
3001,
2931,
2991,
3060,
2972,
2863,
2758,
2821,
2789,
2974,
3064,
3400,
3816,
3920,
3472,
3030,
2715,
2730,
2550,
2587,
2638,
2627,
2816,
3034,
3585,
5041,
9827,
18765,
29531,
33768,
27364,
16272,
7799,
3833,
2740,
2520,
3122,
4974,
8847,
13602,
16335,
15363,
11823,
8450,
5825,
4378,
3392,
3259,
3771,
5356,
6643,
6693,
5516,
3860,
2719,
2115,
1917,
1909,
2010,
2249,
2771,
3364,
3800,
3339,
2725,
2251,
1839,
1922,
1959,
2152,
2267,
2413,
2321,
1978,
1829,
1662,
1644,
1582,
1529,
1582,
1522,
1471,
1466,
1419,
1353,
1479,
1455,
1468,
1477,
1427,
1450,
1327,
1412,
1361,
1276,
1256,
1311,
1373,
1402,
1422,
1354,
1313,
1246,
1292,
1233,
1247,
1283,
1227,
1199,
1161,
1188,
1169,
1157,
1199,
1165,
1151,
1131,
1162,
1099,
1098,
1149,
1081,
1132,
1072,
1111,
1092,
1021,
1100,
1061,
1047,
1055,
997,
991,
1052,
1018,
1007,
1017,
965,
958,
919,
956,
963,
915,
920,
889,
909,
869,
862,
885,
948,
915,
864,
857,
895,
887,
849,
843,
797,
815,
817,
840,
792,
817,
790,
737,
812,
800,
756,
770,
709,
746,
762,
773,
721,
740,
733,
769,
723,
736,
704,
747,
717,
713,
697,
703,
687,
661,
642,
697,
664,
672,
640,
589,
613,
637,
551,
601,
632,
611,
587,
568,
585,
574,
550,
574,
583,
563,
541,
513,
523,
524,
531,
471,
532,
467,
487,
543,
498,
442,
506,
463,
506,
465,
454,
448,
481,
470,
472,
471,
432,
416,
445,
433,
443,
441,
430,
460,
401,
420,
420,
391,
417,
358,
371,
389,
410,
356,
349,
345,
354,
376,
341,
323,
353,
314,
331,
317,
310,
339,
269,
308,
318,
332,
301,
308,
291,
293,
297,
261,
291,
263,
243,
279,
289,
278,
260,
282,
275,
240,
254,
265,
213,
228,
214,
226,
227,
225,
226,
221,
203,
197,
197,
192,
209,
172,
195,
179,
180,
182,
184,
197,
183,
166,
181,
160,
127,
196,
163,
142,
141,
147,
141,
137,
133,
148,
134,
138,
122,
120,
123,
126,
135,
132,
115,
110,
119,
126,
112,
93,
93,
108,
98,
95,
98,
79,
91,
78,
91,
98,
82,
72,
102,
75,
79,
84,
66,
70,
73,
70,
62,
68,
50,
53,
60,
58,
50,
41,
47,
51,
48,
35,
31,
34,
38,
35,
33,
42,
27,
28,
25,
26,
17,
18,
11,
24,
20,
14,
9,
11,
6,
7,
8,
8,
3,
9,
3,
3,
3,
2,
0,
1,
2,
0,
1,
0,
2,
1,
1,
0,
2,
1,
0,
2,
1,
0,
1,
1,
2,
0,
2,
1,
1,
1,
2,
1,
1,
0,
0,
1,
0,
1,
1,
0,
1,
1,
1,
2,
0,
1,
1,
0,
0,
0,
0,
1,
0,
1,
0,
0,
0,
2,
0,
0,
1,
0,
0,
0,
1,
1,
1,
0,
0,
0,
1,
0,
0,
0,
1,
1,
2,
0,
0,
0,
0,
0,
0,
0,
0,
2,
0,
0,
0,
0,
0,
1,
0,
0,
0,
0,
2,
0,
0,
0,
0,
0,
0,
0,
2,
0,
0,
0,
0,
0,
0,
0,
0,
0,
0,
1,
0,
0,
0,
0,
0,
0,
1,
0,
0,
0,
0,
0,
0,
1,
0,
0,
1,
0,
0,
1,
0,
0,
0,
0,
0,
0,
0,
0,
0,
0,
0,
1,
0,
1,
0,
0,
0,
0,
0,
0,
0,
0,
0,
0,
1,
0,
0,
0,
0,
0,
0,
0,
0,
0,
0,
0,
0,
0,
0,
0,
0,
0,
0,
0,
0,
0,
0,
0,
0,
0,
0,
0,
0,
0,
0,
0,
0,
0,
0,
0,
0,
0,
0,
0,
0,
0,
0,
0,
0,
0,
0,
0,
0,
0,
0,
0,
0,
0,
0,
0,
0,
0,
0,
0,
0,
0,
0,
0,
0,
0,
0,
0,
0,
0,
0,
0,
0,
0,
0,
0,
0,
0,
0,
0,
0,
0,
0,
0,
0,
0,
0,
0,
0,
0,
0,
0,
0,
0,
0,
0,
0,
0,
0,
0,
0,
0,
0,
0,
0,
0,
0,
0,
0,
0,
0,
0,
1,
0,
0,
0,
0,
0,
0,
0,
0,
0,
0,
0,
0,
0,
0,
0,
0,
0,
0,
0,
0,
0,
0,
0,
0,
0,
0,
0,
0,
0,
0,
0,
0,
0,
0,
0,
0,
0,
0,
0,
0,
0,
0,
0,
0,
0,
0,
0,
0,
0,
0,
0,
0,
0,
0,
0,
0,
0,
0,
0,
0,
0,
0,
0,
0,
0,
0,
0,
0,
0,
0,
0,
0,
0,
0,
0,
0,
0,
0,
0,
0,
0,
0,
0,
0,
0,
0,
0,
0,
0,
0,
0,
0,
0,
0,
0,
0,
0,
0,
0,
0,
0,
0,
0,
0,
0,
0,
0,
0,
0,
0,
0,
0,
0,
0,
0,
0,
0,
0,
0,
0,
0,
0,
0,
0,
0,
0,
0,
0,
0,
0,
0,
0,
0,
0,
0,
0,
0,
0,
0,
0,
0,
0,
0,
0,
0,
0,
0,
0,
0,
0,
0,
0,
0,
0,
0,
0,
0,
0,
0,
0,
0,
0,
0,
0,
0,
0,
0,
0,
0,
0,
0,
0,
0,
0,
0,
0,
0,
0,
0,
0,
0,
0,
0,
0,
0,
0,
0,
0,
0,
0,
0,
0,
0,
0,
0,
0,
0,
0,
0,
0,
0,
0,
0,
0,
0,
0,
0,
0,
0,
0,
0,
0,
0,
0,
0,
0,
0,
0,
0,
0,
0,
0,
0,
0,
0,
0,
0,
0,
0,
0,
0,
0,
0,
0,
0,
0,
0,
0,
0,
0,
0,
0,
0,
0,
0,
0,
0,
0,
0,
0,
0,
0,
0,
0,
0,
0,
0,
0,
0,
0,
0,
0,
0,
0,
0,
0,
0,
0,
0,
0,
0,
0,
0,
0,
0,
0,
0,
0,
0,
0,
0,
0,
0,
0,
0,
0,
0,
0,
0,
0,
0,
0,
0,
0,
0,
0,
0,
0,
0,
0,
0,
0,
0,
0,
0,
0,
0,
0,
0,
0,
0,
0,
0,
0,
0,
0,
0,
0,
0,
0,
0,
0,
0,
0,
0,
0,
0,
0,
0,
0,
0,
0,
0,
0,
0,
0,
0,
0,
0,
0,
0,
0,
0,
0,
0,
0,
0,
0,
0,
0,
0,
0,
0,
0,
0,
0,
0,
0,
0,
0,
0,
0,
0,
0,
0,
0,
0,
0,
0,
0,
0,
0,
0,
0,
0,
0,
0,
0,
0,
0,
0,
0,
0,
0,
0,
0,
0,
0,
0,
0,
0,
0,
0,
0,
0,
0,
0,
0,
0,
0,
0,
0,
0,
0,
0,
0,
0,
0,
0,
0,
0,
0,
0,
0,
0,
0,
0,
0,
0,
0,
0,
0,
0,
0,
0,
0,
0,
0,
0,
0,
0,
0,
0,
0,
0,
0,
0,
0,
0,
0,
0,
0,
0,
0,
0,
0,
0,
0,
0,
0,
0,
0,
0,
0,
0,
0,
0,
0,
0,
0,
0,
0,
0,
0,
0,
0,
0,
0,
0,
0,
0,
0,
0,
0,
0,
0,
0,
0,
0,
0,
0,
0,
0,
0,
0,
0,
0,
0,
0,
0,
0,
0,
0,
0,
0,
0,
0,
0,
0,
0,
0,
0,
0,
0,
0,
0,
0,
0,
0,
0,
0,
0,
0,
0,
0,
0,
0,
0,
0,
0,
0,
0,
0,
0,
0,
0,
0,
0,
0,
0,
0,
0,
0,
0,
0,
0,
0,
0,
0,
0,
0,
0,
0,
0,
0,
0,
0,
0,
0,
0,
0,
0,
0,
0,
0,
0,
0,
0,
0,
0,
0,
0,
0,
0,
0,
0,
0,
0,
0,
0,
0,
0,
0,
0,
0,
0,
0,
0,
0,
0,
0,
0,
0,
0,
0,
0,
0,
0,
0,
0,
0,
0,
0,
0,
0,
0,
#ENDOFDATA   :