File: N132962/Quantification/15 keV/Mengason MM2/MMM2 Orthoclaise[6][4].msa
#FORMAT      : EMSA/MAS Spectral Data File
#VERSION     : 1.0
#TITLE       : MMM2 Orthoclaise[6][all]
#DATE        : 28-SEP-2025
#TIME        : 21:03
#OWNER       : Unknown
#NPOINTS     : 4096
#NCOLUMNS    : 1
#XUNITS      : eV
#YUNITS      : counts
#DATATYPE    : Y
#XPERCHAN    : 9.99778
#OFFSET      : 1.69135
#BEAMKV      : 15
#SIGNALTYPE  : EDS
#ELEVANGLE   : 35
#AZIMANGLE   : 0
#LIVETIME    : 240.206
#REALTIME    : 256.242
#PROBECUR    : 1.21333
#TAUWIND     : 0
#TDEADLYR    : 0
#TACTLYR     : 0.045
#TALWIND     : 0.025
#CHOFFSET    : 0.0
#XLABEL      : Energy (eV)
#YLABEL      : Counts
#XPOSITION   : -14.11949
#YPOSITION   : -3.98821
#ZPOSITION   : 34.11879
#EDSDET      : SD
##SPECIMEN   : MMM2 Orthoclaise[6][all]
##DET_HASH   : 12273538-fd48-a23f-0a19-f1e6fa85caef
##CALIB_HASH : 6abaa72c-aa41-8738-0be9-f592914732f3
##WORKING    : 15.0 mm
##DET_NAME   : EDAX All
##DET_MODE   : MediumLE
#SPECTRUM    :
24,
23,
18,
19,
102,
373,
1358,
4620,
12696,
14985,
7463,
3399,
2988,
3869,
7141,
26105,
98637,
186170,
135077,
35895,
5761,
3011,
3602,
4907,
4932,
3779,
3394,
3463,
3542,
3777,
3856,
4043,
4234,
4799,
5520,
5906,
5351,
4760,
4664,
4846,
4785,
5057,
5114,
5102,
5410,
5555,
6676,
13450,
37962,
73511,
74025,
40099,
15896,
8166,
7707,
18545,
71308,
180306,
244643,
173065,
69845,
23448,
10560,
5457,
3276,
2922,
2840,
2734,
2731,
2734,
2667,
2657,
2652,
2820,
2985,
3128,
3132,
2735,
2656,
2483,
2597,
2548,
2433,
2409,
2502,
2443,
2422,
2403,
2371,
2296,
2309,
2343,
2206,
2311,
2225,
2275,
2280,
2340,
2205,
2217,
2092,
2153,
2066,
2188,
2293,
2662,
3340,
5953,
14335,
30755,
46748,
46930,
31016,
13861,
5170,
2806,
2701,
3534,
5167,
6692,
6982,
5541,
3601,
2242,
1679,
1605,
1583,
1658,
1688,
1583,
1553,
1556,
1483,
1531,
1470,
1416,
1373,
1431,
1449,
1408,
1411,
1369,
1370,
1312,
1339,
1381,
1357,
1336,
1388,
1340,
1397,
1317,
1252,
1213,
1250,
1195,
1219,
1283,
1252,
1269,
1282,
1231,
1213,
1109,
1152,
1122,
1164,
1231,
1232,
1180,
1173,
1100,
1124,
1091,
1001,
1019,
1058,
1051,
996,
1034,
1016,
943,
991,
910,
1021,
921,
906,
939,
944,
940,
890,
928,
910,
846,
907,
848,
852,
862,
852,
848,
841,
792,
804,
859,
784,
837,
736,
744,
821,
943,
1189,
1660,
2247,
2488,
2317,
1917,
1421,
990,
762,
790,
727,
681,
749,
708,
703,
633,
672,
640,
613,
671,
667,
630,
741,
754,
820,
855,
802,
709,
684,
619,
609,
566,
550,
570,
552,
545,
525,
537,
535,
529,
502,
544,
536,
531,
531,
476,
523,
523,
509,
523,
494,
456,
493,
455,
496,
484,
444,
472,
495,
469,
479,
444,
425,
385,
418,
438,
394,
385,
427,
399,
428,
418,
399,
432,
386,
402,
383,
400,
391,
378,
345,
372,
375,
366,
357,
362,
337,
338,
351,
332,
331,
320,
318,
284,
318,
331,
302,
295,
331,
300,
293,
296,
291,
288,
278,
251,
286,
270,
233,
280,
262,
280,
296,
269,
284,
262,
260,
269,
251,
257,
268,
224,
237,
237,
241,
217,
232,
235,
241,
222,
221,
204,
229,
216,
207,
219,
218,
165,
178,
208,
220,
230,
185,
197,
200,
173,
196,
168,
184,
166,
177,
155,
178,
190,
160,
166,
167,
174,
160,
143,
159,
156,
153,
165,
144,
144,
144,
140,
138,
133,
143,
141,
145,
150,
121,
147,
127,
123,
140,
119,
109,
105,
130,
113,
117,
119,
95,
97,
111,
117,
95,
101,
102,
91,
102,
103,
87,
98,
83,
85,
81,
95,
69,
80,
85,
78,
91,
73,
66,
78,
81,
64,
84,
63,
64,
63,
95,
70,
80,
63,
57,
66,
58,
56,
55,
61,
40,
48,
33,
44,
51,
48,
54,
44,
54,
41,
48,
44,
26,
39,
35,
35,
32,
28,
44,
36,
38,
40,
30,
29,
27,
24,
27,
24,
19,
21,
29,
22,
27,
24,
23,
16,
11,
14,
21,
15,
12,
11,
13,
6,
14,
16,
16,
7,
13,
6,
9,
9,
9,
3,
6,
12,
3,
3,
2,
3,
5,
1,
0,
2,
0,
0,
0,
1,
1,
2,
0,
0,
0,
0,
1,
0,
1,
0,
0,
0,
0,
0,
1,
0,
0,
0,
0,
1,
0,
0,
0,
0,
0,
0,
0,
0,
0,
0,
0,
1,
1,
1,
0,
0,
0,
0,
0,
1,
1,
0,
0,
0,
0,
0,
0,
0,
0,
0,
0,
0,
0,
0,
0,
0,
0,
0,
0,
1,
1,
0,
1,
1,
0,
0,
0,
0,
0,
0,
0,
0,
0,
0,
0,
0,
0,
0,
0,
0,
0,
0,
0,
0,
0,
0,
0,
0,
0,
0,
0,
0,
0,
0,
0,
0,
2,
0,
0,
0,
0,
0,
0,
0,
0,
0,
0,
0,
0,
0,
0,
0,
0,
0,
0,
0,
0,
0,
0,
0,
0,
0,
0,
0,
0,
0,
0,
0,
0,
0,
0,
0,
0,
0,
0,
0,
0,
0,
0,
0,
0,
0,
0,
0,
0,
0,
0,
0,
0,
0,
0,
0,
0,
0,
0,
0,
0,
0,
0,
0,
0,
0,
0,
0,
0,
0,
0,
0,
0,
0,
0,
0,
0,
0,
0,
0,
0,
0,
0,
0,
0,
0,
0,
0,
0,
0,
0,
0,
0,
0,
0,
0,
0,
0,
0,
0,
0,
0,
0,
0,
0,
0,
0,
0,
0,
0,
0,
0,
0,
0,
0,
0,
0,
0,
0,
0,
0,
0,
0,
0,
0,
0,
0,
0,
0,
0,
0,
0,
0,
0,
0,
0,
0,
0,
0,
0,
0,
0,
0,
0,
0,
0,
0,
0,
0,
0,
0,
0,
0,
0,
0,
0,
0,
0,
0,
0,
0,
0,
0,
0,
0,
0,
0,
0,
0,
0,
0,
0,
0,
0,
0,
0,
0,
0,
0,
0,
0,
0,
0,
0,
0,
0,
0,
0,
0,
0,
0,
0,
0,
0,
0,
0,
0,
0,
0,
0,
0,
0,
0,
0,
0,
0,
0,
0,
0,
0,
0,
0,
0,
0,
0,
0,
0,
0,
0,
0,
0,
0,
0,
0,
0,
0,
0,
0,
0,
0,
0,
0,
0,
0,
0,
0,
0,
0,
0,
0,
0,
0,
0,
0,
0,
0,
0,
0,
0,
0,
0,
0,
0,
0,
0,
0,
0,
0,
0,
0,
0,
0,
0,
0,
0,
0,
0,
0,
0,
0,
0,
0,
0,
0,
0,
0,
0,
0,
0,
0,
0,
0,
0,
0,
0,
0,
0,
0,
0,
0,
0,
0,
0,
0,
0,
0,
0,
0,
0,
0,
0,
0,
0,
0,
0,
0,
0,
0,
0,
0,
0,
0,
0,
0,
0,
0,
0,
0,
0,
0,
0,
0,
0,
0,
0,
0,
0,
0,
0,
0,
0,
0,
0,
0,
0,
0,
0,
0,
0,
0,
0,
0,
0,
0,
0,
0,
0,
0,
0,
0,
0,
0,
0,
0,
0,
0,
0,
0,
0,
0,
0,
0,
0,
0,
0,
0,
0,
0,
0,
0,
0,
0,
0,
0,
0,
0,
0,
0,
0,
0,
0,
0,
0,
0,
0,
0,
0,
0,
0,
0,
0,
0,
0,
0,
0,
0,
0,
0,
0,
0,
0,
0,
0,
0,
0,
0,
0,
0,
0,
0,
0,
0,
0,
0,
0,
0,
0,
0,
0,
0,
0,
0,
0,
0,
0,
0,
0,
0,
0,
0,
0,
0,
0,
0,
0,
0,
0,
0,
0,
0,
0,
0,
0,
0,
0,
0,
0,
0,
0,
0,
0,
0,
0,
0,
0,
0,
0,
0,
0,
0,
0,
0,
0,
0,
0,
0,
0,
0,
0,
0,
0,
0,
0,
0,
0,
0,
0,
0,
0,
0,
0,
0,
0,
0,
0,
0,
0,
0,
0,
0,
0,
0,
0,
0,
0,
0,
0,
0,
0,
0,
0,
0,
0,
0,
0,
0,
0,
0,
0,
0,
0,
0,
0,
0,
0,
0,
0,
0,
0,
0,
0,
0,
0,
0,
0,
0,
0,
0,
0,
0,
0,
0,
0,
0,
0,
0,
0,
0,
0,
0,
0,
0,
0,
0,
0,
0,
0,
0,
0,
0,
0,
0,
0,
0,
0,
0,
0,
0,
0,
0,
0,
0,
0,
0,
0,
0,
0,
0,
0,
0,
0,
0,
0,
0,
0,
0,
0,
0,
0,
0,
0,
0,
0,
0,
0,
0,
0,
0,
0,
0,
0,
0,
0,
0,
0,
0,
0,
0,
0,
0,
0,
0,
0,
0,
0,
0,
0,
0,
0,
0,
0,
0,
0,
0,
0,
0,
0,
0,
0,
0,
0,
0,
0,
0,
0,
0,
0,
0,
0,
0,
0,
0,
0,
0,
0,
0,
0,
0,
0,
0,
0,
0,
0,
0,
0,
0,
0,
0,
0,
0,
0,
0,
0,
0,
0,
0,
0,
0,
0,
0,
0,
0,
0,
0,
0,
0,
0,
0,
0,
0,
0,
0,
0,
0,
0,
0,
0,
0,
0,
0,
0,
0,
0,
0,
0,
0,
0,
0,
0,
0,
0,
0,
0,
0,
0,
0,
0,
0,
0,
0,
0,
0,
0,
0,
0,
0,
0,
0,
0,
0,
0,
0,
0,
0,
0,
0,
0,
0,
0,
0,
0,
0,
0,
0,
0,
0,
0,
0,
0,
0,
0,
0,
0,
0,
0,
0,
0,
0,
0,
0,
0,
0,
0,
0,
0,
0,
0,
0,
0,
0,
0,
0,
0,
0,
0,
0,
0,
0,
0,
0,
0,
0,
0,
0,
0,
0,
#ENDOFDATA   :