File: N132962/Quantification/15 keV/Mengason MM2/MMM2 Zircon-2[3][4].msa
#FORMAT      : EMSA/MAS Spectral Data File
#VERSION     : 1.0
#TITLE       : MMM2 Zircon-2[3][all]
#DATE        : 29-SEP-2025
#TIME        : 01:19
#OWNER       : Unknown
#NPOINTS     : 4096
#NCOLUMNS    : 1
#XUNITS      : eV
#YUNITS      : counts
#DATATYPE    : Y
#XPERCHAN    : 9.99778
#OFFSET      : 1.69135
#BEAMKV      : 15
#SIGNALTYPE  : EDS
#ELEVANGLE   : 35
#AZIMANGLE   : 0
#LIVETIME    : 240.274
#REALTIME    : 257.136
#PROBECUR    : 1.21247
#TAUWIND     : 0
#TDEADLYR    : 0
#TACTLYR     : 0.045
#TALWIND     : 0.025
#CHOFFSET    : 0.0
#XLABEL      : Energy (eV)
#YLABEL      : Counts
#XPOSITION   : -14.67753
#YPOSITION   : 7.57633
#ZPOSITION   : 34.11879
#EDSDET      : SD
##SPECIMEN   : MMM2 Zircon-2[3][all]
##DET_HASH   : 12273538-fd48-a23f-0a19-f1e6fa85caef
##CALIB_HASH : 6abaa72c-aa41-8738-0be9-f592914732f3
##WORKING    : 15.0 mm
##DET_NAME   : EDAX All
##DET_MODE   : MediumLE
#SPECTRUM    :
19,
29,
14,
77,
482,
1310,
2186,
5303,
14418,
19667,
12175,
5677,
4674,
5328,
6537,
17168,
57826,
107352,
78723,
22146,
5107,
3767,
3985,
4431,
4611,
4765,
4854,
5175,
5460,
5683,
5802,
5956,
6170,
6295,
6551,
6702,
6767,
6852,
6796,
7012,
6973,
7240,
7425,
7460,
7385,
7608,
7627,
7707,
7659,
8165,
8117,
7978,
8094,
8808,
10805,
17908,
48447,
113400,
151374,
112294,
53135,
24080,
14501,
11293,
12265,
20559,
48637,
102472,
142953,
127534,
94749,
72449,
49385,
28456,
16413,
10011,
6380,
4794,
4125,
3603,
3486,
3452,
3948,
4259,
4395,
4112,
3583,
3399,
3196,
3198,
3160,
3272,
3215,
3205,
3192,
3182,
3176,
3246,
3077,
3178,
3057,
3087,
3112,
3170,
3118,
3059,
3088,
3152,
2939,
3008,
3023,
3010,
2982,
2876,
3005,
2994,
3066,
2981,
2941,
2918,
2833,
2934,
2919,
2838,
2927,
2957,
2993,
3044,
2859,
2814,
2844,
2653,
2658,
2615,
2724,
2772,
2655,
2709,
2758,
2661,
2629,
2539,
2529,
2541,
2417,
2424,
2394,
2339,
2345,
2346,
2346,
2262,
2300,
2246,
2407,
2206,
2274,
2244,
2281,
2219,
2184,
2093,
2127,
2090,
2009,
2114,
2106,
2101,
2096,
1966,
2062,
1941,
1995,
1972,
1993,
1944,
1845,
1944,
1897,
1890,
1917,
1926,
1801,
1893,
1873,
1763,
1727,
1857,
1715,
1805,
1692,
1711,
1695,
1776,
1692,
1719,
1650,
1578,
1732,
1696,
1664,
1577,
1679,
1572,
1609,
1584,
1617,
1575,
1556,
1481,
1581,
1521,
1504,
1539,
1491,
1533,
1507,
1459,
1456,
1376,
1413,
1362,
1388,
1424,
1351,
1316,
1343,
1295,
1364,
1300,
1306,
1270,
1271,
1282,
1235,
1222,
1250,
1262,
1240,
1225,
1096,
1143,
1204,
1137,
1132,
1203,
1140,
1163,
1168,
1169,
1104,
1093,
1044,
1056,
1054,
1050,
1069,
1075,
1053,
1026,
1042,
1058,
1123,
1136,
1119,
1054,
1036,
964,
913,
937,
961,
933,
925,
904,
913,
936,
876,
857,
888,
894,
854,
872,
864,
878,
862,
820,
790,
877,
742,
762,
825,
801,
775,
810,
760,
729,
752,
771,
791,
777,
774,
777,
753,
745,
720,
655,
776,
715,
696,
691,
676,
675,
645,
664,
671,
638,
659,
612,
611,
593,
632,
607,
567,
556,
573,
569,
579,
601,
534,
553,
510,
570,
555,
570,
561,
531,
510,
549,
510,
507,
487,
522,
505,
498,
484,
487,
502,
433,
450,
458,
432,
467,
422,
407,
430,
412,
417,
398,
439,
441,
418,
427,
437,
381,
383,
357,
368,
343,
374,
402,
354,
316,
364,
364,
355,
337,
302,
310,
320,
297,
314,
308,
284,
304,
310,
321,
318,
295,
273,
300,
273,
262,
254,
289,
238,
253,
268,
275,
238,
235,
252,
241,
223,
224,
204,
223,
219,
190,
194,
237,
219,
235,
207,
183,
176,
204,
179,
212,
166,
189,
180,
168,
159,
174,
155,
159,
169,
167,
149,
172,
136,
132,
166,
135,
115,
130,
145,
121,
143,
129,
106,
108,
110,
104,
101,
95,
100,
113,
79,
102,
78,
104,
104,
74,
77,
82,
84,
76,
74,
80,
65,
65,
68,
60,
69,
60,
62,
41,
62,
60,
44,
41,
62,
38,
55,
49,
40,
39,
32,
33,
43,
30,
38,
26,
35,
17,
32,
22,
23,
18,
23,
17,
13,
10,
12,
8,
8,
4,
2,
6,
4,
1,
4,
1,
2,
1,
3,
2,
0,
2,
1,
2,
1,
0,
0,
1,
1,
0,
1,
0,
0,
2,
0,
1,
0,
0,
1,
0,
1,
0,
0,
0,
0,
1,
1,
0,
1,
1,
1,
0,
0,
0,
0,
0,
1,
0,
1,
0,
0,
0,
0,
1,
0,
1,
0,
0,
1,
0,
0,
1,
0,
1,
0,
0,
0,
0,
0,
0,
0,
0,
2,
0,
0,
2,
0,
0,
0,
0,
1,
0,
0,
0,
0,
0,
1,
0,
0,
0,
0,
0,
0,
0,
0,
0,
1,
0,
1,
0,
0,
1,
1,
0,
0,
0,
1,
0,
1,
0,
0,
0,
0,
0,
0,
1,
0,
0,
0,
0,
0,
0,
0,
0,
1,
0,
0,
0,
0,
0,
0,
0,
0,
0,
1,
0,
0,
0,
0,
0,
0,
0,
0,
0,
0,
0,
0,
0,
0,
0,
0,
0,
0,
0,
0,
0,
1,
0,
0,
0,
0,
0,
0,
0,
0,
0,
0,
0,
0,
0,
0,
0,
0,
0,
0,
0,
0,
0,
0,
0,
0,
0,
0,
0,
0,
0,
0,
0,
0,
0,
0,
0,
0,
0,
0,
0,
0,
0,
0,
0,
0,
0,
1,
0,
0,
0,
0,
0,
0,
0,
0,
0,
0,
0,
0,
0,
0,
0,
0,
1,
0,
0,
0,
0,
0,
0,
0,
0,
0,
0,
0,
0,
0,
0,
0,
0,
0,
0,
0,
0,
0,
0,
0,
0,
0,
0,
0,
0,
0,
0,
0,
0,
0,
0,
0,
0,
0,
0,
0,
0,
0,
0,
0,
0,
0,
0,
0,
0,
0,
0,
0,
0,
0,
0,
0,
0,
0,
0,
0,
0,
0,
0,
1,
0,
0,
0,
0,
0,
0,
0,
0,
0,
0,
0,
0,
0,
0,
0,
0,
0,
0,
0,
0,
0,
0,
0,
0,
0,
0,
0,
0,
0,
0,
0,
0,
0,
0,
0,
0,
0,
0,
0,
0,
0,
0,
1,
0,
0,
0,
0,
0,
0,
0,
0,
0,
0,
0,
0,
0,
0,
0,
0,
0,
0,
0,
0,
0,
0,
0,
0,
0,
0,
0,
0,
0,
0,
1,
0,
0,
0,
0,
0,
0,
0,
0,
0,
0,
0,
0,
0,
0,
0,
0,
0,
0,
0,
0,
0,
0,
0,
0,
0,
0,
0,
0,
0,
0,
0,
0,
0,
0,
0,
0,
0,
0,
0,
0,
0,
0,
0,
0,
0,
0,
0,
0,
0,
0,
0,
0,
0,
0,
0,
0,
0,
0,
0,
0,
0,
0,
0,
0,
0,
0,
0,
0,
0,
0,
0,
0,
0,
0,
0,
0,
0,
0,
0,
0,
0,
0,
0,
0,
0,
0,
0,
0,
0,
0,
0,
0,
0,
0,
0,
0,
0,
0,
0,
0,
0,
0,
0,
0,
0,
0,
0,
0,
0,
0,
0,
0,
0,
0,
0,
0,
0,
0,
0,
0,
0,
0,
0,
0,
0,
0,
0,
0,
0,
0,
0,
0,
0,
0,
0,
0,
0,
0,
0,
0,
0,
0,
0,
0,
0,
0,
0,
0,
0,
0,
0,
0,
0,
0,
0,
0,
0,
0,
0,
0,
0,
0,
0,
0,
0,
0,
0,
0,
0,
0,
0,
0,
0,
0,
0,
0,
0,
0,
0,
0,
0,
0,
0,
0,
0,
0,
0,
0,
0,
0,
0,
0,
0,
0,
0,
0,
0,
0,
0,
0,
0,
0,
0,
0,
0,
0,
0,
0,
0,
0,
0,
0,
0,
0,
0,
0,
0,
0,
0,
0,
0,
0,
0,
0,
0,
0,
0,
0,
0,
0,
0,
0,
0,
0,
0,
0,
0,
0,
0,
0,
0,
0,
0,
0,
0,
0,
0,
0,
0,
0,
0,
0,
0,
0,
0,
0,
0,
0,
0,
0,
0,
0,
0,
0,
0,
0,
0,
0,
0,
0,
0,
0,
0,
0,
0,
0,
0,
0,
0,
0,
0,
0,
0,
0,
0,
0,
0,
0,
0,
0,
0,
0,
0,
0,
0,
0,
0,
0,
0,
0,
0,
0,
0,
0,
0,
0,
0,
0,
0,
0,
0,
0,
0,
0,
0,
0,
0,
0,
0,
0,
0,
0,
0,
0,
0,
0,
0,
0,
0,
0,
0,
0,
0,
0,
0,
0,
0,
0,
0,
0,
0,
0,
0,
0,
0,
0,
0,
0,
0,
0,
0,
0,
0,
0,
0,
0,
0,
0,
0,
0,
0,
0,
0,
0,
0,
0,
0,
0,
0,
0,
0,
0,
0,
0,
0,
0,
0,
0,
0,
0,
0,
0,
0,
0,
0,
0,
0,
0,
0,
0,
0,
0,
0,
0,
0,
0,
0,
0,
0,
0,
0,
0,
0,
0,
0,
0,
0,
0,
0,
0,
0,
0,
0,
0,
0,
0,
0,
0,
0,
0,
0,
0,
0,
0,
0,
0,
0,
0,
0,
0,
0,
0,
0,
0,
0,
0,
0,
0,
0,
0,
0,
0,
0,
0,
0,
0,
0,
0,
0,
0,
0,
0,
0,
0,
0,
0,
0,
0,
0,
0,
0,
0,
0,
0,
0,
0,
0,
0,
0,
0,
0,
0,
0,
0,
0,
0,
0,
0,
0,
0,
0,
0,
0,
0,
0,
0,
0,
0,
0,
0,
0,
0,
0,
0,
0,
0,
0,
0,
0,
0,
0,
0,
0,
0,
0,
0,
0,
0,
0,
0,
0,
#ENDOFDATA   :