File: N132962/Quantification/15 keV/Mengason MM2/MMM2 Pollucite[2][4].msa
#FORMAT      : EMSA/MAS Spectral Data File
#VERSION     : 1.0
#TITLE       : MMM2 Pollucite[2][all]
#DATE        : 29-SEP-2025
#TIME        : 00:36
#OWNER       : Unknown
#NPOINTS     : 4096
#NCOLUMNS    : 1
#XUNITS      : eV
#YUNITS      : counts
#DATATYPE    : Y
#XPERCHAN    : 9.99778
#OFFSET      : 1.69135
#BEAMKV      : 15
#SIGNALTYPE  : EDS
#ELEVANGLE   : 35
#AZIMANGLE   : 0
#LIVETIME    : 240.375
#REALTIME    : 257.6414
#PROBECUR    : 1.21186
#TAUWIND     : 0
#TDEADLYR    : 0
#TACTLYR     : 0.045
#TALWIND     : 0.025
#CHOFFSET    : 0.0
#XLABEL      : Energy (eV)
#YLABEL      : Counts
#XPOSITION   : -20.61774
#YPOSITION   : 3.81056
#ZPOSITION   : 34.11879
#EDSDET      : SD
##SPECIMEN   : MMM2 Pollucite[2][all]
##DET_HASH   : 12273538-fd48-a23f-0a19-f1e6fa85caef
##CALIB_HASH : 6abaa72c-aa41-8738-0be9-f592914732f3
##WORKING    : 15.0 mm
##DET_NAME   : EDAX All
##DET_MODE   : MediumLE
#SPECTRUM    :
22,
27,
19,
25,
133,
564,
1668,
4962,
13594,
17576,
9679,
5459,
5734,
6914,
11467,
36336,
130704,
246695,
181651,
51317,
9614,
4555,
4830,
6132,
7019,
6200,
5010,
4638,
4599,
4991,
5925,
6508,
6727,
8510,
11893,
12374,
8446,
5626,
4933,
4970,
5261,
5331,
5348,
5495,
5562,
5819,
6734,
12210,
32467,
61736,
62290,
33873,
13951,
7832,
7219,
14140,
46951,
116704,
157328,
111763,
46444,
17173,
9002,
5609,
4290,
4275,
4307,
4434,
4318,
4013,
3857,
3867,
3794,
3927,
4159,
4391,
4358,
4000,
3993,
3851,
3780,
3741,
3793,
3899,
3875,
4000,
3835,
3711,
3530,
3475,
3587,
3504,
3477,
3497,
3486,
3577,
3511,
3376,
3385,
3396,
3429,
3223,
3180,
3266,
3191,
3160,
3277,
3164,
3238,
3211,
3245,
3150,
3194,
2950,
3047,
2931,
3073,
2985,
2916,
2913,
2841,
2909,
2832,
2840,
3109,
3551,
3893,
3795,
3537,
3019,
2803,
2646,
2628,
2595,
2638,
2687,
2783,
3123,
3463,
5168,
9907,
19039,
29758,
34309,
27435,
16174,
7757,
3902,
2770,
2633,
3142,
5019,
8841,
13679,
16699,
15443,
12055,
8192,
5858,
4312,
3368,
3230,
3922,
5287,
6641,
6820,
5517,
3815,
2651,
2095,
2017,
1888,
2009,
2260,
2763,
3413,
3640,
3417,
2791,
2207,
1854,
1796,
1892,
2136,
2323,
2468,
2241,
2026,
1806,
1677,
1676,
1658,
1566,
1524,
1478,
1507,
1471,
1446,
1457,
1378,
1472,
1472,
1451,
1368,
1395,
1347,
1355,
1330,
1345,
1352,
1306,
1406,
1434,
1376,
1371,
1369,
1295,
1236,
1211,
1220,
1155,
1209,
1169,
1238,
1195,
1158,
1150,
1162,
1162,
1136,
1069,
1095,
1119,
1118,
1107,
1189,
1134,
1124,
1038,
1048,
1098,
1062,
1050,
1091,
1017,
998,
999,
1006,
1018,
1011,
982,
991,
953,
961,
959,
925,
948,
914,
984,
893,
937,
863,
887,
915,
876,
854,
875,
924,
863,
827,
756,
839,
835,
809,
834,
775,
755,
780,
795,
775,
788,
721,
774,
700,
739,
720,
752,
691,
732,
706,
722,
692,
721,
699,
711,
727,
690,
693,
659,
672,
648,
625,
654,
710,
626,
590,
607,
631,
624,
631,
582,
581,
575,
614,
538,
583,
557,
573,
563,
542,
569,
569,
503,
539,
536,
535,
501,
513,
546,
513,
529,
477,
521,
449,
476,
450,
467,
504,
460,
479,
433,
438,
476,
446,
439,
438,
452,
435,
407,
430,
423,
406,
384,
379,
406,
397,
405,
388,
389,
380,
364,
352,
348,
344,
324,
357,
341,
334,
342,
351,
338,
326,
300,
329,
357,
310,
315,
311,
279,
310,
279,
292,
291,
258,
283,
288,
278,
270,
259,
266,
283,
268,
245,
254,
238,
245,
248,
216,
215,
220,
217,
235,
193,
225,
195,
211,
205,
203,
212,
184,
196,
188,
203,
200,
190,
178,
166,
164,
172,
173,
155,
150,
181,
148,
147,
155,
161,
155,
133,
143,
131,
121,
123,
125,
118,
122,
114,
119,
102,
123,
112,
100,
115,
98,
95,
102,
97,
99,
87,
80,
90,
80,
87,
80,
72,
57,
71,
67,
85,
68,
72,
68,
62,
65,
53,
62,
55,
60,
45,
55,
51,
50,
52,
40,
46,
28,
46,
41,
38,
40,
25,
26,
30,
21,
18,
27,
22,
19,
21,
7,
15,
12,
14,
22,
8,
6,
4,
4,
5,
3,
4,
1,
0,
2,
0,
1,
0,
1,
3,
2,
2,
1,
1,
0,
1,
0,
0,
1,
0,
0,
1,
0,
2,
0,
2,
1,
0,
0,
0,
0,
1,
0,
1,
0,
0,
0,
3,
0,
0,
0,
1,
0,
1,
1,
0,
0,
0,
2,
0,
0,
1,
0,
0,
0,
0,
1,
0,
1,
0,
0,
1,
2,
0,
1,
0,
0,
0,
0,
1,
0,
0,
0,
0,
0,
1,
1,
1,
0,
1,
0,
1,
1,
1,
1,
0,
0,
0,
0,
1,
1,
0,
0,
0,
0,
0,
0,
0,
0,
1,
0,
0,
0,
0,
0,
1,
2,
0,
1,
0,
0,
0,
0,
1,
0,
0,
0,
0,
0,
0,
0,
1,
0,
0,
0,
0,
0,
1,
1,
0,
0,
0,
0,
0,
0,
0,
0,
0,
0,
0,
0,
0,
0,
0,
0,
0,
0,
0,
1,
0,
0,
0,
0,
0,
0,
0,
0,
0,
0,
0,
0,
0,
0,
0,
0,
0,
0,
0,
0,
0,
0,
0,
0,
0,
0,
0,
0,
0,
0,
0,
0,
0,
0,
0,
0,
0,
0,
0,
0,
0,
0,
0,
0,
0,
0,
0,
0,
0,
0,
0,
0,
0,
0,
0,
0,
0,
0,
0,
0,
0,
0,
0,
0,
0,
0,
0,
0,
1,
0,
0,
0,
0,
0,
0,
0,
0,
0,
0,
0,
0,
0,
0,
0,
0,
0,
0,
0,
0,
0,
0,
0,
0,
0,
0,
0,
0,
0,
0,
0,
0,
0,
0,
0,
0,
0,
0,
0,
0,
0,
0,
0,
0,
0,
0,
0,
0,
0,
0,
0,
0,
0,
0,
0,
0,
0,
0,
0,
0,
0,
0,
0,
0,
0,
0,
0,
0,
0,
0,
0,
0,
0,
0,
0,
0,
0,
0,
0,
0,
0,
0,
0,
0,
0,
0,
0,
0,
0,
0,
0,
0,
0,
0,
0,
0,
0,
0,
0,
0,
0,
0,
0,
0,
0,
0,
0,
0,
0,
0,
0,
0,
0,
0,
0,
0,
0,
0,
0,
0,
0,
0,
0,
0,
0,
0,
0,
0,
0,
0,
0,
0,
0,
0,
0,
0,
0,
0,
0,
0,
0,
0,
0,
0,
0,
0,
0,
0,
0,
0,
0,
0,
0,
0,
0,
0,
0,
0,
0,
0,
1,
0,
0,
0,
0,
0,
0,
0,
0,
0,
0,
0,
0,
0,
0,
0,
0,
0,
0,
0,
0,
0,
0,
0,
0,
0,
0,
0,
0,
0,
0,
0,
0,
0,
0,
0,
0,
0,
0,
0,
0,
0,
0,
0,
0,
0,
0,
0,
0,
0,
0,
0,
0,
0,
0,
0,
0,
0,
0,
0,
0,
0,
0,
0,
0,
0,
0,
0,
0,
0,
0,
0,
0,
0,
0,
0,
0,
0,
0,
0,
0,
0,
0,
0,
0,
0,
0,
0,
0,
0,
0,
0,
0,
0,
0,
0,
0,
0,
0,
0,
0,
0,
0,
0,
0,
0,
0,
0,
0,
0,
0,
0,
0,
0,
0,
0,
0,
0,
0,
0,
0,
0,
0,
0,
0,
0,
0,
0,
0,
0,
0,
0,
0,
0,
0,
0,
0,
0,
0,
0,
0,
0,
0,
0,
0,
0,
0,
0,
0,
0,
0,
0,
0,
0,
0,
0,
0,
0,
0,
0,
0,
0,
0,
0,
0,
0,
0,
0,
0,
0,
0,
0,
0,
0,
0,
0,
0,
0,
0,
0,
0,
0,
0,
0,
0,
0,
0,
0,
0,
0,
0,
0,
0,
0,
0,
0,
0,
0,
0,
0,
0,
0,
0,
0,
0,
0,
0,
0,
0,
0,
0,
0,
0,
0,
0,
0,
0,
0,
0,
0,
0,
0,
0,
0,
0,
0,
0,
0,
0,
0,
0,
0,
0,
0,
0,
0,
0,
0,
0,
0,
0,
0,
0,
0,
0,
0,
0,
0,
0,
0,
0,
0,
0,
0,
0,
0,
0,
0,
0,
0,
0,
0,
0,
0,
0,
0,
0,
0,
0,
0,
0,
0,
0,
0,
0,
0,
0,
0,
0,
0,
0,
0,
0,
0,
0,
0,
0,
0,
0,
0,
0,
0,
0,
0,
0,
0,
0,
0,
0,
0,
0,
0,
0,
0,
0,
0,
0,
0,
0,
0,
0,
0,
0,
0,
0,
0,
0,
0,
0,
0,
0,
0,
0,
0,
0,
0,
0,
0,
0,
0,
0,
0,
0,
0,
0,
0,
0,
0,
0,
0,
0,
0,
0,
0,
0,
0,
0,
0,
0,
0,
0,
0,
0,
0,
0,
0,
0,
0,
0,
0,
0,
0,
0,
0,
0,
0,
0,
0,
0,
0,
0,
0,
0,
0,
0,
0,
0,
0,
0,
0,
0,
0,
0,
0,
0,
0,
0,
0,
0,
0,
0,
0,
0,
0,
0,
0,
0,
0,
0,
0,
0,
0,
0,
0,
0,
0,
0,
0,
0,
0,
0,
0,
0,
0,
0,
0,
0,
0,
0,
0,
0,
0,
0,
0,
0,
0,
0,
0,
0,
0,
0,
0,
0,
0,
0,
0,
0,
0,
0,
0,
0,
0,
0,
0,
0,
0,
0,
0,
0,
0,
0,
0,
0,
0,
0,
0,
0,
0,
0,
0,
0,
0,
0,
0,
0,
0,
0,
0,
0,
0,
0,
0,
0,
0,
0,
0,
0,
0,
0,
0,
0,
0,
0,
0,
0,
0,
0,
0,
0,
#ENDOFDATA   :