File: N132962/Quantification/15 keV/Mengason MM2/MMM2 Pyrope[0][4].msa
#FORMAT      : EMSA/MAS Spectral Data File
#VERSION     : 1.0
#TITLE       : MMM2 Pyrope[0][all]
#DATE        : 28-SEP-2025
#TIME        : 21:48
#OWNER       : Unknown
#NPOINTS     : 4096
#NCOLUMNS    : 1
#XUNITS      : eV
#YUNITS      : counts
#DATATYPE    : Y
#XPERCHAN    : 9.99778
#OFFSET      : 1.69135
#BEAMKV      : 15
#SIGNALTYPE  : EDS
#ELEVANGLE   : 35
#AZIMANGLE   : 0
#LIVETIME    : 240.3
#REALTIME    : 256.754
#PROBECUR    : 1.21223
#TAUWIND     : 0
#TDEADLYR    : 0
#TACTLYR     : 0.045
#TALWIND     : 0.025
#CHOFFSET    : 0.0
#XLABEL      : Energy (eV)
#YLABEL      : Counts
#XPOSITION   : -13.91934
#YPOSITION   : -1.87693
#ZPOSITION   : 34.11879
#EDSDET      : SD
##SPECIMEN   : MMM2 Pyrope[0][all]
##D2STDCMP   : Pyrope,(O:47.6258),(Mg:18.0873),(Al:13.3861),(Si:20.9007),5.0
##DET_HASH   : 12273538-fd48-a23f-0a19-f1e6fa85caef
##CALIB_HASH : 6abaa72c-aa41-8738-0be9-f592914732f3
##WORKING    : 15.0 mm
##DET_NAME   : EDAX All
##DET_MODE   : MediumLE
#SPECTRUM    :
29,
28,
9,
19,
89,
387,
1173,
3918,
11132,
14450,
8122,
4154,
4147,
5266,
9572,
35236,
132188,
248857,
180288,
47725,
8006,
4677,
6170,
10148,
10136,
6063,
3980,
3515,
3619,
3731,
3786,
4001,
4187,
4577,
5016,
5273,
5040,
5417,
6233,
11439,
36170,
86936,
104640,
60062,
19325,
7089,
6248,
13725,
42639,
84564,
86362,
45464,
15646,
6862,
5645,
11833,
42181,
105343,
143787,
101896,
41573,
14780,
7320,
4408,
3102,
2950,
3025,
2977,
2832,
2710,
2573,
2524,
2577,
2739,
2849,
3076,
3007,
2819,
2609,
2453,
2479,
2514,
2535,
2523,
2511,
2398,
2318,
2312,
2319,
2339,
2436,
2368,
2421,
2293,
2296,
2206,
2164,
2229,
2239,
2277,
2286,
2193,
2100,
2106,
2086,
2053,
2097,
2134,
2060,
2045,
1978,
1939,
1956,
1887,
1939,
1938,
1922,
2027,
1973,
2286,
3121,
5746,
9538,
11503,
9715,
6157,
3144,
1977,
1598,
1649,
1696,
1833,
2201,
2629,
2730,
2528,
2039,
1746,
1460,
1422,
1396,
1485,
1376,
1451,
1325,
1350,
1353,
1463,
1552,
1766,
1884,
1823,
1700,
1405,
1275,
1293,
1272,
1215,
1321,
1222,
1160,
1198,
1241,
1288,
1275,
1310,
1176,
1209,
1137,
1130,
1073,
1135,
1084,
1133,
992,
1146,
1075,
1216,
1571,
1887,
2085,
2193,
1794,
1343,
1105,
1026,
983,
930,
950,
902,
906,
913,
899,
951,
1003,
1095,
1210,
1232,
1182,
1124,
982,
896,
859,
807,
793,
812,
831,
890,
959,
1301,
2281,
4110,
5966,
7117,
6681,
4950,
3068,
1738,
1054,
774,
705,
717,
716,
703,
694,
688,
670,
659,
657,
708,
720,
776,
927,
1073,
1313,
1448,
1323,
1145,
866,
724,
651,
562,
624,
575,
555,
545,
544,
522,
547,
538,
558,
540,
529,
548,
512,
521,
487,
507,
455,
470,
493,
518,
487,
459,
480,
452,
468,
484,
439,
429,
491,
442,
440,
411,
404,
457,
440,
404,
392,
428,
399,
400,
372,
395,
427,
345,
355,
372,
366,
344,
396,
378,
376,
341,
362,
344,
339,
381,
332,
344,
324,
335,
315,
311,
304,
321,
305,
332,
328,
293,
326,
290,
296,
304,
307,
280,
290,
292,
265,
301,
301,
251,
286,
263,
247,
254,
254,
257,
256,
253,
265,
248,
256,
262,
254,
239,
211,
234,
231,
225,
230,
218,
174,
222,
213,
216,
193,
206,
221,
200,
218,
210,
201,
196,
189,
185,
200,
173,
193,
167,
169,
187,
187,
146,
176,
166,
137,
155,
146,
166,
173,
149,
151,
176,
141,
153,
127,
146,
153,
169,
166,
156,
127,
128,
142,
141,
146,
120,
122,
119,
109,
121,
118,
133,
111,
115,
105,
97,
114,
105,
101,
109,
100,
93,
102,
97,
95,
83,
106,
99,
93,
73,
72,
97,
101,
71,
64,
68,
74,
64,
64,
61,
61,
69,
62,
53,
56,
73,
63,
51,
65,
59,
63,
63,
56,
71,
53,
49,
55,
45,
43,
41,
47,
57,
45,
32,
41,
31,
42,
33,
40,
33,
31,
42,
43,
26,
32,
28,
42,
30,
36,
27,
30,
28,
29,
18,
23,
21,
22,
24,
17,
22,
15,
19,
21,
18,
15,
15,
15,
9,
15,
13,
4,
12,
15,
9,
8,
5,
8,
8,
7,
7,
3,
3,
2,
5,
5,
2,
3,
1,
0,
0,
1,
0,
1,
1,
0,
1,
0,
1,
0,
1,
0,
0,
0,
1,
0,
0,
0,
1,
0,
0,
1,
0,
1,
0,
0,
0,
0,
1,
0,
0,
0,
0,
0,
0,
0,
0,
0,
0,
0,
0,
0,
0,
0,
0,
1,
0,
0,
0,
1,
1,
1,
0,
0,
1,
0,
0,
0,
1,
0,
0,
0,
0,
0,
0,
0,
0,
0,
0,
0,
0,
0,
0,
0,
1,
1,
0,
0,
1,
0,
0,
0,
0,
0,
0,
0,
0,
0,
0,
0,
0,
0,
1,
0,
0,
0,
0,
0,
0,
0,
0,
0,
0,
0,
0,
1,
0,
1,
1,
0,
0,
0,
0,
0,
0,
0,
0,
0,
0,
0,
0,
0,
0,
0,
0,
0,
1,
0,
0,
0,
1,
0,
0,
0,
0,
0,
0,
0,
0,
0,
0,
0,
0,
0,
0,
0,
0,
0,
0,
0,
0,
0,
0,
0,
0,
0,
0,
0,
0,
0,
0,
0,
0,
0,
0,
0,
0,
0,
0,
0,
0,
0,
0,
0,
0,
0,
0,
0,
0,
0,
0,
0,
0,
0,
0,
0,
0,
0,
0,
0,
0,
0,
0,
0,
1,
0,
0,
0,
0,
0,
0,
0,
0,
0,
0,
0,
0,
0,
0,
0,
0,
0,
0,
0,
0,
0,
0,
0,
0,
0,
0,
0,
0,
0,
0,
0,
0,
0,
0,
0,
0,
0,
0,
0,
0,
0,
0,
0,
0,
0,
0,
0,
0,
0,
0,
0,
0,
0,
0,
0,
0,
0,
0,
0,
0,
0,
0,
0,
0,
0,
0,
0,
0,
0,
0,
0,
0,
0,
0,
0,
0,
0,
0,
0,
0,
0,
0,
0,
0,
0,
0,
0,
0,
0,
0,
0,
0,
0,
0,
0,
0,
0,
0,
0,
0,
0,
0,
0,
0,
0,
0,
0,
0,
0,
0,
0,
0,
0,
0,
0,
0,
0,
0,
0,
0,
0,
0,
0,
0,
0,
0,
0,
0,
0,
0,
0,
0,
0,
0,
0,
0,
0,
0,
0,
0,
0,
0,
0,
0,
0,
0,
0,
0,
0,
0,
0,
0,
0,
0,
0,
0,
0,
0,
0,
0,
0,
0,
0,
0,
0,
0,
0,
0,
0,
0,
0,
0,
0,
0,
0,
0,
0,
0,
0,
0,
0,
0,
0,
0,
0,
0,
0,
0,
0,
0,
0,
0,
0,
0,
0,
0,
0,
0,
0,
0,
0,
0,
0,
0,
0,
0,
0,
0,
0,
0,
0,
0,
0,
0,
0,
0,
0,
0,
0,
0,
0,
0,
0,
0,
0,
0,
0,
0,
0,
0,
0,
0,
0,
0,
0,
0,
0,
0,
0,
0,
0,
0,
0,
0,
0,
0,
0,
0,
0,
0,
0,
0,
0,
0,
0,
0,
0,
0,
0,
0,
0,
0,
0,
0,
0,
0,
0,
0,
0,
0,
0,
0,
0,
0,
0,
0,
0,
0,
0,
0,
0,
0,
0,
0,
0,
0,
0,
0,
0,
0,
0,
0,
0,
0,
0,
0,
0,
0,
0,
0,
0,
0,
0,
0,
0,
0,
0,
0,
0,
0,
0,
0,
0,
0,
0,
0,
0,
0,
0,
0,
0,
0,
0,
0,
0,
0,
0,
0,
0,
0,
0,
0,
0,
0,
0,
0,
0,
0,
0,
0,
0,
0,
0,
0,
0,
0,
0,
0,
0,
0,
0,
0,
0,
0,
0,
0,
0,
0,
0,
0,
0,
0,
0,
0,
0,
0,
0,
0,
0,
0,
0,
0,
0,
0,
0,
0,
0,
0,
0,
0,
0,
0,
0,
0,
0,
0,
0,
0,
0,
0,
0,
0,
0,
0,
0,
0,
0,
0,
0,
0,
0,
0,
0,
0,
0,
0,
0,
0,
0,
0,
0,
0,
0,
0,
0,
0,
0,
0,
0,
0,
0,
0,
0,
0,
0,
0,
0,
0,
0,
0,
0,
0,
0,
0,
0,
0,
0,
0,
0,
0,
0,
0,
0,
0,
0,
0,
0,
0,
0,
0,
0,
0,
0,
0,
0,
0,
0,
0,
0,
0,
0,
0,
0,
0,
0,
0,
0,
0,
0,
0,
0,
0,
0,
0,
0,
0,
0,
0,
0,
0,
0,
0,
0,
0,
0,
0,
0,
0,
0,
0,
0,
0,
0,
0,
0,
0,
0,
0,
0,
0,
0,
0,
0,
0,
0,
0,
0,
0,
0,
0,
0,
0,
0,
0,
0,
0,
0,
0,
0,
0,
0,
0,
0,
0,
0,
0,
0,
0,
0,
0,
0,
0,
0,
0,
0,
0,
0,
0,
0,
0,
0,
0,
0,
0,
0,
0,
0,
0,
0,
0,
0,
0,
0,
0,
0,
0,
0,
0,
0,
0,
0,
0,
0,
0,
0,
0,
0,
0,
0,
0,
0,
0,
0,
0,
0,
0,
0,
0,
0,
0,
0,
0,
0,
0,
0,
0,
0,
0,
0,
0,
0,
0,
0,
0,
0,
0,
0,
0,
0,
0,
0,
0,
0,
0,
0,
0,
0,
0,
0,
0,
0,
0,
0,
0,
0,
0,
0,
0,
0,
0,
0,
0,
0,
0,
0,
0,
0,
0,
0,
0,
0,
0,
0,
0,
0,
0,
0,
0,
0,
0,
0,
0,
0,
0,
0,
0,
0,
0,
0,
0,
0,
0,
0,
0,
0,
0,
0,
0,
0,
0,
0,
0,
0,
0,
0,
0,
0,
0,
0,
0,
#ENDOFDATA   :