File: N132962/Quantification/15 keV/Mengason MM2/MMM2 Wollastonite[0][4].msa
#FORMAT      : EMSA/MAS Spectral Data File
#VERSION     : 1.0
#TITLE       : MMM2 Wollastonite[0][all]
#DATE        : 29-SEP-2025
#TIME        : 00:03
#OWNER       : Unknown
#NPOINTS     : 4096
#NCOLUMNS    : 1
#XUNITS      : eV
#YUNITS      : counts
#DATATYPE    : Y
#XPERCHAN    : 9.99778
#OFFSET      : 1.69135
#BEAMKV      : 15
#SIGNALTYPE  : EDS
#ELEVANGLE   : 35
#AZIMANGLE   : 0
#LIVETIME    : 240.255
#REALTIME    : 254.9563
#PROBECUR    : 1.21151
#TAUWIND     : 0
#TDEADLYR    : 0
#TACTLYR     : 0.045
#TALWIND     : 0.025
#CHOFFSET    : 0.0
#XLABEL      : Energy (eV)
#YLABEL      : Counts
#XPOSITION   : -12.55552
#YPOSITION   : 4.58609
#ZPOSITION   : 34.11879
#EDSDET      : SD
##SPECIMEN   : MMM2 Wollastonite[0][all]
##DET_HASH   : 12273538-fd48-a23f-0a19-f1e6fa85caef
##CALIB_HASH : 6abaa72c-aa41-8738-0be9-f592914732f3
##WORKING    : 15.0 mm
##DET_NAME   : EDAX All
##DET_MODE   : MediumLE
#SPECTRUM    :
20,
33,
14,
24,
91,
381,
1314,
4445,
13821,
21139,
15291,
8117,
4583,
3493,
4986,
15167,
56736,
107866,
78906,
21416,
3996,
2378,
2567,
2820,
2859,
3062,
3203,
3419,
3627,
3741,
3970,
3911,
4293,
4389,
4395,
4553,
4728,
4638,
4683,
4656,
4937,
5099,
5001,
5065,
5184,
5156,
5292,
5404,
5584,
5818,
5783,
5912,
5846,
6051,
7135,
16704,
61491,
154559,
210348,
148465,
60171,
20657,
10120,
6176,
4818,
4606,
4160,
3561,
3235,
3269,
3159,
3236,
3142,
3270,
3355,
3533,
3322,
3174,
3089,
3006,
2990,
2927,
2937,
2903,
2923,
2702,
2801,
2856,
2812,
2747,
2636,
2563,
2752,
2729,
2603,
2640,
2585,
2629,
2513,
2566,
2596,
2503,
2536,
2462,
2459,
2503,
2459,
2412,
2306,
2379,
2266,
2252,
2300,
2200,
2356,
2642,
2758,
3236,
3922,
7089,
18897,
48035,
88957,
112922,
94618,
53518,
20641,
6808,
2972,
2629,
3212,
5243,
9115,
13903,
15211,
12211,
7099,
3539,
2159,
1740,
1723,
1643,
1567,
1467,
1463,
1466,
1399,
1408,
1458,
1402,
1369,
1419,
1369,
1296,
1389,
1348,
1314,
1364,
1340,
1324,
1379,
1219,
1230,
1266,
1265,
1216,
1202,
1170,
1191,
1269,
1183,
1186,
1202,
1135,
1123,
1148,
1094,
1155,
1238,
1295,
1297,
1286,
1301,
1217,
1123,
1100,
1035,
1086,
1044,
1038,
1018,
1040,
1038,
1005,
1022,
998,
1010,
1015,
992,
1012,
980,
946,
956,
888,
930,
905,
918,
850,
848,
873,
910,
884,
907,
927,
848,
878,
848,
814,
828,
886,
808,
777,
780,
771,
800,
767,
751,
764,
755,
714,
745,
698,
735,
687,
735,
687,
700,
687,
660,
656,
684,
637,
688,
699,
651,
651,
676,
689,
692,
626,
609,
604,
571,
600,
542,
606,
596,
607,
612,
590,
541,
545,
551,
557,
595,
544,
537,
508,
494,
542,
501,
502,
547,
522,
499,
532,
477,
466,
572,
476,
476,
477,
440,
466,
460,
454,
469,
436,
464,
447,
451,
430,
416,
432,
402,
417,
433,
448,
392,
377,
383,
386,
374,
381,
404,
346,
377,
379,
383,
364,
353,
364,
343,
318,
346,
347,
335,
336,
338,
340,
304,
331,
335,
332,
298,
311,
329,
285,
280,
292,
303,
283,
290,
266,
292,
286,
289,
293,
256,
246,
278,
262,
275,
276,
247,
243,
246,
240,
252,
229,
226,
222,
244,
220,
224,
228,
237,
214,
240,
199,
209,
202,
220,
175,
189,
196,
201,
158,
186,
164,
185,
192,
156,
185,
184,
162,
168,
159,
174,
172,
174,
127,
148,
152,
148,
152,
147,
141,
118,
146,
136,
147,
126,
142,
144,
132,
133,
122,
144,
136,
131,
114,
126,
100,
121,
121,
115,
117,
104,
101,
111,
125,
86,
92,
106,
99,
85,
95,
100,
99,
84,
116,
79,
81,
69,
82,
89,
74,
78,
85,
72,
68,
65,
61,
65,
63,
67,
65,
65,
68,
59,
49,
46,
56,
55,
56,
48,
58,
54,
41,
39,
50,
46,
31,
42,
41,
41,
43,
35,
42,
39,
39,
32,
37,
29,
31,
35,
29,
22,
26,
23,
21,
24,
24,
29,
15,
16,
19,
20,
19,
15,
17,
13,
12,
14,
15,
10,
10,
10,
6,
5,
6,
9,
5,
3,
6,
1,
5,
2,
1,
1,
0,
1,
0,
1,
0,
0,
0,
1,
2,
0,
1,
0,
2,
0,
0,
0,
0,
0,
0,
0,
1,
1,
1,
0,
0,
0,
0,
0,
0,
0,
0,
0,
0,
0,
0,
0,
0,
0,
1,
0,
0,
0,
0,
0,
0,
0,
1,
0,
0,
0,
1,
0,
0,
0,
0,
0,
0,
1,
0,
0,
0,
0,
0,
0,
0,
0,
0,
0,
1,
0,
0,
0,
1,
0,
0,
1,
0,
1,
1,
0,
0,
0,
0,
0,
0,
1,
0,
0,
0,
0,
0,
0,
0,
1,
0,
0,
0,
0,
0,
0,
0,
1,
0,
0,
0,
0,
0,
0,
0,
0,
0,
0,
0,
2,
0,
0,
0,
0,
0,
0,
0,
0,
0,
0,
0,
0,
0,
0,
0,
0,
0,
0,
0,
0,
0,
0,
0,
0,
0,
0,
0,
0,
0,
0,
0,
1,
0,
0,
0,
0,
0,
0,
0,
0,
0,
0,
0,
0,
0,
0,
0,
0,
0,
0,
0,
0,
0,
0,
0,
0,
0,
0,
0,
0,
0,
0,
0,
0,
0,
0,
0,
0,
0,
0,
0,
0,
0,
0,
0,
0,
0,
0,
0,
0,
0,
0,
0,
0,
0,
0,
0,
0,
0,
0,
0,
0,
0,
0,
0,
0,
0,
0,
0,
0,
0,
0,
0,
0,
0,
0,
0,
0,
0,
0,
0,
0,
0,
0,
0,
0,
0,
0,
0,
0,
0,
0,
0,
0,
0,
0,
0,
0,
0,
0,
0,
0,
0,
0,
0,
0,
0,
0,
0,
0,
0,
0,
0,
0,
0,
0,
0,
0,
0,
0,
0,
0,
0,
0,
0,
0,
0,
0,
0,
0,
0,
0,
0,
0,
0,
0,
0,
0,
0,
0,
0,
0,
0,
0,
0,
0,
0,
0,
0,
0,
0,
0,
0,
0,
0,
0,
0,
0,
0,
0,
0,
0,
0,
0,
0,
0,
0,
0,
0,
0,
0,
0,
0,
0,
0,
0,
0,
0,
0,
0,
0,
0,
0,
0,
0,
0,
0,
0,
0,
0,
0,
0,
0,
0,
0,
0,
0,
0,
0,
0,
0,
0,
0,
0,
0,
0,
0,
0,
0,
0,
0,
0,
0,
0,
0,
0,
0,
0,
0,
0,
0,
0,
0,
0,
0,
0,
0,
0,
0,
0,
0,
0,
0,
0,
0,
0,
0,
0,
0,
0,
0,
0,
0,
0,
0,
0,
0,
0,
0,
0,
0,
0,
0,
0,
0,
0,
0,
0,
0,
0,
0,
0,
0,
0,
0,
0,
0,
0,
0,
0,
0,
0,
0,
0,
0,
0,
0,
0,
0,
0,
0,
0,
0,
0,
0,
0,
0,
0,
0,
0,
0,
0,
0,
0,
0,
0,
0,
0,
0,
0,
0,
0,
0,
0,
0,
0,
0,
0,
0,
0,
0,
0,
0,
0,
0,
0,
0,
0,
0,
0,
0,
0,
0,
0,
0,
0,
0,
0,
0,
0,
0,
0,
0,
0,
0,
0,
0,
0,
0,
0,
0,
0,
0,
0,
0,
0,
0,
0,
0,
0,
0,
0,
0,
0,
0,
0,
0,
0,
0,
0,
0,
0,
0,
0,
0,
0,
0,
0,
0,
0,
0,
0,
0,
0,
0,
0,
0,
0,
0,
0,
0,
0,
0,
0,
0,
0,
0,
0,
0,
0,
0,
0,
0,
0,
0,
0,
0,
0,
0,
0,
0,
0,
0,
0,
0,
0,
0,
0,
0,
0,
0,
0,
0,
0,
0,
0,
0,
0,
0,
0,
0,
0,
0,
0,
0,
0,
0,
0,
0,
0,
0,
0,
0,
0,
0,
0,
0,
0,
0,
0,
0,
0,
0,
0,
0,
0,
0,
0,
0,
0,
0,
0,
0,
0,
0,
0,
0,
0,
0,
0,
0,
0,
0,
0,
0,
0,
0,
0,
0,
0,
0,
0,
0,
0,
0,
0,
0,
0,
0,
0,
0,
0,
0,
0,
0,
0,
0,
0,
0,
0,
0,
0,
0,
0,
0,
0,
0,
0,
0,
0,
0,
0,
0,
0,
0,
0,
0,
0,
0,
0,
0,
0,
0,
0,
0,
0,
0,
0,
0,
0,
0,
0,
0,
0,
0,
0,
0,
0,
0,
0,
0,
0,
0,
0,
0,
0,
0,
0,
0,
0,
0,
0,
0,
0,
0,
0,
0,
0,
0,
0,
0,
0,
0,
0,
0,
0,
0,
0,
0,
0,
0,
0,
0,
0,
0,
0,
0,
0,
0,
0,
0,
0,
0,
0,
0,
0,
0,
0,
0,
0,
0,
0,
0,
0,
0,
0,
0,
0,
0,
0,
0,
0,
0,
0,
0,
0,
0,
0,
0,
0,
0,
0,
0,
0,
0,
0,
0,
0,
0,
0,
0,
0,
0,
0,
0,
0,
0,
0,
0,
0,
0,
0,
0,
0,
0,
0,
0,
0,
0,
0,
0,
0,
0,
0,
0,
0,
0,
0,
0,
0,
0,
0,
0,
0,
0,
0,
0,
0,
0,
0,
0,
0,
0,
0,
0,
0,
0,
0,
0,
0,
0,
0,
0,
0,
0,
0,
0,
0,
0,
0,
0,
0,
0,
0,
0,
0,
0,
0,
0,
0,
0,
0,
0,
0,
0,
0,
0,
0,
0,
0,
0,
0,
0,
0,
0,
0,
0,
0,
0,
0,
0,
0,
0,
0,
0,
0,
0,
0,
0,
0,
0,
0,
0,
0,
0,
0,
0,
0,
0,
0,
0,
#ENDOFDATA   :