File: N132962/Quantification/15 keV/Mengason MM2/MMM2 Pollucite[1][4].msa
#FORMAT      : EMSA/MAS Spectral Data File
#VERSION     : 1.0
#TITLE       : MMM2 Pollucite[1][all]
#DATE        : 29-SEP-2025
#TIME        : 00:35
#OWNER       : Unknown
#NPOINTS     : 4096
#NCOLUMNS    : 1
#XUNITS      : eV
#YUNITS      : counts
#DATATYPE    : Y
#XPERCHAN    : 9.99778
#OFFSET      : 1.69135
#BEAMKV      : 15
#SIGNALTYPE  : EDS
#ELEVANGLE   : 35
#AZIMANGLE   : 0
#LIVETIME    : 240.313
#REALTIME    : 257.57
#PROBECUR    : 1.21186
#TAUWIND     : 0
#TDEADLYR    : 0
#TACTLYR     : 0.045
#TALWIND     : 0.025
#CHOFFSET    : 0.0
#XLABEL      : Energy (eV)
#YLABEL      : Counts
#XPOSITION   : -20.60003
#YPOSITION   : 3.82909
#ZPOSITION   : 34.11879
#EDSDET      : SD
##SPECIMEN   : MMM2 Pollucite[1][all]
##DET_HASH   : 12273538-fd48-a23f-0a19-f1e6fa85caef
##CALIB_HASH : 6abaa72c-aa41-8738-0be9-f592914732f3
##WORKING    : 15.0 mm
##DET_NAME   : EDAX All
##DET_MODE   : MediumLE
#SPECTRUM    :
19,
26,
12,
21,
124,
512,
1672,
5083,
13756,
17422,
9805,
5442,
5732,
7009,
11548,
36399,
130896,
246657,
180942,
52251,
9458,
4630,
4989,
6160,
6884,
6106,
5070,
4505,
4673,
5122,
5844,
6607,
6667,
8586,
12096,
12307,
8386,
5549,
4850,
5017,
5164,
5219,
5495,
5453,
5634,
5881,
6794,
12227,
32135,
61398,
61881,
34223,
13931,
7718,
7255,
14268,
47001,
116265,
157031,
111421,
46461,
17399,
9096,
5702,
4452,
4143,
4384,
4659,
4454,
4190,
3997,
3749,
3836,
4000,
4109,
4251,
4183,
3975,
3834,
3740,
3780,
3642,
3678,
3770,
3935,
3907,
3797,
3665,
3500,
3671,
3635,
3482,
3476,
3497,
3542,
3431,
3498,
3494,
3374,
3357,
3256,
3279,
3229,
3137,
3133,
3284,
3181,
3314,
3296,
3345,
3282,
3104,
3036,
3054,
3005,
2996,
3132,
3025,
2916,
2892,
2787,
2901,
2836,
2869,
3078,
3406,
3811,
3727,
3647,
3167,
2798,
2614,
2608,
2587,
2602,
2622,
2807,
3093,
3540,
4997,
9615,
19141,
29629,
33893,
27336,
16051,
7730,
3864,
2698,
2617,
3183,
5008,
8880,
13490,
16489,
15496,
11745,
8245,
6002,
4345,
3327,
3102,
3837,
5249,
6582,
6860,
5452,
3849,
2696,
2145,
1918,
1888,
2077,
2269,
2804,
3343,
3738,
3447,
2770,
2130,
1952,
1814,
1909,
2084,
2379,
2349,
2199,
2067,
1747,
1662,
1768,
1682,
1522,
1514,
1537,
1392,
1454,
1402,
1434,
1542,
1522,
1450,
1424,
1439,
1380,
1336,
1344,
1354,
1392,
1284,
1323,
1410,
1390,
1342,
1357,
1341,
1264,
1257,
1267,
1228,
1187,
1214,
1154,
1239,
1237,
1174,
1184,
1176,
1165,
1158,
1150,
1150,
1154,
1134,
1033,
1156,
1112,
1043,
1067,
1036,
1073,
1061,
1062,
992,
1032,
1025,
1050,
1018,
1044,
989,
995,
989,
964,
982,
922,
907,
974,
960,
928,
960,
963,
877,
898,
919,
839,
931,
862,
857,
871,
812,
798,
766,
821,
800,
780,
840,
824,
849,
836,
763,
774,
779,
745,
758,
743,
764,
783,
722,
739,
753,
737,
709,
689,
679,
690,
658,
703,
664,
633,
702,
615,
714,
686,
642,
618,
612,
653,
589,
574,
642,
592,
570,
602,
592,
537,
597,
581,
569,
571,
546,
583,
529,
534,
523,
558,
538,
504,
501,
529,
516,
491,
536,
518,
479,
493,
497,
483,
479,
469,
460,
452,
429,
442,
437,
426,
422,
463,
406,
425,
417,
417,
373,
399,
406,
400,
387,
361,
404,
378,
376,
391,
373,
367,
325,
356,
387,
342,
356,
335,
342,
347,
321,
318,
291,
310,
326,
302,
320,
299,
300,
296,
331,
277,
302,
269,
266,
284,
246,
294,
264,
265,
276,
230,
261,
242,
252,
248,
234,
207,
239,
214,
231,
198,
213,
202,
189,
235,
207,
207,
205,
188,
188,
193,
210,
227,
176,
166,
153,
168,
175,
177,
174,
159,
130,
142,
150,
107,
150,
136,
141,
124,
176,
140,
120,
133,
113,
131,
130,
122,
125,
98,
106,
99,
106,
81,
96,
106,
89,
91,
82,
88,
101,
74,
84,
74,
72,
79,
65,
66,
67,
75,
62,
72,
60,
55,
55,
54,
44,
60,
39,
55,
37,
41,
38,
43,
29,
40,
44,
35,
27,
33,
27,
27,
28,
26,
18,
22,
12,
17,
19,
18,
21,
8,
8,
8,
4,
6,
2,
4,
4,
2,
3,
0,
0,
1,
1,
0,
0,
0,
0,
0,
1,
0,
0,
1,
0,
1,
2,
2,
0,
1,
0,
0,
0,
1,
2,
0,
0,
1,
0,
1,
3,
0,
1,
0,
0,
0,
1,
0,
0,
0,
0,
1,
0,
0,
0,
1,
1,
1,
1,
0,
0,
2,
0,
0,
1,
0,
1,
0,
0,
0,
0,
0,
0,
0,
0,
0,
0,
0,
0,
0,
0,
1,
0,
1,
0,
1,
0,
0,
0,
0,
0,
0,
0,
0,
0,
0,
0,
0,
0,
1,
0,
0,
0,
0,
0,
0,
0,
0,
2,
0,
2,
0,
0,
1,
0,
0,
0,
0,
0,
1,
0,
0,
0,
0,
0,
0,
0,
1,
0,
0,
0,
0,
0,
0,
1,
0,
0,
1,
0,
0,
0,
0,
0,
0,
1,
0,
0,
0,
0,
0,
0,
0,
0,
0,
0,
1,
0,
0,
0,
0,
1,
0,
0,
0,
0,
0,
1,
0,
0,
0,
0,
1,
0,
0,
0,
0,
0,
0,
0,
0,
0,
0,
0,
0,
0,
0,
0,
0,
0,
0,
0,
0,
0,
0,
0,
0,
0,
0,
0,
0,
0,
1,
0,
0,
0,
0,
0,
0,
0,
0,
0,
0,
0,
0,
0,
0,
0,
0,
0,
0,
0,
0,
0,
0,
0,
0,
0,
0,
0,
0,
0,
0,
0,
0,
0,
0,
0,
1,
0,
0,
0,
0,
0,
0,
0,
0,
0,
0,
1,
0,
0,
0,
0,
0,
0,
0,
0,
0,
0,
0,
0,
0,
0,
0,
0,
0,
0,
0,
0,
0,
0,
0,
0,
0,
0,
0,
0,
0,
0,
0,
0,
0,
0,
0,
0,
0,
0,
0,
0,
0,
0,
0,
0,
0,
0,
0,
0,
0,
0,
0,
0,
0,
0,
0,
0,
0,
0,
0,
0,
0,
0,
0,
0,
0,
0,
0,
0,
1,
0,
0,
0,
0,
0,
1,
0,
0,
0,
0,
0,
0,
0,
0,
0,
0,
0,
0,
0,
0,
0,
0,
0,
0,
0,
0,
0,
0,
0,
0,
0,
0,
0,
0,
0,
0,
0,
0,
0,
0,
0,
0,
0,
0,
0,
0,
0,
0,
0,
0,
0,
0,
0,
0,
0,
0,
0,
0,
0,
0,
0,
0,
0,
0,
0,
0,
0,
0,
0,
0,
0,
0,
0,
0,
0,
0,
0,
0,
0,
0,
0,
0,
0,
0,
0,
0,
0,
0,
0,
0,
0,
0,
0,
0,
0,
0,
0,
0,
0,
0,
0,
0,
0,
0,
0,
0,
0,
0,
0,
0,
0,
0,
0,
0,
0,
0,
0,
0,
0,
0,
0,
0,
0,
0,
0,
0,
0,
0,
0,
0,
0,
0,
0,
0,
0,
0,
0,
0,
0,
0,
0,
0,
0,
0,
0,
0,
0,
0,
0,
0,
0,
0,
0,
0,
0,
0,
0,
0,
0,
0,
0,
0,
0,
0,
0,
0,
0,
0,
0,
0,
0,
0,
0,
0,
0,
0,
0,
0,
0,
0,
0,
0,
0,
0,
0,
0,
0,
0,
0,
0,
0,
0,
0,
0,
0,
0,
0,
0,
0,
0,
0,
0,
0,
0,
0,
0,
0,
0,
0,
0,
0,
0,
0,
0,
0,
0,
0,
0,
0,
0,
0,
0,
0,
0,
0,
0,
0,
0,
0,
0,
0,
0,
0,
0,
0,
0,
0,
0,
0,
0,
0,
0,
0,
0,
0,
0,
0,
0,
0,
0,
0,
0,
0,
0,
0,
0,
0,
0,
0,
0,
0,
0,
0,
0,
0,
0,
0,
0,
0,
0,
0,
0,
0,
0,
0,
0,
0,
0,
0,
0,
0,
0,
0,
0,
0,
0,
0,
0,
0,
0,
0,
0,
0,
0,
0,
0,
0,
0,
0,
0,
0,
0,
0,
0,
0,
0,
0,
0,
0,
0,
0,
0,
0,
0,
0,
0,
0,
0,
0,
0,
0,
0,
0,
0,
0,
0,
0,
0,
0,
0,
0,
0,
0,
0,
0,
0,
0,
0,
0,
0,
0,
0,
0,
0,
0,
0,
0,
0,
0,
0,
0,
0,
0,
0,
0,
0,
0,
0,
0,
0,
0,
0,
0,
0,
0,
0,
0,
0,
0,
0,
0,
0,
0,
0,
0,
0,
0,
0,
0,
0,
0,
0,
0,
0,
0,
0,
0,
0,
0,
0,
0,
0,
0,
0,
0,
0,
0,
0,
0,
0,
0,
0,
0,
0,
0,
0,
0,
0,
0,
0,
0,
0,
0,
0,
0,
0,
0,
0,
0,
0,
0,
0,
0,
0,
0,
0,
0,
0,
0,
0,
0,
0,
0,
0,
0,
0,
0,
0,
0,
0,
0,
0,
0,
0,
0,
0,
0,
0,
0,
0,
0,
0,
0,
0,
0,
0,
0,
0,
0,
0,
0,
0,
0,
0,
0,
0,
0,
0,
0,
0,
0,
0,
0,
0,
0,
0,
0,
0,
0,
0,
0,
0,
0,
0,
0,
0,
0,
0,
0,
0,
0,
0,
0,
0,
0,
0,
0,
0,
0,
0,
0,
0,
0,
0,
0,
0,
0,
0,
0,
0,
0,
0,
0,
0,
0,
0,
0,
0,
0,
0,
0,
0,
0,
0,
0,
0,
0,
0,
0,
0,
0,
0,
0,
0,
0,
0,
0,
0,
0,
0,
0,
0,
0,
0,
0,
0,
0,
0,
0,
0,
0,
0,
0,
0,
0,
0,
0,
#ENDOFDATA   :