File: N132962/Quantification/15 keV/Mengason MM2/MMM2 Pyrite[5][4].msa
#FORMAT      : EMSA/MAS Spectral Data File
#VERSION     : 1.0
#TITLE       : MMM2 Pyrite[5][all]
#DATE        : 28-SEP-2025
#TIME        : 20:52
#OWNER       : Unknown
#NPOINTS     : 4096
#NCOLUMNS    : 1
#XUNITS      : eV
#YUNITS      : counts
#DATATYPE    : Y
#XPERCHAN    : 9.99778
#OFFSET      : 1.69135
#BEAMKV      : 15
#SIGNALTYPE  : EDS
#ELEVANGLE   : 35
#AZIMANGLE   : 0
#LIVETIME    : 240.173
#REALTIME    : 258.992
#PROBECUR    : 1.21333
#TAUWIND     : 0
#TDEADLYR    : 0
#TACTLYR     : 0.045
#TALWIND     : 0.025
#CHOFFSET    : 0.0
#XLABEL      : Energy (eV)
#YLABEL      : Counts
#XPOSITION   : -11.66239
#YPOSITION   : -4.39349
#ZPOSITION   : 34.11879
#EDSDET      : SD
##SPECIMEN   : MMM2 Pyrite[5][all]
##D2STDCMP   : Pyrite,(S:53.4528),(Fe:46.5472)
##DET_HASH   : 12273538-fd48-a23f-0a19-f1e6fa85caef
##CALIB_HASH : 6abaa72c-aa41-8738-0be9-f592914732f3
##WORKING    : 15.0 mm
##DET_NAME   : EDAX All
##DET_MODE   : MediumLE
#SPECTRUM    :
29,
27,
22,
98,
554,
1212,
1729,
4357,
12822,
16626,
7973,
3302,
2893,
3172,
3675,
4708,
6027,
8892,
14047,
21264,
26779,
28642,
48035,
82960,
69180,
25752,
8371,
5298,
4670,
4628,
4466,
4682,
4707,
4862,
5123,
5233,
5448,
5462,
5602,
5739,
5928,
5957,
6088,
6100,
6126,
6336,
6408,
6378,
6634,
6502,
6872,
6577,
6379,
6355,
6396,
6419,
6613,
7034,
7289,
7392,
6831,
6475,
6127,
5888,
5978,
5745,
6058,
6064,
6024,
6166,
6294,
7627,
10964,
19135,
46414,
127341,
260873,
324654,
236704,
101839,
34455,
23812,
26426,
21867,
12916,
6433,
3919,
3468,
3212,
3300,
3226,
3219,
3184,
3294,
3183,
3329,
3319,
3365,
3309,
3370,
3468,
3433,
3365,
3120,
3126,
3080,
3049,
2976,
2980,
2912,
2929,
2955,
2912,
2864,
2817,
2909,
2930,
2824,
2821,
2816,
2715,
2752,
2776,
2733,
2734,
2684,
2614,
2609,
2678,
2577,
2556,
2479,
2585,
2506,
2523,
2449,
2435,
2470,
2438,
2421,
2380,
2387,
2387,
2386,
2304,
2262,
2266,
2294,
2363,
2214,
2320,
2372,
2604,
2769,
2899,
2811,
2564,
2348,
2163,
2107,
2227,
2053,
2099,
2044,
2056,
1954,
1944,
1923,
1908,
1901,
1844,
1899,
1928,
1864,
1777,
1827,
1792,
1778,
1779,
1832,
1787,
1805,
1694,
1686,
1723,
1772,
1623,
1661,
1630,
1648,
1578,
1621,
1672,
1560,
1510,
1578,
1522,
1523,
1524,
1523,
1508,
1529,
1528,
1551,
1545,
1593,
1628,
1938,
2833,
5881,
13012,
25377,
39710,
48116,
45156,
32715,
18509,
8298,
3714,
1886,
1434,
1345,
1347,
1305,
1268,
1289,
1369,
1281,
1279,
1403,
1643,
2177,
3215,
4905,
6416,
7279,
6558,
4849,
3217,
2083,
1308,
1105,
1029,
976,
964,
1024,
1026,
963,
964,
1032,
958,
959,
974,
952,
939,
860,
918,
862,
888,
917,
946,
839,
882,
845,
830,
826,
880,
842,
797,
820,
855,
828,
817,
827,
792,
793,
806,
797,
779,
746,
752,
766,
716,
776,
722,
756,
748,
758,
818,
780,
797,
828,
755,
737,
707,
722,
701,
707,
693,
641,
664,
607,
628,
601,
678,
598,
625,
641,
576,
605,
565,
606,
582,
575,
546,
593,
567,
628,
537,
531,
551,
518,
566,
534,
477,
477,
502,
548,
520,
469,
515,
450,
509,
463,
428,
460,
476,
469,
455,
478,
437,
435,
406,
452,
427,
415,
406,
429,
373,
384,
447,
398,
391,
376,
395,
370,
383,
350,
376,
396,
328,
345,
357,
350,
341,
322,
352,
307,
318,
319,
319,
286,
292,
311,
308,
311,
300,
281,
270,
262,
293,
301,
286,
256,
269,
281,
247,
250,
242,
275,
260,
223,
250,
244,
242,
242,
235,
256,
209,
240,
202,
198,
193,
204,
225,
203,
221,
193,
197,
198,
204,
194,
166,
175,
172,
162,
169,
159,
166,
159,
160,
142,
134,
176,
124,
157,
163,
129,
158,
136,
126,
121,
115,
139,
117,
134,
103,
85,
96,
113,
101,
99,
117,
95,
98,
97,
85,
92,
84,
81,
71,
91,
80,
81,
69,
84,
60,
68,
80,
62,
54,
82,
57,
65,
61,
54,
53,
39,
48,
43,
49,
43,
34,
36,
40,
38,
40,
36,
29,
30,
26,
29,
25,
35,
22,
18,
14,
10,
19,
9,
19,
18,
12,
11,
9,
9,
6,
10,
1,
6,
4,
2,
2,
3,
1,
2,
4,
2,
2,
0,
1,
2,
3,
0,
3,
0,
2,
1,
0,
4,
0,
1,
1,
0,
3,
0,
2,
1,
1,
3,
3,
2,
1,
0,
1,
1,
2,
2,
1,
0,
1,
0,
0,
0,
2,
0,
2,
0,
1,
1,
1,
1,
0,
0,
0,
1,
0,
1,
0,
1,
1,
0,
0,
1,
2,
1,
1,
0,
0,
1,
0,
0,
1,
1,
2,
0,
0,
1,
1,
1,
0,
1,
0,
1,
1,
0,
0,
0,
0,
0,
0,
0,
0,
0,
0,
0,
0,
0,
0,
0,
1,
0,
1,
0,
1,
1,
1,
0,
0,
0,
1,
1,
0,
1,
0,
0,
0,
0,
0,
0,
0,
0,
1,
0,
0,
0,
0,
0,
1,
0,
0,
1,
0,
0,
0,
0,
2,
0,
0,
0,
0,
1,
0,
0,
0,
0,
0,
0,
1,
1,
0,
0,
1,
1,
0,
0,
0,
0,
1,
0,
0,
0,
0,
0,
0,
0,
1,
0,
0,
0,
0,
0,
0,
0,
1,
0,
0,
1,
0,
0,
0,
0,
0,
0,
0,
0,
0,
0,
0,
0,
0,
0,
0,
1,
0,
0,
0,
0,
0,
0,
0,
0,
0,
0,
0,
0,
0,
0,
0,
0,
0,
0,
0,
0,
0,
0,
0,
0,
0,
0,
0,
0,
0,
0,
0,
0,
0,
0,
0,
0,
0,
0,
0,
0,
0,
0,
0,
0,
0,
0,
0,
0,
0,
0,
0,
0,
0,
0,
0,
0,
0,
0,
0,
0,
0,
0,
0,
0,
0,
0,
0,
0,
0,
0,
0,
0,
0,
0,
0,
0,
0,
0,
0,
1,
0,
0,
0,
0,
0,
0,
0,
0,
0,
0,
0,
0,
0,
0,
0,
0,
0,
0,
0,
0,
0,
0,
0,
0,
0,
0,
0,
0,
0,
0,
0,
0,
0,
0,
0,
0,
0,
0,
0,
0,
0,
0,
0,
0,
0,
0,
0,
0,
1,
0,
0,
0,
0,
0,
0,
0,
0,
0,
0,
0,
0,
0,
0,
0,
0,
0,
0,
0,
0,
0,
0,
0,
0,
0,
0,
0,
0,
0,
0,
0,
0,
0,
0,
0,
0,
0,
0,
0,
0,
0,
0,
0,
0,
0,
0,
0,
0,
0,
0,
0,
0,
0,
0,
0,
0,
0,
0,
0,
0,
0,
0,
0,
0,
0,
0,
0,
0,
0,
0,
0,
1,
0,
0,
0,
0,
0,
0,
0,
0,
0,
0,
0,
0,
0,
0,
0,
0,
0,
0,
0,
0,
0,
0,
0,
0,
0,
0,
0,
0,
0,
0,
0,
0,
0,
0,
0,
0,
0,
0,
0,
0,
0,
0,
0,
0,
0,
0,
0,
0,
0,
0,
0,
0,
0,
0,
0,
0,
0,
0,
0,
0,
0,
0,
0,
0,
0,
0,
0,
0,
0,
0,
0,
0,
0,
0,
0,
0,
0,
0,
0,
0,
0,
0,
0,
0,
0,
0,
0,
0,
0,
0,
0,
0,
0,
0,
0,
0,
0,
0,
0,
0,
0,
0,
0,
0,
0,
0,
0,
0,
0,
0,
0,
0,
0,
0,
0,
0,
0,
0,
0,
0,
0,
0,
0,
0,
0,
0,
0,
0,
0,
0,
0,
0,
0,
0,
0,
0,
0,
0,
0,
0,
0,
0,
0,
0,
0,
0,
0,
0,
0,
0,
0,
0,
0,
0,
0,
0,
0,
0,
0,
0,
0,
0,
0,
0,
0,
0,
0,
0,
0,
0,
0,
0,
0,
0,
0,
0,
0,
0,
0,
0,
0,
0,
0,
0,
0,
0,
0,
0,
0,
0,
0,
0,
0,
0,
0,
0,
0,
0,
0,
0,
0,
0,
0,
0,
0,
0,
0,
0,
0,
0,
0,
0,
0,
0,
0,
0,
0,
0,
0,
0,
0,
0,
0,
0,
0,
0,
0,
0,
0,
0,
0,
0,
0,
0,
0,
0,
0,
0,
0,
0,
0,
0,
0,
0,
0,
0,
0,
0,
0,
0,
0,
0,
0,
0,
0,
0,
0,
0,
0,
0,
0,
0,
0,
0,
0,
0,
0,
0,
0,
0,
0,
0,
0,
0,
0,
0,
0,
0,
0,
0,
0,
0,
0,
0,
0,
0,
0,
0,
0,
0,
0,
0,
0,
0,
0,
0,
0,
0,
0,
0,
0,
0,
0,
0,
0,
0,
0,
0,
0,
0,
0,
0,
0,
0,
0,
0,
0,
0,
0,
0,
0,
0,
0,
0,
0,
0,
0,
0,
0,
0,
0,
0,
0,
0,
0,
0,
0,
0,
0,
0,
0,
0,
0,
0,
0,
0,
0,
0,
0,
0,
0,
0,
0,
0,
0,
0,
0,
0,
0,
0,
0,
0,
0,
0,
0,
0,
0,
0,
0,
0,
0,
0,
0,
0,
0,
0,
0,
0,
0,
0,
0,
0,
0,
0,
0,
0,
0,
0,
0,
0,
0,
0,
0,
0,
0,
0,
0,
0,
0,
0,
0,
0,
0,
0,
0,
0,
0,
0,
0,
0,
0,
0,
0,
0,
0,
0,
0,
0,
0,
0,
0,
0,
0,
0,
0,
0,
0,
0,
0,
0,
0,
0,
0,
0,
0,
0,
0,
0,
0,
0,
0,
0,
0,
0,
0,
0,
0,
0,
0,
0,
0,
0,
0,
0,
0,
0,
0,
0,
0,
0,
0,
0,
0,
0,
0,
0,
0,
0,
0,
0,
0,
#ENDOFDATA   :