File: N132962/Quantification/15 keV/Mengason MM2/MMM2 Olivine[1][4].msa
#FORMAT      : EMSA/MAS Spectral Data File
#VERSION     : 1.0
#TITLE       : MMM2 Olivine[1][all]
#DATE        : 28-SEP-2025
#TIME        : 23:02
#OWNER       : Unknown
#NPOINTS     : 4096
#NCOLUMNS    : 1
#XUNITS      : eV
#YUNITS      : counts
#DATATYPE    : Y
#XPERCHAN    : 9.99778
#OFFSET      : 1.69135
#BEAMKV      : 15
#SIGNALTYPE  : EDS
#ELEVANGLE   : 35
#AZIMANGLE   : 0
#LIVETIME    : 239.67
#REALTIME    : 257.453
#PROBECUR    : 1.2132
#TAUWIND     : 0
#TDEADLYR    : 0
#TACTLYR     : 0.045
#TALWIND     : 0.025
#CHOFFSET    : 0.0
#XLABEL      : Energy (eV)
#YLABEL      : Counts
#XPOSITION   : -21.30368
#YPOSITION   : 2.58344
#ZPOSITION   : 34.11879
#EDSDET      : SD
##SPECIMEN   : MMM2 Olivine[1][all]
##DET_HASH   : 12273538-fd48-a23f-0a19-f1e6fa85caef
##CALIB_HASH : 6abaa72c-aa41-8738-0be9-f592914732f3
##WORKING    : 15.0 mm
##DET_NAME   : EDAX All
##DET_MODE   : MediumLE
#SPECTRUM    :
18,
17,
10,
16,
91,
368,
1130,
3705,
10376,
13242,
7160,
3945,
4248,
5637,
10507,
38639,
147001,
280123,
203883,
53709,
8341,
4499,
6159,
9877,
10241,
6076,
4256,
4073,
4509,
4650,
4255,
4218,
4549,
5010,
5562,
5703,
6062,
6687,
8759,
21995,
85760,
215709,
259821,
145000,
40437,
8753,
3998,
3598,
3566,
3667,
3904,
3995,
3891,
4166,
4797,
11251,
40720,
102546,
139758,
98823,
40271,
14585,
7121,
4176,
2903,
2570,
2475,
2562,
2490,
2513,
2471,
2444,
2491,
2638,
2841,
2936,
3001,
2682,
2489,
2487,
2517,
2409,
2650,
2741,
2785,
2574,
2397,
2240,
2288,
2188,
2210,
2199,
2072,
2172,
2136,
2102,
2148,
2095,
2317,
2522,
2458,
2424,
2175,
2046,
2024,
1995,
1938,
1943,
1864,
1811,
1873,
1828,
1780,
1801,
1765,
1811,
1834,
1830,
1727,
1694,
1758,
1704,
1687,
1658,
1671,
1626,
1528,
1582,
1627,
1429,
1480,
1550,
1537,
1446,
1458,
1461,
1348,
1425,
1427,
1372,
1382,
1451,
1409,
1381,
1320,
1324,
1281,
1288,
1313,
1296,
1275,
1252,
1232,
1196,
1264,
1249,
1284,
1175,
1204,
1176,
1173,
1219,
1136,
1091,
1070,
1166,
1083,
1113,
1048,
1112,
1062,
1043,
1101,
1069,
1009,
1007,
1040,
966,
990,
972,
1017,
998,
947,
1004,
906,
921,
879,
954,
903,
904,
834,
835,
895,
882,
902,
952,
941,
893,
935,
868,
837,
821,
783,
786,
741,
798,
826,
860,
944,
1320,
2143,
3706,
5490,
6358,
6047,
4560,
2774,
1602,
966,
758,
693,
705,
678,
659,
638,
603,
687,
605,
643,
637,
707,
750,
887,
1031,
1224,
1319,
1244,
1097,
785,
717,
571,
528,
535,
515,
550,
613,
611,
648,
690,
716,
661,
608,
554,
563,
534,
546,
516,
492,
507,
489,
470,
482,
468,
459,
486,
446,
419,
437,
440,
446,
453,
416,
454,
433,
412,
446,
397,
398,
393,
384,
372,
397,
412,
374,
362,
384,
371,
320,
352,
411,
366,
355,
315,
360,
341,
354,
341,
345,
314,
330,
335,
283,
306,
320,
311,
299,
309,
301,
327,
312,
280,
324,
291,
277,
294,
261,
284,
285,
259,
243,
266,
257,
267,
251,
287,
244,
255,
245,
245,
253,
230,
229,
233,
230,
226,
237,
240,
221,
204,
206,
207,
202,
188,
218,
226,
189,
193,
191,
202,
195,
206,
179,
188,
169,
191,
180,
164,
174,
175,
176,
170,
171,
169,
136,
144,
162,
155,
157,
166,
147,
170,
132,
150,
143,
139,
141,
146,
132,
114,
133,
136,
133,
130,
124,
121,
112,
118,
123,
118,
99,
130,
109,
106,
118,
93,
115,
118,
100,
101,
82,
87,
89,
104,
81,
70,
90,
83,
77,
81,
87,
74,
76,
87,
81,
75,
88,
89,
84,
81,
56,
81,
65,
65,
78,
69,
75,
77,
58,
61,
67,
62,
51,
58,
58,
63,
61,
39,
61,
39,
46,
47,
48,
49,
51,
31,
34,
44,
38,
58,
44,
37,
26,
42,
48,
38,
34,
32,
27,
25,
22,
26,
27,
25,
28,
22,
30,
20,
23,
21,
18,
24,
15,
13,
19,
21,
13,
13,
13,
15,
17,
17,
13,
14,
12,
12,
7,
10,
8,
8,
5,
7,
8,
4,
5,
4,
2,
1,
1,
2,
0,
0,
0,
0,
0,
2,
0,
0,
0,
0,
0,
0,
0,
3,
0,
0,
1,
0,
0,
1,
0,
0,
0,
0,
1,
0,
0,
0,
0,
0,
0,
0,
0,
0,
0,
0,
0,
0,
0,
0,
1,
0,
0,
0,
0,
0,
1,
0,
0,
0,
0,
0,
1,
0,
1,
0,
0,
0,
0,
0,
0,
0,
0,
0,
0,
1,
0,
0,
0,
0,
0,
0,
0,
0,
0,
0,
0,
0,
0,
0,
0,
0,
0,
0,
0,
0,
0,
0,
0,
1,
1,
0,
0,
0,
0,
0,
0,
0,
0,
0,
0,
0,
0,
0,
0,
0,
0,
0,
0,
0,
0,
0,
0,
0,
0,
0,
0,
0,
0,
0,
1,
0,
0,
0,
0,
0,
0,
0,
0,
0,
0,
0,
0,
0,
0,
0,
0,
0,
0,
0,
0,
0,
0,
0,
0,
0,
0,
0,
0,
0,
0,
0,
0,
0,
0,
0,
0,
0,
0,
0,
0,
0,
0,
0,
0,
0,
0,
0,
0,
0,
0,
0,
0,
0,
0,
0,
0,
0,
0,
0,
0,
0,
0,
0,
0,
0,
0,
0,
0,
0,
0,
0,
0,
0,
0,
0,
0,
0,
0,
0,
0,
0,
0,
0,
0,
0,
0,
0,
0,
0,
0,
0,
0,
0,
0,
0,
0,
0,
0,
0,
0,
0,
0,
0,
0,
0,
0,
0,
0,
0,
0,
0,
0,
0,
0,
0,
0,
0,
0,
0,
0,
0,
0,
0,
0,
0,
0,
0,
0,
0,
0,
0,
0,
0,
0,
0,
0,
0,
0,
0,
0,
0,
0,
0,
0,
0,
0,
0,
0,
0,
0,
0,
0,
0,
0,
0,
0,
0,
0,
0,
0,
0,
0,
0,
0,
0,
0,
0,
0,
0,
0,
0,
0,
0,
0,
0,
0,
0,
0,
0,
0,
0,
0,
0,
0,
0,
0,
0,
0,
0,
0,
0,
0,
0,
0,
0,
0,
0,
0,
0,
0,
0,
0,
0,
0,
0,
0,
0,
0,
0,
0,
0,
0,
0,
0,
0,
0,
0,
0,
0,
0,
0,
0,
0,
0,
0,
0,
0,
0,
0,
0,
0,
0,
0,
0,
0,
0,
0,
0,
0,
0,
0,
0,
0,
0,
0,
0,
0,
0,
0,
0,
0,
0,
0,
0,
0,
0,
0,
0,
0,
0,
0,
0,
0,
0,
0,
0,
0,
0,
0,
0,
0,
0,
0,
0,
0,
0,
0,
0,
0,
0,
0,
0,
0,
0,
0,
0,
0,
0,
0,
0,
0,
0,
0,
0,
0,
0,
0,
0,
0,
0,
0,
0,
0,
0,
0,
0,
0,
0,
0,
0,
0,
0,
0,
0,
0,
0,
0,
0,
0,
0,
0,
0,
0,
0,
0,
0,
0,
0,
0,
0,
0,
0,
0,
0,
0,
0,
0,
0,
0,
0,
0,
0,
0,
0,
0,
0,
0,
0,
0,
0,
0,
0,
0,
0,
0,
0,
0,
0,
0,
0,
0,
0,
0,
0,
0,
0,
0,
0,
0,
0,
0,
0,
0,
0,
0,
0,
0,
0,
0,
0,
0,
0,
0,
0,
0,
0,
0,
0,
0,
0,
0,
0,
0,
0,
0,
0,
0,
0,
0,
0,
0,
0,
0,
0,
0,
0,
0,
0,
0,
0,
0,
0,
0,
0,
0,
0,
0,
0,
0,
0,
0,
0,
0,
0,
0,
0,
0,
0,
0,
0,
0,
0,
0,
0,
0,
0,
0,
0,
0,
0,
0,
0,
0,
0,
0,
0,
0,
0,
0,
0,
0,
0,
0,
0,
0,
0,
0,
0,
0,
0,
0,
0,
0,
0,
0,
0,
0,
0,
0,
0,
0,
0,
0,
0,
0,
0,
0,
0,
0,
0,
0,
0,
0,
0,
0,
0,
0,
0,
0,
0,
0,
0,
0,
0,
0,
0,
0,
0,
0,
0,
0,
0,
0,
0,
0,
0,
0,
0,
0,
0,
0,
0,
0,
0,
0,
0,
0,
0,
0,
0,
0,
0,
0,
0,
0,
0,
0,
0,
0,
0,
0,
0,
0,
0,
0,
0,
0,
0,
0,
0,
0,
0,
0,
0,
0,
0,
0,
0,
0,
0,
0,
0,
0,
0,
0,
0,
0,
0,
0,
0,
0,
0,
0,
0,
0,
0,
0,
0,
0,
0,
0,
0,
0,
0,
0,
0,
0,
0,
0,
0,
0,
0,
0,
0,
0,
0,
0,
0,
0,
0,
0,
0,
0,
0,
0,
0,
0,
0,
0,
0,
0,
0,
0,
0,
0,
0,
0,
0,
0,
0,
0,
0,
0,
0,
0,
0,
0,
0,
0,
0,
0,
0,
0,
0,
0,
0,
0,
0,
0,
0,
0,
0,
0,
0,
0,
0,
0,
0,
0,
0,
0,
0,
0,
0,
0,
0,
0,
0,
0,
0,
0,
0,
0,
0,
0,
0,
0,
0,
0,
0,
0,
0,
0,
0,
0,
0,
0,
0,
0,
0,
0,
0,
0,
0,
0,
0,
0,
0,
0,
0,
0,
0,
0,
0,
0,
0,
0,
0,
0,
0,
0,
0,
0,
0,
0,
0,
0,
0,
0,
0,
0,
0,
0,
0,
0,
0,
0,
0,
0,
0,
0,
0,
0,
0,
0,
0,
0,
0,
0,
0,
0,
0,
0,
0,
0,
0,
0,
0,
0,
0,
0,
0,
0,
0,
0,
0,
0,
0,
0,
0,
0,
0,
0,
0,
0,
0,
#ENDOFDATA   :