File: N132962/Quantification/15 keV/Mengason MM2/MMM2 Quartz[0][4].msa
#FORMAT      : EMSA/MAS Spectral Data File
#VERSION     : 1.0
#TITLE       : MMM2 Quartz[0][all]
#DATE        : 28-SEP-2025
#TIME        : 22:29
#OWNER       : Unknown
#NPOINTS     : 4096
#NCOLUMNS    : 1
#XUNITS      : eV
#YUNITS      : counts
#DATATYPE    : Y
#XPERCHAN    : 9.99778
#OFFSET      : 1.69135
#BEAMKV      : 15
#SIGNALTYPE  : EDS
#ELEVANGLE   : 35
#AZIMANGLE   : 0
#LIVETIME    : 240.268
#REALTIME    : 258.47
#PROBECUR    : 1.21261
#TAUWIND     : 0
#TDEADLYR    : 0
#TACTLYR     : 0.045
#TALWIND     : 0.025
#CHOFFSET    : 0.0
#XLABEL      : Energy (eV)
#YLABEL      : Counts
#XPOSITION   : -14.5289
#YPOSITION   : 0.43049
#ZPOSITION   : 34.11879
#EDSDET      : SD
##SPECIMEN   : MMM2 Quartz[0][all]
##D2STDCMP   : Quartz,(O:53.2565),(Si:46.7435),2.65
##DET_HASH   : 12273538-fd48-a23f-0a19-f1e6fa85caef
##CALIB_HASH : 6abaa72c-aa41-8738-0be9-f592914732f3
##WORKING    : 15.0 mm
##DET_NAME   : EDAX All
##DET_MODE   : MediumLE
#SPECTRUM    :
32,
16,
3,
31,
92,
355,
1076,
3692,
10218,
13030,
6840,
3446,
3758,
5159,
10060,
39426,
150579,
286443,
205920,
52979,
6605,
2376,
2360,
2571,
2813,
2883,
2967,
3216,
3414,
3537,
3724,
3662,
3992,
4394,
4711,
4694,
4538,
4443,
4402,
4483,
4344,
4591,
4589,
4531,
4770,
4801,
4927,
5085,
5363,
5868,
5851,
6186,
6289,
6545,
8718,
27951,
117233,
304770,
414082,
291287,
114443,
36276,
14718,
6667,
3172,
2298,
2303,
2299,
2217,
2208,
2223,
2206,
2390,
2696,
3445,
3711,
3633,
2947,
2353,
2212,
2096,
2191,
2150,
2089,
2033,
2132,
2096,
1943,
1959,
2075,
2052,
1944,
2059,
2014,
1993,
1949,
1943,
1995,
1901,
1817,
1762,
1886,
1829,
1789,
1781,
1761,
1753,
1788,
1750,
1723,
1737,
1738,
1672,
1757,
2050,
2467,
2605,
2502,
2095,
1675,
1656,
1659,
1504,
1489,
1574,
1438,
1438,
1453,
1460,
1414,
1416,
1380,
1408,
1343,
1360,
1381,
1337,
1349,
1391,
1272,
1273,
1270,
1258,
1267,
1265,
1282,
1274,
1245,
1200,
1174,
1219,
1174,
1192,
1169,
1079,
1146,
1086,
1105,
1067,
1143,
1056,
1029,
1094,
1035,
1003,
1050,
1021,
948,
976,
981,
960,
983,
985,
986,
941,
980,
911,
868,
907,
876,
878,
895,
847,
865,
907,
884,
869,
842,
819,
806,
787,
822,
812,
827,
756,
783,
721,
788,
769,
812,
781,
740,
763,
708,
715,
707,
735,
675,
681,
708,
727,
694,
677,
748,
725,
676,
641,
642,
619,
674,
643,
583,
603,
634,
596,
604,
613,
617,
562,
564,
564,
564,
562,
560,
534,
561,
548,
554,
505,
492,
545,
506,
536,
474,
518,
517,
485,
479,
512,
514,
508,
497,
459,
458,
432,
467,
471,
430,
452,
435,
433,
426,
477,
387,
439,
369,
411,
404,
400,
452,
411,
401,
377,
384,
364,
412,
369,
336,
352,
331,
360,
380,
337,
363,
374,
304,
355,
346,
333,
324,
330,
328,
314,
314,
331,
319,
337,
329,
317,
313,
309,
302,
292,
274,
292,
290,
291,
289,
276,
291,
262,
235,
246,
254,
253,
283,
242,
233,
239,
246,
228,
242,
223,
219,
249,
246,
239,
229,
255,
204,
228,
222,
208,
221,
202,
186,
209,
200,
181,
163,
197,
185,
187,
193,
159,
188,
177,
188,
189,
169,
179,
183,
154,
182,
171,
183,
159,
162,
177,
155,
145,
170,
159,
149,
167,
143,
153,
164,
144,
151,
148,
153,
146,
119,
123,
123,
143,
139,
120,
105,
123,
124,
124,
118,
117,
113,
108,
109,
114,
112,
109,
84,
115,
100,
90,
97,
85,
99,
77,
99,
114,
66,
94,
85,
77,
86,
95,
70,
87,
71,
81,
82,
65,
66,
54,
61,
64,
67,
68,
59,
58,
55,
59,
51,
46,
52,
47,
60,
61,
46,
41,
45,
56,
51,
48,
51,
49,
65,
31,
47,
36,
37,
39,
33,
30,
35,
41,
29,
28,
29,
24,
34,
34,
39,
26,
30,
23,
20,
14,
26,
29,
24,
26,
15,
16,
18,
17,
15,
14,
16,
16,
22,
19,
12,
12,
11,
18,
14,
15,
9,
8,
15,
4,
15,
7,
7,
3,
11,
8,
4,
10,
8,
6,
9,
1,
5,
1,
0,
2,
2,
0,
0,
1,
0,
0,
0,
0,
0,
1,
1,
0,
1,
0,
0,
0,
0,
0,
0,
0,
1,
0,
1,
0,
0,
0,
1,
0,
1,
0,
0,
0,
1,
0,
0,
0,
0,
0,
0,
0,
0,
0,
0,
0,
0,
0,
0,
0,
0,
0,
0,
0,
1,
0,
0,
0,
0,
1,
0,
0,
0,
0,
0,
1,
0,
0,
0,
0,
0,
0,
0,
0,
0,
0,
0,
0,
0,
0,
0,
0,
0,
0,
0,
0,
0,
0,
0,
0,
0,
0,
0,
0,
0,
0,
0,
1,
0,
0,
0,
0,
0,
0,
0,
0,
0,
0,
0,
0,
0,
0,
0,
0,
0,
0,
0,
0,
1,
0,
1,
0,
0,
0,
0,
0,
0,
0,
0,
0,
0,
0,
0,
0,
0,
0,
0,
0,
0,
0,
0,
0,
0,
0,
0,
0,
0,
1,
0,
0,
0,
0,
0,
0,
0,
0,
0,
0,
0,
0,
0,
0,
0,
0,
0,
0,
0,
0,
0,
0,
0,
0,
0,
0,
0,
0,
0,
0,
0,
0,
0,
0,
0,
0,
0,
0,
0,
0,
0,
0,
0,
0,
0,
0,
0,
0,
0,
0,
0,
0,
0,
0,
0,
0,
0,
0,
0,
0,
0,
0,
0,
0,
0,
0,
0,
0,
0,
0,
0,
0,
0,
0,
0,
0,
0,
0,
0,
0,
0,
0,
0,
0,
0,
0,
0,
0,
0,
0,
0,
0,
0,
0,
0,
0,
0,
0,
0,
0,
0,
0,
0,
0,
0,
0,
0,
0,
0,
0,
0,
0,
0,
0,
0,
0,
0,
0,
0,
0,
0,
0,
0,
0,
0,
0,
0,
0,
0,
0,
0,
0,
0,
0,
0,
0,
0,
0,
0,
0,
0,
0,
0,
0,
0,
0,
0,
0,
0,
0,
0,
0,
0,
0,
0,
0,
0,
0,
0,
0,
0,
0,
0,
0,
0,
1,
0,
0,
0,
0,
0,
0,
0,
0,
0,
0,
0,
0,
0,
0,
0,
0,
0,
0,
0,
0,
0,
0,
0,
0,
0,
0,
0,
0,
0,
0,
0,
0,
0,
0,
0,
0,
0,
0,
0,
0,
0,
0,
0,
0,
0,
0,
0,
0,
0,
0,
0,
0,
0,
0,
0,
0,
0,
0,
0,
0,
0,
0,
0,
0,
0,
0,
0,
0,
0,
0,
0,
0,
0,
0,
0,
0,
0,
0,
0,
0,
0,
0,
0,
0,
0,
0,
0,
0,
0,
0,
0,
0,
0,
0,
0,
0,
0,
0,
0,
0,
0,
0,
0,
0,
0,
0,
0,
0,
0,
0,
0,
0,
0,
0,
0,
0,
0,
0,
0,
0,
0,
0,
0,
0,
0,
0,
0,
0,
0,
0,
0,
0,
0,
0,
0,
0,
0,
0,
0,
0,
0,
0,
0,
0,
0,
0,
0,
0,
0,
0,
0,
0,
0,
0,
0,
0,
0,
0,
0,
0,
0,
0,
0,
0,
0,
0,
0,
0,
0,
0,
0,
0,
0,
0,
0,
0,
0,
0,
0,
0,
0,
0,
0,
0,
0,
0,
0,
0,
0,
0,
0,
0,
0,
0,
0,
0,
0,
0,
0,
0,
0,
0,
0,
0,
0,
0,
0,
0,
0,
0,
0,
0,
0,
0,
0,
0,
0,
0,
0,
0,
0,
0,
0,
0,
0,
0,
0,
0,
0,
0,
0,
0,
0,
0,
0,
0,
0,
0,
0,
0,
0,
0,
0,
0,
0,
0,
0,
0,
0,
0,
0,
0,
0,
0,
0,
0,
0,
0,
0,
0,
0,
0,
0,
0,
0,
0,
0,
0,
0,
0,
0,
0,
0,
0,
0,
0,
0,
0,
0,
0,
0,
0,
0,
0,
0,
0,
0,
0,
0,
0,
0,
0,
0,
0,
0,
0,
0,
0,
0,
0,
0,
0,
0,
0,
0,
0,
0,
0,
0,
0,
0,
0,
0,
0,
0,
0,
0,
0,
0,
0,
0,
0,
0,
0,
0,
0,
0,
0,
0,
0,
0,
0,
0,
0,
0,
0,
0,
0,
0,
0,
0,
0,
0,
0,
0,
0,
0,
0,
0,
0,
0,
0,
0,
0,
0,
0,
0,
0,
0,
0,
0,
0,
0,
0,
0,
0,
0,
0,
0,
0,
0,
0,
0,
0,
0,
0,
0,
0,
0,
0,
0,
0,
0,
0,
0,
0,
0,
0,
0,
0,
0,
0,
0,
0,
0,
0,
0,
0,
0,
0,
0,
0,
0,
0,
0,
0,
0,
0,
0,
0,
0,
0,
0,
0,
0,
0,
0,
0,
0,
0,
0,
0,
0,
0,
0,
0,
0,
0,
0,
0,
0,
0,
0,
0,
0,
0,
0,
0,
0,
0,
0,
0,
0,
0,
0,
0,
0,
0,
0,
0,
0,
0,
0,
0,
0,
0,
0,
0,
0,
0,
0,
0,
0,
0,
0,
0,
0,
0,
0,
0,
0,
0,
0,
0,
0,
0,
0,
0,
0,
0,
0,
0,
0,
0,
0,
0,
0,
0,
0,
0,
0,
0,
0,
0,
0,
0,
0,
0,
0,
0,
0,
0,
0,
0,
0,
0,
0,
0,
0,
0,
0,
0,
0,
0,
0,
0,
0,
0,
0,
0,
0,
0,
0,
0,
0,
0,
0,
0,
0,
0,
0,
0,
0,
0,
0,
0,
0,
0,
0,
0,
0,
0,
0,
0,
0,
0,
0,
0,
0,
0,
0,
0,
0,
0,
0,
#ENDOFDATA   :