File: N132962/Quantification/15 keV/Mengason MM2/MMM2 Plagioclaise[3][4].msa
#FORMAT      : EMSA/MAS Spectral Data File
#VERSION     : 1.0
#TITLE       : MMM2 Plagioclaise[3][all]
#DATE        : 28-SEP-2025
#TIME        : 23:14
#OWNER       : Unknown
#NPOINTS     : 4096
#NCOLUMNS    : 1
#XUNITS      : eV
#YUNITS      : counts
#DATATYPE    : Y
#XPERCHAN    : 9.99778
#OFFSET      : 1.69135
#BEAMKV      : 15
#SIGNALTYPE  : EDS
#ELEVANGLE   : 35
#AZIMANGLE   : 0
#LIVETIME    : 240.294
#REALTIME    : 256.482
#PROBECUR    : 1.2132
#TAUWIND     : 0
#TDEADLYR    : 0
#TACTLYR     : 0.045
#TALWIND     : 0.025
#CHOFFSET    : 0.0
#XLABEL      : Energy (eV)
#YLABEL      : Counts
#XPOSITION   : -18.61427
#YPOSITION   : 1.95269
#ZPOSITION   : 34.11879
#EDSDET      : SD
##SPECIMEN   : MMM2 Plagioclaise[3][all]
##DET_HASH   : 12273538-fd48-a23f-0a19-f1e6fa85caef
##CALIB_HASH : 6abaa72c-aa41-8738-0be9-f592914732f3
##WORKING    : 15.0 mm
##DET_NAME   : EDAX All
##DET_MODE   : MediumLE
#SPECTRUM    :
21,
27,
8,
18,
83,
355,
1118,
3665,
10986,
14432,
8444,
4458,
3931,
4478,
7917,
29083,
110685,
209889,
152912,
39994,
5844,
2555,
2746,
3100,
3232,
3224,
3165,
3425,
3648,
3858,
3999,
4456,
5793,
11753,
23575,
25856,
14478,
6510,
4650,
4606,
4879,
5183,
5483,
5378,
5433,
5864,
7628,
19655,
63984,
128030,
129675,
67660,
22436,
8560,
6649,
14894,
54954,
139483,
189756,
134690,
54725,
19070,
9040,
5013,
3320,
3114,
3127,
3017,
2803,
2535,
2524,
2439,
2503,
2640,
2980,
3055,
2980,
2727,
2523,
2400,
2371,
2374,
2384,
2358,
2407,
2313,
2176,
2173,
2297,
2212,
2200,
2180,
2237,
2242,
2259,
2175,
2196,
2171,
2181,
2245,
2041,
2073,
1970,
1961,
2069,
2109,
2188,
2272,
2500,
2708,
3061,
2855,
2417,
2084,
2059,
1906,
2002,
2147,
2294,
3052,
5858,
12734,
22924,
28850,
24282,
14099,
6296,
2742,
1902,
1659,
1884,
2310,
3323,
4422,
4690,
3993,
2714,
1947,
1468,
1359,
1400,
1460,
1327,
1339,
1362,
1302,
1226,
1291,
1383,
1293,
1413,
1286,
1282,
1200,
1198,
1098,
1161,
1170,
1148,
1152,
1163,
1272,
1120,
1188,
1119,
1104,
1090,
1057,
1052,
1031,
1082,
1081,
1096,
1053,
1027,
1049,
989,
971,
984,
965,
1021,
1013,
934,
952,
982,
926,
960,
922,
856,
887,
867,
851,
848,
770,
883,
833,
854,
836,
836,
827,
793,
737,
811,
791,
761,
772,
763,
777,
745,
783,
767,
897,
930,
1009,
1020,
880,
822,
745,
755,
678,
678,
659,
649,
665,
675,
675,
672,
629,
653,
647,
596,
572,
601,
637,
614,
637,
569,
604,
599,
562,
554,
579,
607,
562,
542,
561,
512,
545,
559,
560,
526,
467,
529,
508,
514,
450,
468,
485,
445,
474,
471,
447,
461,
460,
437,
489,
409,
460,
472,
433,
429,
396,
410,
437,
430,
413,
447,
446,
430,
401,
367,
402,
381,
403,
389,
365,
383,
360,
377,
348,
380,
346,
331,
336,
339,
333,
320,
307,
326,
335,
336,
334,
348,
312,
358,
337,
304,
315,
301,
311,
285,
265,
299,
300,
299,
297,
271,
252,
280,
275,
251,
240,
257,
246,
245,
267,
258,
246,
231,
237,
239,
225,
242,
214,
219,
208,
235,
229,
213,
216,
217,
211,
219,
212,
210,
215,
218,
220,
204,
207,
220,
205,
206,
180,
185,
202,
181,
181,
178,
152,
163,
156,
173,
172,
194,
162,
141,
165,
163,
161,
156,
149,
158,
130,
146,
134,
117,
146,
154,
114,
119,
97,
132,
105,
130,
123,
131,
125,
119,
118,
118,
97,
119,
112,
113,
103,
102,
107,
94,
100,
97,
98,
89,
108,
106,
83,
84,
100,
73,
88,
89,
80,
85,
93,
76,
76,
81,
65,
60,
53,
77,
77,
72,
74,
70,
55,
65,
68,
62,
55,
66,
46,
43,
60,
51,
43,
57,
43,
42,
46,
52,
44,
39,
38,
48,
52,
20,
31,
33,
46,
46,
33,
23,
25,
43,
32,
22,
33,
23,
22,
24,
29,
23,
28,
15,
20,
22,
23,
21,
15,
18,
16,
18,
18,
14,
19,
11,
24,
13,
10,
10,
9,
9,
13,
16,
5,
7,
11,
9,
3,
6,
8,
4,
4,
7,
5,
4,
1,
1,
2,
0,
1,
0,
0,
0,
0,
0,
0,
0,
0,
1,
0,
0,
0,
0,
1,
0,
0,
0,
0,
2,
1,
0,
1,
0,
0,
0,
0,
0,
0,
0,
0,
0,
0,
1,
0,
1,
0,
0,
1,
1,
0,
0,
0,
1,
0,
0,
0,
0,
0,
1,
0,
0,
0,
0,
0,
1,
0,
0,
0,
1,
1,
0,
0,
0,
0,
1,
0,
0,
0,
0,
0,
0,
1,
0,
0,
0,
0,
0,
0,
0,
0,
0,
0,
0,
0,
0,
1,
0,
0,
0,
0,
0,
0,
0,
0,
0,
0,
1,
0,
0,
0,
1,
0,
0,
0,
0,
0,
0,
0,
0,
0,
0,
0,
1,
0,
0,
0,
0,
0,
0,
0,
0,
0,
0,
0,
0,
0,
0,
0,
0,
0,
0,
0,
0,
0,
0,
0,
0,
0,
0,
0,
0,
0,
0,
0,
0,
0,
0,
0,
0,
0,
0,
0,
0,
0,
0,
0,
0,
0,
0,
0,
0,
0,
0,
0,
0,
0,
0,
0,
0,
0,
0,
0,
0,
0,
0,
0,
0,
0,
0,
0,
0,
0,
0,
0,
0,
0,
0,
0,
0,
0,
0,
0,
0,
0,
0,
0,
0,
0,
0,
0,
0,
0,
0,
0,
0,
0,
0,
0,
0,
0,
0,
0,
0,
0,
0,
0,
0,
0,
0,
0,
0,
0,
0,
0,
0,
0,
0,
0,
0,
0,
0,
0,
0,
0,
0,
0,
0,
0,
0,
0,
0,
0,
0,
0,
0,
0,
0,
0,
0,
0,
0,
0,
0,
0,
0,
0,
0,
0,
0,
0,
0,
0,
0,
0,
0,
0,
0,
0,
0,
0,
0,
0,
0,
0,
0,
0,
0,
0,
0,
0,
0,
0,
0,
0,
0,
0,
0,
0,
0,
0,
0,
0,
0,
0,
0,
0,
0,
0,
0,
0,
0,
0,
0,
0,
0,
0,
0,
0,
0,
0,
0,
0,
0,
0,
0,
0,
0,
0,
0,
0,
0,
0,
0,
0,
0,
0,
0,
0,
0,
0,
0,
0,
0,
0,
0,
0,
0,
0,
0,
0,
0,
0,
0,
0,
0,
0,
0,
0,
0,
0,
0,
0,
0,
0,
0,
0,
0,
0,
0,
0,
0,
0,
0,
0,
0,
0,
0,
0,
0,
0,
0,
0,
0,
0,
0,
0,
0,
0,
0,
0,
0,
0,
0,
0,
0,
0,
0,
0,
0,
0,
0,
0,
0,
0,
0,
0,
0,
0,
0,
0,
0,
0,
0,
0,
0,
0,
0,
0,
0,
0,
0,
0,
0,
0,
0,
0,
0,
0,
0,
0,
0,
0,
0,
0,
0,
0,
0,
0,
0,
0,
0,
0,
0,
0,
0,
0,
0,
0,
0,
0,
0,
0,
0,
0,
0,
0,
0,
0,
0,
0,
0,
0,
0,
0,
0,
0,
0,
0,
0,
0,
0,
0,
0,
0,
0,
0,
0,
0,
0,
0,
0,
0,
0,
0,
0,
0,
0,
0,
0,
0,
0,
0,
0,
0,
0,
0,
0,
0,
0,
0,
0,
0,
0,
0,
0,
0,
0,
0,
0,
0,
0,
0,
0,
0,
0,
0,
0,
0,
0,
0,
0,
0,
0,
0,
0,
0,
0,
0,
0,
0,
0,
0,
0,
0,
0,
0,
0,
0,
0,
0,
0,
0,
0,
0,
0,
0,
0,
0,
0,
0,
0,
0,
0,
0,
0,
0,
0,
0,
0,
0,
0,
0,
0,
0,
0,
0,
0,
0,
0,
0,
0,
0,
0,
0,
0,
0,
0,
0,
0,
0,
0,
0,
0,
0,
0,
0,
0,
0,
0,
0,
0,
0,
0,
0,
0,
0,
0,
0,
0,
0,
0,
0,
0,
0,
0,
0,
0,
0,
0,
0,
0,
0,
0,
0,
0,
0,
0,
0,
0,
0,
0,
0,
0,
0,
0,
0,
0,
0,
0,
0,
0,
0,
0,
0,
0,
0,
0,
0,
0,
0,
0,
0,
0,
0,
0,
0,
0,
0,
0,
0,
0,
0,
0,
0,
0,
0,
0,
0,
0,
0,
0,
0,
0,
0,
0,
0,
0,
0,
0,
0,
0,
0,
0,
0,
0,
0,
0,
0,
0,
0,
0,
0,
0,
0,
0,
0,
0,
0,
0,
0,
0,
0,
0,
0,
0,
0,
0,
0,
0,
0,
0,
0,
0,
0,
0,
0,
0,
0,
0,
0,
0,
0,
0,
0,
0,
0,
0,
0,
0,
0,
0,
0,
0,
0,
0,
0,
0,
0,
0,
0,
0,
0,
0,
0,
0,
0,
0,
0,
0,
0,
0,
0,
0,
0,
0,
0,
0,
0,
0,
0,
0,
0,
0,
0,
0,
0,
0,
0,
0,
0,
0,
0,
0,
0,
0,
0,
0,
0,
0,
0,
0,
0,
0,
0,
0,
0,
0,
0,
0,
0,
0,
0,
0,
0,
0,
0,
0,
0,
0,
0,
0,
0,
0,
0,
0,
0,
0,
0,
0,
0,
0,
0,
0,
0,
0,
0,
0,
0,
0,
0,
0,
0,
0,
0,
0,
0,
0,
0,
0,
0,
0,
0,
0,
0,
0,
0,
0,
0,
0,
0,
0,
0,
0,
0,
0,
0,
0,
0,
0,
0,
0,
0,
0,
0,
0,
0,
0,
0,
0,
0,
0,
0,
0,
0,
0,
0,
0,
0,
0,
0,
0,
0,
0,
0,
0,
0,
0,
0,
0,
0,
0,
0,
0,
0,
#ENDOFDATA   :