File: N132962/Quantification/15 keV/Mengason MM2/MMM2 Pentlandite[2][4].msa
#FORMAT      : EMSA/MAS Spectral Data File
#VERSION     : 1.0
#TITLE       : MMM2 Pentlandite[2][all]
#DATE        : 28-SEP-2025
#TIME        : 21:40
#OWNER       : Unknown
#NPOINTS     : 4096
#NCOLUMNS    : 1
#XUNITS      : eV
#YUNITS      : counts
#DATATYPE    : Y
#XPERCHAN    : 9.99778
#OFFSET      : 1.69135
#BEAMKV      : 15
#SIGNALTYPE  : EDS
#ELEVANGLE   : 35
#AZIMANGLE   : 0
#LIVETIME    : 240.236
#REALTIME    : 257.835
#PROBECUR    : 1.21217
#TAUWIND     : 0
#TDEADLYR    : 0
#TACTLYR     : 0.045
#TALWIND     : 0.025
#CHOFFSET    : 0.0
#XLABEL      : Energy (eV)
#YLABEL      : Counts
#XPOSITION   : -15.76983
#YPOSITION   : -2.33666
#ZPOSITION   : 34.11879
#EDSDET      : SD
##SPECIMEN   : MMM2 Pentlandite[2][all]
##DET_HASH   : 12273538-fd48-a23f-0a19-f1e6fa85caef
##CALIB_HASH : 6abaa72c-aa41-8738-0be9-f592914732f3
##WORKING    : 15.0 mm
##DET_NAME   : EDAX All
##DET_MODE   : MediumLE
#SPECTRUM    :
24,
23,
7,
56,
312,
839,
1679,
4958,
14096,
17961,
9051,
3964,
3713,
4136,
4794,
5502,
7043,
9431,
12762,
18318,
23929,
25606,
38444,
63632,
59654,
33101,
24402,
49493,
87981,
74085,
29574,
9008,
5104,
4507,
4290,
4308,
4590,
4638,
4877,
4940,
5075,
5230,
5479,
5353,
5459,
5760,
5744,
5768,
5929,
6067,
6021,
6100,
6096,
6065,
6099,
6172,
6201,
6645,
6974,
6768,
6587,
6301,
5792,
5689,
5706,
5574,
5826,
5718,
5798,
5858,
5957,
6604,
8631,
13515,
29080,
76770,
154738,
193382,
141356,
61790,
22366,
16390,
17951,
15494,
9683,
5821,
4197,
3915,
3919,
3856,
3897,
3788,
3772,
3778,
3815,
3844,
3727,
3708,
3764,
3823,
3833,
3780,
3725,
3755,
3800,
3809,
3699,
3605,
3459,
3444,
3422,
3371,
3329,
3330,
3373,
3341,
3164,
3179,
3325,
3193,
3158,
3200,
3156,
3000,
3029,
3034,
3029,
3046,
3097,
3011,
3022,
2985,
2925,
2852,
2741,
2904,
2746,
2751,
2842,
2651,
2761,
2721,
2667,
2700,
2663,
2701,
2618,
2647,
2623,
2496,
2579,
2473,
2613,
2687,
2730,
2750,
2628,
2566,
2546,
2348,
2364,
2315,
2294,
2293,
2257,
2358,
2228,
2311,
2253,
2225,
2219,
2037,
2014,
2064,
2090,
2125,
2135,
2077,
2078,
2045,
2026,
2075,
1945,
1967,
1884,
1945,
2033,
1892,
1860,
1839,
1920,
1904,
1867,
1831,
1794,
1784,
1765,
1747,
1755,
1763,
1744,
1812,
1721,
1743,
1774,
1797,
1853,
1984,
2619,
4753,
9930,
18792,
29385,
35405,
33122,
24222,
13935,
6819,
3134,
1944,
1725,
1496,
1438,
1506,
1488,
1466,
1481,
1559,
1632,
1742,
2008,
2495,
3137,
4246,
5272,
5791,
5314,
4087,
2879,
1955,
1597,
1375,
1451,
1644,
2573,
4841,
9136,
15593,
21446,
23845,
20998,
14773,
8692,
4507,
2388,
1448,
1168,
1153,
1090,
1121,
1122,
1081,
1052,
1044,
1101,
1012,
1078,
1066,
1129,
1031,
1180,
1412,
2034,
2683,
3464,
3930,
3699,
3057,
2223,
1622,
1209,
930,
943,
841,
842,
833,
843,
844,
858,
852,
808,
828,
794,
791,
773,
796,
740,
721,
735,
781,
715,
674,
732,
687,
721,
756,
663,
714,
660,
682,
646,
678,
660,
650,
652,
659,
608,
657,
616,
647,
609,
621,
677,
653,
614,
649,
655,
619,
649,
564,
564,
584,
555,
523,
571,
530,
535,
613,
525,
517,
505,
468,
489,
492,
481,
479,
486,
515,
501,
475,
527,
406,
438,
491,
453,
448,
486,
432,
452,
411,
432,
430,
395,
420,
392,
414,
386,
406,
424,
374,
387,
361,
346,
401,
367,
339,
356,
384,
368,
327,
338,
344,
328,
346,
310,
331,
300,
301,
266,
302,
305,
276,
288,
288,
299,
258,
267,
276,
258,
265,
219,
238,
243,
235,
238,
228,
244,
227,
236,
210,
223,
192,
224,
210,
183,
198,
200,
190,
185,
182,
168,
179,
175,
183,
195,
153,
171,
169,
151,
165,
175,
163,
156,
130,
152,
147,
142,
117,
114,
107,
117,
122,
119,
115,
110,
121,
133,
108,
103,
111,
95,
105,
85,
83,
101,
76,
73,
80,
91,
82,
89,
81,
82,
72,
60,
94,
67,
74,
59,
59,
60,
53,
38,
51,
38,
38,
41,
39,
49,
33,
18,
39,
27,
33,
26,
35,
32,
27,
24,
20,
13,
12,
17,
25,
13,
8,
11,
12,
6,
6,
5,
8,
1,
1,
3,
1,
1,
1,
4,
1,
2,
1,
2,
2,
3,
0,
3,
2,
3,
2,
2,
1,
3,
1,
2,
3,
2,
0,
1,
2,
2,
1,
0,
0,
1,
0,
0,
1,
0,
0,
2,
0,
1,
2,
1,
1,
1,
1,
0,
2,
2,
0,
2,
2,
0,
2,
2,
0,
0,
2,
0,
1,
2,
0,
0,
3,
0,
1,
1,
0,
1,
3,
0,
0,
1,
1,
1,
1,
0,
2,
0,
0,
2,
2,
3,
1,
2,
0,
0,
1,
0,
1,
1,
1,
1,
0,
0,
0,
3,
0,
2,
0,
0,
1,
1,
0,
3,
2,
0,
0,
2,
1,
1,
1,
2,
0,
1,
0,
1,
0,
0,
1,
0,
1,
0,
1,
0,
0,
1,
0,
1,
0,
0,
0,
0,
1,
0,
0,
0,
0,
2,
0,
2,
1,
0,
2,
1,
0,
0,
0,
0,
1,
0,
0,
0,
2,
0,
0,
0,
1,
0,
0,
0,
0,
0,
0,
1,
0,
0,
0,
0,
1,
0,
1,
0,
1,
0,
0,
0,
0,
0,
1,
0,
1,
0,
0,
0,
0,
0,
0,
0,
0,
0,
0,
0,
0,
0,
0,
0,
0,
0,
1,
0,
0,
0,
0,
0,
0,
1,
0,
0,
0,
0,
0,
0,
0,
0,
0,
0,
0,
0,
0,
0,
0,
0,
0,
0,
1,
0,
0,
0,
0,
0,
0,
0,
0,
2,
0,
0,
0,
0,
0,
0,
0,
0,
0,
0,
0,
0,
0,
1,
0,
0,
0,
0,
0,
0,
0,
0,
0,
0,
0,
0,
0,
0,
0,
0,
0,
0,
0,
0,
0,
0,
0,
0,
0,
0,
0,
0,
0,
0,
0,
0,
0,
0,
0,
0,
0,
0,
0,
0,
0,
0,
0,
0,
0,
0,
0,
0,
0,
0,
0,
0,
0,
0,
0,
0,
0,
0,
0,
0,
0,
0,
0,
0,
0,
0,
0,
0,
0,
0,
0,
0,
0,
0,
0,
0,
0,
0,
0,
0,
0,
0,
0,
0,
0,
0,
0,
0,
0,
0,
0,
0,
0,
0,
0,
0,
0,
0,
0,
0,
0,
0,
0,
0,
0,
0,
0,
0,
0,
0,
0,
0,
0,
0,
0,
0,
0,
0,
0,
0,
0,
0,
0,
0,
0,
0,
0,
0,
0,
0,
0,
0,
0,
0,
0,
0,
0,
0,
0,
0,
0,
0,
0,
0,
0,
0,
0,
0,
0,
0,
0,
0,
0,
0,
0,
0,
0,
0,
0,
0,
0,
0,
0,
0,
0,
0,
0,
0,
0,
0,
0,
0,
0,
0,
0,
0,
0,
0,
0,
0,
0,
0,
0,
0,
0,
0,
0,
0,
0,
0,
0,
0,
0,
0,
0,
0,
0,
0,
0,
0,
0,
0,
0,
0,
0,
0,
0,
0,
0,
0,
0,
0,
0,
0,
0,
0,
0,
0,
0,
0,
0,
0,
0,
0,
0,
0,
0,
0,
0,
0,
0,
0,
0,
0,
0,
0,
0,
0,
0,
0,
0,
0,
0,
0,
0,
0,
0,
0,
0,
0,
0,
0,
0,
0,
0,
0,
0,
0,
0,
0,
0,
0,
0,
0,
0,
0,
0,
0,
0,
0,
0,
0,
0,
0,
0,
0,
0,
0,
0,
0,
0,
0,
0,
0,
0,
0,
0,
0,
0,
0,
0,
0,
0,
0,
0,
0,
0,
0,
0,
0,
0,
0,
0,
0,
0,
0,
0,
0,
0,
0,
0,
0,
0,
0,
0,
0,
0,
0,
0,
0,
0,
0,
0,
0,
0,
0,
0,
0,
0,
0,
0,
0,
0,
0,
0,
0,
0,
0,
0,
0,
0,
0,
0,
0,
0,
0,
0,
0,
0,
0,
0,
0,
0,
0,
0,
0,
0,
0,
0,
0,
0,
0,
0,
0,
0,
0,
0,
0,
0,
0,
0,
0,
0,
0,
0,
0,
0,
0,
0,
0,
0,
0,
0,
0,
0,
0,
0,
0,
0,
0,
0,
0,
0,
0,
0,
0,
0,
0,
0,
0,
0,
0,
0,
0,
0,
0,
0,
0,
0,
0,
0,
0,
0,
0,
0,
0,
0,
0,
0,
0,
0,
0,
0,
0,
0,
0,
0,
0,
0,
0,
0,
0,
0,
0,
0,
0,
0,
0,
0,
0,
0,
0,
0,
0,
0,
0,
0,
0,
0,
0,
0,
0,
0,
0,
0,
0,
0,
0,
0,
0,
0,
0,
0,
0,
0,
0,
0,
0,
0,
0,
0,
0,
0,
0,
0,
0,
0,
0,
0,
0,
0,
0,
0,
0,
0,
0,
0,
0,
0,
0,
0,
0,
0,
0,
0,
0,
0,
0,
0,
0,
0,
0,
0,
0,
0,
0,
0,
0,
0,
0,
0,
0,
0,
0,
0,
0,
0,
0,
0,
0,
0,
0,
0,
0,
0,
0,
0,
0,
0,
0,
0,
0,
0,
0,
0,
0,
0,
0,
0,
0,
0,
0,
0,
0,
0,
0,
0,
0,
0,
0,
0,
0,
0,
0,
0,
0,
0,
0,
0,
0,
0,
0,
0,
0,
0,
0,
0,
0,
0,
0,
0,
0,
0,
0,
0,
0,
0,
0,
0,
0,
0,
0,
0,
0,
0,
0,
0,
0,
0,
0,
0,
0,
0,
0,
0,
0,
0,
0,
0,
0,
0,
0,
0,
0,
0,
0,
0,
0,
0,
0,
0,
0,
0,
0,
0,
#ENDOFDATA   :