File: N132962/Quantification/15 keV/Mengason MM2/MMM2 Tugtupite[7][4].msa
#FORMAT      : EMSA/MAS Spectral Data File
#VERSION     : 1.0
#TITLE       : MMM2 Tugtupite[7][all]
#DATE        : 29-SEP-2025
#TIME        : 01:03
#OWNER       : Unknown
#NPOINTS     : 4096
#NCOLUMNS    : 1
#XUNITS      : eV
#YUNITS      : counts
#DATATYPE    : Y
#XPERCHAN    : 9.99778
#OFFSET      : 1.69135
#BEAMKV      : 15
#SIGNALTYPE  : EDS
#ELEVANGLE   : 35
#AZIMANGLE   : 0
#LIVETIME    : 240.397
#REALTIME    : 257.253
#PROBECUR    : 1.21248
#TAUWIND     : 0
#TDEADLYR    : 0
#TACTLYR     : 0.045
#TALWIND     : 0.025
#CHOFFSET    : 0.0
#XLABEL      : Energy (eV)
#YLABEL      : Counts
#XPOSITION   : -17.27848
#YPOSITION   : 6.7636
#ZPOSITION   : 34.11879
#EDSDET      : SD
##SPECIMEN   : MMM2 Tugtupite[7][all]
##DET_HASH   : 12273538-fd48-a23f-0a19-f1e6fa85caef
##CALIB_HASH : 6abaa72c-aa41-8738-0be9-f592914732f3
##WORKING    : 15.0 mm
##DET_NAME   : EDAX All
##DET_MODE   : MediumLE
#SPECTRUM    :
20,
27,
12,
19,
111,
464,
1381,
3765,
10239,
13335,
6763,
3445,
3518,
4581,
8500,
30807,
115408,
219924,
159156,
41738,
6016,
2683,
2968,
3211,
3319,
3427,
3783,
4005,
4476,
5364,
5832,
7244,
15817,
55281,
132921,
147460,
71811,
17800,
5077,
3897,
3742,
3950,
3932,
4125,
4296,
4443,
4975,
9273,
24389,
46339,
47322,
26519,
11052,
6326,
6002,
14546,
54408,
140020,
189934,
134374,
54369,
18365,
8724,
4588,
3071,
2605,
2677,
2673,
2671,
2653,
2565,
2563,
2558,
2633,
2868,
2951,
3037,
2765,
2579,
2446,
2528,
2541,
2705,
3234,
4748,
10165,
22323,
34716,
33937,
20375,
8536,
4103,
3863,
4987,
5425,
4425,
3030,
2292,
2004,
2003,
1970,
1905,
1849,
1956,
1845,
1998,
1947,
1878,
1900,
1867,
1830,
1822,
1733,
1733,
1768,
1804,
1844,
1747,
1697,
1667,
1640,
1619,
1621,
1613,
1515,
1508,
1491,
1484,
1528,
1497,
1470,
1486,
1431,
1403,
1394,
1403,
1291,
1391,
1319,
1281,
1264,
1295,
1296,
1327,
1316,
1317,
1281,
1319,
1210,
1243,
1211,
1139,
1315,
1252,
1174,
1180,
1146,
1175,
1061,
1106,
1117,
1127,
1099,
1051,
1070,
1119,
1032,
1075,
1045,
1012,
979,
992,
986,
1020,
927,
931,
951,
963,
926,
959,
925,
971,
913,
869,
894,
897,
893,
883,
868,
801,
797,
901,
823,
798,
818,
799,
805,
812,
760,
774,
787,
756,
789,
759,
696,
709,
731,
723,
712,
676,
717,
665,
687,
750,
742,
684,
628,
663,
618,
634,
669,
619,
588,
591,
605,
609,
623,
604,
537,
577,
587,
565,
551,
595,
547,
569,
575,
573,
558,
539,
555,
533,
491,
496,
539,
512,
477,
506,
498,
513,
511,
495,
489,
482,
452,
481,
495,
437,
438,
426,
457,
431,
438,
424,
407,
437,
445,
423,
445,
432,
388,
387,
374,
389,
398,
387,
375,
378,
343,
359,
370,
359,
347,
392,
360,
386,
325,
379,
354,
339,
343,
329,
338,
351,
342,
278,
323,
293,
318,
298,
345,
308,
281,
285,
290,
298,
279,
299,
294,
291,
260,
290,
261,
255,
270,
259,
250,
276,
234,
226,
260,
252,
250,
231,
250,
223,
243,
189,
248,
235,
262,
206,
220,
226,
212,
199,
213,
217,
224,
181,
187,
205,
197,
228,
203,
186,
178,
184,
196,
167,
188,
176,
178,
176,
166,
173,
165,
195,
173,
147,
129,
143,
171,
151,
158,
141,
159,
137,
141,
157,
138,
154,
151,
141,
150,
134,
125,
124,
139,
120,
128,
123,
121,
120,
111,
102,
106,
126,
109,
107,
103,
101,
117,
106,
99,
115,
99,
85,
101,
110,
73,
76,
87,
97,
82,
90,
86,
83,
95,
71,
65,
75,
77,
77,
70,
73,
74,
76,
73,
61,
61,
49,
60,
60,
40,
60,
50,
60,
59,
61,
59,
53,
45,
53,
47,
47,
44,
40,
47,
40,
45,
43,
47,
42,
42,
33,
31,
36,
38,
28,
34,
44,
35,
30,
21,
23,
28,
26,
21,
25,
23,
26,
20,
24,
16,
24,
23,
21,
18,
24,
12,
9,
18,
18,
19,
18,
11,
16,
14,
5,
11,
3,
16,
9,
8,
9,
7,
13,
8,
13,
12,
4,
6,
2,
5,
3,
3,
2,
1,
1,
1,
0,
2,
0,
0,
1,
0,
1,
1,
0,
0,
1,
0,
0,
0,
0,
0,
0,
0,
1,
0,
0,
0,
0,
0,
0,
0,
0,
0,
0,
0,
1,
0,
0,
0,
0,
0,
0,
0,
1,
0,
0,
0,
0,
0,
0,
0,
0,
0,
0,
0,
0,
0,
0,
0,
0,
0,
0,
0,
0,
0,
0,
0,
0,
0,
1,
0,
0,
0,
0,
0,
0,
0,
0,
0,
0,
0,
0,
1,
0,
0,
0,
0,
0,
1,
0,
0,
0,
0,
0,
0,
0,
0,
1,
0,
1,
0,
0,
0,
0,
0,
0,
0,
0,
0,
0,
1,
0,
0,
1,
0,
0,
0,
0,
0,
0,
0,
0,
0,
0,
0,
0,
0,
0,
0,
0,
0,
0,
1,
0,
0,
0,
0,
0,
0,
0,
0,
0,
0,
0,
0,
0,
0,
0,
0,
0,
0,
0,
0,
0,
0,
0,
0,
0,
0,
0,
0,
0,
0,
0,
0,
0,
0,
0,
0,
0,
0,
0,
0,
0,
0,
0,
0,
0,
0,
0,
0,
0,
0,
0,
0,
0,
0,
0,
0,
0,
0,
0,
0,
0,
0,
0,
0,
0,
0,
0,
0,
0,
0,
0,
0,
0,
0,
0,
0,
0,
0,
0,
0,
0,
0,
0,
0,
0,
0,
0,
0,
0,
0,
0,
0,
0,
0,
0,
0,
0,
0,
0,
0,
0,
0,
0,
0,
0,
0,
0,
0,
0,
0,
0,
0,
0,
0,
0,
0,
0,
0,
0,
0,
0,
0,
0,
0,
0,
0,
0,
0,
0,
0,
0,
0,
0,
0,
0,
0,
0,
0,
0,
0,
0,
0,
0,
0,
0,
0,
0,
0,
0,
0,
0,
0,
0,
0,
0,
0,
0,
0,
0,
0,
0,
0,
0,
0,
0,
0,
0,
0,
0,
0,
0,
0,
0,
0,
0,
0,
0,
0,
0,
0,
0,
0,
0,
0,
0,
0,
0,
0,
0,
0,
0,
0,
0,
0,
0,
0,
0,
0,
0,
0,
0,
0,
0,
0,
0,
0,
0,
0,
0,
0,
0,
0,
0,
0,
0,
0,
0,
0,
0,
0,
0,
0,
0,
0,
0,
0,
0,
0,
0,
0,
0,
0,
0,
0,
0,
0,
0,
0,
0,
0,
0,
0,
0,
0,
0,
0,
0,
0,
0,
0,
0,
0,
0,
0,
0,
0,
0,
0,
0,
0,
0,
0,
0,
0,
0,
0,
0,
0,
0,
0,
0,
0,
0,
0,
0,
0,
0,
0,
0,
0,
0,
0,
0,
0,
0,
0,
0,
0,
0,
0,
0,
0,
0,
0,
0,
0,
0,
0,
0,
0,
0,
0,
0,
0,
0,
0,
0,
0,
0,
0,
0,
0,
0,
0,
0,
0,
0,
0,
0,
0,
0,
0,
0,
0,
0,
0,
0,
0,
0,
0,
0,
0,
0,
0,
0,
0,
0,
0,
0,
0,
0,
0,
0,
0,
0,
0,
0,
0,
0,
0,
0,
0,
0,
0,
0,
0,
0,
0,
0,
0,
0,
0,
0,
0,
0,
0,
0,
0,
0,
0,
0,
0,
0,
0,
0,
0,
0,
0,
0,
0,
0,
0,
0,
0,
0,
0,
0,
0,
0,
0,
0,
0,
0,
0,
0,
0,
0,
0,
0,
0,
0,
0,
0,
0,
0,
0,
0,
0,
0,
0,
0,
0,
0,
0,
0,
0,
0,
0,
0,
0,
0,
0,
0,
0,
0,
0,
0,
0,
0,
0,
0,
0,
0,
0,
0,
0,
0,
0,
0,
0,
0,
0,
0,
0,
0,
0,
0,
0,
0,
0,
0,
0,
0,
0,
0,
0,
0,
0,
0,
0,
0,
0,
0,
0,
0,
0,
0,
0,
0,
0,
0,
0,
0,
0,
0,
0,
0,
0,
0,
0,
0,
0,
0,
0,
0,
0,
0,
0,
0,
0,
0,
0,
0,
0,
0,
0,
0,
0,
0,
0,
0,
0,
0,
0,
0,
0,
0,
0,
0,
0,
0,
0,
0,
0,
0,
0,
0,
0,
0,
0,
0,
0,
0,
0,
0,
0,
0,
0,
0,
0,
0,
0,
0,
0,
0,
0,
0,
0,
0,
0,
0,
0,
0,
0,
0,
0,
0,
0,
0,
0,
0,
0,
0,
0,
0,
0,
0,
0,
0,
0,
0,
0,
0,
0,
0,
0,
0,
0,
0,
0,
0,
0,
0,
0,
0,
0,
0,
0,
0,
0,
0,
0,
0,
0,
0,
0,
0,
0,
0,
0,
0,
0,
0,
0,
0,
0,
0,
0,
0,
0,
0,
0,
0,
0,
0,
0,
0,
0,
0,
0,
0,
0,
0,
0,
0,
0,
0,
0,
0,
0,
0,
0,
0,
0,
0,
0,
0,
0,
0,
0,
0,
0,
0,
0,
0,
0,
0,
0,
0,
0,
0,
0,
0,
0,
0,
0,
0,
0,
0,
0,
0,
0,
0,
0,
0,
0,
0,
0,
0,
0,
0,
0,
0,
0,
0,
0,
0,
0,
0,
0,
0,
0,
0,
0,
0,
0,
0,
0,
0,
0,
0,
0,
0,
0,
0,
0,
0,
0,
0,
0,
0,
0,
0,
0,
0,
0,
0,
0,
0,
0,
0,
0,
0,
0,
0,
0,
0,
0,
0,
0,
0,
0,
0,
0,
0,
0,
0,
0,
0,
0,
0,
0,
0,
0,
0,
0,
0,
0,
0,
0,
0,
0,
0,
0,
0,
0,
0,
#ENDOFDATA   :