File: N132962/Quantification/15 keV/Mengason MM2/MMM2 MgAl2O4[5][4].msa
#FORMAT      : EMSA/MAS Spectral Data File
#VERSION     : 1.0
#TITLE       : MMM2 MgAl2O4[5][all]
#DATE        : 28-SEP-2025
#TIME        : 21:23
#OWNER       : Unknown
#NPOINTS     : 4096
#NCOLUMNS    : 1
#XUNITS      : eV
#YUNITS      : counts
#DATATYPE    : Y
#XPERCHAN    : 9.99778
#OFFSET      : 1.69135
#BEAMKV      : 15
#SIGNALTYPE  : EDS
#ELEVANGLE   : 35
#AZIMANGLE   : 0
#LIVETIME    : 240.396
#REALTIME    : 258.927
#PROBECUR    : 1.21217
#TAUWIND     : 0
#TDEADLYR    : 0
#TACTLYR     : 0.045
#TALWIND     : 0.025
#CHOFFSET    : 0.0
#XLABEL      : Energy (eV)
#YLABEL      : Counts
#XPOSITION   : -21.66677
#YPOSITION   : -2.711
#ZPOSITION   : 34.11879
#EDSDET      : SD
##SPECIMEN   : MMM2 MgAl2O4[5][all]
##D2STDCMP   : MgAl2O4,(O:44.9839),(Mg:17.0844),(Al:37.9316)
##DET_HASH   : 12273538-fd48-a23f-0a19-f1e6fa85caef
##CALIB_HASH : 6abaa72c-aa41-8738-0be9-f592914732f3
##WORKING    : 15.0 mm
##DET_NAME   : EDAX All
##DET_MODE   : MediumLE
#SPECTRUM    :
23,
29,
9,
19,
89,
371,
1144,
3614,
10211,
12805,
6993,
3720,
3973,
5421,
10418,
39866,
152638,
290732,
210511,
54623,
7111,
2654,
2710,
2963,
3095,
3353,
3518,
3708,
3990,
4122,
4189,
4401,
4594,
5105,
5526,
5797,
5808,
6281,
7476,
15956,
55187,
134555,
161222,
91196,
28329,
9623,
10106,
35551,
130619,
269887,
272913,
137723,
40780,
10841,
4339,
2923,
2651,
2889,
3303,
3509,
3355,
2796,
2467,
2279,
2461,
2824,
3398,
3470,
3134,
2623,
2418,
2343,
2261,
2439,
2170,
2246,
2324,
2199,
2256,
2208,
2224,
2285,
2244,
2398,
2374,
2271,
2188,
2145,
2137,
2224,
2464,
2566,
2518,
2428,
2084,
2066,
1986,
2142,
2383,
2516,
2331,
2162,
1935,
1775,
1903,
1857,
1807,
1871,
1769,
1731,
1677,
1707,
1731,
1621,
1630,
1702,
1622,
1580,
1632,
1544,
1553,
1588,
1480,
1484,
1580,
1510,
1548,
1416,
1440,
1492,
1460,
1352,
1385,
1391,
1389,
1352,
1352,
1251,
1235,
1354,
1253,
1266,
1285,
1318,
1291,
1170,
1213,
1164,
1301,
1173,
1221,
1210,
1226,
1145,
1174,
1147,
1103,
1085,
1112,
1139,
1056,
1042,
1028,
1138,
1072,
990,
1000,
1010,
995,
940,
907,
982,
982,
911,
961,
949,
944,
943,
938,
872,
926,
867,
952,
921,
795,
818,
857,
850,
860,
832,
813,
815,
805,
811,
815,
806,
745,
745,
779,
748,
779,
733,
769,
707,
727,
667,
726,
698,
709,
708,
683,
707,
699,
701,
658,
697,
700,
657,
629,
595,
593,
614,
620,
610,
582,
563,
625,
584,
585,
609,
540,
600,
555,
494,
580,
562,
568,
516,
540,
542,
542,
499,
501,
529,
475,
491,
534,
497,
501,
509,
463,
431,
440,
458,
433,
449,
474,
427,
451,
440,
445,
416,
436,
425,
443,
409,
443,
442,
396,
380,
418,
384,
363,
379,
354,
381,
385,
394,
377,
324,
382,
327,
342,
335,
333,
352,
344,
354,
313,
332,
322,
338,
320,
293,
327,
291,
298,
312,
321,
265,
291,
345,
275,
277,
287,
273,
272,
276,
272,
286,
250,
247,
261,
279,
250,
274,
255,
239,
242,
242,
257,
212,
246,
250,
210,
210,
233,
262,
227,
255,
219,
196,
208,
206,
229,
191,
195,
216,
202,
182,
193,
199,
202,
231,
175,
170,
170,
160,
140,
177,
168,
148,
143,
183,
178,
133,
153,
171,
156,
149,
150,
170,
162,
162,
163,
134,
155,
168,
165,
135,
144,
133,
154,
158,
108,
122,
128,
128,
111,
128,
115,
115,
115,
122,
113,
100,
109,
116,
106,
91,
124,
94,
102,
91,
82,
88,
104,
89,
102,
79,
98,
89,
78,
89,
80,
79,
82,
70,
80,
71,
77,
90,
79,
67,
83,
76,
65,
64,
58,
53,
64,
72,
70,
60,
50,
55,
55,
60,
60,
60,
46,
44,
54,
52,
52,
47,
42,
30,
46,
35,
35,
36,
47,
43,
43,
37,
30,
41,
28,
27,
40,
46,
30,
28,
33,
21,
28,
23,
24,
20,
20,
27,
24,
26,
22,
23,
16,
19,
15,
19,
18,
22,
17,
14,
16,
16,
8,
16,
10,
17,
7,
9,
9,
17,
12,
10,
13,
3,
5,
4,
7,
8,
8,
4,
1,
2,
1,
2,
1,
2,
2,
2,
0,
0,
0,
0,
0,
0,
0,
0,
0,
0,
1,
0,
0,
2,
0,
0,
0,
0,
0,
1,
1,
0,
0,
0,
0,
0,
0,
0,
0,
0,
1,
0,
0,
0,
1,
0,
0,
0,
0,
0,
0,
0,
0,
0,
0,
0,
0,
0,
0,
0,
0,
0,
0,
0,
0,
0,
0,
0,
0,
0,
0,
1,
0,
0,
0,
0,
0,
0,
0,
0,
0,
0,
0,
0,
0,
0,
0,
0,
0,
0,
0,
0,
0,
0,
0,
0,
0,
0,
0,
0,
0,
0,
0,
0,
0,
0,
0,
0,
0,
0,
0,
0,
0,
0,
0,
0,
0,
0,
0,
0,
0,
0,
0,
0,
0,
0,
0,
0,
0,
0,
0,
0,
0,
0,
0,
0,
0,
0,
0,
0,
0,
0,
0,
0,
0,
0,
0,
0,
0,
0,
0,
0,
0,
0,
0,
0,
0,
0,
0,
0,
0,
0,
0,
0,
0,
0,
0,
0,
0,
0,
0,
0,
0,
0,
0,
0,
0,
0,
0,
0,
0,
0,
0,
0,
0,
0,
1,
0,
0,
0,
0,
0,
0,
0,
0,
0,
0,
0,
0,
0,
0,
0,
0,
0,
0,
0,
0,
0,
0,
0,
0,
0,
0,
0,
0,
0,
0,
0,
0,
0,
0,
0,
0,
0,
0,
0,
0,
0,
0,
0,
0,
0,
0,
0,
0,
0,
0,
0,
0,
0,
0,
0,
0,
0,
0,
0,
0,
0,
0,
0,
0,
0,
0,
0,
0,
0,
0,
0,
0,
0,
0,
0,
0,
0,
0,
0,
0,
0,
0,
0,
0,
0,
0,
0,
0,
0,
0,
0,
0,
0,
0,
0,
0,
0,
0,
0,
0,
0,
0,
0,
0,
0,
0,
0,
0,
0,
0,
0,
0,
0,
0,
0,
0,
0,
0,
0,
0,
0,
0,
0,
0,
0,
0,
0,
0,
0,
0,
0,
0,
0,
0,
0,
0,
0,
0,
0,
0,
0,
0,
0,
0,
0,
0,
0,
0,
0,
0,
0,
0,
0,
0,
0,
0,
0,
0,
0,
0,
0,
0,
0,
0,
0,
0,
0,
0,
0,
0,
0,
0,
0,
0,
0,
0,
0,
0,
0,
0,
0,
0,
0,
0,
0,
0,
0,
0,
0,
0,
0,
0,
0,
0,
0,
0,
0,
0,
0,
0,
0,
0,
0,
0,
0,
0,
0,
0,
0,
0,
0,
0,
0,
0,
0,
0,
0,
0,
0,
0,
0,
0,
0,
0,
0,
0,
0,
0,
0,
0,
0,
0,
0,
0,
0,
0,
0,
0,
0,
0,
0,
0,
0,
0,
0,
0,
0,
0,
0,
0,
0,
0,
0,
0,
0,
0,
0,
0,
0,
0,
0,
0,
0,
0,
0,
0,
0,
0,
0,
0,
0,
0,
0,
0,
0,
0,
0,
0,
0,
0,
0,
0,
0,
0,
0,
0,
0,
0,
0,
0,
0,
0,
0,
0,
0,
0,
0,
0,
0,
0,
0,
0,
0,
0,
0,
0,
0,
0,
0,
0,
0,
0,
0,
0,
0,
0,
0,
0,
0,
0,
0,
0,
0,
0,
0,
0,
0,
0,
0,
0,
0,
0,
0,
0,
0,
0,
0,
0,
0,
0,
0,
0,
0,
0,
0,
0,
0,
0,
0,
0,
0,
0,
0,
0,
0,
0,
0,
0,
0,
0,
0,
0,
0,
0,
0,
0,
0,
0,
0,
0,
0,
0,
0,
0,
0,
0,
0,
0,
0,
0,
0,
0,
0,
0,
0,
0,
0,
0,
0,
0,
0,
0,
0,
0,
0,
0,
0,
0,
0,
0,
0,
0,
0,
0,
0,
0,
0,
0,
0,
0,
0,
0,
0,
0,
0,
0,
0,
0,
0,
0,
0,
0,
0,
0,
0,
0,
0,
0,
0,
0,
0,
0,
0,
0,
0,
0,
0,
0,
0,
0,
0,
0,
0,
0,
0,
0,
0,
0,
0,
0,
0,
0,
0,
0,
0,
0,
0,
0,
0,
0,
0,
0,
0,
0,
0,
0,
0,
0,
0,
0,
0,
0,
0,
0,
0,
0,
0,
0,
0,
0,
0,
0,
0,
0,
0,
0,
0,
0,
0,
0,
0,
0,
0,
0,
0,
0,
0,
0,
0,
0,
0,
0,
0,
0,
0,
0,
0,
0,
0,
0,
0,
0,
0,
0,
0,
0,
0,
0,
0,
0,
0,
0,
0,
0,
0,
0,
0,
0,
0,
0,
0,
0,
0,
0,
0,
0,
0,
0,
0,
0,
0,
0,
0,
0,
0,
0,
0,
0,
0,
0,
0,
0,
0,
0,
0,
0,
0,
0,
0,
0,
0,
0,
0,
0,
0,
0,
0,
0,
0,
0,
0,
0,
0,
0,
0,
0,
0,
0,
0,
0,
0,
0,
0,
0,
0,
0,
0,
0,
0,
0,
0,
0,
0,
0,
0,
0,
0,
0,
0,
0,
0,
0,
0,
0,
0,
0,
0,
0,
0,
0,
0,
0,
0,
0,
0,
0,
0,
0,
0,
0,
0,
0,
0,
0,
0,
0,
0,
0,
0,
0,
0,
0,
0,
0,
0,
0,
0,
0,
0,
0,
0,
0,
0,
0,
0,
0,
0,
0,
0,
0,
0,
0,
0,
0,
0,
0,
0,
0,
0,
0,
0,
0,
0,
0,
0,
0,
0,
0,
0,
0,
0,
0,
0,
0,
0,
0,
0,
0,
0,
0,
0,
0,
0,
0,
0,
0,
0,
#ENDOFDATA   :