File: N132962/Quantification/15 keV/Mengason MM2/MMM2 Quartz[6][4].msa
#FORMAT      : EMSA/MAS Spectral Data File
#VERSION     : 1.0
#TITLE       : MMM2 Quartz[6][all]
#DATE        : 28-SEP-2025
#TIME        : 22:36
#OWNER       : Unknown
#NPOINTS     : 4096
#NCOLUMNS    : 1
#XUNITS      : eV
#YUNITS      : counts
#DATATYPE    : Y
#XPERCHAN    : 9.99778
#OFFSET      : 1.69135
#BEAMKV      : 15
#SIGNALTYPE  : EDS
#ELEVANGLE   : 35
#AZIMANGLE   : 0
#LIVETIME    : 240.266
#REALTIME    : 258.479
#PROBECUR    : 1.21261
#TAUWIND     : 0
#TDEADLYR    : 0
#TACTLYR     : 0.045
#TALWIND     : 0.025
#CHOFFSET    : 0.0
#XLABEL      : Energy (eV)
#YLABEL      : Counts
#XPOSITION   : -14.54062
#YPOSITION   : 0.48223
#ZPOSITION   : 34.11879
#EDSDET      : SD
##SPECIMEN   : MMM2 Quartz[6][all]
##D2STDCMP   : Quartz,(O:53.2565),(Si:46.7435),2.65
##DET_HASH   : 12273538-fd48-a23f-0a19-f1e6fa85caef
##CALIB_HASH : 6abaa72c-aa41-8738-0be9-f592914732f3
##WORKING    : 15.0 mm
##DET_NAME   : EDAX All
##DET_MODE   : MediumLE
#SPECTRUM    :
26,
31,
11,
16,
117,
389,
1111,
3608,
10227,
13217,
6966,
3597,
3723,
5068,
10107,
39057,
150308,
286410,
205692,
53196,
6704,
2410,
2454,
2657,
2815,
2844,
3060,
3289,
3404,
3451,
3716,
3808,
3950,
4257,
4665,
4689,
4491,
4443,
4537,
4445,
4440,
4684,
4575,
4772,
4768,
4950,
4918,
5093,
5485,
5817,
6062,
6108,
6159,
6535,
8837,
28058,
116981,
305481,
414871,
291409,
114622,
36557,
14849,
6557,
3177,
2319,
2290,
2335,
2255,
2260,
2277,
2268,
2290,
2668,
3372,
3885,
3657,
2953,
2427,
2307,
2139,
2129,
2169,
2088,
2085,
2107,
2065,
2049,
2078,
2099,
2021,
2062,
1977,
1995,
1921,
1919,
1906,
1982,
2002,
1885,
1894,
1853,
1844,
1822,
1849,
1754,
1857,
1793,
1771,
1812,
1780,
1703,
1756,
1811,
2012,
2421,
2580,
2374,
2145,
1735,
1698,
1535,
1529,
1561,
1529,
1514,
1480,
1483,
1446,
1438,
1468,
1439,
1439,
1396,
1316,
1327,
1356,
1311,
1300,
1358,
1335,
1255,
1352,
1183,
1292,
1217,
1234,
1193,
1229,
1180,
1199,
1236,
1168,
1132,
1080,
1129,
1107,
1114,
1056,
1096,
1101,
1062,
1049,
1057,
1033,
1032,
1044,
968,
1027,
1011,
1007,
944,
979,
946,
940,
950,
931,
865,
876,
916,
892,
911,
918,
927,
854,
859,
847,
817,
878,
822,
869,
806,
781,
810,
795,
755,
842,
777,
750,
747,
756,
741,
731,
690,
742,
728,
705,
735,
709,
725,
641,
667,
702,
702,
714,
708,
647,
670,
610,
598,
667,
625,
618,
575,
654,
557,
599,
613,
626,
589,
518,
614,
541,
565,
527,
539,
562,
499,
529,
528,
560,
491,
471,
548,
474,
483,
527,
502,
471,
508,
448,
473,
471,
477,
427,
461,
457,
453,
409,
448,
436,
449,
398,
434,
387,
468,
398,
415,
391,
358,
427,
385,
401,
367,
389,
368,
399,
391,
353,
382,
365,
337,
365,
357,
352,
323,
311,
337,
331,
349,
299,
320,
320,
358,
319,
349,
292,
306,
323,
302,
269,
310,
273,
309,
318,
293,
282,
268,
290,
286,
265,
293,
279,
269,
249,
234,
241,
252,
259,
223,
258,
225,
234,
233,
234,
206,
222,
215,
235,
223,
217,
203,
197,
185,
226,
213,
194,
192,
186,
195,
170,
169,
204,
187,
168,
182,
166,
189,
186,
169,
163,
172,
170,
164,
171,
183,
174,
176,
168,
152,
175,
148,
157,
135,
145,
164,
153,
132,
154,
145,
133,
147,
137,
131,
131,
127,
132,
131,
146,
124,
116,
130,
122,
123,
112,
119,
108,
111,
104,
119,
103,
115,
90,
95,
94,
105,
99,
90,
96,
86,
86,
97,
76,
81,
76,
74,
75,
90,
85,
72,
83,
94,
62,
66,
70,
59,
66,
67,
64,
89,
54,
57,
60,
51,
61,
61,
71,
60,
52,
51,
56,
53,
48,
48,
53,
53,
42,
33,
65,
39,
43,
50,
55,
35,
43,
32,
34,
38,
31,
49,
32,
32,
38,
19,
40,
38,
27,
23,
33,
22,
30,
26,
19,
21,
23,
22,
22,
18,
25,
13,
24,
15,
18,
15,
23,
19,
8,
16,
14,
18,
7,
18,
9,
7,
7,
7,
9,
5,
4,
3,
4,
4,
2,
2,
5,
3,
2,
2,
1,
2,
1,
0,
0,
1,
0,
0,
0,
1,
0,
0,
0,
1,
0,
0,
0,
0,
0,
0,
0,
0,
0,
1,
0,
1,
0,
2,
0,
1,
1,
0,
0,
1,
0,
1,
0,
0,
0,
0,
0,
0,
0,
0,
0,
0,
0,
0,
0,
0,
0,
0,
0,
0,
0,
0,
0,
1,
0,
0,
0,
0,
0,
0,
0,
0,
0,
0,
0,
0,
0,
0,
0,
1,
0,
0,
0,
0,
0,
1,
0,
0,
0,
0,
0,
0,
0,
0,
0,
0,
0,
0,
0,
0,
0,
0,
0,
0,
0,
0,
0,
0,
0,
0,
0,
0,
0,
0,
0,
0,
0,
0,
0,
0,
0,
0,
0,
0,
0,
0,
0,
1,
0,
0,
0,
1,
0,
0,
0,
0,
0,
0,
0,
0,
0,
0,
0,
0,
0,
0,
0,
0,
0,
0,
0,
0,
0,
0,
0,
0,
0,
0,
0,
0,
0,
0,
0,
0,
0,
0,
0,
0,
0,
0,
0,
0,
0,
0,
0,
0,
0,
0,
0,
0,
0,
0,
0,
0,
0,
0,
0,
0,
0,
0,
0,
0,
0,
0,
0,
0,
0,
0,
0,
0,
0,
0,
0,
0,
0,
0,
0,
0,
0,
0,
0,
0,
0,
0,
0,
0,
0,
0,
0,
0,
1,
0,
0,
0,
0,
0,
0,
0,
0,
0,
0,
0,
0,
0,
0,
0,
0,
0,
0,
0,
0,
0,
0,
0,
0,
0,
0,
0,
0,
0,
0,
0,
0,
0,
0,
0,
0,
0,
0,
0,
0,
0,
0,
0,
0,
0,
0,
0,
0,
0,
0,
0,
0,
0,
0,
0,
0,
0,
0,
0,
0,
0,
0,
0,
0,
0,
0,
0,
0,
0,
0,
0,
0,
0,
0,
0,
0,
0,
0,
0,
0,
0,
0,
0,
0,
0,
0,
0,
0,
0,
0,
0,
0,
0,
0,
0,
0,
0,
0,
0,
0,
0,
0,
0,
0,
0,
0,
0,
0,
0,
0,
0,
0,
0,
0,
0,
0,
0,
0,
0,
0,
0,
0,
0,
0,
0,
0,
0,
0,
0,
0,
0,
0,
0,
0,
0,
0,
0,
0,
0,
0,
0,
0,
0,
0,
0,
0,
0,
0,
0,
0,
0,
0,
0,
0,
0,
0,
0,
0,
0,
0,
0,
0,
0,
0,
0,
0,
0,
0,
0,
0,
0,
0,
0,
0,
0,
0,
0,
0,
0,
0,
0,
0,
0,
0,
0,
0,
0,
0,
0,
0,
0,
0,
0,
0,
0,
0,
0,
0,
0,
0,
0,
0,
0,
0,
0,
0,
0,
0,
0,
0,
0,
0,
0,
0,
0,
0,
0,
0,
0,
0,
0,
0,
0,
0,
0,
0,
0,
0,
0,
0,
0,
0,
0,
0,
0,
0,
0,
0,
0,
0,
0,
0,
0,
0,
0,
0,
0,
0,
0,
0,
0,
0,
0,
0,
0,
0,
0,
0,
0,
0,
0,
0,
0,
0,
0,
0,
0,
0,
0,
0,
0,
0,
0,
0,
0,
0,
0,
0,
0,
0,
0,
0,
0,
0,
0,
0,
0,
0,
0,
0,
0,
0,
0,
0,
0,
0,
0,
0,
0,
0,
0,
0,
0,
0,
0,
0,
0,
0,
0,
0,
0,
0,
0,
0,
0,
0,
0,
0,
0,
0,
0,
0,
0,
0,
0,
0,
0,
0,
0,
0,
0,
0,
0,
0,
0,
0,
0,
0,
0,
0,
0,
0,
0,
0,
0,
0,
0,
0,
0,
0,
0,
0,
0,
0,
0,
0,
0,
0,
0,
0,
0,
0,
0,
0,
0,
0,
0,
0,
0,
0,
0,
0,
0,
0,
0,
0,
0,
0,
0,
0,
0,
0,
0,
0,
0,
0,
0,
0,
0,
0,
0,
0,
0,
0,
0,
0,
0,
0,
0,
0,
0,
0,
0,
0,
0,
0,
0,
0,
0,
0,
0,
0,
0,
0,
0,
0,
0,
0,
0,
0,
0,
0,
0,
0,
0,
0,
0,
0,
0,
0,
0,
0,
0,
0,
0,
0,
0,
0,
0,
0,
0,
0,
0,
0,
0,
0,
0,
0,
0,
0,
0,
0,
0,
0,
0,
0,
0,
0,
0,
0,
0,
0,
0,
0,
0,
0,
0,
0,
0,
0,
0,
0,
0,
0,
0,
0,
0,
0,
0,
0,
0,
0,
0,
0,
0,
0,
0,
0,
0,
0,
0,
0,
0,
0,
0,
0,
0,
0,
0,
0,
0,
0,
0,
0,
0,
0,
0,
0,
0,
0,
0,
0,
0,
0,
0,
0,
0,
0,
0,
0,
0,
0,
0,
0,
0,
0,
0,
0,
0,
0,
0,
0,
0,
0,
0,
0,
0,
0,
0,
0,
0,
0,
0,
0,
0,
0,
0,
0,
0,
0,
0,
0,
0,
0,
0,
0,
0,
0,
0,
0,
0,
0,
0,
0,
0,
0,
0,
0,
0,
0,
0,
0,
0,
0,
0,
0,
0,
0,
0,
0,
0,
0,
0,
0,
0,
0,
0,
0,
0,
0,
0,
0,
0,
0,
0,
0,
0,
0,
0,
0,
0,
0,
0,
0,
0,
0,
0,
0,
0,
0,
0,
0,
0,
0,
0,
0,
0,
0,
0,
0,
0,
0,
0,
0,
0,
0,
0,
0,
0,
0,
0,
0,
0,
0,
0,
0,
0,
0,
0,
0,
0,
0,
0,
0,
0,
0,
0,
0,
0,
0,
0,
0,
0,
#ENDOFDATA   :