File: N132962/Quantification/15 keV/Mengason MM2/MMM2 Quartz[7][4].msa
#FORMAT      : EMSA/MAS Spectral Data File
#VERSION     : 1.0
#TITLE       : MMM2 Quartz[7][all]
#DATE        : 28-SEP-2025
#TIME        : 22:37
#OWNER       : Unknown
#NPOINTS     : 4096
#NCOLUMNS    : 1
#XUNITS      : eV
#YUNITS      : counts
#DATATYPE    : Y
#XPERCHAN    : 9.99778
#OFFSET      : 1.69135
#BEAMKV      : 15
#SIGNALTYPE  : EDS
#ELEVANGLE   : 35
#AZIMANGLE   : 0
#LIVETIME    : 240.263
#REALTIME    : 258.47
#PROBECUR    : 1.21261
#TAUWIND     : 0
#TDEADLYR    : 0
#TACTLYR     : 0.045
#TALWIND     : 0.025
#CHOFFSET    : 0.0
#XLABEL      : Energy (eV)
#YLABEL      : Counts
#XPOSITION   : -14.5256
#YPOSITION   : 0.46952
#ZPOSITION   : 34.11879
#EDSDET      : SD
##SPECIMEN   : MMM2 Quartz[7][all]
##D2STDCMP   : Quartz,(O:53.2565),(Si:46.7435),2.65
##DET_HASH   : 12273538-fd48-a23f-0a19-f1e6fa85caef
##CALIB_HASH : 6abaa72c-aa41-8738-0be9-f592914732f3
##WORKING    : 15.0 mm
##DET_NAME   : EDAX All
##DET_MODE   : MediumLE
#SPECTRUM    :
29,
21,
8,
27,
89,
366,
1080,
3628,
10237,
13309,
6754,
3517,
3627,
5052,
10043,
38864,
150144,
287767,
206220,
53198,
6536,
2450,
2507,
2613,
2761,
2848,
3075,
3128,
3289,
3563,
3686,
3791,
4030,
4454,
4661,
4666,
4624,
4534,
4414,
4373,
4647,
4649,
4552,
4781,
4868,
4846,
5028,
5111,
5389,
5857,
5908,
6177,
6203,
6608,
8771,
27687,
115588,
304825,
415413,
291786,
113557,
36410,
14520,
6518,
3175,
2428,
2192,
2231,
2306,
2175,
2178,
2239,
2425,
2730,
3361,
3805,
3684,
2913,
2427,
2221,
2142,
2078,
2146,
2109,
2141,
2097,
2096,
2120,
2075,
2062,
2017,
2016,
2027,
1945,
1983,
1926,
1910,
1915,
1899,
1856,
1841,
1889,
1852,
1797,
1782,
1829,
1758,
1741,
1710,
1721,
1746,
1738,
1732,
1846,
2091,
2376,
2667,
2426,
2076,
1823,
1680,
1578,
1519,
1533,
1508,
1500,
1483,
1393,
1460,
1423,
1441,
1413,
1398,
1338,
1330,
1337,
1297,
1298,
1386,
1307,
1282,
1276,
1236,
1220,
1267,
1244,
1197,
1191,
1180,
1237,
1168,
1189,
1177,
1108,
1107,
1169,
1144,
1085,
1113,
1096,
1077,
1107,
1058,
1056,
1045,
1018,
990,
1030,
970,
1023,
989,
1024,
964,
952,
928,
998,
928,
943,
909,
933,
928,
911,
869,
856,
891,
828,
840,
799,
878,
809,
764,
834,
764,
825,
782,
781,
783,
799,
755,
760,
729,
675,
766,
733,
694,
774,
733,
701,
673,
639,
663,
712,
695,
697,
694,
689,
654,
658,
642,
653,
610,
628,
640,
599,
615,
612,
576,
547,
555,
609,
581,
592,
514,
521,
611,
552,
546,
536,
490,
518,
531,
511,
478,
499,
520,
504,
488,
519,
494,
491,
498,
466,
467,
484,
420,
437,
441,
447,
452,
423,
410,
420,
446,
453,
444,
423,
385,
424,
420,
368,
411,
401,
391,
415,
358,
402,
372,
387,
401,
347,
369,
376,
364,
337,
381,
315,
352,
346,
331,
327,
330,
336,
300,
329,
315,
313,
314,
309,
293,
301,
290,
290,
286,
289,
279,
274,
281,
265,
304,
284,
292,
266,
268,
256,
277,
292,
264,
279,
242,
257,
263,
255,
236,
228,
242,
236,
228,
229,
242,
220,
199,
218,
242,
229,
217,
226,
190,
232,
220,
200,
196,
189,
188,
191,
176,
189,
191,
208,
175,
165,
165,
164,
171,
179,
161,
166,
163,
156,
152,
133,
172,
140,
153,
167,
168,
156,
146,
167,
143,
133,
137,
135,
135,
130,
133,
120,
101,
116,
132,
126,
95,
123,
111,
116,
129,
107,
98,
115,
108,
94,
105,
109,
93,
99,
96,
90,
83,
95,
103,
89,
84,
73,
84,
71,
74,
76,
68,
84,
57,
69,
83,
70,
66,
63,
57,
73,
68,
59,
57,
56,
59,
51,
70,
47,
65,
58,
60,
58,
54,
62,
56,
44,
40,
59,
42,
49,
52,
41,
47,
43,
43,
38,
32,
26,
52,
36,
37,
32,
42,
36,
40,
35,
20,
26,
29,
28,
27,
16,
16,
30,
26,
33,
27,
23,
16,
23,
22,
20,
15,
21,
23,
14,
19,
19,
16,
14,
18,
10,
19,
18,
12,
10,
14,
18,
9,
7,
9,
5,
6,
7,
9,
1,
1,
3,
4,
5,
2,
0,
1,
1,
0,
0,
0,
0,
0,
0,
0,
1,
0,
0,
0,
0,
0,
0,
2,
0,
0,
0,
1,
0,
0,
1,
0,
0,
0,
0,
1,
0,
0,
0,
0,
0,
0,
1,
0,
2,
0,
0,
0,
0,
0,
0,
0,
0,
1,
0,
0,
0,
0,
0,
0,
0,
0,
0,
0,
0,
0,
0,
0,
0,
0,
0,
0,
0,
0,
0,
0,
0,
0,
0,
0,
0,
0,
0,
0,
0,
0,
0,
0,
0,
0,
0,
0,
0,
0,
0,
0,
0,
0,
1,
0,
0,
0,
0,
0,
0,
0,
0,
0,
0,
0,
0,
0,
0,
0,
0,
0,
0,
0,
0,
0,
0,
0,
0,
0,
0,
0,
0,
0,
0,
0,
0,
0,
0,
0,
0,
0,
0,
0,
0,
0,
0,
0,
0,
0,
0,
0,
0,
0,
0,
0,
0,
0,
0,
0,
0,
0,
0,
0,
0,
0,
0,
0,
0,
0,
0,
0,
0,
0,
0,
0,
0,
0,
0,
0,
0,
0,
0,
0,
0,
0,
0,
0,
0,
0,
0,
0,
0,
0,
0,
0,
0,
0,
0,
0,
0,
0,
0,
0,
0,
1,
0,
0,
0,
0,
0,
0,
0,
0,
0,
0,
0,
0,
0,
0,
0,
0,
0,
0,
0,
0,
0,
0,
0,
0,
0,
0,
0,
0,
0,
0,
0,
0,
0,
0,
0,
0,
0,
0,
0,
0,
0,
0,
0,
0,
0,
0,
0,
0,
0,
0,
0,
0,
0,
0,
0,
0,
0,
0,
1,
0,
0,
0,
0,
0,
0,
0,
0,
0,
0,
0,
0,
0,
0,
0,
0,
0,
0,
0,
0,
0,
0,
0,
0,
0,
0,
0,
0,
0,
0,
0,
0,
0,
0,
0,
0,
0,
0,
0,
0,
0,
0,
0,
0,
0,
0,
0,
0,
0,
0,
0,
0,
0,
0,
0,
0,
0,
0,
0,
0,
0,
0,
0,
0,
0,
0,
0,
0,
0,
0,
0,
0,
0,
0,
0,
0,
0,
0,
0,
0,
0,
0,
0,
0,
0,
0,
0,
0,
0,
0,
0,
0,
0,
0,
0,
0,
0,
0,
0,
0,
0,
0,
0,
0,
0,
0,
0,
0,
0,
0,
0,
0,
0,
0,
0,
0,
0,
0,
0,
0,
0,
0,
0,
0,
0,
0,
0,
0,
0,
0,
0,
0,
0,
0,
0,
0,
0,
0,
0,
0,
0,
0,
0,
0,
0,
0,
0,
0,
0,
0,
0,
0,
0,
0,
0,
0,
0,
0,
0,
0,
0,
0,
0,
0,
0,
0,
0,
0,
0,
0,
0,
0,
0,
0,
0,
0,
0,
0,
0,
0,
0,
0,
0,
0,
0,
0,
0,
0,
0,
0,
0,
0,
0,
0,
0,
0,
0,
0,
0,
0,
0,
0,
0,
0,
0,
0,
0,
0,
0,
0,
0,
0,
0,
0,
0,
0,
0,
0,
0,
0,
0,
0,
0,
0,
0,
0,
0,
0,
0,
0,
0,
0,
0,
0,
0,
0,
0,
0,
0,
0,
0,
0,
0,
0,
0,
0,
0,
0,
0,
0,
0,
0,
0,
0,
0,
0,
0,
0,
0,
0,
0,
0,
0,
0,
0,
0,
0,
0,
0,
0,
0,
0,
0,
0,
0,
0,
0,
0,
0,
0,
0,
0,
0,
0,
0,
0,
0,
0,
0,
0,
0,
0,
0,
0,
0,
0,
0,
0,
0,
0,
0,
0,
0,
0,
0,
0,
0,
0,
0,
0,
0,
0,
0,
0,
0,
0,
0,
0,
0,
0,
0,
0,
0,
0,
0,
0,
0,
0,
0,
0,
0,
0,
0,
0,
0,
0,
0,
0,
0,
0,
0,
0,
0,
0,
0,
0,
0,
0,
0,
0,
0,
0,
0,
0,
0,
0,
0,
0,
0,
0,
0,
0,
0,
0,
0,
0,
0,
0,
0,
0,
0,
0,
0,
0,
0,
0,
0,
0,
0,
0,
0,
0,
0,
0,
0,
0,
0,
0,
0,
0,
0,
0,
0,
0,
0,
0,
0,
0,
0,
0,
0,
0,
0,
0,
0,
0,
0,
0,
0,
0,
0,
0,
0,
0,
0,
0,
0,
0,
0,
0,
0,
0,
0,
0,
0,
0,
0,
0,
0,
0,
0,
0,
0,
0,
0,
0,
0,
0,
0,
0,
0,
0,
0,
0,
0,
0,
0,
0,
0,
0,
0,
0,
0,
0,
0,
0,
0,
0,
0,
0,
0,
0,
0,
0,
0,
0,
0,
0,
0,
0,
0,
0,
0,
0,
0,
0,
0,
0,
0,
0,
0,
0,
0,
0,
0,
0,
0,
0,
0,
0,
0,
0,
0,
0,
0,
0,
0,
0,
0,
0,
0,
0,
0,
0,
0,
0,
0,
0,
0,
0,
0,
0,
0,
0,
0,
0,
0,
0,
0,
0,
0,
0,
0,
0,
0,
0,
0,
0,
0,
0,
0,
0,
0,
0,
0,
0,
0,
0,
0,
0,
0,
0,
0,
0,
0,
0,
0,
0,
0,
0,
0,
0,
0,
0,
0,
0,
0,
0,
0,
0,
0,
0,
0,
0,
0,
0,
0,
0,
0,
0,
0,
0,
0,
0,
0,
0,
0,
0,
0,
0,
0,
0,
0,
0,
0,
0,
0,
0,
0,
0,
0,
0,
0,
0,
0,
0,
0,
0,
0,
0,
0,
0,
0,
0,
0,
0,
0,
0,
0,
0,
0,
0,
0,
0,
0,
0,
#ENDOFDATA   :