File: N132962/Quantification/15 keV/Mengason MM2/MMM2 SrTiO3[2][4].msa
#FORMAT      : EMSA/MAS Spectral Data File
#VERSION     : 1.0
#TITLE       : MMM2 SrTiO3[2][all]
#DATE        : 29-SEP-2025
#TIME        : 00:15
#OWNER       : Unknown
#NPOINTS     : 4096
#NCOLUMNS    : 1
#XUNITS      : eV
#YUNITS      : counts
#DATATYPE    : Y
#XPERCHAN    : 9.99778
#OFFSET      : 1.69135
#BEAMKV      : 15
#SIGNALTYPE  : EDS
#ELEVANGLE   : 35
#AZIMANGLE   : 0
#LIVETIME    : 241.57
#REALTIME    : 258.021
#PROBECUR    : 1.21151
#TAUWIND     : 0
#TDEADLYR    : 0
#TACTLYR     : 0.045
#TALWIND     : 0.025
#CHOFFSET    : 0.0
#XLABEL      : Energy (eV)
#YLABEL      : Counts
#XPOSITION   : -15.19698
#YPOSITION   : 4.48657
#ZPOSITION   : 34.11879
#EDSDET      : SD
##SPECIMEN   : MMM2 SrTiO3[2][all]
##D2STDCMP   : SrTiO3,(O:26.1592),(Ti:26.0877),(Sr:47.7532)
##DET_HASH   : 12273538-fd48-a23f-0a19-f1e6fa85caef
##CALIB_HASH : 6abaa72c-aa41-8738-0be9-f592914732f3
##WORKING    : 15.0 mm
##DET_NAME   : EDAX All
##DET_MODE   : MediumLE
#SPECTRUM    :
18,
25,
18,
93,
355,
928,
2096,
6192,
16025,
19678,
10466,
6278,
9487,
12615,
14094,
19177,
40490,
69938,
51281,
15275,
4482,
3663,
4013,
4343,
4607,
4663,
4789,
5110,
5637,
5711,
5759,
5793,
6137,
6275,
6396,
6589,
6650,
6825,
7007,
6913,
6963,
7189,
7313,
7396,
7467,
7597,
7622,
7802,
7877,
8002,
8627,
10476,
14098,
15888,
14352,
12421,
11302,
16766,
47047,
125663,
197819,
188440,
129452,
78947,
40907,
19903,
10764,
6504,
4848,
4389,
4278,
4264,
4682,
4833,
4678,
4348,
4159,
4153,
4144,
4002,
3956,
3866,
3936,
3973,
3743,
3924,
3760,
3783,
3813,
3905,
4022,
4211,
4190,
4227,
3927,
3797,
3661,
3727,
3616,
3600,
3499,
3651,
3596,
3624,
3629,
3641,
3595,
3508,
3540,
3504,
3483,
3431,
3388,
3293,
3310,
3361,
3349,
3282,
3214,
3331,
3526,
3516,
3471,
3370,
3185,
3299,
3173,
3148,
3065,
2918,
2921,
2890,
2986,
2927,
2933,
2886,
2936,
2790,
2807,
2800,
2818,
2869,
2856,
2990,
3162,
3553,
5483,
11573,
26478,
47613,
62780,
58953,
39361,
19431,
7977,
3775,
2720,
2530,
2583,
2678,
2890,
3849,
5676,
8114,
9963,
9746,
7524,
4862,
3203,
2496,
2146,
2168,
2083,
2055,
2037,
2051,
1942,
2027,
1953,
1959,
1941,
1986,
1910,
1948,
1929,
1884,
1915,
1873,
1867,
1843,
1843,
1850,
1795,
1791,
1882,
1792,
1761,
1733,
1732,
1674,
1669,
1730,
1701,
1620,
1682,
1631,
1699,
1640,
1664,
1683,
1716,
1704,
1666,
1639,
1712,
1631,
1606,
1512,
1515,
1490,
1446,
1428,
1472,
1408,
1461,
1430,
1478,
1365,
1431,
1384,
1400,
1383,
1346,
1262,
1352,
1348,
1366,
1319,
1219,
1284,
1262,
1244,
1247,
1231,
1249,
1157,
1217,
1239,
1193,
1273,
1198,
1163,
1260,
1117,
1106,
1073,
1146,
1155,
1103,
1080,
1075,
1090,
1002,
1034,
974,
1038,
1014,
1073,
1069,
1054,
1052,
996,
970,
956,
907,
991,
982,
937,
932,
988,
927,
871,
935,
867,
912,
895,
852,
861,
889,
826,
905,
819,
823,
830,
825,
793,
803,
817,
812,
797,
787,
804,
778,
790,
725,
767,
745,
675,
695,
684,
777,
729,
675,
763,
753,
698,
683,
655,
673,
672,
703,
618,
630,
635,
653,
597,
608,
620,
578,
618,
577,
584,
596,
525,
589,
560,
573,
577,
577,
574,
560,
551,
525,
538,
531,
530,
509,
542,
459,
493,
538,
494,
508,
497,
457,
440,
469,
455,
441,
449,
421,
428,
406,
402,
460,
386,
357,
443,
394,
412,
392,
374,
398,
388,
391,
381,
347,
330,
360,
351,
366,
317,
346,
308,
312,
334,
303,
330,
302,
324,
313,
276,
319,
264,
290,
278,
265,
260,
296,
275,
258,
296,
229,
251,
255,
245,
271,
254,
226,
208,
224,
245,
235,
208,
223,
211,
221,
178,
204,
183,
181,
208,
207,
185,
184,
179,
160,
187,
184,
189,
173,
158,
159,
147,
126,
155,
141,
138,
133,
132,
119,
112,
148,
133,
124,
127,
155,
116,
103,
107,
103,
93,
101,
98,
91,
89,
69,
99,
79,
85,
70,
63,
75,
62,
62,
75,
60,
66,
56,
57,
57,
74,
51,
47,
52,
45,
50,
32,
49,
39,
39,
29,
28,
43,
27,
35,
16,
27,
20,
18,
14,
18,
19,
4,
9,
7,
9,
5,
6,
5,
2,
3,
3,
0,
2,
0,
2,
0,
1,
1,
0,
4,
1,
0,
0,
0,
2,
2,
3,
0,
1,
0,
2,
1,
3,
0,
0,
0,
0,
0,
0,
0,
0,
1,
0,
2,
1,
0,
1,
0,
1,
1,
0,
1,
0,
1,
1,
0,
0,
1,
0,
1,
1,
0,
0,
1,
0,
1,
0,
3,
0,
2,
0,
0,
0,
0,
1,
1,
1,
0,
1,
0,
0,
0,
1,
0,
0,
1,
1,
0,
0,
0,
1,
1,
1,
0,
1,
1,
0,
1,
2,
1,
0,
0,
1,
0,
1,
0,
0,
0,
1,
0,
0,
0,
1,
1,
0,
0,
0,
0,
1,
0,
0,
1,
0,
0,
1,
0,
0,
1,
0,
1,
0,
0,
0,
0,
0,
0,
0,
0,
0,
0,
0,
1,
0,
0,
0,
1,
0,
0,
0,
0,
1,
0,
1,
0,
0,
0,
0,
0,
0,
0,
1,
0,
0,
0,
0,
0,
0,
0,
0,
0,
0,
0,
0,
0,
0,
0,
0,
0,
0,
0,
0,
0,
0,
0,
0,
0,
1,
0,
0,
0,
0,
0,
1,
0,
0,
0,
0,
0,
0,
1,
0,
0,
0,
0,
0,
0,
0,
0,
0,
0,
0,
0,
1,
0,
0,
0,
0,
0,
0,
0,
0,
0,
0,
0,
0,
0,
0,
0,
0,
0,
0,
0,
0,
0,
0,
0,
0,
0,
0,
0,
0,
0,
0,
0,
0,
0,
0,
0,
0,
0,
0,
0,
0,
0,
0,
0,
0,
0,
0,
0,
0,
0,
0,
0,
0,
0,
0,
0,
0,
0,
0,
0,
0,
0,
0,
0,
0,
0,
0,
0,
0,
0,
0,
0,
0,
0,
0,
0,
0,
0,
0,
0,
0,
0,
0,
0,
0,
0,
0,
0,
0,
0,
0,
0,
0,
0,
0,
0,
0,
0,
0,
0,
0,
0,
0,
0,
0,
0,
0,
0,
0,
0,
0,
0,
1,
0,
0,
0,
0,
0,
0,
0,
0,
0,
0,
0,
0,
0,
0,
0,
0,
0,
0,
0,
0,
0,
0,
0,
0,
0,
0,
0,
0,
0,
0,
0,
0,
0,
0,
0,
0,
0,
0,
0,
0,
0,
0,
0,
0,
0,
0,
0,
0,
0,
0,
0,
0,
0,
0,
0,
0,
0,
0,
0,
0,
0,
0,
0,
0,
0,
0,
0,
1,
0,
0,
0,
0,
0,
0,
0,
0,
0,
0,
0,
0,
0,
0,
0,
0,
0,
0,
0,
0,
0,
0,
0,
0,
0,
0,
0,
0,
0,
0,
0,
0,
0,
0,
0,
0,
0,
0,
0,
0,
0,
0,
0,
0,
0,
0,
0,
0,
0,
0,
0,
0,
0,
0,
0,
0,
0,
0,
0,
0,
0,
0,
0,
0,
0,
0,
0,
0,
0,
0,
0,
0,
0,
0,
0,
0,
0,
0,
0,
0,
0,
0,
0,
0,
0,
0,
0,
0,
0,
0,
0,
0,
0,
0,
0,
0,
0,
0,
0,
0,
0,
0,
0,
0,
0,
0,
0,
0,
0,
0,
0,
0,
0,
0,
0,
0,
0,
0,
0,
0,
0,
0,
0,
0,
0,
0,
0,
0,
0,
0,
0,
0,
0,
0,
0,
0,
0,
0,
0,
0,
0,
0,
0,
0,
0,
0,
0,
0,
0,
0,
0,
0,
0,
0,
0,
0,
0,
0,
0,
0,
0,
0,
0,
0,
0,
0,
0,
0,
0,
0,
0,
0,
0,
0,
0,
0,
0,
0,
0,
0,
0,
0,
0,
0,
0,
0,
0,
0,
0,
0,
0,
0,
0,
0,
0,
0,
0,
0,
0,
0,
0,
0,
0,
0,
0,
0,
0,
0,
0,
0,
0,
0,
0,
0,
0,
0,
0,
0,
0,
0,
0,
0,
0,
0,
0,
0,
0,
0,
0,
0,
0,
0,
0,
0,
0,
0,
0,
0,
0,
0,
0,
0,
0,
0,
0,
0,
0,
0,
0,
0,
0,
0,
0,
0,
0,
0,
0,
0,
0,
0,
0,
0,
0,
0,
0,
0,
0,
0,
0,
0,
0,
0,
0,
0,
0,
0,
0,
0,
0,
0,
0,
0,
0,
0,
0,
0,
0,
0,
0,
0,
0,
0,
0,
0,
0,
0,
0,
0,
0,
0,
0,
0,
0,
0,
0,
0,
0,
0,
0,
0,
0,
0,
0,
0,
0,
0,
0,
0,
0,
0,
0,
0,
0,
0,
0,
0,
0,
0,
0,
0,
0,
0,
0,
0,
0,
0,
0,
0,
0,
0,
0,
0,
0,
0,
0,
0,
0,
0,
0,
0,
0,
0,
0,
0,
0,
0,
0,
0,
0,
0,
0,
0,
0,
0,
0,
0,
0,
0,
0,
0,
0,
0,
0,
0,
0,
0,
0,
0,
0,
0,
0,
0,
0,
0,
0,
0,
0,
0,
0,
0,
0,
0,
0,
0,
0,
0,
0,
0,
0,
0,
0,
0,
0,
0,
0,
0,
0,
0,
0,
0,
0,
0,
0,
0,
0,
0,
0,
0,
0,
0,
0,
0,
0,
0,
0,
0,
0,
0,
0,
0,
0,
0,
0,
0,
0,
0,
0,
0,
0,
0,
0,
0,
0,
0,
0,
0,
0,
0,
0,
0,
0,
0,
0,
0,
0,
0,
0,
0,
0,
0,
0,
0,
0,
0,
0,
0,
0,
0,
0,
0,
0,
0,
0,
0,
0,
0,
0,
0,
0,
0,
0,
#ENDOFDATA   :