File: N132962/Quantification/15 keV/Mengason MM2/MMM2 C[2][4].msa
#FORMAT      : EMSA/MAS Spectral Data File
#VERSION     : 1.0
#TITLE       : MMM2 C[2][all]
#DATE        : 28-SEP-2025
#TIME        : 23:55
#OWNER       : Unknown
#NPOINTS     : 4096
#NCOLUMNS    : 1
#XUNITS      : eV
#YUNITS      : counts
#DATATYPE    : Y
#XPERCHAN    : 9.99778
#OFFSET      : 1.69135
#BEAMKV      : 15
#SIGNALTYPE  : EDS
#ELEVANGLE   : 35
#AZIMANGLE   : 0
#LIVETIME    : 240.4087
#REALTIME    : 253.868
#PROBECUR    : 1.21151
#TAUWIND     : 0
#TDEADLYR    : 0
#TACTLYR     : 0.045
#TALWIND     : 0.025
#CHOFFSET    : 0.0
#XLABEL      : Energy (eV)
#YLABEL      : Counts
#XPOSITION   : -8.73737
#YPOSITION   : 3.1588
#ZPOSITION   : 34.11879
#EDSDET      : SD
##SPECIMEN   : MMM2 C[2][all]
##D2STDCMP   : C,(C:100.0)
##DET_HASH   : 12273538-fd48-a23f-0a19-f1e6fa85caef
##CALIB_HASH : 6abaa72c-aa41-8738-0be9-f592914732f3
##WORKING    : 15.0 mm
##DET_NAME   : EDAX All
##DET_MODE   : MediumLE
#SPECTRUM    :
26,
20,
11,
82,
508,
2560,
17513,
134129,
511148,
666322,
267267,
33736,
2175,
781,
881,
1256,
2723,
5172,
5256,
2880,
1591,
1421,
1499,
1679,
1842,
1904,
2030,
2099,
2200,
2388,
2380,
2410,
2562,
2677,
2601,
2610,
2850,
2828,
2757,
2735,
2731,
2873,
2863,
2754,
2868,
2784,
2815,
2752,
2834,
2638,
2578,
2646,
2561,
2487,
2408,
2535,
2480,
2489,
2532,
2519,
2475,
2213,
2052,
2024,
1998,
1843,
1884,
1794,
1760,
1667,
1754,
1679,
1734,
1614,
1585,
1676,
1552,
1519,
1519,
1453,
1481,
1444,
1422,
1356,
1356,
1371,
1261,
1226,
1302,
1254,
1347,
1227,
1187,
1238,
1178,
1168,
1151,
1100,
1031,
1163,
1080,
1062,
1079,
996,
974,
979,
1030,
988,
965,
930,
941,
945,
947,
918,
904,
875,
881,
821,
825,
850,
839,
828,
815,
823,
825,
754,
765,
776,
801,
732,
732,
764,
720,
690,
736,
704,
666,
646,
654,
650,
659,
630,
596,
630,
619,
621,
596,
561,
596,
609,
628,
584,
552,
567,
572,
528,
570,
524,
530,
536,
555,
521,
525,
532,
519,
472,
462,
481,
496,
467,
449,
510,
481,
480,
448,
421,
433,
453,
437,
414,
429,
425,
420,
415,
367,
374,
376,
411,
406,
408,
357,
384,
405,
387,
353,
396,
353,
344,
307,
386,
334,
308,
333,
360,
325,
367,
329,
335,
297,
313,
325,
324,
307,
323,
325,
325,
298,
305,
260,
286,
310,
271,
265,
273,
287,
289,
286,
295,
257,
238,
255,
273,
245,
253,
240,
212,
246,
256,
206,
231,
219,
238,
226,
217,
214,
193,
203,
235,
221,
210,
226,
206,
194,
206,
183,
213,
185,
200,
181,
177,
191,
188,
182,
195,
195,
191,
179,
176,
192,
164,
154,
172,
168,
186,
157,
178,
174,
160,
169,
144,
176,
142,
141,
164,
162,
163,
149,
139,
131,
119,
147,
129,
103,
123,
121,
146,
136,
133,
95,
131,
134,
107,
129,
124,
136,
114,
125,
111,
132,
103,
128,
112,
105,
118,
93,
108,
106,
113,
101,
109,
99,
101,
105,
93,
89,
95,
125,
108,
88,
92,
91,
92,
91,
76,
83,
83,
71,
83,
84,
78,
76,
80,
100,
75,
67,
74,
72,
54,
78,
70,
74,
71,
58,
60,
76,
63,
66,
64,
58,
57,
57,
67,
75,
47,
61,
53,
61,
62,
61,
66,
50,
52,
55,
64,
54,
47,
47,
47,
51,
48,
41,
47,
48,
41,
43,
42,
29,
41,
31,
44,
36,
35,
37,
40,
28,
37,
35,
31,
34,
32,
37,
33,
28,
44,
34,
22,
29,
30,
29,
27,
34,
29,
27,
33,
25,
20,
23,
26,
24,
32,
18,
26,
26,
15,
19,
27,
25,
17,
23,
17,
19,
16,
16,
23,
20,
19,
26,
15,
15,
14,
15,
26,
10,
10,
13,
17,
10,
12,
14,
15,
12,
9,
10,
7,
9,
10,
7,
8,
15,
8,
11,
13,
10,
6,
4,
6,
12,
10,
5,
11,
11,
6,
8,
4,
8,
8,
3,
5,
9,
2,
7,
2,
2,
3,
5,
2,
2,
3,
3,
0,
2,
0,
4,
0,
2,
2,
0,
1,
1,
0,
1,
1,
0,
0,
0,
0,
0,
0,
0,
0,
0,
0,
0,
0,
1,
0,
0,
0,
0,
0,
0,
0,
0,
0,
0,
0,
0,
0,
0,
0,
0,
0,
0,
0,
0,
0,
0,
0,
0,
0,
0,
0,
0,
0,
0,
0,
0,
0,
0,
0,
0,
0,
0,
0,
0,
0,
0,
0,
0,
0,
0,
0,
0,
0,
0,
0,
0,
0,
0,
0,
0,
0,
0,
0,
0,
0,
0,
0,
0,
0,
0,
0,
0,
0,
0,
0,
0,
0,
0,
0,
0,
0,
0,
0,
0,
0,
0,
0,
0,
0,
0,
0,
0,
0,
0,
0,
0,
0,
0,
0,
0,
0,
0,
0,
0,
0,
0,
0,
0,
0,
0,
0,
0,
0,
0,
0,
0,
0,
0,
0,
0,
0,
0,
0,
0,
0,
0,
0,
0,
0,
0,
0,
0,
0,
0,
0,
0,
0,
0,
0,
0,
0,
0,
0,
0,
0,
0,
0,
0,
0,
0,
0,
0,
0,
0,
0,
0,
0,
0,
0,
0,
0,
0,
0,
0,
0,
0,
0,
0,
0,
0,
0,
0,
0,
0,
0,
0,
0,
0,
0,
0,
0,
0,
0,
0,
0,
0,
0,
0,
0,
0,
0,
0,
0,
0,
0,
0,
0,
0,
0,
0,
0,
0,
0,
0,
0,
0,
0,
0,
0,
0,
0,
0,
0,
0,
0,
0,
0,
0,
0,
0,
0,
0,
0,
0,
0,
0,
0,
0,
0,
0,
0,
0,
0,
0,
0,
0,
0,
0,
0,
0,
0,
0,
0,
0,
0,
0,
0,
0,
0,
0,
0,
0,
0,
0,
0,
0,
0,
0,
0,
0,
0,
0,
0,
0,
0,
0,
0,
0,
0,
0,
0,
0,
0,
0,
0,
0,
0,
0,
0,
0,
0,
0,
0,
0,
0,
0,
0,
0,
0,
0,
0,
0,
0,
0,
0,
0,
0,
0,
0,
0,
0,
0,
0,
0,
0,
0,
0,
0,
0,
0,
0,
0,
0,
0,
0,
0,
0,
0,
0,
0,
0,
0,
0,
0,
0,
0,
0,
0,
0,
0,
0,
0,
0,
0,
0,
0,
0,
0,
0,
0,
0,
0,
0,
0,
0,
0,
0,
0,
0,
0,
0,
0,
0,
0,
0,
0,
0,
0,
0,
0,
0,
0,
0,
0,
0,
0,
0,
0,
0,
0,
0,
0,
0,
0,
0,
0,
0,
0,
0,
0,
0,
0,
0,
0,
0,
0,
0,
0,
0,
0,
0,
0,
0,
0,
0,
0,
0,
0,
0,
0,
0,
0,
0,
0,
0,
0,
0,
0,
0,
0,
0,
0,
0,
0,
0,
0,
0,
0,
0,
0,
0,
0,
0,
0,
0,
0,
0,
0,
0,
0,
0,
0,
0,
0,
0,
0,
0,
0,
0,
0,
0,
0,
0,
0,
0,
0,
0,
0,
0,
0,
0,
0,
0,
0,
0,
0,
0,
0,
0,
0,
0,
0,
0,
0,
0,
0,
0,
0,
0,
0,
0,
0,
0,
0,
0,
0,
0,
0,
0,
0,
0,
0,
0,
0,
0,
0,
0,
0,
0,
0,
0,
0,
0,
0,
0,
0,
0,
0,
0,
0,
0,
0,
0,
0,
0,
0,
0,
0,
0,
0,
0,
0,
0,
0,
0,
0,
0,
0,
0,
0,
0,
0,
0,
0,
0,
0,
0,
0,
0,
0,
0,
0,
0,
0,
0,
0,
0,
0,
0,
0,
0,
0,
0,
0,
0,
0,
0,
0,
0,
0,
0,
0,
0,
0,
0,
0,
0,
0,
0,
0,
0,
0,
0,
0,
0,
0,
0,
0,
0,
0,
0,
0,
0,
0,
0,
0,
0,
0,
0,
0,
0,
0,
0,
0,
0,
0,
0,
0,
0,
0,
0,
0,
0,
0,
0,
0,
0,
0,
0,
0,
0,
0,
0,
0,
0,
0,
0,
0,
0,
0,
0,
0,
0,
0,
0,
0,
0,
0,
0,
0,
0,
0,
0,
0,
0,
0,
0,
0,
0,
0,
0,
0,
0,
0,
0,
0,
0,
0,
0,
0,
0,
0,
0,
0,
0,
0,
0,
0,
0,
0,
0,
0,
0,
0,
0,
0,
0,
0,
0,
0,
0,
0,
0,
0,
0,
0,
0,
0,
0,
0,
0,
0,
0,
0,
0,
0,
0,
0,
0,
0,
0,
0,
0,
0,
0,
0,
0,
0,
0,
0,
0,
0,
0,
0,
0,
0,
0,
0,
0,
0,
0,
0,
0,
0,
0,
0,
0,
0,
0,
0,
0,
0,
0,
0,
0,
0,
0,
0,
0,
0,
0,
0,
0,
0,
0,
0,
0,
0,
0,
0,
0,
0,
0,
0,
0,
0,
0,
0,
0,
0,
0,
0,
0,
0,
0,
0,
0,
0,
0,
0,
0,
0,
0,
0,
0,
0,
0,
0,
0,
0,
0,
0,
0,
0,
0,
0,
0,
0,
0,
0,
0,
0,
0,
0,
0,
0,
0,
0,
0,
0,
0,
0,
0,
0,
0,
0,
0,
0,
0,
0,
0,
0,
0,
0,
0,
0,
0,
0,
0,
0,
0,
0,
0,
0,
0,
0,
0,
0,
0,
0,
0,
0,
0,
0,
0,
0,
0,
0,
0,
0,
0,
0,
0,
0,
0,
0,
0,
0,
0,
0,
0,
0,
0,
0,
0,
0,
0,
0,
0,
0,
0,
0,
0,
0,
0,
0,
0,
0,
0,
0,
0,
0,
0,
0,
0,
#ENDOFDATA   :