File: N132962/Quantification/15 keV/Mengason MM2/MMM2 Plagioclaise[2][4].msa
#FORMAT      : EMSA/MAS Spectral Data File
#VERSION     : 1.0
#TITLE       : MMM2 Plagioclaise[2][all]
#DATE        : 28-SEP-2025
#TIME        : 23:13
#OWNER       : Unknown
#NPOINTS     : 4096
#NCOLUMNS    : 1
#XUNITS      : eV
#YUNITS      : counts
#DATATYPE    : Y
#XPERCHAN    : 9.99778
#OFFSET      : 1.69135
#BEAMKV      : 15
#SIGNALTYPE  : EDS
#ELEVANGLE   : 35
#AZIMANGLE   : 0
#LIVETIME    : 240.237
#REALTIME    : 256.429
#PROBECUR    : 1.2132
#TAUWIND     : 0
#TDEADLYR    : 0
#TACTLYR     : 0.045
#TALWIND     : 0.025
#CHOFFSET    : 0.0
#XLABEL      : Energy (eV)
#YLABEL      : Counts
#XPOSITION   : -18.62533
#YPOSITION   : 2.047
#ZPOSITION   : 34.11879
#EDSDET      : SD
##SPECIMEN   : MMM2 Plagioclaise[2][all]
##DET_HASH   : 12273538-fd48-a23f-0a19-f1e6fa85caef
##CALIB_HASH : 6abaa72c-aa41-8738-0be9-f592914732f3
##WORKING    : 15.0 mm
##DET_NAME   : EDAX All
##DET_MODE   : MediumLE
#SPECTRUM    :
33,
27,
11,
17,
108,
355,
1105,
3773,
10870,
14521,
8579,
4512,
4022,
4556,
7905,
29144,
109814,
209450,
151920,
40186,
5928,
2536,
2632,
3102,
3291,
3211,
3289,
3572,
3664,
3811,
3995,
4344,
5704,
11857,
23615,
25843,
14710,
6563,
4694,
4690,
4941,
5193,
5574,
5496,
5595,
5871,
7477,
19714,
64052,
128522,
129645,
67896,
22362,
8793,
6650,
14799,
55066,
139304,
190066,
133838,
54679,
19161,
8977,
4973,
3444,
3130,
3142,
2988,
2823,
2546,
2472,
2584,
2642,
2726,
2810,
3066,
2964,
2717,
2434,
2451,
2397,
2361,
2430,
2330,
2280,
2289,
2314,
2270,
2325,
2180,
2204,
2275,
2244,
2344,
2171,
2165,
2130,
2159,
2219,
2201,
2203,
1952,
2040,
1974,
2012,
2080,
2166,
2242,
2533,
2878,
3119,
3063,
2486,
2191,
1969,
1937,
2050,
2118,
2344,
3101,
5807,
13249,
23034,
28612,
24169,
14057,
6083,
2812,
1789,
1694,
1854,
2357,
3276,
4372,
4700,
3905,
2787,
1876,
1532,
1429,
1429,
1378,
1350,
1347,
1342,
1281,
1275,
1275,
1289,
1343,
1312,
1311,
1314,
1205,
1209,
1248,
1135,
1202,
1155,
1173,
1151,
1105,
1124,
1055,
1191,
1073,
1082,
1167,
1075,
1030,
1106,
1066,
1047,
1060,
980,
1047,
1015,
974,
989,
973,
1014,
1039,
962,
967,
956,
854,
945,
874,
849,
887,
843,
894,
852,
854,
852,
858,
854,
844,
797,
770,
755,
803,
812,
769,
802,
786,
759,
726,
755,
744,
774,
887,
1003,
1007,
964,
884,
824,
754,
678,
705,
670,
696,
657,
663,
625,
616,
650,
659,
625,
598,
586,
620,
580,
597,
624,
606,
586,
605,
588,
532,
557,
574,
532,
576,
508,
535,
502,
546,
587,
514,
515,
509,
528,
502,
507,
484,
479,
482,
515,
485,
485,
486,
420,
475,
477,
485,
454,
476,
423,
427,
408,
454,
443,
427,
421,
374,
378,
419,
405,
344,
397,
363,
392,
405,
394,
389,
371,
395,
382,
380,
357,
368,
362,
381,
291,
342,
339,
303,
329,
341,
334,
357,
349,
306,
317,
299,
310,
301,
302,
278,
269,
287,
276,
289,
283,
302,
262,
270,
285,
254,
291,
276,
251,
254,
252,
245,
248,
235,
233,
227,
248,
212,
239,
255,
214,
212,
229,
231,
196,
221,
216,
188,
205,
197,
214,
188,
190,
195,
180,
188,
198,
187,
185,
208,
187,
173,
194,
178,
158,
176,
192,
163,
157,
158,
162,
159,
151,
140,
163,
129,
143,
131,
131,
142,
131,
139,
143,
128,
132,
123,
150,
127,
118,
110,
144,
117,
125,
111,
137,
125,
116,
99,
108,
103,
85,
88,
103,
111,
129,
105,
93,
118,
91,
92,
65,
88,
93,
86,
103,
99,
107,
91,
76,
80,
67,
62,
70,
73,
73,
86,
74,
78,
66,
56,
58,
62,
76,
69,
69,
77,
75,
37,
56,
49,
46,
46,
30,
62,
48,
49,
53,
49,
36,
46,
40,
44,
44,
38,
35,
52,
29,
41,
41,
41,
33,
36,
21,
41,
40,
32,
30,
22,
32,
26,
25,
23,
11,
23,
19,
21,
8,
17,
23,
17,
23,
12,
13,
15,
19,
8,
12,
10,
12,
11,
8,
9,
5,
9,
12,
11,
12,
3,
5,
0,
4,
4,
3,
1,
3,
1,
1,
0,
1,
0,
0,
2,
0,
0,
0,
0,
0,
0,
1,
1,
2,
1,
0,
0,
0,
0,
0,
0,
0,
0,
0,
0,
0,
1,
0,
0,
0,
1,
0,
0,
0,
0,
1,
0,
0,
0,
0,
0,
1,
0,
0,
0,
0,
0,
0,
0,
1,
0,
0,
1,
0,
0,
1,
0,
0,
0,
0,
1,
0,
0,
0,
0,
0,
0,
0,
0,
0,
0,
1,
1,
0,
0,
0,
0,
0,
0,
0,
0,
0,
0,
0,
0,
0,
0,
0,
0,
0,
0,
0,
0,
0,
0,
0,
0,
0,
0,
0,
0,
0,
0,
0,
0,
0,
0,
0,
0,
0,
0,
0,
1,
0,
0,
0,
1,
0,
0,
0,
0,
0,
0,
0,
0,
0,
0,
0,
0,
0,
0,
0,
0,
0,
1,
0,
0,
0,
0,
0,
0,
0,
0,
0,
0,
0,
0,
0,
0,
0,
0,
0,
0,
0,
0,
0,
0,
0,
0,
0,
0,
0,
0,
0,
0,
0,
0,
0,
0,
0,
0,
0,
0,
0,
0,
0,
0,
0,
0,
0,
0,
0,
0,
0,
0,
0,
0,
0,
0,
0,
0,
0,
0,
0,
0,
0,
0,
0,
0,
0,
0,
0,
0,
0,
0,
0,
0,
0,
0,
0,
0,
0,
1,
0,
0,
0,
0,
0,
0,
0,
0,
0,
0,
0,
0,
0,
0,
0,
0,
0,
0,
0,
0,
0,
0,
0,
0,
0,
0,
0,
0,
0,
0,
0,
0,
0,
0,
0,
0,
0,
0,
0,
0,
0,
0,
0,
0,
0,
0,
0,
0,
0,
0,
0,
0,
0,
0,
0,
0,
0,
0,
0,
0,
0,
0,
0,
0,
0,
0,
0,
0,
0,
0,
0,
0,
0,
0,
0,
0,
0,
0,
0,
0,
0,
0,
0,
0,
0,
0,
0,
0,
0,
0,
0,
0,
0,
0,
0,
0,
0,
0,
0,
0,
0,
0,
0,
0,
0,
0,
0,
0,
0,
0,
0,
0,
0,
0,
0,
0,
0,
0,
0,
0,
0,
0,
0,
0,
0,
0,
0,
0,
0,
0,
0,
0,
0,
0,
0,
0,
0,
0,
0,
0,
0,
0,
0,
0,
0,
0,
0,
0,
0,
0,
0,
0,
0,
0,
0,
0,
0,
0,
0,
0,
0,
0,
0,
0,
0,
0,
0,
0,
0,
0,
0,
0,
0,
0,
0,
0,
0,
0,
0,
0,
0,
0,
0,
0,
0,
0,
0,
0,
0,
0,
0,
0,
0,
0,
0,
0,
0,
0,
0,
0,
0,
0,
0,
0,
0,
0,
0,
0,
0,
0,
0,
0,
0,
0,
0,
0,
0,
0,
0,
0,
0,
0,
0,
0,
0,
0,
0,
0,
0,
0,
0,
0,
0,
0,
0,
0,
0,
0,
0,
0,
0,
0,
0,
0,
0,
0,
0,
0,
0,
0,
0,
0,
0,
0,
0,
0,
0,
0,
0,
0,
0,
0,
0,
0,
0,
0,
0,
0,
0,
0,
0,
0,
0,
0,
0,
0,
0,
0,
0,
0,
0,
0,
0,
0,
0,
0,
0,
0,
0,
0,
0,
0,
0,
0,
0,
0,
0,
0,
0,
0,
0,
0,
0,
0,
0,
0,
0,
0,
0,
0,
0,
0,
0,
0,
0,
0,
0,
0,
0,
0,
0,
0,
0,
0,
0,
0,
0,
0,
0,
0,
0,
0,
0,
0,
0,
0,
0,
0,
0,
0,
0,
0,
0,
0,
0,
0,
0,
0,
0,
0,
0,
0,
0,
0,
0,
0,
0,
0,
0,
0,
0,
0,
0,
0,
0,
0,
0,
0,
0,
0,
0,
0,
0,
0,
0,
0,
0,
0,
0,
0,
0,
0,
0,
0,
0,
0,
0,
0,
0,
0,
0,
0,
0,
0,
0,
0,
0,
0,
0,
0,
0,
0,
0,
0,
0,
0,
0,
0,
0,
0,
0,
0,
0,
0,
0,
0,
0,
0,
0,
0,
0,
0,
0,
0,
0,
0,
0,
0,
0,
0,
0,
0,
0,
0,
0,
0,
0,
0,
0,
0,
0,
0,
0,
0,
0,
0,
0,
0,
0,
0,
0,
0,
0,
0,
0,
0,
0,
0,
0,
0,
0,
0,
0,
0,
0,
0,
0,
0,
0,
0,
0,
0,
0,
0,
0,
0,
0,
0,
0,
0,
0,
0,
0,
0,
0,
0,
0,
0,
0,
0,
0,
0,
0,
0,
0,
0,
0,
0,
0,
0,
0,
0,
0,
0,
0,
0,
0,
0,
0,
0,
0,
0,
0,
0,
0,
0,
0,
0,
0,
0,
0,
0,
0,
0,
0,
0,
0,
0,
0,
0,
0,
0,
0,
0,
0,
0,
0,
0,
0,
0,
0,
0,
0,
0,
0,
0,
0,
0,
0,
0,
0,
0,
0,
0,
0,
0,
0,
0,
0,
0,
0,
0,
0,
0,
0,
0,
0,
0,
0,
0,
0,
0,
0,
0,
0,
0,
0,
0,
0,
0,
0,
0,
0,
0,
0,
0,
0,
0,
0,
0,
0,
0,
0,
0,
0,
0,
0,
0,
0,
0,
0,
0,
0,
0,
0,
0,
0,
0,
0,
0,
0,
0,
0,
0,
0,
0,
0,
0,
0,
0,
0,
0,
0,
0,
0,
0,
0,
0,
0,
0,
0,
0,
0,
0,
0,
0,
0,
0,
0,
0,
0,
0,
0,
0,
0,
0,
0,
0,
0,
0,
0,
0,
#ENDOFDATA   :