File: N132962/Quantification/15 keV/Mengason MM2/MMM2 Rhodonite[0][4].msa
#FORMAT      : EMSA/MAS Spectral Data File
#VERSION     : 1.0
#TITLE       : MMM2 Rhodonite[0][all]
#DATE        : 28-SEP-2025
#TIME        : 23:21
#OWNER       : Unknown
#NPOINTS     : 4096
#NCOLUMNS    : 1
#XUNITS      : eV
#YUNITS      : counts
#DATATYPE    : Y
#XPERCHAN    : 9.99778
#OFFSET      : 1.69135
#BEAMKV      : 15
#SIGNALTYPE  : EDS
#ELEVANGLE   : 35
#AZIMANGLE   : 0
#LIVETIME    : 240.296
#REALTIME    : 256.166
#PROBECUR    : 1.21079
#TAUWIND     : 0
#TDEADLYR    : 0
#TACTLYR     : 0.045
#TALWIND     : 0.025
#CHOFFSET    : 0.0
#XLABEL      : Energy (eV)
#YLABEL      : Counts
#XPOSITION   : -16.63784
#YPOSITION   : 1.79236
#ZPOSITION   : 34.11879
#EDSDET      : SD
##SPECIMEN   : MMM2 Rhodonite[0][all]
##DET_HASH   : 12273538-fd48-a23f-0a19-f1e6fa85caef
##CALIB_HASH : 6abaa72c-aa41-8738-0be9-f592914732f3
##WORKING    : 15.0 mm
##DET_NAME   : EDAX All
##DET_MODE   : MediumLE
#SPECTRUM    :
24,
18,
9,
23,
89,
492,
1393,
4664,
12714,
16547,
9397,
5343,
5199,
6367,
10627,
35165,
128488,
243604,
179394,
53303,
20095,
24117,
19111,
10174,
6718,
4306,
3080,
3048,
3193,
3338,
3452,
3459,
3724,
3928,
4411,
4482,
4341,
4342,
4432,
4991,
7151,
11023,
12427,
9013,
5899,
5072,
4967,
5144,
5239,
5533,
5616,
5588,
5630,
5849,
6829,
15095,
52739,
131531,
177640,
126579,
51453,
18584,
9354,
5563,
3987,
3609,
3635,
3514,
3382,
3498,
3377,
3411,
3440,
3517,
3731,
3919,
3829,
3522,
3390,
3287,
3228,
3242,
3105,
3130,
3097,
3120,
3026,
2938,
3022,
3099,
2868,
2955,
2938,
2872,
2938,
2832,
2696,
2888,
2766,
2772,
2754,
2836,
2669,
2734,
2622,
2555,
2641,
2525,
2641,
2519,
2477,
2492,
2392,
2411,
2508,
2389,
2612,
2624,
2597,
2838,
3981,
6919,
10916,
13090,
11436,
7219,
3966,
2697,
2198,
2096,
2226,
2293,
2920,
3135,
3332,
3029,
2566,
2238,
2244,
2153,
2040,
1900,
1855,
1847,
1803,
1809,
1729,
1795,
1724,
1713,
1776,
1664,
1703,
1654,
1606,
1654,
1745,
1640,
1617,
1620,
1569,
1543,
1542,
1587,
1521,
1520,
1500,
1453,
1548,
1485,
1533,
1478,
1454,
1459,
1386,
1348,
1324,
1352,
1355,
1419,
1252,
1361,
1347,
1305,
1289,
1286,
1320,
1261,
1315,
1365,
1545,
2034,
3614,
8530,
18187,
31176,
40362,
39942,
29535,
17035,
7883,
3156,
1600,
1225,
1115,
1163,
1150,
1185,
1195,
1489,
2050,
3127,
4456,
5918,
7087,
7611,
7250,
6129,
4483,
2876,
1674,
1168,
942,
836,
888,
831,
864,
827,
850,
792,
784,
898,
968,
1092,
1170,
1258,
1239,
1009,
924,
809,
773,
732,
703,
721,
755,
721,
741,
702,
704,
689,
661,
713,
737,
681,
740,
738,
714,
734,
656,
674,
663,
637,
614,
620,
607,
631,
614,
623,
603,
592,
608,
543,
600,
552,
602,
556,
564,
551,
549,
546,
606,
540,
536,
534,
560,
525,
523,
547,
516,
507,
511,
508,
467,
459,
470,
462,
494,
470,
479,
472,
424,
472,
452,
443,
441,
448,
457,
447,
416,
387,
426,
414,
403,
410,
408,
396,
389,
423,
388,
376,
375,
400,
372,
385,
349,
343,
366,
349,
366,
314,
346,
347,
331,
337,
329,
332,
308,
334,
314,
305,
337,
314,
302,
288,
310,
326,
327,
285,
293,
289,
259,
306,
278,
266,
274,
246,
264,
286,
243,
258,
228,
279,
220,
264,
241,
241,
218,
234,
226,
195,
212,
238,
206,
232,
177,
197,
226,
177,
188,
169,
164,
196,
207,
186,
161,
189,
163,
153,
187,
187,
158,
178,
167,
174,
164,
150,
170,
142,
153,
147,
147,
135,
139,
136,
135,
130,
128,
121,
126,
141,
114,
132,
129,
126,
117,
108,
112,
117,
108,
124,
123,
103,
99,
96,
97,
108,
93,
95,
91,
95,
77,
91,
103,
90,
74,
78,
69,
77,
64,
74,
77,
75,
68,
62,
91,
50,
57,
48,
64,
58,
64,
66,
56,
49,
47,
39,
55,
44,
52,
44,
43,
33,
42,
35,
50,
26,
32,
36,
39,
29,
34,
27,
25,
35,
29,
19,
26,
23,
19,
25,
20,
21,
13,
14,
14,
19,
14,
14,
10,
12,
3,
9,
8,
11,
5,
5,
4,
4,
3,
3,
0,
2,
1,
2,
0,
1,
0,
0,
1,
2,
0,
0,
0,
1,
0,
0,
1,
1,
2,
0,
1,
2,
2,
0,
0,
0,
1,
1,
0,
0,
2,
1,
0,
1,
0,
0,
0,
0,
0,
0,
1,
0,
0,
0,
0,
1,
1,
0,
1,
0,
0,
1,
1,
0,
0,
0,
0,
0,
0,
0,
1,
0,
0,
0,
2,
0,
0,
1,
0,
1,
1,
0,
0,
0,
0,
1,
1,
2,
0,
0,
0,
0,
1,
0,
0,
0,
0,
0,
0,
0,
0,
0,
0,
0,
0,
0,
1,
0,
0,
0,
0,
0,
1,
0,
0,
0,
0,
0,
0,
0,
0,
0,
0,
0,
1,
0,
0,
1,
1,
1,
0,
0,
0,
0,
0,
0,
0,
0,
0,
1,
0,
0,
2,
0,
0,
1,
0,
0,
0,
0,
0,
0,
0,
0,
0,
0,
0,
0,
0,
0,
0,
0,
0,
0,
0,
1,
0,
0,
0,
0,
0,
0,
0,
0,
0,
0,
0,
0,
0,
0,
0,
0,
1,
0,
0,
0,
0,
0,
0,
0,
0,
0,
0,
0,
0,
0,
1,
0,
0,
0,
0,
0,
0,
0,
0,
0,
0,
0,
0,
0,
0,
0,
0,
0,
0,
0,
0,
0,
0,
0,
0,
0,
0,
0,
0,
0,
0,
0,
0,
0,
0,
0,
0,
0,
0,
0,
0,
0,
0,
0,
0,
0,
0,
0,
0,
1,
0,
0,
0,
0,
0,
0,
0,
0,
0,
0,
0,
0,
0,
0,
0,
0,
0,
0,
0,
0,
0,
0,
0,
0,
0,
0,
0,
0,
0,
0,
0,
0,
0,
0,
0,
0,
0,
0,
0,
0,
0,
0,
0,
0,
0,
0,
0,
0,
0,
0,
0,
0,
0,
0,
0,
0,
0,
0,
0,
0,
0,
0,
0,
0,
0,
0,
0,
0,
0,
0,
0,
0,
0,
0,
0,
0,
0,
0,
0,
0,
0,
0,
0,
0,
0,
0,
0,
0,
0,
0,
0,
0,
0,
0,
0,
0,
0,
0,
0,
0,
0,
0,
0,
0,
0,
0,
0,
0,
0,
0,
0,
0,
0,
0,
0,
0,
0,
0,
0,
0,
0,
0,
0,
0,
0,
0,
0,
0,
0,
0,
0,
0,
0,
0,
0,
0,
0,
0,
0,
0,
0,
0,
0,
0,
0,
0,
0,
0,
0,
0,
0,
0,
0,
0,
0,
0,
0,
0,
0,
0,
0,
0,
0,
0,
0,
0,
0,
0,
0,
0,
0,
0,
0,
0,
0,
0,
0,
0,
0,
0,
0,
0,
0,
0,
0,
0,
0,
0,
0,
0,
0,
0,
0,
0,
0,
0,
0,
0,
0,
0,
0,
0,
0,
0,
0,
0,
0,
0,
0,
0,
0,
0,
0,
0,
0,
0,
0,
0,
0,
0,
0,
0,
0,
0,
0,
0,
0,
0,
0,
0,
0,
0,
0,
0,
0,
0,
0,
0,
0,
0,
0,
0,
0,
0,
0,
0,
0,
0,
0,
0,
0,
0,
0,
0,
0,
0,
0,
0,
0,
0,
0,
0,
0,
0,
1,
0,
0,
0,
0,
0,
0,
0,
0,
0,
0,
0,
0,
0,
0,
0,
0,
0,
0,
0,
0,
0,
0,
0,
0,
0,
0,
0,
0,
0,
0,
0,
0,
0,
0,
0,
0,
0,
0,
0,
0,
0,
0,
0,
0,
0,
0,
0,
0,
0,
0,
0,
0,
0,
0,
0,
0,
0,
0,
0,
0,
0,
0,
0,
0,
0,
0,
0,
0,
0,
0,
0,
0,
0,
0,
0,
0,
0,
0,
0,
0,
0,
0,
0,
0,
0,
0,
0,
0,
0,
0,
0,
0,
0,
0,
0,
0,
0,
0,
0,
0,
0,
0,
0,
0,
0,
0,
0,
0,
0,
0,
0,
0,
0,
0,
0,
0,
0,
0,
0,
0,
0,
0,
0,
0,
0,
0,
0,
0,
0,
0,
0,
0,
0,
0,
0,
0,
0,
0,
0,
0,
0,
0,
0,
0,
0,
0,
0,
0,
0,
0,
0,
0,
0,
0,
0,
0,
0,
0,
0,
0,
0,
0,
0,
0,
0,
0,
0,
0,
0,
0,
0,
0,
0,
0,
0,
0,
0,
0,
0,
0,
0,
0,
0,
0,
0,
0,
0,
0,
0,
0,
0,
0,
0,
0,
0,
0,
0,
0,
0,
0,
0,
0,
0,
0,
0,
0,
0,
0,
0,
0,
0,
0,
0,
0,
0,
0,
0,
0,
0,
0,
0,
0,
0,
0,
0,
0,
0,
0,
0,
0,
0,
0,
0,
0,
0,
0,
0,
0,
0,
0,
0,
0,
0,
0,
0,
0,
0,
0,
0,
0,
0,
0,
0,
0,
0,
0,
0,
0,
0,
0,
0,
0,
0,
0,
0,
0,
0,
0,
0,
0,
0,
0,
0,
0,
0,
0,
0,
0,
0,
0,
0,
0,
0,
0,
0,
0,
0,
0,
0,
0,
0,
0,
0,
0,
0,
0,
0,
0,
0,
0,
0,
0,
0,
0,
0,
0,
0,
0,
0,
0,
0,
0,
0,
0,
0,
0,
0,
0,
0,
0,
0,
0,
0,
0,
0,
0,
0,
0,
0,
0,
0,
0,
0,
0,
0,
0,
0,
0,
0,
0,
0,
0,
0,
0,
0,
0,
0,
0,
0,
0,
0,
0,
0,
0,
0,
0,
0,
0,
0,
0,
0,
0,
0,
0,
0,
#ENDOFDATA   :