File: N132962/Quantification/15 keV/Mengason MM2/MMM2 Pentlandite[7][4].msa
#FORMAT      : EMSA/MAS Spectral Data File
#VERSION     : 1.0
#TITLE       : MMM2 Pentlandite[7][all]
#DATE        : 28-SEP-2025
#TIME        : 21:46
#OWNER       : Unknown
#NPOINTS     : 4096
#NCOLUMNS    : 1
#XUNITS      : eV
#YUNITS      : counts
#DATATYPE    : Y
#XPERCHAN    : 9.99778
#OFFSET      : 1.69135
#BEAMKV      : 15
#SIGNALTYPE  : EDS
#ELEVANGLE   : 35
#AZIMANGLE   : 0
#LIVETIME    : 240.245
#REALTIME    : 257.831
#PROBECUR    : 1.21217
#TAUWIND     : 0
#TDEADLYR    : 0
#TACTLYR     : 0.045
#TALWIND     : 0.025
#CHOFFSET    : 0.0
#XLABEL      : Energy (eV)
#YLABEL      : Counts
#XPOSITION   : -15.84511
#YPOSITION   : -2.33189
#ZPOSITION   : 34.11879
#EDSDET      : SD
##SPECIMEN   : MMM2 Pentlandite[7][all]
##DET_HASH   : 12273538-fd48-a23f-0a19-f1e6fa85caef
##CALIB_HASH : 6abaa72c-aa41-8738-0be9-f592914732f3
##WORKING    : 15.0 mm
##DET_NAME   : EDAX All
##DET_MODE   : MediumLE
#SPECTRUM    :
24,
24,
14,
64,
334,
768,
1684,
4929,
14272,
17677,
9036,
4101,
3798,
4070,
4795,
5889,
7552,
10166,
13603,
18437,
23750,
25432,
37740,
63580,
58981,
32469,
24627,
49426,
87415,
74037,
29343,
9020,
5304,
4518,
4381,
4367,
4508,
4784,
4842,
4895,
5102,
5219,
5360,
5406,
5493,
5579,
5666,
5762,
5987,
6070,
6077,
6173,
6136,
6159,
6052,
6179,
6349,
6550,
6847,
6941,
6564,
6184,
5858,
5669,
5487,
5632,
5706,
5737,
5852,
5815,
6084,
6542,
8377,
13402,
29318,
76469,
154672,
193479,
141365,
61712,
22570,
16149,
18162,
15761,
9706,
5709,
4300,
3822,
3854,
3847,
3809,
3674,
3870,
3840,
3767,
3683,
3740,
3729,
3867,
3920,
3812,
3738,
3698,
3737,
3735,
3831,
3702,
3541,
3589,
3457,
3542,
3466,
3402,
3337,
3365,
3219,
3287,
3228,
3284,
3162,
3226,
3210,
3200,
3176,
3090,
3034,
2939,
2994,
3008,
3028,
2887,
2907,
2935,
2883,
2849,
2808,
2850,
2801,
2817,
2805,
2789,
2635,
2650,
2721,
2607,
2703,
2680,
2590,
2522,
2695,
2644,
2464,
2640,
2729,
2784,
2742,
2605,
2524,
2469,
2437,
2350,
2322,
2290,
2283,
2295,
2318,
2189,
2248,
2208,
2248,
2170,
2021,
2139,
2147,
2116,
2062,
2044,
2138,
2053,
2131,
2000,
1967,
1999,
1951,
1993,
1946,
1975,
1894,
1913,
1935,
1834,
1885,
1875,
1880,
1776,
1769,
1799,
1770,
1731,
1762,
1675,
1733,
1713,
1781,
1812,
1763,
1740,
1944,
2675,
4756,
9876,
18907,
29227,
35821,
33144,
24540,
13735,
6646,
3101,
1886,
1552,
1474,
1505,
1484,
1457,
1518,
1439,
1474,
1657,
1848,
2053,
2440,
3248,
4183,
5082,
5732,
5374,
4070,
2879,
1927,
1550,
1473,
1353,
1642,
2571,
4688,
9253,
15386,
21317,
23741,
21043,
15078,
8794,
4553,
2327,
1533,
1185,
1108,
1097,
1099,
1025,
1005,
1039,
1026,
1087,
1046,
1042,
966,
1104,
1127,
1189,
1461,
1904,
2678,
3433,
3734,
3643,
3056,
2202,
1516,
1098,
987,
859,
844,
802,
842,
786,
833,
827,
813,
858,
834,
880,
811,
778,
755,
732,
779,
772,
754,
752,
712,
665,
737,
729,
713,
667,
735,
717,
645,
666,
673,
657,
635,
627,
609,
633,
657,
643,
609,
615,
588,
601,
675,
670,
687,
626,
596,
622,
580,
551,
561,
553,
535,
567,
550,
558,
529,
555,
535,
522,
543,
469,
532,
558,
524,
451,
460,
456,
460,
469,
479,
467,
488,
435,
461,
435,
392,
421,
435,
387,
435,
403,
397,
377,
408,
408,
397,
381,
380,
394,
366,
358,
360,
356,
365,
375,
320,
327,
370,
321,
345,
368,
311,
322,
338,
312,
331,
293,
299,
306,
301,
255,
287,
275,
277,
283,
259,
252,
280,
277,
222,
247,
204,
250,
225,
218,
237,
241,
199,
224,
227,
224,
212,
193,
218,
209,
190,
197,
204,
181,
198,
173,
156,
196,
207,
165,
173,
184,
138,
144,
157,
159,
150,
136,
144,
139,
114,
126,
121,
112,
133,
112,
119,
128,
97,
90,
116,
104,
112,
85,
98,
93,
92,
82,
88,
82,
80,
79,
85,
77,
93,
78,
55,
72,
61,
68,
63,
70,
58,
50,
51,
42,
45,
51,
56,
45,
41,
41,
30,
23,
27,
27,
22,
27,
29,
20,
23,
24,
17,
27,
13,
15,
6,
15,
7,
12,
8,
8,
4,
6,
6,
0,
4,
4,
3,
1,
1,
8,
5,
2,
2,
4,
5,
1,
1,
0,
1,
4,
0,
0,
3,
0,
1,
2,
3,
1,
1,
2,
0,
0,
2,
2,
0,
0,
3,
0,
1,
0,
0,
1,
0,
3,
3,
2,
1,
0,
2,
2,
1,
1,
2,
1,
1,
1,
2,
0,
0,
1,
0,
1,
1,
2,
2,
0,
3,
1,
1,
2,
1,
2,
0,
0,
2,
2,
0,
3,
3,
1,
1,
0,
1,
0,
0,
1,
0,
0,
1,
0,
1,
0,
1,
0,
0,
2,
2,
0,
1,
1,
0,
1,
0,
0,
1,
1,
0,
0,
0,
0,
0,
0,
0,
0,
0,
0,
0,
2,
4,
0,
0,
0,
1,
1,
1,
2,
1,
0,
0,
1,
0,
1,
1,
1,
1,
2,
0,
0,
0,
0,
1,
0,
0,
0,
0,
0,
0,
0,
2,
0,
0,
0,
2,
2,
0,
0,
0,
0,
2,
0,
0,
0,
0,
1,
0,
1,
0,
0,
0,
0,
0,
1,
1,
0,
0,
1,
0,
0,
1,
1,
1,
0,
0,
0,
0,
1,
0,
1,
2,
1,
0,
0,
0,
0,
0,
0,
0,
0,
0,
0,
0,
0,
0,
1,
0,
0,
0,
0,
2,
1,
0,
0,
0,
0,
0,
0,
0,
0,
0,
0,
0,
0,
0,
0,
0,
0,
0,
0,
0,
0,
0,
0,
0,
1,
0,
0,
0,
0,
0,
0,
0,
0,
0,
0,
0,
0,
0,
0,
0,
0,
0,
0,
0,
0,
0,
0,
0,
0,
0,
0,
1,
0,
0,
0,
0,
0,
0,
0,
0,
0,
0,
0,
0,
0,
0,
0,
0,
0,
0,
0,
0,
0,
0,
0,
0,
0,
0,
0,
0,
0,
0,
0,
0,
0,
0,
0,
0,
0,
0,
0,
0,
0,
0,
0,
0,
0,
0,
0,
0,
0,
0,
0,
0,
0,
0,
0,
0,
0,
0,
0,
0,
0,
0,
0,
0,
0,
0,
0,
0,
0,
0,
0,
0,
0,
0,
0,
0,
0,
0,
0,
0,
0,
0,
0,
0,
0,
0,
0,
0,
0,
0,
0,
0,
0,
0,
0,
0,
0,
0,
0,
0,
0,
0,
0,
0,
0,
0,
0,
0,
0,
0,
0,
0,
0,
0,
0,
0,
0,
0,
0,
0,
0,
0,
0,
0,
0,
0,
0,
0,
0,
0,
0,
0,
0,
0,
0,
0,
0,
0,
0,
0,
0,
0,
0,
0,
0,
0,
0,
0,
0,
0,
0,
0,
0,
0,
0,
0,
0,
0,
0,
0,
0,
0,
0,
0,
0,
0,
0,
0,
0,
0,
0,
0,
0,
0,
0,
0,
0,
0,
0,
0,
0,
0,
0,
0,
0,
0,
0,
0,
0,
0,
0,
0,
0,
0,
0,
0,
0,
0,
0,
0,
0,
0,
0,
0,
0,
0,
0,
0,
0,
0,
0,
0,
0,
0,
0,
0,
0,
0,
0,
0,
0,
0,
0,
0,
0,
0,
0,
0,
0,
0,
0,
0,
0,
0,
0,
0,
0,
0,
0,
0,
0,
0,
0,
0,
0,
0,
0,
0,
0,
0,
0,
0,
0,
0,
0,
0,
0,
0,
0,
0,
0,
0,
0,
0,
0,
0,
0,
0,
0,
0,
0,
0,
0,
0,
0,
0,
0,
0,
0,
0,
0,
0,
0,
0,
0,
0,
0,
0,
0,
0,
0,
0,
0,
0,
0,
0,
0,
0,
0,
0,
0,
0,
0,
0,
0,
0,
0,
0,
0,
0,
0,
0,
0,
0,
0,
0,
0,
0,
0,
0,
0,
0,
0,
0,
0,
0,
0,
0,
0,
0,
0,
0,
0,
0,
0,
0,
0,
0,
0,
0,
0,
0,
0,
0,
0,
0,
0,
0,
0,
0,
0,
0,
0,
0,
0,
0,
0,
0,
0,
0,
0,
0,
0,
0,
0,
0,
0,
0,
0,
0,
0,
0,
0,
0,
0,
0,
0,
0,
0,
0,
0,
0,
0,
0,
0,
0,
0,
0,
0,
0,
0,
0,
0,
0,
0,
0,
0,
0,
0,
0,
0,
0,
0,
0,
0,
0,
0,
0,
0,
0,
0,
0,
0,
0,
0,
0,
0,
0,
0,
0,
0,
0,
0,
0,
0,
0,
0,
0,
0,
0,
0,
0,
0,
0,
0,
0,
0,
0,
0,
0,
0,
0,
0,
0,
0,
0,
0,
0,
0,
0,
0,
0,
0,
0,
0,
0,
0,
0,
0,
0,
0,
0,
0,
0,
0,
0,
0,
0,
0,
0,
0,
0,
0,
0,
0,
0,
0,
0,
0,
0,
0,
0,
0,
0,
0,
0,
0,
0,
0,
0,
0,
0,
0,
0,
0,
0,
0,
0,
0,
0,
0,
0,
0,
0,
0,
0,
0,
0,
0,
0,
0,
0,
0,
0,
0,
0,
0,
0,
0,
0,
0,
0,
0,
0,
0,
0,
0,
0,
0,
0,
0,
0,
0,
0,
0,
0,
0,
0,
0,
0,
0,
0,
0,
0,
0,
0,
0,
0,
0,
0,
0,
0,
0,
0,
0,
0,
0,
0,
0,
0,
0,
0,
0,
0,
0,
0,
0,
0,
0,
0,
0,
0,
0,
0,
0,
0,
0,
0,
0,
0,
0,
0,
0,
0,
0,
0,
0,
0,
0,
0,
0,
0,
0,
0,
0,
0,
0,
0,
0,
0,
0,
0,
0,
0,
0,
0,
#ENDOFDATA   :