File: N132962/Quantification/15 keV/Mengason MM2/MMM2 Wollastonite[7][4].msa
#FORMAT      : EMSA/MAS Spectral Data File
#VERSION     : 1.0
#TITLE       : MMM2 Wollastonite[7][all]
#DATE        : 29-SEP-2025
#TIME        : 00:11
#OWNER       : Unknown
#NPOINTS     : 4096
#NCOLUMNS    : 1
#XUNITS      : eV
#YUNITS      : counts
#DATATYPE    : Y
#XPERCHAN    : 9.99778
#OFFSET      : 1.69135
#BEAMKV      : 15
#SIGNALTYPE  : EDS
#ELEVANGLE   : 35
#AZIMANGLE   : 0
#LIVETIME    : 240.21
#REALTIME    : 254.883
#PROBECUR    : 1.21151
#TAUWIND     : 0
#TDEADLYR    : 0
#TACTLYR     : 0.045
#TALWIND     : 0.025
#CHOFFSET    : 0.0
#XLABEL      : Energy (eV)
#YLABEL      : Counts
#XPOSITION   : -12.62117
#YPOSITION   : 4.58245
#ZPOSITION   : 34.11879
#EDSDET      : SD
##SPECIMEN   : MMM2 Wollastonite[7][all]
##DET_HASH   : 12273538-fd48-a23f-0a19-f1e6fa85caef
##CALIB_HASH : 6abaa72c-aa41-8738-0be9-f592914732f3
##WORKING    : 15.0 mm
##DET_NAME   : EDAX All
##DET_MODE   : MediumLE
#SPECTRUM    :
24,
25,
10,
26,
109,
442,
1259,
4586,
14024,
20929,
15261,
8038,
4505,
3518,
4898,
15235,
56506,
107461,
78414,
21210,
3871,
2431,
2556,
2879,
3008,
3168,
3205,
3448,
3680,
3615,
3823,
3904,
4119,
4336,
4534,
4693,
4621,
4746,
4668,
4681,
4943,
5064,
5011,
5192,
5144,
5275,
5426,
5333,
5602,
5684,
5845,
6034,
5935,
6119,
7188,
16671,
60720,
154899,
209862,
149031,
60610,
20920,
10289,
6109,
4838,
4689,
4146,
3593,
3363,
3177,
3276,
3190,
3174,
3234,
3404,
3518,
3406,
3275,
3051,
2961,
2977,
2869,
2867,
2900,
2913,
2797,
2799,
2752,
2802,
2696,
2817,
2590,
2799,
2599,
2595,
2548,
2584,
2584,
2590,
2599,
2498,
2520,
2611,
2410,
2462,
2423,
2426,
2386,
2366,
2321,
2299,
2258,
2239,
2244,
2349,
2629,
2827,
3214,
3998,
7274,
18819,
48020,
89449,
113336,
94713,
53398,
20893,
6842,
2961,
2502,
3203,
5246,
9176,
13627,
15334,
12085,
7169,
3580,
2140,
1736,
1681,
1630,
1471,
1452,
1462,
1428,
1412,
1344,
1406,
1423,
1447,
1429,
1412,
1344,
1315,
1302,
1330,
1322,
1290,
1338,
1375,
1235,
1227,
1223,
1290,
1257,
1240,
1172,
1200,
1226,
1226,
1170,
1177,
1222,
1161,
1096,
1106,
1117,
1176,
1239,
1260,
1319,
1248,
1230,
1158,
1123,
1076,
1074,
1047,
1076,
1073,
1022,
982,
1019,
1030,
1012,
1018,
1055,
1047,
988,
949,
975,
932,
976,
880,
917,
861,
878,
873,
817,
873,
893,
913,
852,
941,
851,
841,
863,
839,
761,
829,
842,
863,
744,
809,
742,
771,
715,
736,
743,
728,
742,
716,
721,
751,
700,
683,
695,
680,
673,
641,
648,
677,
702,
657,
702,
718,
650,
679,
653,
623,
620,
587,
613,
604,
620,
617,
596,
574,
561,
559,
595,
606,
577,
552,
569,
556,
522,
558,
543,
513,
503,
491,
463,
586,
498,
461,
475,
490,
491,
506,
485,
493,
439,
434,
456,
439,
459,
457,
421,
402,
444,
419,
418,
407,
466,
434,
400,
369,
431,
374,
404,
387,
370,
383,
408,
384,
357,
363,
358,
383,
352,
347,
347,
345,
356,
335,
342,
328,
333,
319,
311,
295,
288,
329,
323,
311,
284,
295,
304,
307,
289,
302,
232,
288,
278,
275,
272,
285,
267,
239,
239,
281,
253,
258,
224,
238,
224,
238,
221,
244,
239,
238,
225,
200,
233,
218,
221,
218,
207,
210,
186,
197,
194,
182,
199,
195,
204,
167,
181,
187,
195,
167,
196,
151,
175,
198,
175,
176,
152,
165,
152,
163,
135,
150,
154,
139,
141,
144,
149,
135,
135,
136,
132,
143,
134,
118,
136,
126,
115,
132,
134,
112,
117,
137,
130,
112,
110,
108,
103,
108,
98,
98,
114,
106,
104,
84,
84,
79,
74,
82,
86,
78,
71,
80,
83,
70,
79,
77,
75,
72,
65,
81,
68,
59,
72,
52,
49,
61,
57,
55,
48,
60,
69,
51,
50,
52,
41,
55,
56,
53,
58,
50,
44,
51,
50,
33,
43,
34,
36,
36,
33,
36,
37,
33,
34,
33,
25,
27,
20,
23,
31,
26,
23,
22,
25,
21,
20,
20,
14,
13,
17,
18,
12,
12,
13,
18,
8,
11,
12,
5,
11,
5,
5,
6,
5,
3,
1,
1,
3,
0,
1,
0,
0,
1,
0,
0,
0,
0,
0,
0,
0,
0,
3,
1,
1,
3,
1,
0,
1,
1,
0,
1,
0,
0,
0,
0,
1,
0,
0,
0,
0,
0,
0,
0,
1,
0,
0,
0,
0,
1,
0,
0,
1,
1,
0,
1,
0,
0,
0,
0,
0,
0,
0,
0,
0,
0,
1,
0,
0,
0,
2,
0,
1,
0,
1,
0,
0,
0,
0,
1,
0,
0,
0,
0,
0,
0,
0,
1,
0,
0,
0,
0,
0,
0,
1,
0,
0,
0,
0,
1,
0,
0,
0,
0,
0,
0,
0,
0,
0,
0,
0,
0,
0,
0,
0,
1,
0,
0,
0,
0,
0,
0,
0,
0,
1,
0,
0,
0,
0,
0,
0,
0,
0,
1,
0,
0,
0,
0,
0,
0,
0,
0,
0,
0,
0,
0,
0,
0,
0,
0,
0,
0,
0,
0,
0,
0,
0,
0,
0,
0,
0,
0,
0,
0,
0,
0,
0,
0,
0,
0,
0,
0,
0,
1,
0,
0,
0,
0,
0,
0,
0,
0,
0,
0,
0,
0,
0,
0,
0,
0,
0,
0,
0,
0,
0,
0,
0,
0,
0,
0,
0,
0,
0,
0,
0,
0,
0,
0,
0,
0,
0,
0,
0,
0,
0,
0,
0,
0,
0,
0,
0,
0,
1,
0,
0,
0,
0,
0,
0,
0,
0,
0,
0,
0,
0,
0,
0,
0,
0,
0,
0,
0,
0,
0,
0,
0,
0,
0,
0,
0,
0,
0,
0,
0,
0,
0,
0,
0,
0,
0,
0,
0,
0,
0,
1,
0,
0,
0,
0,
0,
0,
0,
0,
0,
0,
0,
0,
0,
0,
0,
0,
0,
0,
0,
0,
0,
0,
0,
0,
0,
0,
0,
0,
0,
0,
0,
0,
0,
0,
0,
0,
0,
0,
0,
0,
0,
0,
0,
0,
0,
0,
0,
0,
0,
0,
0,
0,
0,
0,
0,
0,
0,
0,
0,
0,
0,
0,
0,
0,
0,
0,
0,
0,
0,
0,
0,
0,
0,
0,
0,
0,
0,
0,
0,
0,
0,
0,
0,
0,
0,
0,
0,
0,
0,
0,
0,
0,
0,
0,
0,
0,
0,
0,
0,
0,
0,
0,
0,
0,
0,
0,
0,
0,
0,
0,
0,
0,
0,
0,
0,
0,
0,
0,
0,
0,
0,
0,
0,
0,
0,
0,
0,
0,
0,
0,
0,
0,
0,
0,
0,
0,
0,
0,
0,
0,
0,
0,
0,
0,
0,
0,
0,
0,
0,
0,
0,
0,
0,
0,
0,
0,
0,
0,
0,
0,
0,
0,
0,
0,
0,
0,
0,
0,
0,
0,
0,
0,
0,
0,
0,
0,
0,
0,
0,
0,
0,
0,
0,
0,
0,
0,
0,
0,
0,
0,
0,
0,
0,
0,
0,
0,
0,
0,
0,
0,
0,
0,
0,
0,
0,
0,
0,
0,
0,
0,
0,
0,
0,
0,
0,
0,
0,
0,
0,
0,
0,
0,
0,
0,
0,
0,
0,
0,
0,
0,
0,
0,
0,
0,
0,
0,
0,
0,
0,
0,
0,
0,
0,
0,
0,
0,
0,
0,
0,
0,
0,
0,
0,
0,
0,
0,
0,
0,
0,
0,
0,
0,
0,
0,
0,
0,
0,
0,
0,
0,
0,
0,
0,
0,
0,
0,
0,
0,
0,
0,
0,
0,
0,
0,
0,
0,
0,
0,
0,
0,
0,
0,
0,
0,
0,
0,
0,
0,
0,
0,
0,
0,
0,
0,
0,
0,
0,
0,
0,
0,
0,
0,
0,
0,
0,
0,
0,
0,
0,
0,
0,
0,
0,
0,
0,
0,
0,
0,
0,
0,
0,
0,
0,
0,
0,
0,
0,
0,
0,
0,
0,
0,
0,
0,
0,
0,
0,
0,
0,
0,
0,
0,
0,
0,
0,
0,
0,
0,
0,
0,
0,
0,
0,
0,
0,
0,
0,
0,
0,
0,
0,
0,
0,
0,
0,
0,
0,
0,
0,
0,
0,
0,
0,
0,
0,
0,
0,
0,
0,
0,
0,
0,
0,
0,
0,
0,
0,
0,
0,
0,
0,
0,
0,
0,
0,
0,
0,
0,
0,
0,
0,
0,
0,
0,
0,
0,
0,
0,
0,
0,
0,
0,
0,
0,
0,
0,
0,
0,
0,
0,
0,
0,
0,
0,
0,
0,
0,
0,
0,
0,
0,
0,
0,
0,
0,
0,
0,
0,
0,
0,
0,
0,
0,
0,
0,
0,
0,
0,
0,
0,
0,
0,
0,
0,
0,
0,
0,
0,
0,
0,
0,
0,
0,
0,
0,
0,
0,
0,
0,
0,
0,
0,
0,
0,
0,
0,
0,
0,
0,
0,
0,
0,
0,
0,
0,
0,
0,
0,
0,
0,
0,
0,
0,
0,
0,
0,
0,
0,
0,
0,
0,
0,
0,
0,
0,
0,
0,
0,
0,
0,
0,
0,
0,
0,
0,
0,
0,
0,
0,
0,
0,
0,
0,
0,
0,
0,
0,
0,
0,
0,
0,
0,
0,
0,
0,
0,
0,
0,
0,
0,
0,
0,
0,
0,
0,
0,
0,
0,
0,
0,
0,
0,
0,
0,
0,
0,
0,
0,
0,
0,
0,
0,
0,
0,
0,
0,
0,
0,
0,
0,
0,
0,
0,
0,
0,
0,
0,
0,
0,
0,
0,
0,
0,
0,
0,
0,
0,
0,
0,
0,
0,
0,
0,
0,
0,
0,
0,
0,
0,
0,
#ENDOFDATA   :