File: N132962/Quantification/15 keV/Mengason MM2/MMM2 Spessartine[7][4].msa
#FORMAT      : EMSA/MAS Spectral Data File
#VERSION     : 1.0
#TITLE       : MMM2 Spessartine[7][all]
#DATE        : 29-SEP-2025
#TIME        : 00:52
#OWNER       : Unknown
#NPOINTS     : 4096
#NCOLUMNS    : 1
#XUNITS      : eV
#YUNITS      : counts
#DATATYPE    : Y
#XPERCHAN    : 9.99778
#OFFSET      : 1.69135
#BEAMKV      : 15
#SIGNALTYPE  : EDS
#ELEVANGLE   : 35
#AZIMANGLE   : 0
#LIVETIME    : 240.348
#REALTIME    : 256.807
#PROBECUR    : 1.21186
#TAUWIND     : 0
#TDEADLYR    : 0
#TACTLYR     : 0.045
#TALWIND     : 0.025
#CHOFFSET    : 0.0
#XLABEL      : Energy (eV)
#YLABEL      : Counts
#XPOSITION   : -19.72201
#YPOSITION   : 6.70947
#ZPOSITION   : 34.11879
#EDSDET      : SD
##SPECIMEN   : MMM2 Spessartine[7][all]
##DET_HASH   : 12273538-fd48-a23f-0a19-f1e6fa85caef
##CALIB_HASH : 6abaa72c-aa41-8738-0be9-f592914732f3
##WORKING    : 15.0 mm
##DET_NAME   : EDAX All
##DET_MODE   : MediumLE
#SPECTRUM    :
19,
31,
5,
22,
110,
393,
1437,
4382,
11870,
15387,
8325,
4867,
5005,
6668,
11842,
39956,
146048,
274948,
202565,
58747,
20796,
25566,
20625,
9921,
5119,
3475,
2985,
3045,
3227,
3288,
3354,
3525,
3790,
4097,
4425,
4607,
4388,
4370,
4513,
4518,
4895,
4773,
4914,
5065,
5229,
5586,
6780,
13997,
41803,
82489,
83989,
44615,
15896,
7483,
6336,
11460,
38150,
93885,
126970,
90423,
37394,
14114,
7682,
4783,
3742,
3558,
3887,
3901,
3663,
3518,
3369,
3407,
3257,
3422,
3555,
3542,
3564,
3277,
3424,
3186,
3182,
2946,
3064,
3087,
3036,
2996,
2967,
2934,
2934,
2905,
2948,
2837,
2902,
2718,
2838,
2884,
2735,
2635,
2703,
2792,
2726,
2620,
2660,
2569,
2554,
2542,
2559,
2556,
2535,
2544,
2377,
2423,
2482,
2431,
2479,
2466,
2382,
2393,
2249,
2364,
2262,
2585,
2958,
3050,
2796,
2458,
2272,
2114,
2047,
2006,
2085,
2066,
1974,
2009,
2049,
2023,
1936,
2007,
2041,
2043,
1949,
1879,
1824,
1699,
1748,
1836,
1757,
1654,
1792,
1722,
1607,
1778,
1718,
1640,
1675,
1596,
1589,
1608,
1569,
1545,
1545,
1467,
1533,
1491,
1433,
1491,
1440,
1421,
1450,
1475,
1355,
1446,
1392,
1352,
1318,
1331,
1359,
1361,
1325,
1363,
1224,
1226,
1257,
1220,
1312,
1233,
1241,
1226,
1297,
1271,
1538,
1881,
3632,
8457,
18283,
30814,
39768,
39682,
29914,
16977,
7851,
3152,
1548,
1232,
1098,
1084,
1086,
1102,
1103,
1183,
1475,
1859,
2547,
3643,
4938,
6052,
6402,
5799,
4193,
2747,
1631,
1144,
923,
832,
828,
797,
803,
869,
812,
837,
815,
749,
853,
906,
871,
939,
916,
853,
828,
774,
738,
750,
730,
723,
702,
723,
751,
741,
685,
760,
683,
694,
707,
700,
714,
698,
688,
650,
684,
640,
654,
674,
597,
589,
603,
567,
584,
611,
563,
600,
582,
603,
587,
595,
575,
585,
527,
567,
545,
513,
509,
548,
516,
522,
515,
487,
516,
465,
465,
495,
478,
462,
469,
468,
467,
492,
476,
478,
449,
471,
457,
434,
431,
410,
466,
426,
446,
408,
426,
403,
416,
388,
403,
397,
381,
387,
403,
378,
423,
391,
363,
398,
348,
352,
354,
351,
354,
336,
342,
345,
321,
291,
350,
333,
307,
350,
319,
303,
275,
303,
290,
285,
276,
317,
286,
256,
290,
318,
305,
298,
276,
257,
297,
293,
255,
215,
281,
232,
255,
232,
248,
267,
223,
227,
267,
226,
220,
224,
241,
207,
184,
219,
183,
198,
196,
216,
220,
194,
192,
176,
205,
169,
163,
179,
171,
175,
170,
175,
170,
158,
174,
173,
160,
157,
147,
180,
155,
142,
138,
143,
140,
144,
132,
126,
135,
137,
136,
129,
130,
114,
139,
121,
125,
93,
122,
103,
116,
120,
117,
112,
105,
98,
98,
88,
90,
89,
90,
83,
85,
84,
90,
80,
84,
76,
77,
61,
71,
77,
70,
76,
76,
70,
68,
62,
69,
69,
67,
60,
50,
63,
50,
50,
50,
48,
49,
51,
39,
46,
44,
44,
43,
48,
34,
36,
28,
28,
30,
37,
29,
29,
28,
24,
28,
29,
36,
21,
21,
29,
20,
25,
18,
21,
16,
18,
14,
10,
11,
12,
7,
13,
9,
10,
7,
8,
5,
1,
2,
3,
1,
1,
0,
2,
0,
0,
2,
1,
0,
1,
1,
1,
2,
1,
0,
0,
1,
0,
0,
1,
0,
1,
0,
0,
1,
0,
0,
0,
2,
0,
1,
0,
1,
1,
1,
0,
0,
1,
0,
0,
0,
0,
1,
0,
1,
0,
2,
1,
0,
0,
0,
1,
0,
0,
0,
0,
0,
0,
0,
0,
0,
1,
0,
0,
0,
0,
1,
1,
0,
0,
1,
0,
0,
1,
0,
0,
0,
0,
0,
1,
1,
0,
0,
0,
0,
0,
1,
0,
1,
0,
0,
0,
0,
1,
0,
1,
0,
1,
0,
0,
0,
0,
1,
0,
0,
0,
0,
0,
0,
0,
0,
0,
0,
0,
0,
0,
0,
0,
0,
0,
0,
0,
0,
0,
0,
0,
0,
0,
0,
0,
0,
0,
0,
0,
0,
0,
0,
1,
0,
0,
0,
0,
0,
0,
1,
0,
0,
0,
0,
0,
1,
0,
0,
0,
0,
0,
0,
0,
0,
0,
0,
0,
0,
0,
0,
0,
0,
0,
0,
0,
0,
0,
0,
0,
0,
0,
0,
0,
0,
0,
0,
0,
0,
0,
0,
0,
0,
0,
0,
0,
0,
0,
0,
0,
0,
0,
0,
0,
0,
0,
0,
0,
0,
1,
0,
0,
0,
1,
0,
0,
0,
0,
0,
0,
0,
0,
0,
0,
0,
0,
0,
0,
0,
0,
0,
0,
0,
0,
0,
0,
0,
0,
1,
0,
0,
0,
0,
0,
0,
0,
0,
0,
0,
0,
0,
0,
0,
0,
0,
0,
0,
0,
0,
0,
0,
0,
0,
0,
0,
0,
0,
0,
0,
0,
0,
0,
0,
0,
0,
0,
0,
0,
0,
0,
0,
0,
0,
0,
0,
0,
0,
0,
0,
0,
0,
0,
0,
0,
0,
0,
0,
0,
0,
0,
0,
0,
0,
0,
0,
0,
0,
0,
0,
0,
0,
0,
0,
0,
0,
0,
0,
0,
0,
0,
0,
0,
0,
0,
0,
0,
0,
0,
0,
0,
0,
0,
0,
0,
0,
0,
0,
0,
0,
0,
0,
0,
0,
0,
0,
0,
0,
0,
0,
0,
0,
0,
0,
0,
0,
0,
0,
0,
0,
0,
0,
0,
0,
0,
0,
0,
0,
0,
0,
0,
0,
0,
0,
0,
0,
0,
0,
0,
0,
0,
0,
0,
0,
0,
0,
0,
0,
0,
0,
0,
0,
0,
0,
0,
0,
0,
0,
0,
0,
0,
0,
0,
0,
0,
0,
0,
0,
0,
0,
0,
0,
0,
0,
0,
0,
0,
0,
0,
0,
0,
0,
0,
0,
0,
0,
0,
0,
0,
0,
0,
0,
0,
0,
0,
0,
0,
0,
0,
0,
0,
0,
0,
0,
0,
0,
0,
0,
0,
0,
0,
0,
0,
0,
0,
0,
0,
0,
0,
0,
0,
0,
0,
0,
0,
0,
0,
0,
0,
0,
0,
0,
0,
0,
0,
0,
0,
0,
0,
0,
0,
0,
0,
0,
0,
0,
0,
0,
0,
0,
0,
0,
0,
0,
0,
0,
0,
0,
0,
0,
0,
0,
0,
0,
0,
0,
0,
0,
0,
0,
0,
0,
0,
0,
0,
0,
0,
0,
0,
0,
0,
0,
0,
0,
0,
0,
0,
0,
0,
0,
0,
0,
0,
0,
0,
0,
0,
0,
0,
0,
0,
0,
0,
0,
0,
0,
0,
0,
0,
0,
0,
0,
0,
0,
0,
0,
0,
0,
0,
0,
0,
0,
0,
0,
0,
0,
0,
0,
0,
0,
0,
0,
0,
0,
0,
0,
0,
0,
0,
0,
0,
0,
0,
0,
0,
0,
0,
0,
0,
0,
0,
0,
0,
0,
0,
0,
0,
0,
0,
0,
0,
0,
0,
0,
0,
0,
0,
0,
0,
0,
0,
0,
0,
0,
0,
0,
0,
0,
0,
0,
0,
0,
0,
0,
0,
0,
0,
0,
0,
0,
0,
0,
0,
0,
0,
0,
0,
0,
0,
0,
0,
0,
0,
0,
0,
0,
0,
0,
0,
0,
0,
0,
0,
0,
0,
0,
0,
0,
0,
0,
0,
0,
0,
0,
0,
0,
0,
0,
0,
0,
0,
0,
0,
0,
0,
0,
0,
0,
0,
0,
0,
0,
0,
0,
0,
0,
0,
0,
0,
0,
0,
0,
0,
0,
0,
0,
0,
0,
0,
0,
0,
0,
0,
0,
0,
0,
0,
0,
0,
0,
0,
0,
0,
0,
0,
0,
0,
0,
0,
0,
0,
0,
0,
0,
0,
0,
0,
0,
0,
0,
0,
0,
0,
0,
0,
0,
0,
0,
0,
0,
0,
0,
0,
0,
0,
0,
0,
0,
0,
0,
0,
0,
0,
0,
0,
0,
0,
0,
0,
0,
0,
0,
0,
0,
0,
0,
0,
0,
0,
0,
0,
0,
0,
0,
0,
0,
0,
0,
0,
0,
0,
0,
0,
0,
0,
0,
0,
0,
0,
0,
0,
0,
0,
0,
0,
0,
0,
0,
0,
0,
0,
0,
0,
0,
0,
0,
0,
0,
0,
0,
0,
0,
0,
0,
0,
0,
0,
0,
0,
0,
0,
0,
0,
0,
0,
0,
0,
0,
0,
0,
0,
0,
0,
0,
0,
0,
0,
0,
0,
0,
0,
0,
0,
0,
0,
0,
0,
0,
0,
0,
0,
0,
0,
0,
0,
0,
0,
0,
0,
0,
0,
0,
0,
0,
0,
0,
0,
0,
0,
0,
0,
0,
0,
0,
0,
#ENDOFDATA   :