File: N132962/Quantification/15 keV/Mengason MM2/MMM2 Manganotantalite[7][4].msa
#FORMAT      : EMSA/MAS Spectral Data File
#VERSION     : 1.0
#TITLE       : MMM2 Manganotantalite[7][all]
#DATE        : 28-SEP-2025
#TIME        : 22:58
#OWNER       : Unknown
#NPOINTS     : 4096
#NCOLUMNS    : 1
#XUNITS      : eV
#YUNITS      : counts
#DATATYPE    : Y
#XPERCHAN    : 9.99778
#OFFSET      : 1.69135
#BEAMKV      : 15
#SIGNALTYPE  : EDS
#ELEVANGLE   : 35
#AZIMANGLE   : 0
#LIVETIME    : 240.232
#REALTIME    : 259.888
#PROBECUR    : 1.2132
#TAUWIND     : 0
#TDEADLYR    : 0
#TACTLYR     : 0.045
#TALWIND     : 0.025
#CHOFFSET    : 0.0
#XLABEL      : Energy (eV)
#YLABEL      : Counts
#XPOSITION   : -22.51877
#YPOSITION   : -0.35118
#ZPOSITION   : 34.11879
#EDSDET      : SD
##SPECIMEN   : MMM2 Manganotantalite[7][all]
##DET_HASH   : 12273538-fd48-a23f-0a19-f1e6fa85caef
##CALIB_HASH : 6abaa72c-aa41-8738-0be9-f592914732f3
##WORKING    : 15.0 mm
##DET_NAME   : EDAX All
##DET_MODE   : MediumLE
#SPECTRUM    :
23,
21,
9,
30,
374,
1728,
4318,
8795,
18213,
21917,
11916,
6192,
5825,
6602,
8606,
17321,
50441,
90814,
68674,
24005,
12674,
15150,
13513,
10960,
9211,
7511,
6767,
6895,
7290,
7552,
7676,
7577,
7947,
8277,
8531,
8545,
8364,
8797,
9053,
9248,
9186,
9929,
11690,
16190,
21204,
19486,
14201,
11476,
10456,
10505,
10413,
10465,
10877,
12804,
21365,
55608,
130140,
187158,
168259,
110118,
55259,
21413,
9926,
8620,
9683,
10859,
10280,
8732,
7932,
8815,
14290,
25238,
34699,
32930,
25468,
21198,
17010,
12585,
9375,
7648,
6544,
5851,
5401,
5217,
5163,
5030,
4981,
5070,
5312,
5284,
5357,
5020,
4859,
4885,
4927,
4819,
4855,
4782,
4730,
4697,
4939,
4689,
4793,
4824,
4745,
4795,
4802,
4726,
4878,
4708,
4771,
4672,
4607,
4770,
4920,
4847,
4738,
4685,
4545,
4546,
4502,
4467,
4525,
4515,
4470,
4371,
4396,
4329,
4275,
4489,
4348,
4364,
4338,
4323,
4163,
4239,
4177,
4309,
4092,
4075,
4199,
3995,
3981,
3942,
3961,
3913,
4093,
4034,
4245,
4407,
4674,
4566,
4412,
4005,
3881,
3860,
3734,
3689,
3677,
3662,
3679,
3648,
3666,
3660,
3618,
3667,
3574,
3565,
3515,
3447,
3430,
3439,
3439,
3496,
3324,
3230,
3242,
3333,
3302,
3264,
3233,
3201,
3134,
3126,
3181,
3114,
3308,
3056,
3043,
3049,
3119,
3287,
3990,
5793,
9398,
14005,
17766,
17593,
13364,
8665,
5213,
3578,
2961,
2756,
2768,
2747,
2736,
2755,
2764,
2972,
3305,
3999,
4931,
5735,
6013,
5693,
5306,
4695,
3937,
3138,
2811,
2638,
2286,
2377,
2325,
2411,
2313,
2247,
2265,
2266,
2291,
2310,
2330,
2496,
2448,
2536,
2650,
2616,
2639,
2660,
2610,
2358,
2300,
2181,
2033,
2149,
2058,
2044,
2091,
2009,
2088,
2040,
2083,
1952,
1989,
1975,
1810,
1933,
1844,
1887,
1841,
1854,
1893,
1877,
2043,
2068,
2365,
3394,
5002,
7575,
10129,
11421,
10992,
8781,
6149,
4079,
2724,
1923,
1775,
1709,
1668,
1728,
1652,
1626,
1533,
1554,
1582,
1626,
1514,
1436,
1397,
1508,
1471,
1470,
1457,
1444,
1403,
1456,
1436,
1369,
1335,
1445,
1455,
1394,
1444,
1631,
1690,
2047,
2473,
3138,
3836,
4092,
3874,
3378,
2787,
2264,
1958,
1861,
2020,
2261,
2550,
2818,
2775,
2344,
1993,
1625,
1412,
1257,
1113,
1140,
1251,
1086,
1084,
1048,
1007,
1003,
1017,
941,
933,
937,
961,
950,
964,
951,
916,
865,
931,
915,
884,
860,
882,
897,
883,
879,
858,
848,
817,
828,
825,
951,
1052,
1096,
1198,
1225,
1154,
1049,
935,
847,
804,
845,
804,
838,
791,
784,
806,
792,
751,
773,
688,
651,
659,
645,
597,
632,
637,
627,
608,
629,
568,
588,
558,
560,
558,
526,
560,
530,
538,
486,
531,
486,
490,
500,
472,
511,
462,
488,
483,
464,
431,
449,
451,
418,
453,
408,
414,
392,
380,
394,
398,
398,
361,
387,
380,
371,
338,
345,
347,
330,
317,
311,
311,
316,
293,
326,
299,
286,
279,
251,
291,
281,
270,
265,
248,
250,
241,
240,
227,
231,
235,
218,
219,
187,
219,
200,
198,
186,
197,
195,
167,
179,
177,
143,
156,
176,
166,
148,
135,
119,
162,
135,
112,
125,
131,
130,
111,
90,
85,
104,
82,
84,
91,
78,
73,
71,
62,
56,
51,
56,
65,
52,
48,
36,
31,
35,
22,
16,
16,
18,
5,
11,
6,
5,
8,
4,
6,
2,
4,
4,
6,
3,
2,
4,
4,
3,
3,
2,
1,
6,
2,
4,
2,
0,
0,
4,
1,
1,
2,
1,
1,
2,
1,
4,
2,
3,
2,
2,
0,
2,
4,
3,
0,
2,
4,
1,
2,
3,
3,
2,
3,
3,
2,
3,
2,
0,
2,
2,
1,
1,
3,
0,
1,
3,
1,
2,
2,
0,
3,
1,
3,
1,
1,
3,
0,
2,
1,
0,
2,
0,
3,
0,
1,
1,
1,
1,
1,
0,
1,
1,
0,
1,
3,
3,
2,
1,
3,
2,
1,
2,
1,
2,
3,
1,
1,
2,
2,
5,
3,
1,
0,
0,
1,
1,
1,
0,
2,
1,
0,
1,
1,
4,
0,
2,
2,
1,
2,
2,
2,
0,
2,
1,
1,
1,
0,
2,
0,
0,
1,
0,
2,
0,
2,
1,
0,
0,
1,
2,
0,
2,
0,
1,
0,
0,
0,
1,
1,
0,
1,
0,
0,
0,
0,
3,
1,
1,
0,
2,
1,
0,
1,
0,
1,
1,
0,
1,
2,
0,
2,
1,
0,
1,
1,
1,
1,
0,
1,
0,
0,
1,
1,
0,
0,
0,
0,
0,
1,
0,
1,
0,
0,
0,
0,
0,
1,
1,
0,
0,
0,
0,
0,
1,
0,
0,
2,
0,
1,
0,
1,
0,
0,
1,
0,
0,
1,
0,
0,
0,
0,
0,
0,
0,
0,
0,
0,
0,
0,
0,
0,
0,
0,
0,
0,
0,
1,
0,
0,
1,
0,
0,
0,
0,
2,
0,
0,
0,
0,
0,
0,
0,
0,
0,
0,
0,
0,
0,
0,
0,
0,
1,
0,
0,
0,
1,
0,
1,
0,
0,
0,
0,
0,
0,
0,
0,
0,
0,
0,
0,
0,
0,
0,
0,
0,
0,
0,
0,
0,
0,
0,
0,
0,
0,
0,
0,
0,
0,
0,
0,
0,
0,
0,
0,
0,
0,
0,
0,
0,
0,
0,
0,
0,
0,
0,
0,
1,
0,
0,
0,
0,
0,
0,
0,
0,
0,
0,
0,
0,
0,
0,
0,
0,
0,
0,
0,
0,
0,
0,
0,
0,
0,
0,
0,
0,
0,
0,
0,
0,
0,
0,
0,
0,
0,
0,
0,
0,
0,
0,
0,
0,
0,
0,
0,
0,
0,
0,
0,
0,
0,
0,
0,
0,
0,
0,
0,
0,
0,
0,
0,
0,
0,
0,
0,
0,
0,
0,
0,
0,
0,
0,
0,
0,
0,
0,
0,
0,
0,
0,
0,
0,
0,
0,
0,
0,
0,
0,
0,
0,
0,
0,
0,
0,
0,
0,
0,
0,
0,
0,
0,
0,
0,
0,
0,
0,
0,
0,
0,
0,
0,
0,
0,
0,
0,
0,
0,
0,
0,
0,
0,
0,
0,
0,
0,
0,
0,
0,
0,
0,
0,
0,
0,
0,
0,
0,
0,
0,
0,
0,
0,
0,
0,
0,
0,
0,
0,
0,
0,
0,
0,
0,
0,
0,
0,
0,
0,
0,
0,
0,
0,
0,
0,
0,
0,
0,
0,
0,
0,
0,
0,
0,
0,
0,
0,
0,
0,
0,
0,
0,
0,
0,
0,
0,
0,
0,
0,
0,
0,
0,
0,
0,
0,
0,
0,
0,
0,
0,
0,
0,
0,
0,
0,
0,
0,
0,
0,
0,
0,
0,
0,
0,
0,
0,
0,
0,
0,
0,
0,
0,
0,
0,
0,
0,
0,
0,
0,
0,
0,
0,
0,
0,
0,
0,
0,
0,
0,
0,
0,
0,
0,
0,
0,
0,
0,
0,
0,
0,
0,
0,
0,
0,
0,
0,
0,
0,
0,
0,
0,
0,
0,
0,
0,
0,
0,
0,
0,
0,
0,
0,
0,
0,
0,
0,
0,
0,
0,
0,
0,
0,
0,
0,
0,
0,
0,
0,
0,
0,
0,
0,
0,
0,
0,
0,
0,
0,
0,
0,
0,
0,
0,
0,
0,
0,
0,
0,
0,
0,
0,
0,
0,
0,
0,
0,
0,
0,
0,
0,
0,
0,
0,
0,
0,
0,
0,
0,
0,
0,
0,
0,
0,
0,
0,
0,
0,
0,
0,
0,
0,
0,
0,
0,
0,
0,
0,
0,
0,
0,
0,
0,
0,
0,
0,
0,
0,
0,
0,
0,
0,
0,
0,
0,
0,
0,
0,
0,
0,
0,
0,
0,
0,
0,
0,
0,
0,
0,
0,
0,
0,
0,
0,
0,
0,
0,
0,
0,
0,
0,
0,
0,
0,
0,
0,
0,
0,
0,
0,
0,
0,
0,
0,
0,
0,
0,
0,
0,
0,
0,
0,
0,
0,
0,
0,
0,
0,
0,
0,
0,
0,
0,
0,
0,
0,
0,
0,
0,
0,
0,
0,
0,
0,
0,
0,
0,
0,
0,
0,
0,
0,
0,
0,
0,
0,
0,
0,
0,
0,
0,
0,
0,
0,
0,
0,
0,
0,
0,
0,
0,
0,
0,
0,
0,
0,
0,
0,
0,
0,
0,
0,
0,
0,
0,
0,
0,
0,
0,
0,
0,
0,
0,
0,
0,
0,
0,
0,
0,
0,
0,
0,
0,
0,
0,
0,
0,
0,
0,
0,
0,
0,
0,
0,
0,
0,
0,
0,
0,
0,
0,
0,
0,
0,
0,
0,
0,
0,
0,
0,
0,
0,
0,
0,
0,
0,
0,
0,
0,
0,
0,
0,
0,
0,
0,
0,
0,
0,
0,
0,
0,
0,
0,
0,
#ENDOFDATA   :