File: N132962/Quantification/15 keV/Mengason MM2/MMM2 Tugtupite[5][4].msa
#FORMAT      : EMSA/MAS Spectral Data File
#VERSION     : 1.0
#TITLE       : MMM2 Tugtupite[5][all]
#DATE        : 29-SEP-2025
#TIME        : 01:01
#OWNER       : Unknown
#NPOINTS     : 4096
#NCOLUMNS    : 1
#XUNITS      : eV
#YUNITS      : counts
#DATATYPE    : Y
#XPERCHAN    : 9.99778
#OFFSET      : 1.69135
#BEAMKV      : 15
#SIGNALTYPE  : EDS
#ELEVANGLE   : 35
#AZIMANGLE   : 0
#LIVETIME    : 240.437
#REALTIME    : 257.32
#PROBECUR    : 1.21248
#TAUWIND     : 0
#TDEADLYR    : 0
#TACTLYR     : 0.045
#TALWIND     : 0.025
#CHOFFSET    : 0.0
#XLABEL      : Energy (eV)
#YLABEL      : Counts
#XPOSITION   : -17.26358
#YPOSITION   : 6.74789
#ZPOSITION   : 34.11879
#EDSDET      : SD
##SPECIMEN   : MMM2 Tugtupite[5][all]
##DET_HASH   : 12273538-fd48-a23f-0a19-f1e6fa85caef
##CALIB_HASH : 6abaa72c-aa41-8738-0be9-f592914732f3
##WORKING    : 15.0 mm
##DET_NAME   : EDAX All
##DET_MODE   : MediumLE
#SPECTRUM    :
22,
33,
11,
24,
133,
488,
1255,
3720,
10353,
13035,
6845,
3385,
3424,
4578,
8270,
30753,
115465,
221117,
159930,
42161,
5979,
2804,
2948,
3209,
3234,
3478,
3776,
4211,
4651,
5455,
5780,
7406,
15604,
55399,
134494,
148429,
72398,
18001,
5060,
3727,
3766,
3835,
3988,
4155,
4377,
4449,
5058,
9267,
24323,
46555,
46499,
26299,
11278,
6349,
5933,
14330,
54915,
140228,
190307,
134519,
53653,
18485,
8718,
4727,
3024,
2617,
2647,
2629,
2670,
2735,
2609,
2524,
2469,
2646,
2901,
2976,
3003,
2807,
2563,
2485,
2445,
2543,
2690,
3245,
4811,
10387,
22511,
34590,
33735,
20759,
8612,
4227,
4054,
5049,
5340,
4433,
3174,
2284,
1962,
1930,
1862,
1792,
1820,
1931,
1920,
1868,
1916,
1850,
1839,
1849,
1811,
1763,
1645,
1676,
1848,
1797,
1916,
1791,
1692,
1659,
1621,
1590,
1582,
1588,
1567,
1572,
1510,
1438,
1443,
1483,
1381,
1405,
1432,
1436,
1401,
1368,
1386,
1334,
1342,
1331,
1305,
1364,
1323,
1303,
1287,
1347,
1329,
1303,
1229,
1242,
1150,
1235,
1183,
1206,
1131,
1166,
1130,
1098,
1124,
1125,
1097,
1029,
1016,
1079,
1040,
1022,
1014,
1097,
975,
977,
1060,
1015,
996,
994,
961,
920,
935,
947,
957,
981,
928,
920,
913,
913,
977,
918,
851,
879,
868,
879,
867,
832,
864,
818,
819,
807,
861,
763,
776,
751,
839,
714,
778,
752,
754,
703,
688,
676,
740,
692,
725,
714,
701,
736,
681,
686,
650,
649,
685,
678,
576,
606,
600,
651,
600,
627,
643,
580,
568,
618,
603,
582,
544,
595,
583,
543,
566,
554,
528,
562,
537,
570,
516,
535,
524,
506,
482,
499,
506,
492,
517,
441,
488,
489,
466,
483,
468,
458,
476,
423,
424,
462,
409,
429,
443,
389,
440,
409,
397,
380,
402,
390,
374,
388,
390,
430,
397,
383,
340,
327,
342,
383,
344,
398,
368,
331,
339,
327,
328,
370,
340,
347,
346,
285,
335,
318,
337,
352,
327,
309,
286,
310,
303,
294,
305,
300,
279,
291,
277,
326,
281,
291,
273,
257,
270,
273,
229,
270,
251,
272,
266,
236,
231,
240,
219,
242,
267,
224,
243,
246,
213,
229,
224,
207,
228,
229,
211,
206,
199,
219,
214,
190,
200,
201,
179,
180,
202,
203,
166,
185,
193,
173,
196,
197,
167,
158,
172,
161,
159,
179,
157,
144,
155,
163,
153,
149,
135,
146,
140,
156,
156,
143,
152,
144,
143,
130,
103,
127,
122,
114,
122,
133,
127,
121,
128,
129,
128,
106,
105,
111,
103,
121,
125,
103,
90,
81,
107,
115,
96,
82,
84,
88,
89,
94,
86,
78,
73,
74,
88,
71,
84,
62,
65,
63,
73,
74,
77,
73,
58,
55,
74,
61,
54,
61,
49,
58,
51,
71,
52,
52,
53,
69,
40,
59,
58,
49,
49,
47,
53,
30,
42,
50,
31,
42,
38,
45,
29,
43,
42,
30,
33,
31,
33,
24,
33,
31,
28,
28,
24,
30,
16,
26,
23,
20,
26,
18,
18,
17,
13,
29,
20,
13,
16,
15,
14,
15,
14,
7,
15,
14,
14,
7,
12,
11,
8,
5,
5,
7,
10,
6,
6,
4,
6,
3,
3,
0,
2,
1,
2,
0,
1,
2,
1,
1,
0,
0,
0,
0,
0,
0,
0,
0,
0,
0,
1,
0,
0,
0,
0,
0,
0,
0,
0,
0,
0,
0,
0,
0,
0,
0,
0,
0,
0,
0,
1,
0,
0,
0,
1,
0,
0,
0,
1,
0,
0,
0,
0,
0,
0,
0,
0,
0,
0,
0,
2,
0,
1,
0,
0,
0,
0,
0,
0,
1,
0,
0,
0,
0,
0,
0,
0,
0,
0,
0,
0,
0,
0,
0,
0,
1,
0,
0,
0,
0,
0,
0,
0,
0,
0,
0,
0,
0,
0,
0,
0,
0,
0,
0,
0,
0,
0,
0,
0,
0,
0,
0,
0,
0,
0,
0,
0,
0,
0,
0,
0,
0,
0,
0,
0,
0,
0,
0,
0,
0,
0,
0,
0,
0,
0,
0,
0,
0,
0,
0,
1,
0,
0,
0,
0,
0,
0,
0,
0,
0,
0,
0,
0,
0,
0,
0,
0,
0,
0,
0,
0,
0,
0,
0,
0,
0,
0,
0,
0,
0,
0,
0,
0,
0,
0,
0,
0,
0,
0,
0,
0,
0,
0,
0,
0,
0,
0,
0,
0,
0,
0,
0,
0,
0,
0,
0,
0,
0,
0,
0,
0,
0,
0,
0,
0,
0,
0,
0,
0,
0,
0,
0,
0,
0,
0,
0,
0,
0,
0,
0,
0,
0,
0,
0,
0,
0,
0,
0,
0,
0,
0,
0,
0,
0,
0,
0,
0,
0,
0,
0,
0,
0,
0,
0,
0,
0,
0,
0,
0,
0,
0,
0,
0,
0,
0,
0,
0,
0,
0,
0,
0,
0,
0,
0,
0,
0,
0,
0,
0,
0,
0,
0,
0,
0,
0,
0,
0,
0,
0,
0,
0,
0,
0,
0,
0,
0,
0,
0,
0,
0,
0,
0,
0,
0,
0,
0,
0,
0,
0,
0,
0,
0,
0,
0,
0,
0,
0,
0,
0,
0,
0,
0,
0,
0,
0,
0,
0,
0,
0,
0,
0,
0,
0,
0,
0,
0,
0,
0,
0,
0,
0,
0,
0,
0,
0,
0,
0,
0,
0,
0,
0,
0,
0,
0,
0,
0,
0,
0,
0,
0,
0,
0,
0,
0,
0,
0,
0,
0,
0,
0,
0,
0,
0,
0,
0,
0,
0,
0,
0,
0,
0,
0,
0,
0,
0,
0,
0,
0,
0,
0,
0,
0,
0,
0,
0,
0,
0,
0,
0,
0,
0,
0,
0,
0,
0,
0,
0,
0,
0,
0,
0,
0,
0,
0,
0,
0,
0,
0,
0,
0,
0,
0,
0,
0,
0,
0,
0,
0,
0,
0,
0,
0,
0,
0,
0,
0,
0,
0,
0,
0,
0,
0,
0,
0,
0,
0,
0,
0,
0,
0,
0,
0,
0,
0,
0,
0,
0,
0,
0,
0,
0,
0,
0,
0,
0,
0,
0,
0,
0,
0,
0,
0,
0,
0,
0,
0,
0,
0,
0,
0,
0,
0,
0,
0,
0,
0,
0,
0,
0,
0,
0,
0,
0,
0,
0,
0,
0,
0,
0,
0,
0,
0,
0,
0,
0,
0,
0,
0,
0,
0,
0,
0,
0,
0,
0,
0,
0,
0,
0,
0,
0,
0,
0,
0,
0,
0,
0,
0,
0,
0,
0,
0,
0,
0,
0,
0,
0,
0,
0,
0,
0,
0,
0,
0,
0,
0,
0,
0,
0,
0,
0,
0,
0,
0,
0,
0,
0,
0,
0,
0,
0,
0,
0,
0,
0,
0,
0,
0,
0,
0,
0,
0,
0,
0,
0,
0,
0,
0,
0,
0,
0,
0,
0,
0,
0,
0,
0,
0,
0,
0,
0,
0,
0,
0,
0,
0,
0,
0,
0,
0,
0,
0,
0,
0,
0,
0,
0,
0,
0,
0,
0,
0,
0,
0,
0,
0,
0,
0,
0,
0,
0,
0,
0,
0,
0,
0,
0,
0,
0,
0,
0,
0,
0,
0,
0,
0,
0,
0,
0,
0,
0,
0,
0,
0,
0,
0,
0,
0,
0,
0,
0,
0,
0,
0,
0,
0,
0,
0,
0,
0,
0,
0,
0,
0,
0,
0,
0,
0,
0,
0,
0,
0,
0,
0,
0,
0,
0,
0,
0,
0,
0,
0,
0,
0,
0,
0,
0,
0,
0,
0,
0,
0,
0,
0,
0,
0,
0,
0,
0,
0,
0,
0,
0,
0,
0,
0,
0,
0,
0,
0,
0,
0,
0,
0,
0,
0,
0,
0,
0,
0,
0,
0,
0,
0,
0,
0,
0,
0,
0,
0,
0,
0,
0,
0,
0,
0,
0,
0,
0,
0,
0,
0,
0,
0,
0,
0,
0,
0,
0,
0,
0,
0,
0,
0,
0,
0,
0,
0,
0,
0,
0,
0,
0,
0,
0,
0,
0,
0,
0,
0,
0,
0,
0,
0,
0,
0,
0,
0,
0,
0,
0,
0,
0,
0,
0,
0,
0,
0,
0,
0,
0,
0,
0,
0,
0,
0,
0,
0,
0,
0,
0,
0,
0,
0,
0,
0,
0,
0,
0,
0,
0,
0,
0,
0,
0,
0,
0,
0,
0,
0,
0,
0,
0,
0,
0,
0,
0,
0,
0,
0,
0,
0,
0,
0,
0,
0,
0,
0,
0,
0,
0,
0,
0,
0,
0,
0,
0,
0,
0,
0,
0,
0,
0,
0,
0,
0,
0,
0,
0,
0,
0,
0,
0,
0,
0,
0,
0,
0,
0,
0,
0,
0,
0,
0,
0,
0,
0,
0,
0,
0,
0,
0,
#ENDOFDATA   :