File: N132962/Quantification/15 keV/Mengason MM2/MMM2 Tugtupite[3][4].msa
#FORMAT      : EMSA/MAS Spectral Data File
#VERSION     : 1.0
#TITLE       : MMM2 Tugtupite[3][all]
#DATE        : 29-SEP-2025
#TIME        : 00:58
#OWNER       : Unknown
#NPOINTS     : 4096
#NCOLUMNS    : 1
#XUNITS      : eV
#YUNITS      : counts
#DATATYPE    : Y
#XPERCHAN    : 9.99778
#OFFSET      : 1.69135
#BEAMKV      : 15
#SIGNALTYPE  : EDS
#ELEVANGLE   : 35
#AZIMANGLE   : 0
#LIVETIME    : 240.421
#REALTIME    : 257.259
#PROBECUR    : 1.21247
#TAUWIND     : 0
#TDEADLYR    : 0
#TACTLYR     : 0.045
#TALWIND     : 0.025
#CHOFFSET    : 0.0
#XLABEL      : Energy (eV)
#YLABEL      : Counts
#XPOSITION   : -17.31174
#YPOSITION   : 6.71624
#ZPOSITION   : 34.11879
#EDSDET      : SD
##SPECIMEN   : MMM2 Tugtupite[3][all]
##DET_HASH   : 12273538-fd48-a23f-0a19-f1e6fa85caef
##CALIB_HASH : 6abaa72c-aa41-8738-0be9-f592914732f3
##WORKING    : 15.0 mm
##DET_NAME   : EDAX All
##DET_MODE   : MediumLE
#SPECTRUM    :
27,
25,
12,
25,
117,
514,
1286,
3685,
10567,
13073,
6946,
3448,
3456,
4548,
8445,
30730,
115330,
219061,
159663,
41822,
6066,
2710,
2877,
3228,
3441,
3598,
3789,
4149,
4750,
5427,
5755,
7267,
16045,
55224,
133248,
148535,
72713,
18006,
5096,
3794,
3823,
3846,
3967,
4051,
4176,
4455,
5212,
9066,
24201,
46516,
47175,
26468,
11142,
6258,
6204,
14361,
54949,
139533,
189684,
134149,
54072,
18342,
8639,
4703,
3060,
2570,
2675,
2582,
2614,
2567,
2590,
2623,
2424,
2512,
2800,
2998,
3116,
2802,
2510,
2346,
2444,
2392,
2694,
3252,
4877,
10229,
22046,
34425,
33414,
20306,
8587,
4164,
3964,
4999,
5350,
4442,
2999,
2304,
1964,
1987,
1992,
1917,
1879,
1919,
1907,
1893,
1929,
1917,
1897,
1780,
1796,
1703,
1737,
1824,
1754,
1764,
1849,
1729,
1618,
1631,
1594,
1594,
1555,
1640,
1618,
1493,
1538,
1498,
1477,
1455,
1471,
1459,
1473,
1448,
1399,
1378,
1313,
1320,
1349,
1261,
1290,
1260,
1251,
1289,
1372,
1284,
1271,
1243,
1222,
1234,
1302,
1187,
1230,
1147,
1122,
1127,
1113,
1187,
1129,
1108,
1091,
1084,
1081,
1030,
1001,
990,
1014,
1080,
996,
1001,
1011,
993,
980,
982,
983,
985,
985,
953,
899,
921,
901,
882,
929,
879,
908,
920,
876,
887,
886,
804,
800,
826,
803,
823,
821,
851,
797,
790,
781,
759,
773,
729,
733,
749,
704,
703,
757,
724,
714,
732,
740,
747,
769,
729,
727,
694,
648,
684,
638,
688,
662,
609,
635,
636,
593,
592,
592,
570,
611,
583,
560,
560,
547,
565,
540,
570,
587,
534,
512,
523,
525,
527,
533,
476,
523,
508,
537,
537,
504,
460,
459,
463,
481,
502,
450,
475,
503,
442,
449,
461,
418,
426,
446,
448,
433,
416,
400,
423,
412,
409,
383,
382,
409,
387,
378,
367,
374,
380,
355,
372,
336,
355,
381,
378,
368,
340,
347,
340,
336,
346,
345,
349,
314,
312,
300,
313,
308,
312,
295,
291,
300,
292,
314,
293,
292,
281,
316,
292,
276,
266,
276,
283,
255,
275,
268,
269,
275,
265,
265,
263,
286,
245,
258,
240,
253,
244,
229,
215,
248,
251,
225,
230,
236,
200,
205,
202,
196,
221,
186,
196,
232,
193,
201,
186,
196,
185,
187,
216,
203,
183,
190,
196,
200,
179,
167,
190,
193,
161,
146,
148,
159,
154,
150,
171,
144,
148,
138,
159,
159,
132,
155,
155,
136,
147,
139,
126,
136,
134,
119,
121,
134,
114,
116,
106,
119,
109,
111,
118,
113,
108,
111,
112,
112,
98,
93,
95,
110,
117,
87,
110,
78,
83,
94,
92,
87,
87,
69,
74,
68,
73,
71,
73,
68,
76,
84,
56,
74,
76,
76,
64,
70,
61,
70,
54,
62,
59,
63,
53,
55,
59,
65,
51,
41,
40,
37,
46,
43,
53,
41,
55,
46,
54,
43,
41,
44,
41,
49,
35,
43,
39,
36,
32,
42,
24,
33,
20,
16,
41,
25,
33,
19,
19,
28,
23,
13,
18,
8,
10,
14,
14,
13,
16,
21,
18,
19,
13,
12,
13,
10,
9,
11,
7,
6,
13,
11,
13,
7,
6,
5,
4,
4,
7,
7,
2,
2,
6,
5,
3,
1,
0,
1,
1,
0,
1,
0,
1,
0,
0,
0,
2,
1,
0,
0,
0,
1,
0,
1,
0,
0,
0,
0,
1,
0,
0,
0,
0,
0,
0,
0,
0,
0,
0,
0,
0,
0,
0,
0,
0,
0,
1,
0,
0,
0,
0,
0,
1,
0,
0,
0,
0,
0,
0,
0,
0,
0,
0,
0,
1,
0,
0,
0,
0,
0,
0,
0,
0,
0,
1,
0,
0,
0,
0,
0,
0,
0,
0,
0,
0,
0,
0,
0,
0,
0,
0,
0,
0,
0,
0,
0,
0,
0,
0,
0,
0,
0,
0,
0,
0,
0,
0,
0,
0,
0,
0,
0,
0,
0,
0,
0,
0,
0,
0,
0,
0,
0,
0,
0,
0,
0,
0,
0,
0,
0,
0,
0,
0,
0,
0,
0,
0,
1,
0,
0,
0,
0,
0,
0,
0,
0,
0,
0,
0,
0,
0,
0,
0,
0,
0,
0,
0,
0,
0,
0,
0,
0,
0,
0,
0,
0,
0,
0,
0,
0,
0,
0,
0,
0,
0,
0,
0,
0,
0,
0,
0,
0,
0,
0,
0,
0,
0,
0,
1,
0,
0,
0,
0,
0,
0,
0,
0,
0,
0,
0,
0,
0,
0,
0,
0,
0,
0,
0,
0,
0,
0,
0,
0,
0,
0,
0,
0,
0,
0,
0,
0,
0,
0,
0,
0,
0,
0,
0,
0,
0,
0,
0,
0,
0,
0,
0,
0,
0,
0,
0,
0,
0,
0,
0,
0,
0,
0,
0,
0,
0,
0,
0,
0,
0,
0,
0,
0,
0,
0,
0,
0,
0,
0,
0,
0,
0,
0,
0,
0,
0,
0,
0,
0,
0,
0,
0,
0,
0,
0,
0,
0,
0,
0,
0,
0,
0,
0,
0,
0,
0,
0,
0,
0,
0,
0,
0,
0,
0,
0,
0,
0,
0,
0,
0,
0,
0,
0,
0,
0,
0,
0,
0,
0,
0,
0,
0,
0,
0,
0,
0,
0,
0,
0,
0,
0,
0,
0,
0,
0,
0,
0,
0,
0,
0,
0,
0,
0,
0,
0,
0,
0,
0,
0,
0,
0,
0,
0,
0,
0,
0,
0,
0,
0,
0,
0,
0,
0,
0,
0,
0,
0,
0,
0,
0,
0,
0,
0,
0,
0,
0,
0,
0,
0,
0,
0,
0,
0,
0,
0,
0,
0,
0,
0,
0,
0,
0,
0,
0,
0,
0,
0,
0,
0,
0,
0,
0,
0,
0,
0,
0,
0,
0,
0,
0,
0,
0,
0,
0,
0,
0,
0,
0,
0,
0,
0,
0,
0,
0,
0,
0,
0,
0,
0,
0,
0,
0,
0,
0,
0,
0,
0,
0,
0,
0,
0,
0,
0,
0,
0,
0,
0,
0,
0,
0,
0,
0,
0,
0,
0,
0,
0,
0,
0,
0,
0,
0,
0,
0,
0,
0,
0,
0,
0,
0,
0,
0,
0,
0,
0,
0,
0,
0,
0,
0,
0,
0,
0,
0,
0,
0,
0,
0,
0,
0,
0,
0,
0,
0,
0,
0,
0,
0,
0,
0,
0,
0,
0,
0,
0,
0,
0,
0,
0,
0,
0,
0,
0,
0,
0,
0,
0,
0,
0,
0,
0,
0,
0,
0,
0,
0,
0,
0,
0,
0,
0,
0,
0,
0,
0,
0,
0,
0,
0,
0,
0,
0,
0,
0,
0,
0,
0,
0,
0,
0,
0,
0,
0,
0,
0,
0,
0,
0,
0,
0,
0,
0,
0,
0,
0,
0,
0,
0,
0,
0,
0,
0,
0,
0,
0,
0,
0,
0,
0,
0,
0,
0,
0,
0,
0,
0,
0,
0,
0,
0,
0,
0,
0,
0,
0,
0,
0,
0,
0,
0,
0,
0,
0,
0,
0,
0,
0,
0,
0,
0,
0,
0,
0,
0,
0,
0,
0,
0,
0,
0,
0,
0,
0,
0,
0,
0,
0,
0,
0,
0,
0,
0,
0,
0,
0,
0,
0,
0,
0,
0,
0,
0,
0,
0,
0,
0,
0,
0,
0,
0,
0,
0,
0,
0,
0,
0,
0,
0,
0,
0,
0,
0,
0,
0,
0,
0,
0,
0,
0,
0,
0,
0,
0,
0,
0,
0,
0,
0,
0,
0,
0,
0,
0,
0,
0,
0,
0,
0,
0,
0,
0,
0,
0,
0,
0,
0,
0,
0,
0,
0,
0,
0,
0,
0,
0,
0,
0,
0,
0,
0,
0,
0,
0,
0,
0,
0,
0,
0,
0,
0,
0,
0,
0,
0,
0,
0,
0,
0,
0,
0,
0,
0,
0,
0,
0,
0,
0,
0,
0,
0,
0,
0,
0,
0,
0,
0,
0,
0,
0,
0,
0,
0,
0,
0,
0,
0,
0,
0,
0,
0,
0,
0,
0,
0,
0,
0,
0,
0,
0,
0,
0,
0,
0,
0,
0,
0,
0,
0,
0,
0,
0,
0,
0,
0,
0,
0,
0,
0,
0,
0,
0,
0,
0,
0,
0,
0,
0,
0,
0,
0,
0,
0,
0,
0,
0,
0,
0,
0,
0,
0,
0,
0,
0,
0,
0,
0,
0,
0,
0,
0,
0,
0,
0,
0,
0,
0,
0,
0,
0,
0,
0,
0,
0,
0,
0,
0,
0,
0,
0,
0,
0,
0,
0,
0,
0,
0,
0,
0,
0,
0,
0,
0,
0,
0,
0,
0,
0,
0,
0,
0,
0,
0,
0,
0,
0,
0,
0,
0,
0,
0,
0,
0,
0,
0,
0,
0,
0,
0,
0,
#ENDOFDATA   :