File: N132962/Quantification/15 keV/Mengason MM2/MMM2 Orthoclaise[2][4].msa
#FORMAT      : EMSA/MAS Spectral Data File
#VERSION     : 1.0
#TITLE       : MMM2 Orthoclaise[2][all]
#DATE        : 28-SEP-2025
#TIME        : 20:58
#OWNER       : Unknown
#NPOINTS     : 4096
#NCOLUMNS    : 1
#XUNITS      : eV
#YUNITS      : counts
#DATATYPE    : Y
#XPERCHAN    : 9.99778
#OFFSET      : 1.69135
#BEAMKV      : 15
#SIGNALTYPE  : EDS
#ELEVANGLE   : 35
#AZIMANGLE   : 0
#LIVETIME    : 240.212
#REALTIME    : 256.246
#PROBECUR    : 1.21333
#TAUWIND     : 0
#TDEADLYR    : 0
#TACTLYR     : 0.045
#TALWIND     : 0.025
#CHOFFSET    : 0.0
#XLABEL      : Energy (eV)
#YLABEL      : Counts
#XPOSITION   : -14.06413
#YPOSITION   : -3.94857
#ZPOSITION   : 34.11879
#EDSDET      : SD
##SPECIMEN   : MMM2 Orthoclaise[2][all]
##DET_HASH   : 12273538-fd48-a23f-0a19-f1e6fa85caef
##CALIB_HASH : 6abaa72c-aa41-8738-0be9-f592914732f3
##WORKING    : 15.0 mm
##DET_NAME   : EDAX All
##DET_MODE   : MediumLE
#SPECTRUM    :
27,
32,
11,
23,
82,
373,
1269,
4711,
12743,
14984,
7551,
3352,
3045,
3852,
7072,
26456,
98327,
185596,
134549,
36086,
5700,
2920,
3516,
4881,
4953,
3929,
3345,
3481,
3523,
3683,
3869,
3918,
4137,
4784,
5556,
5922,
5093,
4800,
4706,
4730,
4879,
5043,
4973,
5211,
5379,
5605,
6761,
13241,
37500,
72817,
74299,
40301,
15819,
8139,
7566,
18427,
70660,
181437,
245826,
172541,
69500,
23205,
10543,
5379,
3238,
2774,
2888,
2916,
2773,
2722,
2647,
2627,
2683,
2670,
3074,
3213,
3014,
2794,
2614,
2574,
2495,
2556,
2473,
2541,
2360,
2354,
2386,
2326,
2421,
2291,
2344,
2349,
2290,
2302,
2283,
2182,
2274,
2242,
2248,
2226,
2262,
2214,
2097,
2271,
2333,
2675,
3480,
5915,
14055,
30791,
46775,
46906,
30620,
13847,
5189,
2840,
2767,
3486,
5023,
6665,
6965,
5554,
3521,
2254,
1750,
1587,
1654,
1662,
1646,
1622,
1542,
1526,
1467,
1473,
1455,
1483,
1489,
1471,
1343,
1406,
1328,
1352,
1365,
1312,
1345,
1298,
1389,
1362,
1310,
1349,
1329,
1306,
1294,
1292,
1194,
1192,
1176,
1265,
1220,
1187,
1256,
1196,
1128,
1201,
1117,
1202,
1121,
1175,
1207,
1244,
1125,
1105,
1082,
1049,
1054,
1106,
1038,
1007,
1068,
1020,
1023,
966,
976,
990,
956,
961,
899,
923,
877,
927,
955,
934,
832,
921,
832,
885,
869,
818,
815,
836,
823,
834,
816,
801,
775,
782,
798,
793,
786,
897,
1248,
1742,
2188,
2533,
2459,
1927,
1387,
994,
803,
742,
722,
682,
724,
667,
678,
674,
666,
644,
638,
648,
617,
669,
729,
747,
863,
864,
810,
761,
625,
584,
549,
605,
576,
582,
559,
542,
537,
558,
510,
559,
577,
515,
511,
533,
499,
487,
492,
534,
469,
462,
511,
437,
493,
461,
509,
465,
490,
422,
462,
439,
470,
399,
419,
439,
457,
458,
416,
437,
441,
404,
415,
394,
399,
393,
350,
408,
374,
415,
385,
336,
360,
362,
356,
338,
363,
352,
357,
345,
354,
345,
324,
326,
315,
322,
312,
337,
319,
286,
311,
303,
322,
306,
315,
311,
323,
299,
254,
307,
286,
273,
287,
284,
281,
275,
286,
263,
253,
264,
230,
231,
261,
245,
251,
250,
230,
228,
232,
215,
223,
230,
228,
218,
225,
235,
181,
215,
214,
227,
192,
208,
236,
198,
181,
186,
193,
200,
202,
179,
181,
202,
189,
182,
192,
161,
165,
173,
182,
143,
175,
153,
178,
165,
140,
143,
145,
156,
133,
130,
149,
134,
135,
124,
130,
125,
128,
143,
130,
97,
132,
117,
128,
115,
113,
105,
123,
115,
111,
126,
107,
104,
125,
92,
93,
81,
87,
98,
115,
122,
80,
87,
86,
90,
76,
62,
93,
89,
69,
75,
87,
85,
68,
82,
88,
61,
63,
69,
66,
53,
73,
62,
45,
66,
62,
37,
53,
61,
52,
42,
55,
48,
32,
56,
49,
40,
48,
56,
37,
36,
40,
31,
44,
48,
42,
37,
29,
36,
30,
34,
36,
38,
26,
27,
36,
16,
29,
20,
20,
21,
20,
21,
23,
19,
13,
16,
12,
16,
13,
15,
16,
11,
13,
10,
14,
11,
15,
6,
6,
8,
9,
9,
9,
4,
6,
4,
1,
1,
2,
5,
1,
1,
0,
0,
1,
0,
1,
0,
0,
1,
0,
0,
0,
0,
0,
0,
1,
1,
0,
1,
0,
0,
0,
0,
0,
0,
0,
0,
1,
0,
1,
0,
0,
0,
0,
0,
0,
0,
0,
0,
0,
0,
1,
1,
0,
0,
0,
0,
0,
0,
1,
0,
1,
0,
0,
0,
0,
0,
1,
0,
0,
0,
0,
1,
0,
0,
0,
0,
0,
0,
0,
0,
0,
0,
0,
0,
0,
0,
0,
0,
0,
0,
0,
0,
0,
0,
0,
0,
0,
0,
0,
0,
0,
0,
0,
0,
0,
0,
0,
0,
0,
0,
0,
0,
0,
0,
0,
0,
0,
0,
0,
0,
0,
0,
0,
0,
0,
0,
0,
0,
0,
0,
0,
0,
0,
0,
0,
0,
0,
0,
1,
0,
0,
0,
0,
0,
0,
0,
0,
0,
0,
0,
0,
0,
0,
0,
0,
0,
0,
0,
0,
0,
0,
0,
0,
0,
0,
0,
0,
0,
0,
0,
0,
0,
0,
0,
0,
0,
0,
0,
1,
0,
0,
0,
0,
0,
0,
0,
0,
0,
0,
0,
0,
0,
0,
0,
0,
0,
0,
0,
0,
0,
0,
0,
0,
0,
0,
0,
0,
0,
0,
0,
0,
0,
0,
0,
0,
0,
0,
0,
0,
0,
0,
0,
0,
0,
0,
0,
0,
0,
0,
0,
0,
0,
0,
0,
0,
0,
0,
0,
0,
0,
0,
0,
0,
0,
0,
0,
0,
0,
0,
0,
0,
0,
0,
0,
0,
1,
0,
0,
0,
0,
0,
0,
0,
0,
0,
0,
0,
0,
0,
0,
0,
0,
0,
0,
0,
0,
0,
0,
0,
0,
0,
0,
0,
0,
0,
0,
0,
0,
0,
0,
0,
0,
0,
0,
0,
1,
0,
0,
0,
0,
0,
0,
0,
0,
0,
0,
0,
0,
0,
0,
0,
0,
0,
0,
0,
0,
0,
0,
0,
0,
0,
0,
0,
0,
0,
0,
0,
0,
0,
0,
0,
0,
0,
0,
0,
0,
0,
0,
0,
0,
0,
0,
0,
0,
0,
0,
0,
0,
0,
0,
0,
0,
0,
0,
0,
0,
0,
0,
0,
0,
0,
0,
0,
0,
0,
0,
0,
0,
0,
0,
0,
0,
0,
0,
0,
0,
0,
0,
0,
0,
0,
0,
0,
0,
0,
0,
0,
0,
0,
0,
0,
0,
0,
0,
0,
0,
0,
0,
0,
0,
0,
0,
0,
0,
0,
0,
0,
0,
0,
0,
0,
0,
0,
0,
0,
0,
0,
0,
0,
0,
0,
0,
0,
0,
0,
0,
0,
0,
0,
0,
0,
0,
0,
0,
0,
0,
0,
0,
0,
0,
0,
0,
0,
0,
0,
0,
0,
0,
0,
0,
0,
0,
0,
0,
0,
0,
0,
0,
0,
0,
0,
0,
0,
0,
0,
0,
0,
0,
0,
0,
0,
0,
0,
0,
0,
0,
0,
0,
0,
0,
0,
0,
0,
0,
0,
0,
0,
0,
0,
0,
0,
0,
0,
0,
0,
0,
0,
0,
0,
0,
0,
0,
0,
0,
0,
0,
0,
0,
0,
0,
0,
0,
0,
0,
0,
0,
0,
0,
0,
0,
0,
0,
0,
0,
0,
0,
0,
0,
0,
0,
0,
0,
0,
0,
0,
0,
0,
0,
0,
0,
0,
0,
0,
0,
0,
0,
0,
0,
0,
0,
0,
0,
0,
0,
0,
0,
0,
0,
0,
0,
0,
0,
0,
0,
0,
0,
0,
0,
0,
0,
0,
0,
0,
0,
0,
0,
0,
0,
0,
0,
0,
0,
0,
0,
0,
0,
0,
0,
0,
0,
0,
0,
0,
0,
0,
0,
0,
0,
0,
0,
0,
0,
0,
0,
0,
0,
0,
0,
0,
0,
0,
0,
0,
0,
0,
0,
0,
0,
0,
0,
0,
0,
0,
0,
0,
0,
0,
0,
0,
0,
0,
0,
0,
0,
0,
0,
0,
0,
0,
0,
0,
0,
0,
0,
0,
0,
0,
0,
0,
0,
0,
0,
0,
0,
0,
0,
0,
0,
0,
0,
0,
0,
0,
0,
0,
0,
0,
0,
0,
0,
0,
0,
0,
0,
0,
0,
0,
0,
0,
0,
0,
0,
0,
0,
0,
0,
0,
0,
0,
0,
0,
0,
0,
0,
0,
0,
0,
0,
0,
0,
0,
0,
0,
0,
0,
0,
0,
0,
0,
0,
0,
0,
0,
0,
0,
0,
0,
0,
0,
0,
0,
0,
0,
0,
0,
0,
0,
0,
0,
0,
0,
0,
0,
0,
0,
0,
0,
0,
0,
0,
0,
0,
0,
0,
0,
0,
0,
0,
0,
0,
0,
0,
0,
0,
0,
0,
0,
0,
0,
0,
0,
0,
0,
0,
0,
0,
0,
0,
0,
0,
0,
0,
0,
0,
0,
0,
0,
0,
0,
0,
0,
0,
0,
0,
0,
0,
0,
0,
0,
0,
0,
0,
0,
0,
0,
0,
0,
0,
0,
0,
0,
0,
0,
0,
0,
0,
0,
0,
0,
0,
0,
0,
0,
0,
0,
0,
0,
0,
0,
0,
0,
0,
0,
0,
0,
0,
0,
0,
0,
0,
0,
0,
0,
0,
0,
0,
0,
0,
0,
0,
0,
0,
0,
0,
0,
0,
0,
0,
0,
0,
0,
0,
0,
0,
0,
0,
0,
0,
0,
0,
0,
0,
0,
0,
0,
0,
0,
0,
0,
0,
0,
0,
0,
0,
0,
0,
#ENDOFDATA   :