File: N132962/Quantification/15 keV/Mengason MM2/MMM2 MgAl2O4[8][4].msa
#FORMAT      : EMSA/MAS Spectral Data File
#VERSION     : 1.0
#TITLE       : MMM2 MgAl2O4[8][all]
#DATE        : 28-SEP-2025
#TIME        : 21:26
#OWNER       : Unknown
#NPOINTS     : 4096
#NCOLUMNS    : 1
#XUNITS      : eV
#YUNITS      : counts
#DATATYPE    : Y
#XPERCHAN    : 9.99778
#OFFSET      : 1.69135
#BEAMKV      : 15
#SIGNALTYPE  : EDS
#ELEVANGLE   : 35
#AZIMANGLE   : 0
#LIVETIME    : 240.328
#REALTIME    : 258.816
#PROBECUR    : 1.21217
#TAUWIND     : 0
#TDEADLYR    : 0
#TACTLYR     : 0.045
#TALWIND     : 0.025
#CHOFFSET    : 0.0
#XLABEL      : Energy (eV)
#YLABEL      : Counts
#XPOSITION   : -21.70334
#YPOSITION   : -2.79956
#ZPOSITION   : 34.11879
#EDSDET      : SD
##SPECIMEN   : MMM2 MgAl2O4[8][all]
##D2STDCMP   : MgAl2O4,(O:44.9839),(Mg:17.0844),(Al:37.9316)
##DET_HASH   : 12273538-fd48-a23f-0a19-f1e6fa85caef
##CALIB_HASH : 6abaa72c-aa41-8738-0be9-f592914732f3
##WORKING    : 15.0 mm
##DET_NAME   : EDAX All
##DET_MODE   : MediumLE
#SPECTRUM    :
21,
26,
9,
11,
79,
379,
1108,
3579,
10130,
12989,
6921,
3756,
3950,
5463,
10237,
39715,
151976,
289305,
209094,
54762,
6924,
2649,
2609,
2929,
3085,
3268,
3417,
3813,
3842,
4097,
4025,
4400,
4665,
5132,
5552,
5860,
5836,
6327,
7695,
15698,
55261,
133944,
160416,
91269,
28492,
9629,
10156,
35005,
129719,
268783,
271771,
137499,
40682,
10794,
4367,
2762,
2612,
2877,
3353,
3416,
3187,
2720,
2411,
2409,
2442,
2790,
3295,
3376,
3100,
2635,
2443,
2238,
2246,
2296,
2268,
2261,
2207,
2219,
2159,
2256,
2124,
2245,
2308,
2361,
2312,
2315,
2305,
2146,
2153,
2216,
2505,
2633,
2618,
2429,
2102,
1960,
2063,
2094,
2300,
2435,
2304,
2111,
1973,
1856,
1780,
1773,
1756,
1871,
1700,
1739,
1706,
1719,
1623,
1687,
1594,
1649,
1708,
1660,
1523,
1559,
1558,
1574,
1510,
1545,
1546,
1538,
1477,
1408,
1423,
1480,
1378,
1395,
1406,
1333,
1381,
1302,
1380,
1343,
1338,
1309,
1314,
1262,
1223,
1239,
1262,
1254,
1177,
1163,
1201,
1179,
1195,
1204,
1192,
1165,
1135,
1116,
1077,
1122,
1083,
1094,
1041,
1023,
1076,
1061,
1112,
1066,
1024,
1062,
1018,
973,
1073,
1022,
933,
970,
963,
973,
937,
938,
918,
884,
874,
847,
866,
872,
862,
865,
828,
833,
824,
805,
828,
825,
802,
784,
827,
784,
776,
760,
815,
759,
767,
716,
808,
760,
701,
747,
743,
690,
706,
671,
713,
709,
699,
699,
636,
676,
623,
607,
655,
595,
657,
614,
586,
587,
575,
606,
571,
586,
573,
578,
572,
513,
562,
573,
590,
551,
529,
554,
551,
555,
513,
490,
529,
533,
487,
485,
504,
494,
449,
503,
495,
431,
450,
448,
437,
434,
431,
465,
435,
445,
432,
445,
415,
399,
438,
435,
392,
395,
411,
392,
404,
423,
393,
363,
369,
375,
389,
394,
379,
377,
325,
356,
357,
357,
346,
333,
318,
332,
300,
353,
330,
297,
325,
299,
301,
315,
298,
301,
290,
300,
311,
307,
313,
299,
290,
267,
281,
260,
243,
251,
278,
277,
285,
231,
272,
264,
259,
228,
261,
238,
264,
226,
236,
229,
228,
243,
219,
200,
233,
220,
212,
232,
185,
195,
205,
171,
190,
193,
208,
215,
178,
200,
179,
219,
175,
181,
198,
167,
186,
174,
171,
172,
180,
158,
154,
136,
141,
167,
144,
149,
131,
156,
149,
157,
156,
137,
156,
145,
121,
133,
134,
137,
128,
123,
133,
147,
117,
124,
95,
122,
126,
131,
95,
104,
112,
106,
99,
91,
115,
84,
84,
89,
86,
84,
109,
100,
80,
86,
84,
81,
91,
89,
86,
87,
69,
83,
74,
72,
82,
74,
73,
72,
86,
67,
68,
73,
72,
70,
81,
64,
69,
61,
55,
64,
54,
53,
55,
45,
40,
45,
50,
35,
55,
48,
46,
51,
50,
43,
43,
52,
37,
41,
55,
41,
35,
42,
34,
35,
27,
38,
29,
47,
28,
41,
33,
23,
24,
34,
32,
26,
29,
24,
26,
24,
20,
33,
17,
22,
22,
20,
13,
23,
12,
18,
14,
16,
8,
13,
14,
8,
14,
14,
12,
13,
10,
4,
13,
3,
7,
12,
5,
3,
4,
1,
3,
1,
3,
1,
1,
2,
1,
0,
0,
1,
0,
1,
0,
0,
0,
0,
2,
0,
0,
0,
0,
0,
0,
0,
0,
0,
0,
0,
0,
0,
0,
0,
0,
0,
0,
1,
0,
0,
0,
0,
0,
0,
0,
1,
0,
1,
0,
0,
0,
0,
0,
0,
0,
0,
0,
0,
0,
0,
0,
0,
0,
0,
0,
0,
0,
0,
0,
0,
0,
0,
0,
0,
0,
0,
0,
0,
0,
0,
0,
0,
0,
0,
0,
0,
0,
0,
0,
0,
0,
0,
0,
0,
0,
0,
0,
0,
0,
0,
0,
0,
0,
0,
0,
0,
0,
0,
0,
0,
0,
0,
0,
0,
0,
0,
0,
0,
0,
0,
0,
0,
0,
0,
0,
0,
0,
0,
0,
0,
0,
0,
0,
0,
0,
0,
0,
0,
0,
0,
0,
0,
0,
0,
1,
0,
0,
0,
0,
0,
0,
0,
0,
0,
0,
0,
0,
0,
0,
0,
0,
1,
0,
0,
0,
0,
0,
0,
0,
0,
0,
0,
0,
0,
0,
0,
0,
0,
0,
0,
0,
0,
0,
0,
0,
0,
0,
0,
0,
0,
0,
0,
0,
0,
0,
0,
0,
0,
0,
0,
0,
0,
0,
0,
0,
0,
0,
0,
0,
0,
0,
0,
0,
0,
0,
0,
0,
0,
0,
0,
0,
0,
0,
0,
0,
0,
0,
0,
0,
0,
0,
0,
0,
0,
0,
0,
1,
0,
0,
0,
0,
0,
0,
0,
0,
0,
0,
0,
0,
0,
0,
0,
0,
0,
0,
0,
0,
0,
0,
0,
0,
0,
0,
0,
0,
0,
0,
0,
0,
0,
0,
0,
0,
0,
0,
0,
0,
0,
0,
0,
0,
0,
0,
0,
0,
0,
0,
0,
0,
0,
0,
0,
0,
0,
0,
0,
0,
0,
0,
0,
0,
0,
0,
0,
0,
0,
0,
0,
0,
0,
0,
0,
0,
0,
0,
0,
0,
0,
0,
0,
0,
0,
0,
0,
0,
0,
0,
0,
0,
0,
0,
0,
0,
0,
0,
0,
0,
0,
0,
0,
0,
0,
0,
0,
0,
0,
0,
0,
0,
0,
0,
0,
0,
0,
0,
0,
0,
0,
0,
0,
0,
0,
0,
0,
0,
0,
0,
0,
0,
0,
0,
0,
0,
0,
0,
0,
0,
0,
0,
0,
0,
0,
0,
0,
0,
0,
0,
0,
0,
0,
0,
0,
0,
0,
0,
0,
0,
0,
0,
0,
0,
0,
0,
0,
0,
0,
0,
0,
0,
0,
0,
0,
0,
0,
0,
0,
0,
0,
0,
0,
0,
0,
0,
0,
0,
0,
0,
0,
0,
0,
0,
0,
0,
0,
0,
0,
0,
0,
0,
0,
0,
0,
0,
0,
0,
0,
0,
0,
0,
0,
0,
0,
0,
0,
0,
0,
0,
0,
0,
0,
0,
0,
0,
0,
0,
0,
0,
0,
0,
0,
0,
0,
0,
0,
0,
0,
0,
0,
0,
0,
0,
0,
0,
0,
0,
0,
0,
0,
0,
0,
0,
0,
0,
0,
0,
0,
0,
0,
0,
0,
0,
0,
0,
0,
0,
0,
0,
0,
0,
0,
0,
0,
0,
0,
0,
0,
0,
0,
0,
0,
0,
0,
0,
0,
0,
0,
0,
0,
0,
0,
0,
0,
0,
0,
0,
0,
0,
0,
0,
0,
0,
0,
0,
0,
0,
0,
0,
0,
0,
0,
0,
0,
0,
0,
0,
0,
0,
0,
0,
0,
0,
0,
0,
0,
0,
0,
0,
0,
0,
0,
0,
0,
0,
0,
0,
0,
0,
0,
0,
0,
0,
0,
0,
0,
0,
0,
0,
0,
0,
0,
0,
0,
0,
0,
0,
0,
0,
0,
0,
0,
0,
0,
0,
0,
0,
0,
0,
0,
0,
0,
0,
0,
0,
0,
0,
0,
0,
0,
0,
0,
0,
0,
0,
0,
0,
0,
0,
0,
0,
0,
0,
0,
0,
0,
0,
0,
0,
0,
0,
0,
0,
0,
0,
0,
0,
0,
0,
0,
0,
0,
0,
0,
0,
0,
0,
0,
0,
0,
0,
0,
0,
0,
0,
0,
0,
0,
0,
0,
0,
0,
0,
0,
0,
0,
0,
0,
0,
0,
0,
0,
0,
0,
0,
0,
0,
0,
0,
0,
0,
0,
0,
0,
0,
0,
0,
0,
0,
0,
0,
0,
0,
0,
0,
0,
0,
0,
0,
0,
0,
0,
0,
0,
0,
0,
0,
0,
0,
0,
0,
0,
0,
0,
0,
0,
0,
0,
0,
0,
0,
0,
0,
0,
0,
0,
0,
0,
0,
0,
0,
0,
0,
0,
0,
0,
0,
0,
0,
0,
0,
0,
0,
0,
0,
0,
0,
0,
0,
0,
0,
0,
0,
0,
0,
0,
0,
0,
0,
0,
0,
0,
0,
0,
0,
0,
0,
0,
0,
0,
0,
0,
0,
0,
0,
0,
0,
0,
0,
0,
0,
0,
0,
0,
0,
0,
0,
0,
0,
0,
0,
0,
0,
0,
0,
0,
0,
0,
0,
0,
0,
0,
0,
0,
0,
0,
0,
0,
0,
0,
0,
0,
0,
0,
0,
0,
0,
0,
0,
0,
0,
0,
0,
0,
0,
0,
0,
0,
0,
0,
0,
0,
0,
0,
0,
0,
0,
0,
0,
0,
0,
0,
0,
0,
0,
0,
0,
0,
0,
0,
0,
0,
0,
0,
0,
0,
0,
0,
0,
0,
0,
0,
0,
0,
0,
0,
#ENDOFDATA   :