File: N132962/Quantification/15 keV/Mengason MM2/MMM2 Spessartine[5][4].msa
#FORMAT      : EMSA/MAS Spectral Data File
#VERSION     : 1.0
#TITLE       : MMM2 Spessartine[5][all]
#DATE        : 29-SEP-2025
#TIME        : 00:50
#OWNER       : Unknown
#NPOINTS     : 4096
#NCOLUMNS    : 1
#XUNITS      : eV
#YUNITS      : counts
#DATATYPE    : Y
#XPERCHAN    : 9.99778
#OFFSET      : 1.69135
#BEAMKV      : 15
#SIGNALTYPE  : EDS
#ELEVANGLE   : 35
#AZIMANGLE   : 0
#LIVETIME    : 240.297
#REALTIME    : 256.745
#PROBECUR    : 1.21186
#TAUWIND     : 0
#TDEADLYR    : 0
#TACTLYR     : 0.045
#TALWIND     : 0.025
#CHOFFSET    : 0.0
#XLABEL      : Energy (eV)
#YLABEL      : Counts
#XPOSITION   : -19.70445
#YPOSITION   : 6.73006
#ZPOSITION   : 34.11879
#EDSDET      : SD
##SPECIMEN   : MMM2 Spessartine[5][all]
##DET_HASH   : 12273538-fd48-a23f-0a19-f1e6fa85caef
##CALIB_HASH : 6abaa72c-aa41-8738-0be9-f592914732f3
##WORKING    : 15.0 mm
##DET_NAME   : EDAX All
##DET_MODE   : MediumLE
#SPECTRUM    :
28,
26,
8,
22,
110,
460,
1346,
4319,
11781,
15402,
8421,
4860,
5138,
6621,
11623,
39595,
144660,
275425,
201798,
59205,
20642,
25471,
20802,
9921,
5228,
3415,
2946,
3058,
3299,
3536,
3356,
3508,
3824,
4084,
4541,
4550,
4379,
4331,
4580,
4577,
4645,
4911,
4966,
5194,
5357,
5612,
6728,
14281,
42128,
82518,
84046,
44943,
15948,
7336,
6219,
11387,
38089,
94190,
127317,
90537,
37753,
14116,
7571,
4852,
3703,
3699,
3719,
3727,
3591,
3470,
3330,
3242,
3248,
3405,
3515,
3604,
3661,
3412,
3183,
3178,
3115,
3179,
2965,
3085,
2991,
3037,
3007,
2949,
2929,
2911,
2921,
2747,
2773,
2856,
2824,
2774,
2701,
2726,
2710,
2733,
2688,
2567,
2505,
2617,
2524,
2623,
2595,
2592,
2521,
2504,
2545,
2398,
2425,
2317,
2514,
2481,
2417,
2379,
2271,
2263,
2286,
2638,
2867,
3111,
2841,
2500,
2188,
2092,
2051,
1983,
2060,
2020,
2025,
2076,
2085,
2089,
2051,
1999,
2046,
2070,
1898,
1838,
1703,
1823,
1652,
1740,
1772,
1732,
1741,
1763,
1748,
1757,
1702,
1684,
1601,
1624,
1610,
1534,
1572,
1542,
1596,
1554,
1533,
1451,
1401,
1480,
1459,
1458,
1477,
1432,
1390,
1424,
1272,
1386,
1412,
1305,
1391,
1272,
1301,
1299,
1305,
1237,
1234,
1243,
1212,
1336,
1297,
1224,
1313,
1368,
1426,
1883,
3737,
8289,
18190,
30705,
39913,
39692,
29472,
16980,
7650,
3251,
1659,
1170,
1068,
1115,
1124,
1131,
1174,
1226,
1357,
1894,
2543,
3525,
4761,
5972,
6473,
5697,
4196,
2811,
1706,
1185,
939,
831,
811,
830,
827,
823,
803,
796,
811,
796,
824,
882,
870,
875,
918,
889,
795,
712,
685,
759,
698,
751,
730,
808,
767,
718,
652,
760,
717,
709,
717,
707,
707,
676,
637,
662,
638,
665,
626,
613,
591,
623,
559,
602,
571,
608,
613,
590,
588,
554,
580,
566,
580,
565,
566,
616,
535,
515,
526,
572,
538,
549,
535,
491,
513,
479,
513,
484,
503,
485,
481,
452,
449,
438,
454,
434,
469,
416,
475,
432,
481,
412,
423,
426,
381,
426,
419,
405,
380,
398,
375,
400,
398,
379,
384,
373,
368,
369,
367,
357,
359,
365,
366,
311,
344,
317,
361,
334,
315,
368,
315,
311,
338,
304,
305,
302,
303,
289,
300,
293,
262,
296,
269,
285,
302,
301,
275,
276,
243,
278,
249,
257,
252,
243,
266,
261,
234,
241,
221,
246,
249,
216,
201,
219,
230,
215,
228,
206,
228,
210,
212,
191,
183,
200,
189,
182,
197,
185,
191,
185,
160,
157,
200,
162,
150,
190,
164,
160,
157,
181,
173,
163,
171,
170,
148,
167,
136,
152,
136,
152,
144,
128,
128,
115,
131,
136,
126,
113,
117,
122,
107,
139,
122,
110,
107,
98,
120,
93,
91,
87,
103,
82,
103,
90,
94,
92,
86,
84,
86,
80,
88,
74,
76,
73,
88,
75,
60,
71,
76,
62,
62,
51,
69,
60,
78,
51,
63,
56,
50,
60,
53,
47,
52,
55,
38,
47,
46,
41,
36,
50,
32,
41,
33,
39,
41,
33,
18,
32,
24,
27,
28,
21,
21,
18,
23,
19,
18,
14,
24,
18,
14,
17,
16,
17,
10,
11,
12,
4,
7,
10,
4,
10,
5,
6,
6,
2,
2,
1,
2,
0,
1,
0,
0,
0,
1,
1,
0,
1,
2,
1,
1,
1,
0,
1,
1,
1,
0,
0,
0,
1,
1,
0,
1,
0,
1,
0,
0,
2,
0,
2,
0,
0,
1,
0,
0,
0,
2,
0,
0,
0,
0,
0,
1,
0,
0,
0,
0,
0,
0,
1,
0,
0,
0,
0,
1,
0,
0,
0,
0,
1,
1,
0,
0,
1,
0,
1,
0,
0,
0,
1,
0,
0,
2,
1,
0,
0,
1,
0,
0,
0,
0,
0,
1,
0,
0,
1,
0,
1,
0,
1,
0,
0,
1,
0,
0,
0,
0,
0,
0,
0,
0,
0,
0,
0,
0,
0,
0,
0,
0,
0,
0,
0,
0,
0,
0,
0,
0,
1,
1,
0,
0,
1,
0,
0,
0,
0,
0,
0,
2,
0,
0,
0,
0,
0,
0,
0,
0,
0,
0,
0,
0,
0,
0,
0,
0,
0,
0,
0,
0,
0,
0,
0,
0,
0,
0,
0,
0,
0,
0,
0,
0,
0,
0,
0,
0,
0,
0,
0,
0,
0,
1,
0,
0,
0,
0,
0,
0,
0,
0,
0,
0,
0,
0,
1,
0,
1,
0,
0,
1,
0,
0,
0,
0,
0,
0,
0,
0,
0,
0,
0,
0,
0,
0,
0,
0,
0,
0,
0,
0,
0,
0,
0,
0,
0,
0,
0,
0,
0,
0,
0,
0,
0,
0,
0,
0,
0,
1,
0,
0,
0,
0,
1,
0,
0,
0,
0,
0,
0,
0,
0,
0,
0,
0,
0,
0,
1,
0,
0,
0,
0,
0,
0,
0,
0,
0,
0,
0,
0,
0,
0,
0,
0,
0,
0,
0,
0,
0,
0,
0,
0,
0,
0,
0,
0,
0,
0,
0,
0,
0,
0,
0,
0,
0,
0,
0,
0,
0,
0,
0,
0,
0,
0,
0,
0,
0,
0,
0,
0,
0,
0,
0,
0,
0,
0,
0,
0,
0,
0,
0,
0,
0,
0,
0,
0,
0,
0,
0,
0,
0,
0,
0,
0,
0,
0,
0,
0,
0,
0,
0,
0,
0,
0,
0,
0,
0,
0,
0,
0,
0,
0,
0,
0,
0,
0,
0,
0,
0,
0,
0,
0,
0,
0,
0,
0,
0,
0,
0,
0,
0,
0,
0,
0,
0,
0,
0,
0,
0,
0,
0,
0,
0,
0,
0,
0,
0,
0,
0,
0,
0,
0,
0,
0,
0,
0,
0,
0,
0,
0,
1,
0,
0,
0,
0,
0,
0,
0,
0,
0,
0,
0,
0,
0,
0,
0,
0,
0,
0,
0,
0,
0,
0,
0,
0,
0,
0,
0,
0,
0,
0,
0,
0,
0,
0,
0,
0,
0,
0,
0,
0,
0,
0,
0,
0,
0,
0,
0,
0,
0,
0,
0,
0,
0,
0,
0,
0,
0,
0,
0,
0,
0,
0,
0,
0,
0,
0,
0,
0,
0,
0,
0,
0,
0,
0,
0,
0,
0,
0,
0,
0,
0,
0,
0,
0,
0,
0,
0,
0,
0,
0,
0,
0,
0,
0,
0,
0,
0,
0,
0,
0,
0,
0,
0,
0,
0,
0,
0,
0,
0,
0,
0,
0,
0,
0,
0,
0,
0,
0,
0,
0,
0,
0,
0,
0,
0,
0,
0,
0,
0,
0,
0,
0,
0,
0,
0,
0,
0,
0,
0,
0,
0,
0,
0,
0,
0,
0,
0,
0,
0,
0,
0,
0,
0,
0,
0,
0,
0,
0,
0,
0,
0,
0,
0,
0,
0,
0,
0,
0,
0,
0,
0,
0,
0,
0,
0,
0,
0,
0,
0,
0,
0,
0,
0,
0,
0,
0,
0,
0,
0,
0,
0,
0,
0,
0,
0,
0,
0,
0,
0,
0,
0,
0,
0,
0,
0,
0,
0,
0,
0,
0,
0,
0,
0,
0,
0,
0,
0,
0,
0,
0,
0,
0,
0,
0,
0,
0,
0,
0,
0,
0,
0,
0,
0,
0,
0,
0,
0,
0,
0,
0,
0,
0,
0,
0,
0,
0,
0,
0,
0,
0,
0,
0,
0,
0,
0,
0,
0,
0,
0,
0,
0,
0,
0,
0,
0,
0,
0,
0,
0,
0,
0,
0,
0,
0,
0,
0,
0,
0,
0,
0,
0,
0,
0,
0,
0,
0,
0,
0,
0,
0,
0,
0,
0,
0,
0,
0,
0,
0,
0,
0,
0,
0,
0,
0,
0,
0,
0,
0,
0,
0,
0,
0,
0,
0,
0,
0,
0,
0,
0,
0,
0,
0,
0,
0,
0,
0,
0,
0,
0,
0,
0,
0,
0,
0,
0,
0,
0,
0,
0,
0,
0,
0,
0,
0,
0,
0,
0,
0,
0,
0,
0,
0,
0,
0,
0,
0,
0,
0,
0,
0,
0,
0,
0,
0,
0,
0,
0,
0,
0,
0,
0,
0,
0,
0,
0,
0,
0,
0,
0,
0,
1,
0,
0,
0,
0,
0,
0,
0,
0,
0,
0,
0,
0,
0,
0,
0,
0,
0,
0,
0,
0,
0,
0,
0,
0,
0,
0,
0,
0,
0,
0,
0,
0,
0,
0,
0,
0,
0,
0,
0,
0,
0,
0,
0,
0,
0,
0,
0,
0,
0,
0,
0,
0,
0,
0,
0,
0,
0,
0,
0,
0,
0,
0,
0,
0,
0,
0,
0,
0,
0,
0,
0,
0,
0,
0,
0,
0,
0,
0,
0,
0,
0,
0,
0,
0,
0,
0,
0,
0,
0,
0,
0,
0,
0,
0,
#ENDOFDATA   :