File: N132962/Quantification/15 keV/Mengason MM2/MMM2 Spessartine[1][4].msa
#FORMAT      : EMSA/MAS Spectral Data File
#VERSION     : 1.0
#TITLE       : MMM2 Spessartine[1][all]
#DATE        : 29-SEP-2025
#TIME        : 00:46
#OWNER       : Unknown
#NPOINTS     : 4096
#NCOLUMNS    : 1
#XUNITS      : eV
#YUNITS      : counts
#DATATYPE    : Y
#XPERCHAN    : 9.99778
#OFFSET      : 1.69135
#BEAMKV      : 15
#SIGNALTYPE  : EDS
#ELEVANGLE   : 35
#AZIMANGLE   : 0
#LIVETIME    : 240.308
#REALTIME    : 256.75
#PROBECUR    : 1.21186
#TAUWIND     : 0
#TDEADLYR    : 0
#TACTLYR     : 0.045
#TALWIND     : 0.025
#CHOFFSET    : 0.0
#XLABEL      : Energy (eV)
#YLABEL      : Counts
#XPOSITION   : -19.71099
#YPOSITION   : 6.76434
#ZPOSITION   : 34.11879
#EDSDET      : SD
##SPECIMEN   : MMM2 Spessartine[1][all]
##DET_HASH   : 12273538-fd48-a23f-0a19-f1e6fa85caef
##CALIB_HASH : 6abaa72c-aa41-8738-0be9-f592914732f3
##WORKING    : 15.0 mm
##DET_NAME   : EDAX All
##DET_MODE   : MediumLE
#SPECTRUM    :
26,
40,
8,
11,
113,
447,
1321,
4257,
12112,
15179,
8376,
4850,
5224,
6616,
11820,
39537,
144992,
274512,
202366,
59099,
20649,
25443,
20679,
10104,
5251,
3504,
2950,
3006,
3297,
3271,
3355,
3478,
3755,
4031,
4482,
4636,
4492,
4216,
4494,
4566,
4653,
4893,
4986,
5068,
5265,
5591,
6693,
14185,
41979,
82239,
84124,
44705,
15910,
7374,
6312,
11546,
38058,
93874,
126757,
90503,
37443,
14222,
7514,
4802,
3697,
3528,
3828,
3739,
3667,
3422,
3433,
3254,
3393,
3380,
3528,
3709,
3554,
3510,
3251,
3309,
3185,
3106,
3120,
3096,
2983,
2983,
2936,
2857,
2888,
2894,
2890,
2888,
2822,
2741,
2704,
2736,
2833,
2730,
2655,
2740,
2641,
2609,
2579,
2552,
2575,
2562,
2593,
2648,
2660,
2581,
2484,
2348,
2262,
2416,
2433,
2472,
2444,
2391,
2270,
2250,
2265,
2578,
2860,
3058,
2980,
2587,
2296,
2111,
1948,
2004,
1969,
2078,
2054,
2054,
2098,
2091,
2042,
2047,
2008,
1962,
1967,
1931,
1775,
1792,
1788,
1724,
1702,
1730,
1789,
1704,
1681,
1688,
1721,
1595,
1616,
1623,
1618,
1625,
1648,
1595,
1597,
1486,
1520,
1493,
1492,
1467,
1601,
1454,
1441,
1368,
1428,
1401,
1374,
1398,
1296,
1332,
1323,
1305,
1299,
1390,
1308,
1333,
1211,
1254,
1266,
1278,
1293,
1304,
1239,
1358,
1533,
2011,
3593,
8251,
17830,
30532,
39846,
39757,
29213,
17239,
7749,
3132,
1618,
1150,
1117,
1096,
1089,
1129,
1066,
1258,
1438,
1897,
2515,
3586,
4853,
6089,
6529,
5735,
4279,
2752,
1654,
1110,
949,
833,
858,
784,
797,
834,
813,
822,
845,
873,
846,
836,
871,
835,
880,
832,
780,
734,
724,
784,
679,
741,
724,
688,
703,
788,
670,
695,
680,
718,
693,
713,
714,
683,
706,
654,
670,
642,
585,
662,
634,
601,
598,
524,
573,
564,
572,
588,
522,
571,
556,
569,
530,
552,
541,
531,
534,
550,
523,
507,
515,
509,
460,
498,
466,
491,
509,
466,
490,
455,
492,
484,
451,
536,
478,
497,
472,
458,
435,
413,
412,
440,
440,
411,
395,
417,
414,
410,
391,
416,
379,
402,
385,
366,
380,
369,
382,
343,
346,
381,
331,
397,
374,
337,
321,
357,
302,
319,
290,
313,
318,
331,
336,
323,
336,
292,
295,
289,
309,
302,
287,
276,
286,
277,
265,
241,
264,
247,
269,
275,
256,
237,
288,
282,
271,
237,
282,
232,
247,
229,
210,
226,
242,
238,
252,
202,
219,
209,
219,
226,
196,
211,
185,
210,
215,
190,
181,
171,
197,
181,
174,
180,
185,
168,
186,
174,
166,
163,
186,
160,
159,
166,
164,
156,
148,
120,
149,
149,
132,
136,
136,
136,
141,
116,
127,
112,
124,
129,
134,
109,
111,
125,
119,
104,
98,
109,
88,
95,
104,
120,
87,
81,
100,
75,
81,
99,
86,
82,
82,
92,
73,
72,
65,
59,
83,
65,
73,
65,
77,
76,
59,
62,
66,
60,
55,
66,
71,
48,
61,
64,
57,
56,
34,
57,
48,
57,
51,
43,
47,
56,
34,
42,
41,
30,
31,
28,
34,
29,
23,
35,
32,
29,
24,
21,
28,
24,
14,
7,
20,
14,
14,
11,
17,
8,
8,
16,
11,
13,
8,
7,
7,
11,
4,
4,
3,
1,
2,
0,
0,
1,
1,
0,
0,
0,
0,
1,
1,
2,
0,
0,
0,
0,
0,
1,
1,
0,
1,
0,
1,
0,
0,
0,
0,
1,
0,
0,
1,
0,
0,
0,
0,
2,
0,
0,
0,
0,
0,
0,
0,
0,
0,
1,
0,
0,
0,
0,
0,
0,
0,
0,
0,
0,
0,
0,
0,
0,
0,
0,
0,
0,
0,
0,
0,
0,
0,
1,
0,
1,
0,
0,
1,
0,
0,
0,
0,
0,
0,
1,
0,
0,
0,
1,
0,
0,
0,
0,
0,
0,
0,
0,
0,
0,
0,
0,
0,
0,
0,
0,
1,
0,
0,
0,
0,
0,
0,
2,
0,
0,
0,
1,
1,
0,
0,
1,
0,
0,
0,
0,
0,
0,
0,
0,
1,
0,
0,
1,
0,
0,
0,
0,
0,
0,
0,
0,
0,
0,
2,
0,
0,
0,
0,
0,
0,
0,
0,
0,
0,
0,
0,
2,
0,
0,
1,
0,
0,
0,
0,
0,
0,
0,
0,
0,
0,
0,
0,
0,
0,
0,
0,
0,
0,
0,
0,
0,
0,
0,
0,
0,
0,
0,
0,
0,
0,
0,
0,
0,
0,
0,
0,
0,
0,
0,
0,
0,
0,
0,
0,
0,
0,
0,
0,
0,
0,
0,
0,
0,
0,
0,
0,
0,
0,
0,
0,
0,
0,
0,
0,
0,
0,
0,
0,
0,
0,
0,
0,
0,
0,
0,
0,
0,
0,
0,
0,
0,
0,
0,
0,
0,
0,
0,
0,
0,
0,
0,
0,
0,
0,
0,
0,
0,
0,
0,
0,
0,
0,
0,
0,
0,
0,
0,
0,
0,
0,
0,
0,
0,
0,
0,
0,
0,
0,
0,
0,
0,
0,
0,
0,
0,
0,
0,
0,
0,
0,
0,
0,
0,
0,
0,
0,
0,
0,
0,
0,
0,
0,
0,
0,
0,
0,
0,
0,
0,
0,
0,
0,
0,
0,
0,
0,
0,
0,
0,
0,
0,
0,
0,
0,
0,
0,
0,
0,
0,
0,
0,
0,
0,
0,
0,
0,
0,
0,
0,
0,
0,
0,
0,
0,
0,
0,
0,
0,
0,
0,
0,
0,
0,
0,
0,
0,
0,
0,
0,
0,
0,
0,
0,
0,
0,
0,
0,
0,
0,
0,
0,
0,
0,
0,
0,
0,
0,
0,
0,
0,
0,
0,
0,
0,
0,
0,
0,
0,
0,
0,
0,
0,
0,
0,
0,
0,
0,
0,
0,
0,
0,
0,
0,
0,
0,
0,
0,
0,
0,
0,
0,
0,
0,
0,
0,
0,
0,
0,
0,
0,
0,
0,
0,
0,
0,
0,
0,
0,
0,
0,
0,
0,
0,
0,
0,
0,
0,
0,
0,
0,
0,
0,
0,
0,
0,
0,
0,
0,
0,
0,
0,
0,
0,
0,
0,
0,
0,
0,
0,
0,
0,
0,
0,
0,
0,
0,
0,
0,
0,
0,
0,
0,
0,
0,
0,
0,
0,
0,
0,
0,
0,
0,
0,
0,
0,
0,
0,
0,
0,
0,
0,
0,
0,
0,
0,
0,
0,
0,
0,
0,
0,
0,
0,
0,
0,
0,
0,
0,
0,
0,
0,
0,
0,
0,
0,
0,
0,
0,
0,
0,
0,
0,
0,
0,
0,
0,
0,
0,
0,
0,
0,
0,
0,
0,
0,
0,
0,
0,
0,
0,
0,
0,
0,
0,
0,
0,
0,
0,
0,
0,
0,
0,
0,
0,
0,
0,
0,
0,
0,
0,
0,
0,
0,
0,
0,
0,
0,
0,
0,
0,
0,
0,
0,
0,
0,
0,
0,
0,
0,
0,
0,
0,
0,
0,
0,
0,
0,
0,
0,
0,
0,
0,
0,
0,
0,
0,
0,
0,
0,
0,
0,
0,
0,
0,
0,
0,
0,
0,
0,
0,
0,
0,
0,
0,
0,
0,
0,
0,
0,
0,
0,
0,
0,
0,
0,
0,
0,
0,
0,
0,
0,
0,
0,
0,
0,
0,
0,
0,
0,
0,
0,
0,
0,
0,
0,
0,
0,
0,
0,
0,
0,
0,
0,
0,
0,
0,
0,
0,
0,
0,
0,
0,
0,
0,
0,
0,
0,
0,
0,
0,
0,
0,
0,
0,
0,
0,
0,
0,
0,
0,
0,
0,
0,
0,
0,
0,
0,
0,
0,
0,
0,
0,
0,
0,
0,
0,
0,
0,
0,
0,
0,
0,
0,
0,
0,
0,
0,
0,
0,
0,
0,
0,
0,
0,
0,
0,
0,
0,
0,
0,
0,
0,
0,
0,
0,
0,
0,
0,
0,
0,
0,
0,
0,
0,
0,
0,
0,
0,
0,
0,
0,
0,
0,
0,
0,
0,
0,
0,
0,
0,
0,
0,
0,
0,
0,
0,
0,
0,
0,
0,
0,
0,
0,
0,
0,
0,
0,
0,
0,
0,
0,
0,
0,
0,
0,
0,
0,
0,
0,
0,
0,
0,
0,
0,
0,
0,
0,
0,
0,
0,
0,
0,
0,
0,
0,
0,
0,
0,
0,
0,
0,
0,
0,
0,
0,
0,
0,
0,
0,
0,
0,
0,
0,
0,
0,
0,
0,
0,
0,
0,
0,
0,
0,
0,
0,
0,
0,
0,
0,
0,
0,
0,
0,
0,
0,
0,
0,
0,
0,
0,
0,
0,
0,
0,
0,
0,
0,
0,
0,
0,
0,
0,
0,
0,
0,
0,
0,
0,
0,
0,
0,
0,
0,
0,
0,
0,
0,
0,
0,
0,
0,
#ENDOFDATA   :