File: N132962/Quantification/15 keV/Mengason MM2/MMM2 Spessartine[2][4].msa
#FORMAT      : EMSA/MAS Spectral Data File
#VERSION     : 1.0
#TITLE       : MMM2 Spessartine[2][all]
#DATE        : 29-SEP-2025
#TIME        : 00:47
#OWNER       : Unknown
#NPOINTS     : 4096
#NCOLUMNS    : 1
#XUNITS      : eV
#YUNITS      : counts
#DATATYPE    : Y
#XPERCHAN    : 9.99778
#OFFSET      : 1.69135
#BEAMKV      : 15
#SIGNALTYPE  : EDS
#ELEVANGLE   : 35
#AZIMANGLE   : 0
#LIVETIME    : 240.361
#REALTIME    : 256.804
#PROBECUR    : 1.21186
#TAUWIND     : 0
#TDEADLYR    : 0
#TACTLYR     : 0.045
#TALWIND     : 0.025
#CHOFFSET    : 0.0
#XLABEL      : Energy (eV)
#YLABEL      : Counts
#XPOSITION   : -19.79122
#YPOSITION   : 6.66742
#ZPOSITION   : 34.11879
#EDSDET      : SD
##SPECIMEN   : MMM2 Spessartine[2][all]
##DET_HASH   : 12273538-fd48-a23f-0a19-f1e6fa85caef
##CALIB_HASH : 6abaa72c-aa41-8738-0be9-f592914732f3
##WORKING    : 15.0 mm
##DET_NAME   : EDAX All
##DET_MODE   : MediumLE
#SPECTRUM    :
21,
27,
8,
22,
101,
409,
1424,
4269,
11877,
14900,
8222,
4811,
5101,
6668,
11632,
39834,
145755,
275478,
203163,
59135,
20856,
25288,
20463,
10028,
5278,
3421,
2960,
3069,
3188,
3292,
3430,
3579,
3808,
4061,
4527,
4479,
4484,
4334,
4443,
4698,
4725,
4769,
4905,
5032,
5167,
5539,
6581,
14240,
42097,
82150,
83993,
44701,
15679,
7426,
6200,
11741,
37943,
94217,
126574,
89895,
37649,
14104,
7431,
4811,
3750,
3583,
3725,
3816,
3725,
3461,
3300,
3345,
3279,
3379,
3429,
3682,
3588,
3439,
3301,
3162,
3151,
3027,
3154,
3078,
2977,
2988,
2979,
2877,
2957,
2909,
2808,
2811,
2799,
2937,
2755,
2692,
2722,
2731,
2733,
2692,
2662,
2563,
2617,
2527,
2491,
2592,
2603,
2593,
2582,
2614,
2369,
2369,
2321,
2355,
2446,
2390,
2389,
2409,
2271,
2336,
2258,
2565,
2974,
3023,
2820,
2493,
2189,
2128,
2036,
2061,
1941,
1930,
2079,
1972,
2048,
1998,
2028,
1965,
2131,
2095,
1962,
1876,
1799,
1778,
1782,
1667,
1761,
1668,
1700,
1767,
1695,
1691,
1672,
1653,
1619,
1638,
1619,
1623,
1569,
1610,
1530,
1506,
1507,
1514,
1451,
1482,
1445,
1443,
1403,
1412,
1414,
1457,
1376,
1366,
1343,
1332,
1350,
1332,
1294,
1273,
1293,
1312,
1215,
1251,
1202,
1314,
1223,
1240,
1286,
1369,
1491,
1893,
3655,
8504,
17783,
31018,
39855,
40019,
29484,
17152,
7775,
3203,
1619,
1226,
1128,
1040,
1064,
1075,
1094,
1151,
1437,
1814,
2601,
3449,
4768,
6024,
6485,
5857,
4209,
2688,
1553,
1134,
888,
861,
844,
828,
765,
755,
850,
807,
832,
824,
825,
830,
859,
920,
837,
919,
770,
738,
734,
738,
760,
771,
714,
734,
791,
710,
685,
723,
716,
678,
719,
707,
705,
701,
700,
704,
655,
645,
652,
624,
613,
651,
627,
641,
590,
609,
574,
561,
605,
560,
562,
586,
578,
561,
566,
553,
515,
556,
546,
532,
525,
529,
566,
497,
523,
508,
507,
472,
485,
498,
474,
470,
482,
445,
468,
439,
471,
443,
471,
454,
432,
424,
412,
429,
417,
426,
365,
387,
393,
404,
403,
406,
396,
407,
398,
385,
389,
362,
378,
359,
333,
356,
350,
344,
382,
336,
367,
319,
340,
336,
310,
354,
302,
308,
322,
310,
281,
325,
274,
291,
283,
304,
302,
273,
276,
284,
274,
254,
282,
306,
277,
269,
248,
275,
217,
237,
239,
239,
252,
236,
236,
245,
213,
199,
230,
240,
208,
248,
214,
208,
198,
182,
197,
194,
203,
173,
203,
188,
192,
191,
165,
169,
213,
180,
199,
150,
174,
156,
182,
191,
150,
165,
152,
165,
147,
167,
135,
151,
138,
133,
139,
134,
118,
121,
139,
120,
144,
121,
121,
117,
129,
111,
114,
125,
115,
91,
105,
94,
110,
94,
105,
86,
92,
78,
106,
86,
85,
80,
88,
88,
74,
76,
87,
73,
83,
63,
52,
84,
74,
65,
66,
60,
48,
43,
64,
51,
61,
61,
57,
45,
65,
50,
30,
48,
45,
34,
34,
34,
40,
52,
35,
39,
40,
28,
40,
20,
24,
25,
36,
33,
25,
24,
24,
21,
23,
12,
17,
19,
15,
22,
16,
18,
10,
10,
15,
12,
13,
11,
10,
8,
4,
8,
4,
6,
4,
3,
0,
1,
3,
0,
1,
1,
0,
0,
5,
1,
0,
1,
0,
0,
2,
1,
0,
0,
1,
0,
0,
0,
0,
1,
0,
1,
0,
0,
0,
1,
1,
0,
0,
0,
0,
0,
0,
0,
1,
0,
0,
0,
0,
0,
0,
0,
0,
0,
0,
0,
1,
2,
0,
1,
0,
0,
0,
1,
0,
1,
0,
0,
0,
0,
0,
0,
0,
0,
0,
0,
1,
1,
1,
0,
0,
0,
0,
0,
0,
0,
0,
0,
0,
0,
0,
1,
0,
0,
0,
0,
0,
0,
1,
1,
1,
0,
0,
0,
0,
0,
0,
0,
0,
0,
0,
0,
0,
0,
0,
0,
0,
0,
1,
0,
0,
1,
0,
1,
0,
1,
0,
0,
0,
0,
0,
0,
0,
0,
0,
0,
0,
0,
0,
2,
0,
0,
2,
0,
0,
0,
0,
0,
0,
0,
0,
0,
0,
0,
0,
0,
0,
0,
0,
0,
0,
0,
0,
0,
0,
0,
0,
0,
0,
0,
0,
0,
1,
0,
1,
0,
0,
0,
0,
0,
0,
0,
0,
0,
0,
0,
0,
0,
0,
0,
0,
0,
0,
0,
0,
0,
0,
0,
0,
0,
0,
0,
0,
0,
0,
0,
0,
0,
0,
0,
0,
0,
1,
0,
0,
0,
0,
0,
0,
0,
0,
0,
0,
0,
0,
0,
0,
0,
0,
0,
0,
0,
0,
0,
0,
0,
0,
0,
0,
0,
0,
1,
0,
0,
0,
0,
0,
0,
0,
0,
0,
0,
0,
0,
0,
0,
0,
0,
0,
0,
0,
0,
0,
0,
0,
0,
0,
0,
0,
0,
0,
0,
0,
0,
0,
0,
0,
0,
0,
0,
0,
0,
0,
0,
0,
0,
0,
0,
0,
0,
0,
0,
0,
0,
0,
0,
0,
0,
0,
0,
0,
0,
0,
0,
0,
0,
0,
0,
0,
0,
0,
0,
0,
0,
0,
0,
0,
0,
0,
0,
0,
0,
0,
0,
0,
0,
0,
0,
0,
0,
0,
0,
0,
0,
0,
0,
0,
0,
0,
0,
0,
0,
0,
0,
0,
0,
0,
0,
0,
0,
0,
0,
0,
0,
0,
0,
0,
0,
0,
1,
0,
0,
0,
0,
0,
0,
0,
0,
0,
0,
0,
0,
0,
0,
0,
0,
0,
0,
0,
0,
0,
0,
0,
0,
0,
0,
0,
0,
0,
0,
0,
0,
0,
0,
0,
0,
0,
0,
0,
0,
0,
0,
0,
0,
0,
0,
0,
0,
0,
0,
0,
0,
0,
0,
0,
0,
0,
0,
0,
0,
0,
0,
0,
0,
0,
0,
0,
0,
0,
0,
0,
0,
0,
0,
0,
0,
0,
0,
0,
0,
0,
0,
0,
0,
0,
0,
0,
0,
0,
0,
0,
0,
0,
0,
0,
0,
0,
0,
0,
0,
0,
0,
0,
0,
0,
0,
0,
0,
0,
0,
0,
0,
0,
0,
0,
0,
0,
0,
0,
0,
0,
0,
0,
0,
0,
0,
0,
0,
0,
0,
0,
0,
0,
0,
0,
0,
0,
0,
0,
0,
0,
0,
0,
0,
0,
0,
0,
0,
0,
0,
0,
0,
0,
0,
0,
0,
0,
0,
0,
0,
0,
0,
0,
0,
0,
0,
0,
0,
0,
0,
0,
0,
0,
0,
0,
0,
0,
0,
0,
0,
0,
0,
0,
0,
0,
0,
0,
0,
0,
0,
0,
0,
0,
0,
0,
0,
0,
0,
0,
0,
0,
0,
0,
0,
0,
0,
0,
0,
0,
0,
0,
0,
0,
0,
0,
0,
0,
0,
0,
0,
0,
0,
0,
0,
0,
0,
0,
0,
0,
0,
0,
0,
0,
0,
0,
0,
0,
0,
0,
0,
0,
0,
0,
0,
0,
0,
0,
0,
0,
0,
0,
0,
0,
0,
0,
0,
0,
0,
0,
0,
0,
0,
0,
0,
0,
0,
0,
0,
0,
0,
0,
0,
0,
0,
0,
0,
0,
0,
0,
0,
0,
0,
0,
0,
0,
0,
0,
0,
0,
0,
0,
0,
0,
0,
0,
0,
0,
0,
0,
0,
0,
0,
0,
0,
0,
0,
0,
0,
0,
0,
0,
0,
0,
0,
0,
0,
0,
0,
0,
0,
0,
0,
0,
0,
0,
0,
0,
0,
0,
0,
0,
0,
0,
0,
0,
0,
0,
0,
0,
0,
0,
0,
0,
0,
0,
0,
0,
0,
0,
0,
0,
0,
0,
0,
0,
0,
0,
0,
0,
0,
0,
0,
0,
0,
0,
0,
0,
0,
0,
0,
0,
0,
0,
0,
0,
0,
0,
0,
0,
0,
0,
0,
0,
0,
0,
0,
0,
0,
0,
0,
0,
0,
0,
0,
0,
0,
0,
0,
0,
0,
0,
0,
0,
0,
0,
0,
0,
0,
0,
0,
0,
0,
0,
0,
0,
0,
0,
0,
0,
0,
0,
0,
0,
0,
0,
0,
0,
0,
0,
0,
0,
0,
0,
0,
0,
0,
0,
0,
0,
0,
0,
0,
0,
0,
0,
0,
0,
0,
0,
0,
0,
0,
0,
0,
0,
0,
0,
0,
0,
0,
0,
0,
0,
0,
0,
0,
0,
0,
0,
0,
0,
0,
0,
0,
0,
0,
0,
0,
0,
0,
0,
0,
0,
0,
0,
0,
0,
0,
0,
0,
0,
0,
0,
0,
0,
0,
0,
0,
0,
0,
0,
0,
0,
0,
0,
0,
0,
0,
0,
0,
0,
0,
0,
0,
#ENDOFDATA   :