File: N132962/Quantification/15 keV/Mengason MM2/MMM2 Wollastonite[4][4].msa
#FORMAT      : EMSA/MAS Spectral Data File
#VERSION     : 1.0
#TITLE       : MMM2 Wollastonite[4][all]
#DATE        : 29-SEP-2025
#TIME        : 00:07
#OWNER       : Unknown
#NPOINTS     : 4096
#NCOLUMNS    : 1
#XUNITS      : eV
#YUNITS      : counts
#DATATYPE    : Y
#XPERCHAN    : 9.99778
#OFFSET      : 1.69135
#BEAMKV      : 15
#SIGNALTYPE  : EDS
#ELEVANGLE   : 35
#AZIMANGLE   : 0
#LIVETIME    : 240.399
#REALTIME    : 255.08
#PROBECUR    : 1.21151
#TAUWIND     : 0
#TDEADLYR    : 0
#TACTLYR     : 0.045
#TALWIND     : 0.025
#CHOFFSET    : 0.0
#XLABEL      : Energy (eV)
#YLABEL      : Counts
#XPOSITION   : -12.57911
#YPOSITION   : 4.5337
#ZPOSITION   : 34.11879
#EDSDET      : SD
##SPECIMEN   : MMM2 Wollastonite[4][all]
##DET_HASH   : 12273538-fd48-a23f-0a19-f1e6fa85caef
##CALIB_HASH : 6abaa72c-aa41-8738-0be9-f592914732f3
##WORKING    : 15.0 mm
##DET_NAME   : EDAX All
##DET_MODE   : MediumLE
#SPECTRUM    :
17,
24,
9,
17,
109,
384,
1291,
4560,
14061,
21104,
15331,
7977,
4567,
3485,
4887,
15263,
56868,
107546,
78680,
21341,
3948,
2460,
2650,
2772,
3061,
2953,
3241,
3403,
3663,
3830,
3966,
3862,
4036,
4336,
4525,
4645,
4579,
4644,
4818,
4792,
5035,
4915,
5003,
5063,
5227,
5089,
5202,
5371,
5473,
5680,
5796,
5915,
5951,
6080,
7137,
16641,
61269,
154830,
209571,
148410,
59764,
21027,
10222,
6058,
4804,
4574,
4076,
3558,
3297,
3207,
3165,
3053,
3189,
3260,
3335,
3531,
3298,
3230,
3001,
3003,
2880,
2954,
2986,
2869,
2911,
2828,
2792,
2823,
2722,
2732,
2719,
2734,
2626,
2643,
2633,
2643,
2565,
2566,
2455,
2446,
2442,
2471,
2492,
2507,
2589,
2494,
2364,
2448,
2378,
2335,
2335,
2411,
2172,
2251,
2370,
2558,
2710,
3277,
3994,
7200,
18748,
48280,
88837,
113122,
94665,
53370,
21058,
6796,
3004,
2531,
3193,
5134,
9113,
13499,
15320,
12164,
7130,
3679,
2118,
1733,
1687,
1593,
1601,
1399,
1452,
1399,
1466,
1387,
1364,
1389,
1327,
1412,
1302,
1353,
1239,
1295,
1319,
1249,
1309,
1340,
1227,
1320,
1392,
1267,
1220,
1240,
1234,
1243,
1188,
1217,
1164,
1167,
1186,
1139,
1243,
1167,
1172,
1155,
1201,
1257,
1377,
1302,
1268,
1195,
1144,
1122,
980,
1090,
1011,
1032,
1041,
1023,
1021,
1018,
1045,
1057,
1058,
950,
952,
1004,
946,
853,
947,
883,
937,
879,
875,
908,
976,
850,
814,
879,
873,
901,
904,
831,
849,
850,
774,
816,
817,
828,
728,
799,
782,
747,
760,
744,
713,
758,
738,
722,
739,
700,
736,
708,
722,
663,
687,
667,
677,
674,
671,
677,
708,
728,
678,
695,
629,
683,
658,
638,
633,
596,
606,
569,
601,
522,
590,
614,
581,
560,
559,
566,
585,
581,
541,
515,
472,
541,
541,
553,
561,
505,
546,
503,
476,
443,
468,
481,
488,
507,
453,
426,
444,
408,
443,
469,
465,
425,
443,
425,
415,
423,
417,
406,
412,
411,
388,
385,
384,
374,
391,
368,
403,
340,
394,
363,
394,
369,
364,
359,
318,
361,
317,
315,
297,
338,
358,
313,
336,
328,
334,
300,
298,
298,
311,
305,
290,
302,
317,
250,
272,
287,
280,
298,
273,
240,
286,
261,
262,
275,
252,
263,
251,
254,
229,
225,
231,
231,
248,
223,
217,
242,
231,
191,
217,
203,
236,
211,
230,
220,
191,
205,
210,
213,
184,
186,
201,
189,
200,
178,
186,
196,
184,
181,
159,
166,
188,
163,
164,
165,
161,
176,
162,
168,
134,
164,
158,
145,
140,
146,
143,
155,
130,
125,
128,
115,
115,
109,
127,
136,
131,
113,
121,
123,
107,
110,
98,
99,
96,
92,
89,
120,
110,
94,
102,
86,
95,
88,
84,
80,
72,
87,
63,
76,
79,
80,
75,
95,
81,
62,
67,
78,
52,
72,
60,
58,
49,
69,
55,
60,
69,
56,
38,
45,
31,
53,
48,
45,
59,
41,
49,
44,
33,
32,
48,
25,
39,
40,
30,
19,
33,
29,
28,
24,
32,
27,
20,
27,
24,
16,
22,
20,
27,
20,
6,
24,
12,
15,
19,
13,
11,
15,
7,
15,
12,
17,
7,
10,
6,
10,
8,
5,
3,
7,
0,
4,
4,
1,
0,
3,
1,
1,
0,
1,
0,
0,
1,
0,
1,
0,
0,
1,
0,
0,
0,
0,
0,
0,
0,
0,
0,
0,
1,
0,
0,
0,
0,
0,
0,
1,
0,
1,
0,
0,
0,
0,
1,
0,
0,
0,
0,
0,
1,
1,
0,
0,
0,
0,
0,
0,
0,
0,
0,
0,
0,
0,
0,
0,
0,
0,
0,
0,
0,
0,
0,
0,
1,
0,
1,
0,
0,
1,
0,
0,
0,
0,
0,
1,
0,
0,
0,
0,
0,
0,
1,
0,
0,
0,
1,
0,
0,
0,
0,
0,
0,
0,
0,
0,
0,
0,
0,
0,
0,
0,
0,
0,
0,
1,
1,
0,
0,
0,
0,
0,
0,
0,
0,
0,
0,
1,
0,
0,
0,
0,
0,
0,
0,
0,
0,
0,
0,
0,
0,
0,
0,
0,
0,
0,
0,
0,
0,
0,
0,
0,
0,
0,
0,
0,
1,
0,
0,
0,
1,
0,
0,
0,
0,
0,
0,
0,
0,
0,
0,
0,
1,
0,
0,
0,
0,
0,
0,
0,
0,
0,
0,
0,
0,
0,
0,
0,
0,
0,
0,
0,
0,
1,
0,
0,
0,
0,
0,
0,
0,
0,
0,
0,
0,
0,
0,
0,
0,
0,
0,
0,
0,
0,
0,
0,
0,
0,
0,
0,
0,
0,
1,
0,
0,
0,
0,
0,
0,
0,
0,
0,
0,
0,
0,
0,
0,
0,
0,
0,
0,
0,
0,
0,
0,
0,
0,
0,
0,
0,
1,
0,
0,
0,
0,
0,
0,
0,
0,
0,
0,
0,
0,
0,
0,
0,
0,
0,
0,
0,
0,
0,
0,
0,
0,
0,
0,
0,
0,
0,
0,
0,
0,
0,
0,
0,
1,
0,
0,
0,
0,
0,
0,
0,
0,
0,
0,
0,
0,
0,
0,
0,
0,
0,
0,
0,
0,
0,
0,
0,
0,
0,
0,
0,
0,
0,
0,
0,
0,
0,
0,
0,
0,
0,
0,
0,
0,
0,
0,
0,
0,
0,
0,
0,
0,
0,
0,
0,
0,
0,
0,
0,
0,
0,
0,
0,
0,
0,
0,
0,
0,
0,
0,
0,
0,
0,
0,
0,
0,
0,
0,
0,
0,
0,
0,
0,
0,
0,
0,
0,
0,
0,
0,
0,
0,
0,
0,
0,
0,
0,
0,
0,
0,
0,
0,
0,
0,
0,
0,
0,
0,
0,
0,
0,
0,
0,
0,
0,
0,
0,
0,
0,
0,
0,
0,
0,
0,
0,
0,
0,
0,
0,
0,
0,
0,
0,
0,
0,
0,
0,
0,
0,
0,
0,
0,
0,
0,
0,
0,
0,
0,
0,
0,
0,
0,
0,
0,
0,
0,
0,
0,
0,
0,
0,
0,
0,
0,
0,
0,
0,
0,
0,
0,
0,
0,
0,
0,
0,
0,
0,
0,
0,
0,
0,
0,
0,
0,
0,
0,
0,
0,
0,
0,
0,
0,
0,
0,
0,
0,
0,
0,
0,
0,
0,
0,
0,
0,
0,
0,
0,
0,
0,
0,
0,
0,
0,
0,
0,
0,
0,
0,
0,
0,
0,
0,
0,
0,
0,
0,
0,
0,
0,
0,
0,
0,
0,
0,
0,
0,
0,
0,
0,
0,
0,
0,
0,
0,
0,
0,
0,
0,
0,
0,
0,
0,
0,
0,
0,
0,
0,
0,
0,
0,
0,
0,
0,
0,
0,
0,
0,
0,
0,
0,
0,
0,
0,
0,
0,
0,
0,
0,
0,
0,
0,
0,
0,
0,
0,
0,
0,
0,
0,
0,
0,
0,
0,
0,
0,
0,
0,
0,
0,
0,
0,
0,
0,
0,
0,
0,
0,
0,
0,
0,
0,
0,
0,
0,
0,
0,
0,
0,
0,
0,
0,
0,
0,
0,
0,
0,
0,
0,
0,
0,
0,
0,
0,
0,
0,
0,
0,
0,
0,
0,
0,
0,
0,
0,
0,
0,
0,
0,
0,
0,
0,
0,
0,
0,
0,
0,
0,
0,
0,
0,
0,
0,
0,
0,
0,
0,
0,
0,
0,
0,
0,
0,
0,
0,
0,
0,
0,
0,
0,
0,
0,
0,
0,
0,
0,
0,
0,
0,
0,
0,
0,
0,
0,
0,
0,
0,
0,
0,
0,
0,
0,
0,
0,
0,
0,
0,
0,
0,
0,
0,
0,
0,
0,
0,
0,
0,
0,
0,
0,
0,
0,
0,
0,
0,
0,
0,
0,
0,
0,
0,
0,
0,
0,
0,
0,
0,
0,
0,
0,
0,
0,
0,
0,
0,
0,
0,
0,
0,
0,
0,
0,
0,
0,
0,
0,
0,
0,
0,
0,
0,
0,
0,
0,
0,
0,
0,
0,
0,
0,
0,
0,
0,
0,
0,
0,
0,
0,
0,
0,
0,
0,
0,
0,
0,
0,
0,
0,
0,
0,
0,
0,
0,
0,
0,
0,
0,
0,
0,
0,
0,
0,
0,
0,
0,
0,
0,
0,
0,
0,
0,
0,
0,
0,
0,
0,
0,
0,
0,
0,
0,
0,
0,
0,
0,
0,
0,
0,
0,
0,
0,
0,
0,
0,
0,
0,
0,
0,
0,
0,
0,
0,
0,
0,
0,
0,
0,
0,
0,
0,
0,
0,
0,
0,
0,
0,
0,
0,
0,
0,
0,
0,
0,
0,
0,
0,
0,
0,
0,
0,
0,
0,
0,
0,
0,
0,
0,
0,
0,
0,
0,
0,
0,
0,
0,
0,
0,
0,
0,
0,
#ENDOFDATA   :