File: N132962/Quantification/15 keV/Mengason MM2/MMM2 Stibnite[1][4].msa
#FORMAT      : EMSA/MAS Spectral Data File
#VERSION     : 1.0
#TITLE       : MMM2 Stibnite[1][all]
#DATE        : 28-SEP-2025
#TIME        : 23:33
#OWNER       : Unknown
#NPOINTS     : 4096
#NCOLUMNS    : 1
#XUNITS      : eV
#YUNITS      : counts
#DATATYPE    : Y
#XPERCHAN    : 9.99778
#OFFSET      : 1.69135
#BEAMKV      : 15
#SIGNALTYPE  : EDS
#ELEVANGLE   : 35
#AZIMANGLE   : 0
#LIVETIME    : 240.207
#REALTIME    : 260.3986
#PROBECUR    : 1.21079
#TAUWIND     : 0
#TDEADLYR    : 0
#TACTLYR     : 0.045
#TALWIND     : 0.025
#CHOFFSET    : 0.0
#XLABEL      : Energy (eV)
#YLABEL      : Counts
#XPOSITION   : -14.45572
#YPOSITION   : 2.30219
#ZPOSITION   : 34.11879
#EDSDET      : SD
##SPECIMEN   : MMM2 Stibnite[1][all]
##DET_HASH   : 12273538-fd48-a23f-0a19-f1e6fa85caef
##CALIB_HASH : 6abaa72c-aa41-8738-0be9-f592914732f3
##WORKING    : 15.0 mm
##DET_NAME   : EDAX All
##DET_MODE   : MediumLE
#SPECTRUM    :
36,
21,
16,
207,
1507,
3115,
3316,
6915,
18005,
22477,
11920,
6413,
9369,
17828,
23372,
16827,
11684,
11621,
11961,
9974,
6775,
5504,
5799,
6743,
8231,
8157,
7268,
6449,
6201,
6131,
5826,
5820,
6028,
6122,
6183,
6370,
6471,
6654,
6781,
7189,
7203,
7365,
7480,
7600,
7684,
7627,
8157,
8117,
8225,
8298,
8269,
8353,
8364,
8166,
8416,
8292,
8608,
9081,
9562,
9484,
9496,
9493,
8935,
8775,
8051,
7819,
7689,
7819,
7985,
8131,
8486,
8939,
10515,
15183,
29999,
74713,
147619,
183679,
133517,
59937,
23357,
17644,
19318,
16722,
11304,
7442,
6029,
5829,
5569,
5572,
5544,
5487,
5596,
5467,
5346,
5435,
5467,
5360,
5403,
5306,
5375,
5164,
5326,
5538,
6394,
7643,
8646,
8461,
7268,
5881,
5356,
5237,
5618,
5825,
6660,
7564,
9770,
18666,
42320,
79319,
104606,
92284,
55328,
25007,
11803,
11926,
21754,
38393,
51201,
49057,
37764,
25643,
17260,
11706,
10196,
12501,
16239,
17255,
14295,
9345,
6073,
4746,
4847,
6136,
7710,
8436,
7557,
5702,
4431,
3672,
3733,
4328,
5269,
5580,
5320,
4438,
3763,
3372,
3146,
3033,
2957,
2962,
2998,
3001,
2999,
2894,
2866,
2882,
2940,
2856,
2885,
2848,
2774,
2828,
2798,
2738,
2721,
2675,
2789,
2710,
2668,
2769,
2668,
2603,
2616,
2666,
2609,
2603,
2596,
2615,
2683,
2578,
2615,
2463,
2481,
2675,
2623,
2652,
2662,
2605,
2520,
2478,
2400,
2465,
2460,
2420,
2423,
2419,
2377,
2372,
2324,
2410,
2408,
2532,
2359,
2357,
2331,
2237,
2156,
2170,
2084,
2134,
2122,
2105,
2204,
2115,
2100,
2037,
2065,
2015,
2017,
2014,
2007,
2104,
1969,
1928,
1988,
1993,
1998,
1932,
1978,
1955,
1856,
1967,
1839,
1852,
1879,
1948,
1845,
1942,
1847,
1816,
1840,
1721,
1744,
1739,
1733,
1738,
1756,
1656,
1567,
1748,
1550,
1544,
1579,
1624,
1635,
1545,
1557,
1570,
1517,
1501,
1537,
1491,
1487,
1471,
1438,
1436,
1456,
1447,
1466,
1494,
1409,
1432,
1455,
1391,
1486,
1316,
1377,
1373,
1369,
1359,
1377,
1352,
1325,
1325,
1328,
1245,
1332,
1244,
1173,
1271,
1256,
1201,
1199,
1192,
1185,
1158,
1125,
1157,
1095,
1134,
1153,
1097,
1160,
1121,
1080,
1117,
1065,
1048,
1059,
1079,
1060,
994,
1050,
1048,
984,
1012,
1000,
947,
963,
936,
926,
886,
967,
920,
967,
921,
884,
907,
866,
889,
904,
835,
870,
849,
847,
821,
845,
848,
816,
784,
801,
793,
761,
796,
741,
717,
750,
780,
672,
743,
705,
723,
705,
660,
668,
666,
686,
685,
642,
638,
668,
661,
621,
627,
617,
577,
590,
593,
614,
550,
569,
565,
562,
584,
533,
548,
562,
552,
549,
530,
510,
464,
530,
488,
474,
449,
427,
482,
445,
474,
486,
436,
415,
396,
403,
414,
439,
419,
421,
361,
426,
379,
401,
392,
354,
330,
327,
338,
308,
348,
334,
335,
334,
291,
354,
333,
297,
303,
276,
271,
293,
282,
272,
269,
305,
237,
250,
258,
262,
246,
211,
218,
208,
224,
205,
224,
216,
183,
188,
192,
182,
185,
175,
164,
175,
176,
139,
142,
155,
137,
138,
163,
130,
137,
111,
125,
127,
113,
113,
113,
96,
108,
85,
79,
79,
96,
70,
77,
82,
70,
63,
61,
42,
63,
57,
43,
51,
46,
37,
43,
36,
23,
20,
19,
17,
19,
13,
5,
6,
8,
4,
2,
3,
4,
6,
2,
3,
3,
4,
5,
2,
2,
2,
4,
1,
1,
3,
4,
2,
4,
6,
3,
3,
1,
2,
2,
2,
2,
4,
2,
1,
1,
1,
4,
3,
1,
3,
0,
3,
2,
1,
3,
3,
4,
1,
0,
1,
2,
2,
1,
2,
0,
0,
3,
4,
3,
0,
0,
3,
1,
1,
1,
2,
3,
0,
0,
0,
2,
1,
1,
0,
3,
2,
2,
3,
2,
0,
3,
4,
0,
1,
1,
3,
0,
0,
1,
1,
0,
1,
1,
1,
0,
0,
1,
0,
3,
3,
0,
2,
1,
4,
0,
1,
0,
0,
0,
2,
1,
2,
0,
0,
0,
2,
0,
1,
3,
1,
0,
0,
0,
1,
0,
0,
0,
1,
0,
1,
1,
0,
0,
1,
0,
1,
1,
0,
1,
1,
0,
0,
1,
1,
0,
0,
0,
2,
2,
0,
2,
0,
0,
0,
1,
1,
0,
0,
3,
0,
0,
1,
0,
1,
0,
0,
0,
0,
0,
0,
0,
2,
0,
0,
1,
1,
0,
1,
0,
0,
1,
0,
0,
0,
2,
0,
0,
0,
0,
0,
0,
0,
0,
0,
0,
0,
0,
0,
0,
0,
1,
0,
0,
1,
0,
0,
0,
0,
0,
0,
0,
0,
0,
0,
0,
0,
0,
0,
0,
0,
0,
0,
0,
1,
0,
0,
0,
0,
0,
1,
1,
0,
0,
0,
0,
0,
0,
0,
0,
0,
0,
0,
0,
0,
0,
0,
1,
0,
0,
1,
0,
0,
0,
0,
0,
0,
0,
0,
0,
0,
0,
1,
0,
0,
0,
0,
0,
0,
0,
0,
0,
0,
0,
0,
0,
0,
0,
0,
0,
0,
0,
0,
0,
0,
0,
1,
0,
0,
0,
0,
0,
0,
0,
0,
0,
0,
0,
0,
0,
0,
0,
0,
0,
0,
0,
0,
0,
0,
0,
0,
0,
0,
0,
0,
0,
0,
0,
0,
0,
0,
0,
0,
0,
0,
0,
0,
0,
0,
0,
0,
0,
0,
0,
0,
0,
0,
0,
0,
0,
0,
0,
0,
0,
0,
0,
0,
0,
0,
0,
0,
0,
0,
0,
0,
0,
0,
0,
0,
0,
0,
0,
0,
0,
0,
0,
0,
0,
0,
0,
0,
0,
0,
0,
0,
0,
0,
0,
0,
0,
0,
0,
0,
0,
0,
0,
0,
0,
0,
0,
0,
0,
0,
0,
0,
0,
0,
0,
0,
0,
0,
0,
0,
0,
0,
0,
0,
0,
0,
0,
0,
0,
0,
0,
0,
0,
0,
0,
0,
0,
0,
0,
0,
0,
0,
0,
0,
0,
0,
0,
0,
0,
0,
0,
0,
0,
0,
0,
0,
0,
0,
0,
0,
0,
0,
0,
0,
0,
0,
0,
0,
0,
0,
0,
0,
0,
0,
0,
0,
0,
0,
0,
0,
0,
0,
0,
0,
0,
0,
0,
0,
0,
0,
0,
0,
0,
0,
0,
0,
0,
0,
0,
0,
0,
0,
0,
0,
0,
0,
0,
0,
0,
0,
0,
0,
0,
0,
0,
0,
0,
0,
0,
0,
0,
0,
0,
0,
0,
0,
0,
0,
0,
0,
0,
0,
0,
0,
0,
0,
0,
0,
0,
0,
0,
0,
0,
0,
0,
0,
0,
0,
0,
0,
0,
0,
0,
0,
0,
0,
0,
0,
0,
0,
0,
0,
0,
0,
0,
0,
0,
0,
0,
0,
0,
0,
0,
0,
0,
0,
0,
0,
0,
0,
0,
0,
0,
0,
0,
0,
0,
0,
0,
0,
0,
0,
0,
0,
0,
0,
0,
0,
0,
0,
0,
0,
0,
0,
0,
0,
0,
0,
0,
0,
0,
0,
0,
0,
0,
0,
0,
0,
0,
0,
0,
0,
0,
0,
0,
0,
0,
0,
0,
0,
0,
0,
0,
0,
0,
0,
0,
0,
0,
0,
0,
0,
0,
0,
0,
0,
0,
0,
0,
0,
0,
0,
0,
0,
0,
0,
0,
0,
0,
0,
0,
0,
0,
0,
0,
0,
0,
0,
0,
0,
0,
0,
0,
0,
0,
0,
0,
0,
0,
0,
0,
0,
0,
0,
0,
0,
0,
0,
0,
0,
0,
0,
0,
0,
0,
0,
0,
0,
0,
0,
0,
0,
0,
0,
0,
0,
0,
0,
0,
0,
0,
0,
0,
0,
0,
0,
0,
0,
0,
0,
0,
0,
0,
0,
0,
0,
0,
0,
0,
0,
0,
0,
0,
0,
0,
0,
0,
0,
0,
0,
0,
0,
0,
0,
0,
0,
0,
0,
0,
0,
0,
0,
0,
0,
0,
0,
0,
0,
0,
0,
0,
0,
0,
0,
0,
0,
0,
0,
0,
0,
0,
0,
0,
0,
0,
0,
0,
0,
0,
0,
0,
0,
0,
0,
0,
0,
0,
0,
0,
0,
0,
0,
0,
0,
0,
0,
0,
0,
0,
0,
0,
0,
0,
0,
0,
0,
0,
0,
0,
0,
0,
0,
0,
0,
0,
0,
0,
0,
0,
0,
0,
0,
0,
0,
0,
0,
0,
0,
0,
0,
0,
0,
0,
0,
0,
0,
0,
0,
0,
0,
0,
0,
0,
0,
0,
0,
0,
0,
0,
0,
0,
0,
0,
0,
0,
0,
0,
0,
0,
0,
0,
0,
0,
0,
0,
0,
0,
0,
0,
0,
0,
0,
0,
0,
0,
0,
0,
0,
0,
0,
0,
0,
0,
0,
0,
#ENDOFDATA   :