File: N132962/Quantification/15 keV/Mengason MM2/MMM2 Zircon-2[2][4].msa
#FORMAT      : EMSA/MAS Spectral Data File
#VERSION     : 1.0
#TITLE       : MMM2 Zircon-2[2][all]
#DATE        : 29-SEP-2025
#TIME        : 01:18
#OWNER       : Unknown
#NPOINTS     : 4096
#NCOLUMNS    : 1
#XUNITS      : eV
#YUNITS      : counts
#DATATYPE    : Y
#XPERCHAN    : 9.99778
#OFFSET      : 1.69135
#BEAMKV      : 15
#SIGNALTYPE  : EDS
#ELEVANGLE   : 35
#AZIMANGLE   : 0
#LIVETIME    : 240.258
#REALTIME    : 257.125
#PROBECUR    : 1.21248
#TAUWIND     : 0
#TDEADLYR    : 0
#TACTLYR     : 0.045
#TALWIND     : 0.025
#CHOFFSET    : 0.0
#XLABEL      : Energy (eV)
#YLABEL      : Counts
#XPOSITION   : -14.67589
#YPOSITION   : 7.61832
#ZPOSITION   : 34.11879
#EDSDET      : SD
##SPECIMEN   : MMM2 Zircon-2[2][all]
##DET_HASH   : 12273538-fd48-a23f-0a19-f1e6fa85caef
##CALIB_HASH : 6abaa72c-aa41-8738-0be9-f592914732f3
##WORKING    : 15.0 mm
##DET_NAME   : EDAX All
##DET_MODE   : MediumLE
#SPECTRUM    :
17,
22,
14,
76,
458,
1344,
2339,
5387,
14503,
19592,
12192,
5694,
4659,
5396,
6582,
17030,
58221,
107116,
78412,
22508,
5098,
3725,
4064,
4512,
4778,
4659,
4783,
5200,
5498,
5681,
5788,
5811,
6012,
6350,
6590,
6784,
6864,
6837,
7017,
7082,
7116,
7278,
7575,
7407,
7590,
7480,
7620,
7717,
7890,
8009,
8083,
8200,
8192,
8894,
10543,
17754,
48357,
112383,
151860,
112104,
53051,
23998,
14507,
11223,
12068,
20657,
48445,
102587,
142565,
126584,
93808,
72802,
49468,
28401,
16437,
9985,
6427,
4790,
4126,
3676,
3584,
3515,
3988,
4240,
4346,
4076,
3702,
3435,
3363,
3292,
3144,
3220,
3174,
3214,
3143,
3168,
3115,
3171,
3153,
3208,
3068,
3075,
3216,
3187,
3114,
3100,
3017,
3149,
3020,
3050,
2927,
2954,
2896,
2952,
2954,
3006,
3033,
3060,
2924,
2859,
2859,
2879,
2856,
2831,
2808,
2967,
3051,
3047,
2991,
2862,
2879,
2663,
2730,
2575,
2661,
2650,
2589,
2695,
2606,
2705,
2454,
2539,
2606,
2525,
2476,
2380,
2408,
2481,
2331,
2411,
2391,
2279,
2356,
2276,
2274,
2285,
2201,
2172,
2212,
2230,
2179,
2222,
2234,
2163,
2138,
2116,
2068,
2131,
1996,
2037,
2081,
1945,
1981,
1877,
1962,
1976,
1877,
2024,
1921,
1967,
1799,
1814,
1855,
1861,
1838,
1838,
1816,
1728,
1803,
1725,
1817,
1685,
1692,
1701,
1761,
1662,
1693,
1667,
1624,
1755,
1632,
1587,
1601,
1583,
1587,
1522,
1594,
1535,
1524,
1526,
1492,
1473,
1555,
1543,
1438,
1527,
1441,
1465,
1425,
1370,
1304,
1411,
1272,
1340,
1362,
1326,
1360,
1328,
1324,
1326,
1357,
1345,
1195,
1239,
1296,
1299,
1312,
1194,
1236,
1225,
1178,
1194,
1148,
1187,
1130,
1058,
1108,
1183,
1069,
1194,
1105,
1158,
1101,
1092,
1061,
1070,
1000,
1044,
1043,
1064,
1096,
1062,
1107,
1081,
1146,
1024,
981,
941,
936,
922,
910,
921,
953,
936,
866,
887,
906,
922,
869,
910,
874,
839,
855,
812,
826,
838,
891,
820,
805,
868,
803,
788,
805,
770,
791,
769,
756,
741,
820,
758,
785,
803,
735,
723,
752,
751,
699,
676,
640,
705,
661,
691,
693,
618,
682,
642,
642,
665,
637,
574,
604,
620,
623,
647,
539,
600,
555,
594,
532,
538,
571,
545,
518,
507,
553,
552,
534,
534,
476,
519,
479,
521,
533,
494,
466,
446,
492,
480,
478,
475,
483,
423,
430,
427,
438,
414,
419,
419,
449,
433,
371,
412,
370,
393,
394,
387,
394,
379,
377,
379,
368,
335,
344,
332,
366,
345,
320,
354,
328,
329,
302,
311,
278,
299,
310,
294,
309,
277,
303,
278,
277,
296,
293,
255,
247,
262,
268,
264,
266,
214,
214,
253,
211,
244,
233,
220,
231,
218,
217,
210,
199,
220,
185,
190,
193,
178,
196,
205,
176,
173,
180,
191,
149,
178,
169,
155,
161,
157,
156,
175,
164,
157,
146,
147,
138,
134,
127,
134,
125,
119,
128,
102,
109,
117,
108,
109,
121,
115,
90,
95,
91,
98,
97,
84,
77,
89,
70,
74,
86,
71,
66,
82,
62,
71,
53,
62,
68,
62,
68,
50,
58,
50,
46,
43,
37,
37,
45,
42,
44,
33,
33,
46,
39,
29,
22,
22,
28,
23,
27,
25,
14,
8,
18,
4,
7,
15,
3,
5,
2,
5,
3,
0,
2,
0,
2,
4,
2,
1,
0,
0,
0,
1,
3,
0,
1,
0,
0,
1,
1,
1,
1,
2,
3,
0,
2,
0,
1,
1,
1,
0,
0,
3,
0,
0,
0,
1,
0,
3,
0,
0,
0,
0,
1,
0,
0,
0,
2,
0,
1,
3,
0,
1,
2,
0,
1,
1,
0,
0,
0,
0,
0,
0,
1,
0,
1,
0,
0,
1,
0,
1,
0,
0,
1,
0,
1,
1,
0,
0,
0,
0,
0,
0,
0,
0,
1,
0,
0,
0,
0,
0,
0,
0,
0,
0,
0,
1,
1,
1,
0,
1,
0,
0,
0,
0,
0,
0,
1,
0,
1,
0,
0,
0,
0,
0,
0,
0,
0,
0,
0,
0,
0,
0,
0,
0,
1,
1,
0,
0,
1,
0,
0,
0,
0,
0,
0,
0,
0,
1,
0,
0,
0,
0,
0,
0,
1,
0,
2,
0,
0,
0,
0,
0,
0,
0,
0,
0,
0,
0,
0,
0,
0,
0,
1,
0,
0,
0,
0,
0,
0,
0,
0,
1,
0,
0,
1,
0,
0,
0,
0,
0,
0,
0,
0,
0,
0,
0,
0,
0,
0,
0,
0,
0,
0,
0,
0,
0,
0,
1,
1,
0,
0,
0,
0,
0,
0,
0,
0,
0,
0,
0,
0,
0,
0,
0,
0,
0,
0,
0,
0,
0,
0,
0,
0,
0,
0,
1,
0,
0,
0,
0,
0,
0,
0,
0,
0,
0,
0,
0,
0,
0,
0,
0,
1,
0,
0,
0,
0,
0,
0,
0,
0,
0,
0,
0,
0,
0,
0,
0,
0,
0,
0,
0,
0,
0,
0,
0,
0,
0,
0,
0,
0,
0,
0,
0,
0,
0,
0,
0,
0,
0,
0,
0,
0,
0,
0,
0,
0,
0,
0,
0,
0,
0,
0,
0,
0,
0,
0,
0,
0,
0,
0,
0,
0,
0,
0,
0,
0,
0,
0,
0,
0,
0,
0,
0,
0,
0,
0,
0,
0,
0,
0,
0,
0,
0,
0,
0,
0,
0,
0,
0,
0,
0,
0,
0,
0,
0,
0,
0,
0,
0,
0,
0,
0,
0,
0,
0,
0,
0,
0,
0,
0,
0,
0,
0,
0,
0,
0,
0,
0,
0,
0,
0,
0,
0,
0,
0,
0,
0,
0,
0,
0,
0,
0,
0,
0,
0,
0,
0,
0,
0,
0,
0,
0,
0,
0,
0,
0,
0,
0,
0,
0,
0,
0,
0,
0,
0,
0,
0,
0,
0,
0,
0,
0,
0,
0,
0,
0,
0,
0,
0,
0,
0,
0,
0,
0,
0,
0,
0,
0,
0,
0,
0,
0,
0,
0,
0,
0,
0,
0,
0,
0,
0,
0,
0,
0,
0,
0,
0,
0,
0,
0,
0,
0,
0,
0,
0,
0,
0,
0,
0,
0,
0,
0,
0,
0,
0,
0,
0,
0,
0,
0,
0,
0,
0,
0,
0,
0,
0,
0,
0,
0,
0,
0,
0,
0,
0,
0,
0,
0,
0,
0,
0,
0,
0,
0,
0,
0,
0,
0,
0,
0,
0,
0,
0,
0,
0,
0,
0,
0,
0,
0,
0,
0,
0,
0,
0,
0,
0,
0,
0,
0,
0,
0,
0,
0,
0,
0,
0,
0,
0,
0,
0,
0,
0,
0,
0,
0,
0,
0,
0,
0,
0,
0,
0,
0,
0,
0,
0,
0,
0,
0,
0,
0,
0,
0,
0,
0,
0,
0,
0,
0,
0,
0,
0,
0,
0,
0,
0,
0,
0,
0,
0,
0,
0,
0,
0,
0,
0,
0,
0,
0,
0,
0,
0,
0,
0,
0,
0,
0,
0,
0,
0,
0,
0,
0,
0,
0,
0,
0,
0,
0,
0,
0,
0,
0,
0,
0,
0,
0,
0,
0,
0,
0,
0,
0,
0,
0,
0,
0,
0,
0,
0,
0,
0,
0,
0,
0,
0,
0,
0,
0,
0,
0,
0,
0,
0,
0,
0,
0,
0,
0,
0,
0,
0,
0,
0,
0,
0,
0,
0,
0,
0,
0,
0,
0,
0,
0,
0,
0,
0,
0,
0,
0,
0,
0,
0,
0,
0,
0,
0,
0,
0,
0,
0,
0,
0,
0,
0,
0,
0,
0,
0,
0,
0,
0,
0,
0,
0,
0,
0,
0,
0,
0,
0,
0,
0,
0,
0,
0,
0,
0,
0,
0,
0,
0,
0,
0,
0,
0,
0,
0,
0,
0,
0,
0,
0,
0,
0,
0,
0,
0,
0,
0,
0,
0,
0,
0,
0,
0,
0,
0,
0,
0,
0,
0,
0,
0,
0,
0,
0,
0,
0,
0,
0,
0,
0,
0,
0,
0,
0,
0,
0,
0,
0,
0,
0,
0,
0,
0,
0,
0,
0,
0,
0,
0,
0,
0,
0,
0,
0,
0,
0,
0,
0,
0,
0,
0,
0,
0,
0,
0,
0,
0,
0,
0,
0,
0,
0,
0,
0,
0,
0,
0,
0,
0,
0,
0,
0,
0,
0,
0,
0,
0,
0,
0,
0,
0,
0,
0,
0,
0,
0,
0,
0,
0,
0,
0,
0,
0,
0,
0,
0,
0,
0,
0,
0,
0,
0,
0,
0,
0,
0,
0,
0,
0,
0,
0,
0,
0,
0,
0,
0,
0,
0,
0,
0,
0,
0,
0,
0,
0,
0,
0,
0,
0,
0,
0,
0,
0,
0,
0,
0,
0,
0,
0,
0,
0,
0,
0,
0,
0,
0,
0,
0,
0,
0,
#ENDOFDATA   :