File: N132962/Quantification/15 keV/Mengason MM2/MMM2 Plagioclaise[1][4].msa
#FORMAT      : EMSA/MAS Spectral Data File
#VERSION     : 1.0
#TITLE       : MMM2 Plagioclaise[1][all]
#DATE        : 28-SEP-2025
#TIME        : 23:12
#OWNER       : Unknown
#NPOINTS     : 4096
#NCOLUMNS    : 1
#XUNITS      : eV
#YUNITS      : counts
#DATATYPE    : Y
#XPERCHAN    : 9.99778
#OFFSET      : 1.69135
#BEAMKV      : 15
#SIGNALTYPE  : EDS
#ELEVANGLE   : 35
#AZIMANGLE   : 0
#LIVETIME    : 240.278
#REALTIME    : 256.483
#PROBECUR    : 1.2132
#TAUWIND     : 0
#TDEADLYR    : 0
#TACTLYR     : 0.045
#TALWIND     : 0.025
#CHOFFSET    : 0.0
#XLABEL      : Energy (eV)
#YLABEL      : Counts
#XPOSITION   : -18.6038
#YPOSITION   : 1.97352
#ZPOSITION   : 34.11879
#EDSDET      : SD
##SPECIMEN   : MMM2 Plagioclaise[1][all]
##DET_HASH   : 12273538-fd48-a23f-0a19-f1e6fa85caef
##CALIB_HASH : 6abaa72c-aa41-8738-0be9-f592914732f3
##WORKING    : 15.0 mm
##DET_NAME   : EDAX All
##DET_MODE   : MediumLE
#SPECTRUM    :
22,
37,
17,
23,
82,
407,
1144,
3669,
10954,
14722,
8618,
4576,
3962,
4583,
8032,
28952,
110171,
210462,
152626,
40328,
5599,
2488,
2781,
3206,
3253,
3297,
3275,
3373,
3741,
3815,
3998,
4362,
5866,
11923,
23673,
25949,
14440,
6408,
4643,
4596,
4960,
5231,
5467,
5489,
5416,
5720,
7527,
19384,
64040,
128673,
130063,
67348,
22260,
8814,
6701,
14747,
54979,
139721,
190115,
134553,
54076,
18696,
9020,
5015,
3476,
3138,
3233,
3009,
2931,
2589,
2533,
2435,
2603,
2662,
2921,
3038,
3003,
2645,
2534,
2462,
2397,
2410,
2431,
2420,
2306,
2273,
2353,
2298,
2353,
2202,
2256,
2235,
2220,
2290,
2192,
2138,
2235,
2176,
2076,
2235,
2204,
2062,
2098,
1977,
1994,
2063,
2202,
2321,
2407,
2794,
2956,
2900,
2542,
2075,
1951,
1950,
2136,
2181,
2333,
3082,
5844,
13111,
23342,
28705,
24069,
14147,
6144,
2686,
1824,
1757,
1833,
2323,
3349,
4436,
4782,
4053,
2749,
1887,
1573,
1440,
1396,
1369,
1329,
1351,
1308,
1303,
1321,
1190,
1276,
1369,
1374,
1408,
1313,
1270,
1228,
1185,
1193,
1236,
1119,
1154,
1099,
1151,
1169,
1156,
1163,
1091,
1127,
1059,
1087,
1074,
1054,
1079,
1051,
1034,
1054,
1041,
959,
1009,
1001,
1072,
1017,
1003,
990,
954,
1006,
942,
945,
880,
861,
872,
879,
846,
930,
875,
862,
857,
844,
831,
829,
874,
788,
812,
824,
815,
768,
808,
756,
711,
786,
776,
823,
883,
914,
1010,
960,
914,
766,
729,
701,
696,
715,
656,
647,
727,
678,
653,
685,
634,
609,
606,
647,
621,
623,
619,
578,
582,
559,
636,
566,
546,
574,
589,
558,
538,
566,
569,
506,
519,
535,
525,
543,
485,
499,
526,
482,
523,
511,
470,
484,
451,
447,
437,
464,
434,
462,
464,
428,
445,
439,
426,
411,
454,
397,
436,
419,
384,
408,
396,
408,
378,
397,
382,
370,
370,
383,
370,
366,
377,
354,
326,
366,
368,
358,
310,
333,
336,
348,
326,
358,
321,
318,
317,
315,
318,
295,
291,
264,
318,
317,
282,
298,
294,
277,
275,
252,
261,
275,
262,
284,
276,
265,
261,
284,
278,
258,
260,
218,
230,
255,
253,
240,
236,
197,
266,
222,
241,
209,
251,
214,
240,
234,
221,
202,
190,
220,
212,
206,
166,
189,
214,
201,
178,
163,
194,
180,
212,
170,
159,
173,
166,
170,
162,
167,
173,
152,
180,
149,
175,
162,
159,
138,
157,
150,
130,
128,
140,
148,
133,
138,
146,
131,
138,
117,
130,
127,
115,
129,
103,
127,
125,
104,
121,
107,
109,
117,
97,
88,
103,
93,
87,
95,
95,
93,
96,
86,
90,
89,
97,
83,
75,
94,
87,
87,
98,
75,
78,
94,
56,
90,
71,
75,
67,
87,
59,
70,
71,
77,
46,
60,
51,
68,
42,
66,
52,
53,
42,
58,
45,
55,
37,
41,
48,
33,
40,
36,
39,
38,
35,
45,
37,
47,
44,
37,
39,
35,
32,
35,
31,
34,
36,
28,
19,
30,
30,
27,
24,
23,
26,
13,
16,
14,
21,
23,
21,
18,
12,
12,
9,
16,
12,
13,
8,
9,
11,
9,
7,
5,
0,
11,
10,
6,
6,
5,
3,
5,
3,
2,
0,
2,
1,
2,
0,
0,
0,
1,
0,
0,
1,
0,
0,
0,
0,
0,
0,
0,
0,
0,
0,
0,
2,
0,
0,
0,
1,
0,
0,
0,
0,
0,
0,
0,
0,
0,
0,
0,
0,
0,
1,
0,
0,
0,
0,
0,
0,
0,
0,
1,
0,
0,
0,
0,
0,
0,
0,
0,
0,
0,
0,
0,
0,
0,
0,
0,
0,
0,
0,
0,
0,
0,
0,
0,
0,
0,
0,
1,
0,
0,
0,
0,
0,
0,
0,
0,
1,
0,
0,
0,
0,
0,
0,
0,
0,
0,
0,
0,
0,
0,
0,
0,
0,
0,
0,
0,
0,
0,
0,
0,
0,
0,
0,
0,
0,
0,
0,
0,
0,
0,
0,
0,
0,
0,
1,
0,
0,
0,
0,
0,
0,
0,
0,
0,
0,
0,
0,
0,
0,
0,
0,
0,
0,
0,
0,
0,
0,
0,
0,
0,
0,
0,
0,
0,
1,
0,
0,
0,
0,
0,
0,
0,
0,
0,
0,
0,
0,
0,
0,
0,
0,
0,
0,
0,
0,
0,
0,
0,
0,
0,
0,
0,
0,
0,
0,
0,
0,
0,
0,
0,
0,
0,
0,
0,
0,
0,
0,
0,
0,
0,
0,
0,
0,
0,
0,
0,
0,
0,
0,
0,
0,
0,
0,
0,
0,
0,
0,
0,
0,
0,
0,
0,
0,
0,
0,
0,
0,
0,
0,
0,
1,
0,
0,
0,
0,
0,
0,
0,
0,
0,
0,
0,
0,
0,
0,
0,
0,
0,
0,
0,
0,
0,
0,
0,
0,
0,
0,
0,
0,
0,
0,
0,
0,
0,
0,
0,
0,
0,
0,
0,
0,
0,
0,
0,
0,
0,
0,
0,
0,
0,
0,
0,
0,
0,
1,
0,
0,
0,
0,
0,
0,
0,
0,
0,
0,
0,
0,
0,
0,
0,
0,
0,
0,
0,
0,
0,
0,
0,
0,
0,
0,
0,
0,
0,
0,
0,
0,
0,
0,
0,
0,
0,
0,
0,
0,
0,
0,
0,
0,
0,
0,
0,
0,
0,
0,
0,
0,
0,
0,
0,
0,
0,
0,
0,
0,
0,
0,
0,
0,
0,
0,
0,
0,
0,
0,
0,
0,
0,
0,
0,
0,
0,
0,
0,
0,
0,
0,
0,
0,
0,
0,
0,
0,
0,
0,
0,
0,
0,
0,
0,
0,
0,
0,
0,
0,
0,
0,
0,
0,
0,
0,
0,
0,
0,
0,
0,
0,
0,
0,
0,
0,
0,
0,
0,
0,
0,
0,
0,
0,
0,
0,
0,
0,
0,
0,
0,
0,
0,
0,
0,
0,
0,
0,
0,
0,
0,
0,
0,
0,
0,
0,
0,
0,
0,
0,
0,
0,
0,
0,
0,
0,
0,
0,
0,
0,
0,
0,
0,
0,
0,
0,
0,
0,
0,
0,
0,
0,
0,
0,
0,
0,
0,
0,
0,
0,
0,
0,
0,
0,
0,
0,
0,
0,
0,
0,
0,
0,
0,
0,
0,
0,
0,
0,
0,
0,
0,
0,
0,
0,
0,
0,
0,
0,
0,
0,
0,
0,
0,
0,
0,
0,
0,
0,
0,
0,
0,
0,
0,
0,
0,
0,
0,
0,
0,
0,
0,
0,
0,
0,
0,
0,
0,
0,
0,
0,
0,
0,
0,
0,
0,
0,
0,
0,
0,
0,
0,
0,
0,
0,
0,
0,
0,
0,
0,
0,
0,
0,
0,
0,
0,
0,
0,
0,
0,
0,
0,
0,
0,
0,
0,
0,
0,
0,
0,
0,
0,
0,
0,
0,
0,
0,
0,
0,
0,
0,
0,
0,
0,
0,
0,
0,
0,
0,
0,
0,
0,
0,
0,
0,
0,
0,
0,
0,
0,
0,
0,
0,
0,
0,
0,
0,
0,
0,
0,
0,
0,
0,
0,
0,
0,
0,
0,
0,
0,
0,
0,
0,
0,
0,
0,
0,
0,
0,
0,
0,
0,
0,
0,
0,
0,
0,
0,
0,
0,
0,
0,
0,
0,
0,
0,
0,
0,
0,
0,
0,
0,
0,
0,
0,
0,
0,
0,
0,
0,
0,
0,
0,
0,
0,
0,
0,
0,
0,
0,
0,
0,
0,
0,
0,
0,
0,
0,
0,
0,
0,
0,
0,
0,
0,
0,
0,
0,
0,
0,
0,
0,
0,
0,
0,
0,
0,
0,
0,
0,
0,
0,
0,
0,
0,
0,
0,
0,
0,
0,
0,
0,
0,
0,
0,
0,
0,
0,
0,
0,
0,
0,
0,
0,
0,
0,
0,
0,
0,
0,
0,
0,
0,
0,
0,
0,
0,
0,
0,
0,
0,
0,
0,
0,
0,
0,
0,
0,
0,
0,
0,
0,
0,
0,
0,
0,
0,
0,
0,
0,
0,
0,
0,
0,
0,
0,
0,
0,
0,
0,
0,
0,
0,
0,
0,
0,
0,
0,
0,
0,
0,
0,
0,
0,
0,
0,
0,
0,
0,
0,
0,
0,
0,
0,
0,
0,
0,
0,
0,
0,
0,
0,
0,
0,
0,
0,
0,
0,
0,
0,
0,
0,
0,
0,
0,
0,
0,
0,
0,
0,
0,
0,
0,
0,
0,
0,
0,
0,
0,
0,
0,
0,
0,
0,
0,
0,
0,
0,
0,
0,
0,
0,
0,
0,
0,
0,
0,
0,
0,
0,
0,
0,
0,
0,
0,
0,
0,
0,
0,
0,
0,
0,
0,
0,
0,
0,
0,
0,
0,
0,
0,
0,
0,
0,
0,
#ENDOFDATA   :