File: N132962/Quantification/15 keV/Mengason MM2/MMM2 Spodumene[2][4].msa
#FORMAT      : EMSA/MAS Spectral Data File
#VERSION     : 1.0
#TITLE       : MMM2 Spodumene[2][all]
#DATE        : 28-SEP-2025
#TIME        : 22:21
#OWNER       : Unknown
#NPOINTS     : 4096
#NCOLUMNS    : 1
#XUNITS      : eV
#YUNITS      : counts
#DATATYPE    : Y
#XPERCHAN    : 9.99778
#OFFSET      : 1.69135
#BEAMKV      : 15
#SIGNALTYPE  : EDS
#ELEVANGLE   : 35
#AZIMANGLE   : 0
#LIVETIME    : 240.3053
#REALTIME    : 257.383
#PROBECUR    : 1.21261
#TAUWIND     : 0
#TDEADLYR    : 0
#TACTLYR     : 0.045
#TALWIND     : 0.025
#CHOFFSET    : 0.0
#XLABEL      : Energy (eV)
#YLABEL      : Counts
#XPOSITION   : -12.99895
#YPOSITION   : 0.18746
#ZPOSITION   : 34.11879
#EDSDET      : SD
##SPECIMEN   : MMM2 Spodumene[2][all]
##DET_HASH   : 12273538-fd48-a23f-0a19-f1e6fa85caef
##CALIB_HASH : 6abaa72c-aa41-8738-0be9-f592914732f3
##WORKING    : 15.0 mm
##DET_NAME   : EDAX All
##DET_MODE   : MediumLE
#SPECTRUM    :
22,
28,
10,
17,
115,
372,
1102,
3496,
10216,
12997,
6847,
3494,
3734,
5199,
10141,
41097,
157389,
298046,
214591,
55730,
6869,
2396,
2334,
2662,
2758,
2858,
2939,
3160,
3346,
3579,
3773,
3755,
4015,
4636,
5165,
5386,
4800,
4238,
4322,
4575,
4554,
4715,
4913,
4967,
5297,
5668,
7374,
18850,
61852,
124246,
125606,
65527,
21689,
8513,
6927,
17215,
67696,
174064,
235029,
166031,
66132,
21746,
9700,
4773,
2979,
2570,
2701,
2818,
2582,
2306,
2185,
2261,
2374,
2491,
2851,
3136,
2967,
2577,
2300,
2256,
2085,
1983,
2100,
2206,
2054,
2144,
2037,
2000,
2009,
1984,
1875,
1994,
1999,
1887,
1919,
1863,
1864,
1970,
1992,
1914,
1892,
1723,
1808,
1769,
1778,
1784,
1913,
2085,
2032,
1903,
1817,
1684,
1685,
1739,
1790,
1830,
1979,
1931,
1598,
1651,
1573,
1476,
1533,
1537,
1428,
1411,
1384,
1414,
1362,
1360,
1327,
1355,
1372,
1379,
1307,
1303,
1324,
1291,
1299,
1290,
1283,
1252,
1257,
1248,
1184,
1145,
1115,
1186,
1192,
1120,
1155,
1101,
1121,
1118,
1155,
1093,
1089,
1068,
1088,
1014,
999,
1059,
1027,
974,
1020,
985,
997,
947,
895,
936,
920,
922,
883,
895,
933,
915,
924,
952,
922,
904,
871,
895,
833,
853,
816,
856,
797,
790,
800,
800,
751,
823,
731,
790,
779,
758,
782,
719,
736,
738,
749,
738,
691,
715,
676,
672,
659,
662,
671,
683,
679,
714,
669,
712,
646,
627,
634,
624,
626,
649,
586,
597,
580,
582,
621,
563,
606,
555,
527,
555,
578,
585,
534,
550,
483,
509,
546,
510,
517,
479,
473,
507,
504,
503,
474,
492,
466,
450,
487,
481,
447,
437,
435,
480,
442,
449,
380,
424,
436,
437,
402,
409,
415,
403,
438,
376,
391,
410,
416,
404,
391,
355,
383,
362,
350,
389,
352,
356,
332,
342,
347,
332,
329,
337,
331,
321,
337,
302,
307,
300,
332,
301,
314,
290,
305,
291,
302,
292,
317,
296,
285,
255,
268,
282,
279,
269,
282,
289,
257,
272,
271,
241,
242,
261,
248,
246,
275,
243,
247,
227,
238,
221,
219,
242,
200,
220,
188,
215,
189,
211,
211,
220,
211,
180,
220,
200,
213,
192,
187,
182,
183,
196,
204,
176,
177,
180,
159,
167,
163,
170,
152,
157,
160,
158,
138,
150,
153,
122,
156,
170,
121,
139,
164,
145,
125,
136,
138,
132,
110,
118,
110,
125,
128,
135,
126,
127,
99,
98,
89,
97,
103,
101,
110,
104,
96,
95,
122,
98,
114,
106,
78,
87,
86,
90,
94,
91,
95,
82,
90,
82,
89,
103,
73,
84,
78,
85,
89,
72,
95,
68,
65,
78,
72,
65,
66,
71,
58,
66,
63,
64,
61,
53,
52,
61,
67,
49,
58,
56,
53,
57,
53,
49,
50,
60,
34,
45,
50,
40,
46,
40,
39,
32,
35,
30,
34,
31,
26,
39,
38,
34,
38,
35,
28,
17,
26,
26,
25,
25,
25,
29,
21,
16,
21,
27,
26,
17,
21,
11,
13,
17,
14,
12,
12,
7,
9,
9,
16,
11,
11,
10,
10,
6,
10,
7,
13,
5,
6,
9,
10,
9,
3,
3,
4,
5,
4,
4,
4,
3,
1,
2,
1,
1,
0,
1,
0,
0,
0,
0,
0,
0,
0,
1,
0,
0,
0,
0,
0,
0,
1,
0,
0,
0,
0,
0,
0,
0,
0,
0,
0,
0,
1,
0,
0,
0,
0,
0,
0,
0,
0,
0,
0,
0,
0,
0,
0,
2,
0,
0,
0,
0,
0,
0,
0,
0,
0,
1,
0,
0,
0,
0,
0,
0,
0,
0,
0,
0,
0,
0,
1,
1,
0,
0,
0,
0,
0,
0,
0,
0,
1,
0,
0,
0,
0,
0,
0,
0,
0,
0,
0,
0,
0,
0,
0,
0,
0,
0,
0,
0,
0,
0,
0,
0,
0,
0,
0,
0,
0,
0,
0,
0,
0,
0,
0,
0,
0,
0,
0,
0,
0,
0,
0,
0,
0,
0,
0,
0,
0,
0,
0,
0,
0,
0,
0,
0,
0,
0,
0,
0,
0,
0,
0,
0,
0,
0,
0,
0,
0,
0,
0,
0,
0,
0,
0,
0,
0,
0,
0,
0,
0,
0,
0,
0,
0,
0,
0,
0,
0,
0,
0,
0,
0,
0,
0,
0,
0,
0,
0,
0,
0,
0,
0,
0,
0,
0,
0,
0,
0,
0,
0,
0,
0,
0,
0,
0,
0,
0,
0,
0,
0,
0,
0,
0,
0,
1,
0,
0,
0,
0,
0,
0,
0,
0,
0,
0,
0,
0,
0,
0,
0,
0,
0,
0,
0,
0,
0,
0,
0,
0,
0,
0,
0,
0,
0,
0,
0,
0,
0,
0,
0,
0,
0,
0,
0,
0,
0,
0,
0,
0,
0,
0,
0,
0,
0,
0,
0,
0,
0,
0,
0,
0,
0,
0,
0,
0,
0,
0,
0,
0,
0,
0,
0,
0,
0,
0,
0,
0,
0,
0,
0,
0,
0,
0,
0,
0,
0,
0,
0,
0,
0,
0,
0,
0,
0,
0,
0,
0,
0,
0,
0,
0,
0,
0,
0,
0,
0,
0,
0,
0,
0,
0,
0,
0,
0,
0,
0,
0,
0,
0,
0,
0,
0,
0,
0,
0,
0,
0,
0,
0,
0,
0,
0,
0,
0,
0,
0,
0,
0,
0,
0,
0,
0,
0,
0,
0,
0,
0,
0,
0,
0,
0,
0,
0,
0,
0,
0,
0,
0,
0,
0,
0,
0,
0,
0,
0,
0,
0,
0,
0,
0,
0,
0,
0,
0,
0,
0,
0,
0,
0,
0,
0,
0,
0,
0,
0,
0,
0,
0,
0,
0,
0,
0,
0,
0,
0,
0,
0,
0,
0,
0,
0,
0,
0,
0,
0,
0,
0,
0,
0,
0,
0,
0,
0,
0,
0,
0,
0,
0,
0,
0,
0,
0,
0,
0,
0,
0,
0,
0,
0,
0,
0,
0,
0,
0,
0,
0,
0,
0,
0,
0,
0,
0,
0,
0,
0,
0,
0,
0,
0,
0,
0,
0,
0,
0,
0,
0,
0,
0,
0,
0,
0,
0,
0,
0,
0,
0,
0,
0,
0,
0,
0,
0,
0,
0,
0,
0,
0,
0,
0,
0,
0,
0,
0,
0,
0,
0,
0,
0,
0,
0,
0,
0,
0,
0,
0,
0,
0,
0,
0,
0,
0,
0,
0,
0,
0,
0,
0,
0,
0,
0,
0,
0,
0,
0,
0,
0,
0,
0,
0,
0,
0,
0,
0,
0,
0,
0,
0,
0,
0,
0,
0,
0,
0,
0,
0,
0,
0,
0,
0,
0,
0,
0,
0,
0,
0,
0,
0,
0,
0,
0,
0,
0,
0,
0,
0,
0,
0,
0,
0,
0,
0,
0,
0,
0,
0,
0,
0,
0,
0,
0,
0,
0,
0,
0,
0,
0,
0,
0,
0,
0,
0,
0,
0,
0,
0,
0,
0,
0,
0,
0,
0,
0,
0,
0,
0,
0,
0,
0,
0,
0,
0,
0,
0,
0,
0,
0,
0,
0,
0,
0,
0,
0,
0,
0,
0,
0,
0,
0,
0,
0,
0,
0,
0,
0,
0,
0,
0,
0,
0,
0,
0,
0,
0,
0,
0,
0,
0,
0,
0,
0,
0,
0,
0,
0,
0,
0,
0,
0,
0,
0,
0,
0,
0,
0,
0,
0,
0,
0,
0,
0,
0,
0,
0,
0,
0,
0,
0,
0,
0,
0,
0,
0,
0,
0,
0,
0,
0,
0,
0,
0,
0,
0,
0,
0,
0,
0,
0,
0,
0,
0,
0,
0,
0,
0,
0,
0,
0,
0,
0,
0,
0,
0,
0,
0,
0,
0,
0,
0,
0,
0,
0,
0,
0,
0,
0,
0,
0,
0,
0,
0,
0,
0,
0,
0,
0,
0,
0,
0,
0,
0,
0,
0,
0,
0,
0,
0,
0,
0,
0,
0,
0,
0,
0,
0,
0,
0,
0,
0,
0,
0,
0,
0,
0,
0,
0,
0,
0,
0,
0,
0,
0,
0,
0,
0,
0,
0,
0,
0,
0,
0,
0,
0,
0,
0,
0,
0,
0,
0,
0,
0,
0,
0,
0,
0,
0,
0,
0,
0,
0,
0,
0,
0,
0,
0,
0,
0,
0,
0,
0,
0,
0,
0,
0,
0,
0,
0,
0,
0,
0,
0,
0,
0,
0,
0,
0,
0,
0,
0,
0,
0,
0,
0,
0,
0,
0,
0,
0,
0,
0,
0,
0,
0,
0,
0,
0,
0,
0,
0,
0,
0,
0,
0,
0,
0,
0,
0,
0,
0,
0,
0,
0,
0,
0,
0,
0,
0,
0,
0,
0,
0,
0,
0,
0,
0,
0,
0,
0,
#ENDOFDATA   :