File: N132962/Quantification/15 keV/Mengason MM2/MMM2 Manganotantalite[0][4].msa
#FORMAT      : EMSA/MAS Spectral Data File
#VERSION     : 1.0
#TITLE       : MMM2 Manganotantalite[0][all]
#DATE        : 28-SEP-2025
#TIME        : 22:50
#OWNER       : Unknown
#NPOINTS     : 4096
#NCOLUMNS    : 1
#XUNITS      : eV
#YUNITS      : counts
#DATATYPE    : Y
#XPERCHAN    : 9.99778
#OFFSET      : 1.69135
#BEAMKV      : 15
#SIGNALTYPE  : EDS
#ELEVANGLE   : 35
#AZIMANGLE   : 0
#LIVETIME    : 240.154
#REALTIME    : 259.631
#PROBECUR    : 1.2132
#TAUWIND     : 0
#TDEADLYR    : 0
#TACTLYR     : 0.045
#TALWIND     : 0.025
#CHOFFSET    : 0.0
#XLABEL      : Energy (eV)
#YLABEL      : Counts
#XPOSITION   : -22.44807
#YPOSITION   : -0.36888
#ZPOSITION   : 34.11879
#EDSDET      : SD
##SPECIMEN   : MMM2 Manganotantalite[0][all]
##DET_HASH   : 12273538-fd48-a23f-0a19-f1e6fa85caef
##CALIB_HASH : 6abaa72c-aa41-8738-0be9-f592914732f3
##WORKING    : 15.0 mm
##DET_NAME   : EDAX All
##DET_MODE   : MediumLE
#SPECTRUM    :
28,
29,
12,
45,
360,
1628,
4367,
8486,
17828,
21863,
11971,
6317,
5762,
6643,
8678,
17483,
50197,
90866,
68580,
23684,
12669,
15227,
13456,
11007,
9513,
7651,
6580,
6739,
7289,
7521,
7319,
7446,
7809,
8117,
8470,
8505,
8555,
8611,
8849,
9003,
9334,
9748,
11490,
16094,
20576,
19290,
14164,
11257,
10525,
10110,
10276,
10311,
10880,
12726,
20859,
54176,
126412,
181511,
163365,
107357,
54548,
21266,
9974,
8687,
9947,
10922,
10347,
8590,
7836,
9262,
14995,
27339,
37983,
35831,
26854,
22484,
18181,
13195,
9558,
7780,
6536,
5847,
5514,
5331,
5061,
4917,
4925,
5038,
5191,
5255,
5266,
4958,
4841,
4953,
4797,
4759,
4742,
4722,
4708,
4935,
4799,
4776,
4695,
4662,
4756,
4719,
4718,
4767,
4666,
4679,
4610,
4601,
4680,
4806,
4695,
4814,
4699,
4650,
4542,
4556,
4408,
4466,
4380,
4521,
4466,
4384,
4311,
4330,
4402,
4258,
4270,
4344,
4237,
4267,
4101,
4137,
4126,
4291,
4195,
4097,
4081,
3950,
4074,
3854,
3940,
3842,
3881,
4051,
4163,
4473,
4524,
4549,
4275,
4067,
3814,
3792,
3723,
3614,
3599,
3703,
3544,
3614,
3622,
3523,
3558,
3548,
3499,
3485,
3396,
3384,
3442,
3274,
3296,
3373,
3224,
3306,
3285,
3233,
3262,
3282,
3195,
3143,
3177,
3138,
3072,
3090,
3090,
3089,
3145,
3064,
3059,
3272,
3938,
5653,
9178,
13992,
17297,
17283,
13312,
8769,
5225,
3679,
2978,
2838,
2604,
2787,
2691,
2743,
2709,
2895,
3361,
4012,
4866,
5838,
6009,
5920,
5351,
4606,
3861,
3142,
2635,
2463,
2382,
2296,
2383,
2286,
2368,
2264,
2269,
2273,
2199,
2258,
2383,
2333,
2485,
2576,
2626,
2706,
2587,
2593,
2616,
2431,
2139,
2104,
2039,
2082,
2072,
2012,
2023,
2094,
2033,
1995,
1940,
1925,
1951,
1922,
1901,
1954,
1837,
1918,
1779,
1768,
1819,
1825,
1954,
2047,
2419,
3292,
4941,
7365,
9422,
10975,
10369,
8474,
5897,
3822,
2540,
1941,
1756,
1664,
1675,
1664,
1671,
1552,
1586,
1582,
1491,
1476,
1571,
1507,
1530,
1466,
1430,
1429,
1396,
1427,
1408,
1410,
1310,
1361,
1353,
1295,
1394,
1357,
1433,
1536,
1790,
2047,
2553,
3160,
3695,
3871,
3816,
3364,
2616,
2167,
1873,
1781,
1942,
2256,
2654,
2723,
2742,
2539,
1997,
1632,
1313,
1281,
1199,
1150,
1056,
1063,
1040,
1044,
974,
998,
960,
950,
994,
916,
958,
928,
917,
959,
881,
889,
895,
930,
835,
855,
868,
854,
851,
903,
808,
825,
854,
846,
880,
921,
980,
1095,
1239,
1212,
1170,
1034,
952,
819,
806,
761,
727,
748,
765,
825,
814,
770,
745,
773,
704,
737,
632,
619,
609,
632,
644,
623,
614,
563,
588,
603,
574,
580,
560,
533,
498,
490,
480,
498,
544,
489,
531,
438,
457,
458,
415,
447,
460,
432,
429,
440,
418,
434,
435,
408,
430,
402,
414,
357,
360,
382,
371,
341,
336,
326,
347,
337,
330,
308,
320,
306,
310,
304,
313,
275,
287,
307,
285,
294,
273,
248,
265,
271,
272,
239,
258,
238,
218,
225,
231,
227,
217,
231,
184,
204,
198,
181,
162,
173,
174,
145,
169,
152,
135,
160,
122,
124,
136,
137,
158,
106,
132,
127,
131,
129,
100,
104,
92,
92,
75,
85,
72,
81,
89,
67,
64,
82,
62,
43,
50,
44,
48,
34,
39,
31,
22,
27,
23,
22,
12,
6,
8,
6,
3,
3,
6,
1,
2,
2,
5,
8,
4,
3,
4,
3,
2,
4,
4,
3,
1,
2,
3,
5,
2,
4,
4,
3,
1,
1,
2,
2,
1,
4,
2,
2,
1,
2,
0,
4,
2,
2,
5,
3,
3,
1,
3,
4,
2,
1,
1,
1,
3,
3,
2,
1,
1,
2,
4,
0,
2,
2,
1,
3,
2,
6,
2,
2,
2,
0,
3,
2,
1,
2,
0,
3,
1,
2,
0,
0,
4,
6,
3,
0,
5,
3,
0,
4,
3,
3,
2,
1,
2,
2,
4,
3,
1,
3,
2,
2,
0,
2,
3,
0,
2,
0,
0,
0,
5,
3,
2,
0,
3,
0,
3,
0,
2,
2,
1,
1,
2,
0,
2,
1,
3,
0,
0,
1,
1,
2,
0,
1,
1,
3,
2,
0,
1,
2,
0,
3,
2,
0,
1,
0,
0,
2,
3,
1,
0,
1,
1,
0,
1,
0,
0,
2,
0,
1,
2,
0,
1,
1,
1,
2,
1,
0,
0,
0,
1,
1,
0,
1,
2,
1,
0,
1,
1,
0,
1,
3,
1,
1,
1,
0,
2,
1,
1,
1,
0,
0,
0,
2,
0,
0,
0,
0,
0,
0,
0,
0,
1,
1,
0,
0,
1,
2,
0,
0,
0,
2,
1,
0,
0,
1,
3,
0,
0,
0,
1,
0,
1,
0,
0,
0,
0,
0,
1,
0,
0,
0,
0,
0,
0,
1,
0,
0,
1,
0,
0,
0,
1,
0,
0,
0,
0,
1,
1,
0,
0,
0,
0,
0,
0,
0,
0,
0,
0,
0,
0,
0,
1,
0,
0,
0,
1,
0,
0,
0,
0,
1,
0,
0,
2,
0,
0,
0,
0,
0,
0,
0,
0,
0,
0,
0,
0,
0,
0,
0,
1,
0,
0,
0,
0,
0,
0,
0,
0,
0,
0,
0,
0,
0,
0,
0,
0,
0,
0,
0,
0,
0,
1,
0,
0,
0,
0,
0,
0,
0,
0,
0,
0,
0,
0,
0,
0,
0,
0,
0,
1,
0,
0,
0,
0,
1,
0,
0,
0,
0,
0,
0,
0,
0,
0,
0,
0,
0,
0,
0,
0,
1,
0,
0,
0,
0,
0,
0,
0,
0,
0,
0,
0,
0,
0,
0,
0,
0,
0,
0,
0,
0,
0,
0,
0,
0,
0,
0,
0,
0,
0,
0,
0,
1,
0,
0,
0,
0,
0,
0,
0,
0,
0,
0,
0,
0,
0,
0,
0,
0,
0,
0,
0,
0,
0,
0,
0,
0,
0,
0,
0,
0,
0,
0,
0,
0,
0,
0,
0,
0,
0,
0,
0,
0,
0,
0,
0,
0,
0,
0,
0,
0,
0,
0,
0,
0,
0,
0,
0,
0,
0,
0,
0,
0,
0,
0,
0,
0,
0,
0,
0,
0,
0,
0,
0,
0,
0,
0,
0,
0,
0,
0,
0,
0,
0,
0,
0,
0,
0,
0,
0,
0,
0,
0,
0,
0,
0,
0,
0,
0,
0,
0,
0,
0,
0,
0,
0,
0,
0,
0,
0,
0,
0,
0,
0,
0,
0,
0,
0,
0,
0,
0,
0,
0,
0,
0,
0,
0,
0,
0,
0,
0,
0,
0,
0,
0,
0,
0,
0,
0,
0,
0,
0,
0,
0,
0,
0,
0,
0,
0,
0,
0,
0,
0,
0,
0,
0,
0,
0,
0,
0,
0,
0,
0,
0,
0,
0,
0,
0,
0,
0,
0,
0,
0,
0,
0,
0,
0,
0,
0,
0,
0,
0,
0,
0,
0,
0,
0,
0,
0,
0,
0,
0,
0,
0,
0,
0,
0,
0,
0,
0,
0,
0,
0,
0,
0,
0,
0,
0,
0,
0,
0,
0,
0,
0,
0,
0,
0,
0,
0,
0,
0,
0,
0,
0,
0,
0,
0,
0,
0,
0,
0,
0,
0,
0,
0,
0,
0,
0,
0,
0,
0,
0,
0,
0,
0,
0,
0,
0,
0,
0,
0,
0,
0,
0,
0,
0,
0,
0,
0,
0,
0,
0,
0,
0,
0,
0,
0,
0,
0,
0,
0,
0,
0,
0,
0,
0,
0,
0,
0,
0,
0,
0,
0,
0,
0,
0,
0,
0,
0,
0,
0,
0,
0,
0,
0,
0,
0,
0,
0,
0,
0,
0,
0,
0,
0,
0,
0,
0,
0,
0,
0,
0,
0,
0,
0,
0,
0,
0,
0,
0,
0,
0,
0,
0,
0,
0,
0,
0,
0,
0,
0,
0,
0,
0,
0,
0,
0,
0,
0,
0,
0,
0,
0,
0,
0,
0,
0,
0,
0,
0,
0,
0,
0,
0,
0,
0,
0,
0,
0,
0,
0,
0,
0,
0,
0,
0,
0,
0,
0,
0,
0,
0,
0,
0,
0,
0,
0,
0,
0,
0,
0,
0,
0,
0,
0,
0,
0,
0,
0,
0,
0,
0,
0,
0,
0,
0,
0,
0,
0,
0,
0,
0,
0,
0,
0,
0,
0,
0,
0,
0,
0,
0,
0,
0,
0,
0,
0,
0,
0,
0,
0,
0,
0,
0,
0,
0,
0,
0,
0,
0,
0,
0,
0,
0,
0,
0,
0,
0,
0,
0,
0,
0,
0,
0,
0,
0,
0,
0,
0,
0,
0,
0,
0,
0,
0,
0,
0,
0,
0,
0,
0,
0,
0,
0,
0,
0,
0,
0,
0,
0,
0,
0,
0,
0,
0,
0,
0,
0,
0,
0,
0,
0,
0,
0,
0,
0,
0,
0,
0,
#ENDOFDATA   :