File: N132962/Quantification/15 keV/Mengason MM2/MMM2 Wollastonite[3][4].msa
#FORMAT      : EMSA/MAS Spectral Data File
#VERSION     : 1.0
#TITLE       : MMM2 Wollastonite[3][all]
#DATE        : 29-SEP-2025
#TIME        : 00:06
#OWNER       : Unknown
#NPOINTS     : 4096
#NCOLUMNS    : 1
#XUNITS      : eV
#YUNITS      : counts
#DATATYPE    : Y
#XPERCHAN    : 9.99778
#OFFSET      : 1.69135
#BEAMKV      : 15
#SIGNALTYPE  : EDS
#ELEVANGLE   : 35
#AZIMANGLE   : 0
#LIVETIME    : 240.201
#REALTIME    : 254.895
#PROBECUR    : 1.21151
#TAUWIND     : 0
#TDEADLYR    : 0
#TACTLYR     : 0.045
#TALWIND     : 0.025
#CHOFFSET    : 0.0
#XLABEL      : Energy (eV)
#YLABEL      : Counts
#XPOSITION   : -12.55237
#YPOSITION   : 4.60034
#ZPOSITION   : 34.11879
#EDSDET      : SD
##SPECIMEN   : MMM2 Wollastonite[3][all]
##DET_HASH   : 12273538-fd48-a23f-0a19-f1e6fa85caef
##CALIB_HASH : 6abaa72c-aa41-8738-0be9-f592914732f3
##WORKING    : 15.0 mm
##DET_NAME   : EDAX All
##DET_MODE   : MediumLE
#SPECTRUM    :
23,
34,
3,
29,
84,
382,
1306,
4662,
14170,
21418,
15455,
8149,
4537,
3459,
4947,
15330,
56879,
107426,
78431,
21504,
3934,
2370,
2614,
3018,
2956,
3009,
3092,
3456,
3705,
3745,
3863,
3884,
4146,
4236,
4484,
4572,
4564,
4687,
4854,
4904,
5048,
4955,
5156,
5074,
5286,
5234,
5352,
5380,
5594,
5704,
5864,
5859,
5894,
6089,
7319,
16731,
61491,
154564,
209871,
148134,
59718,
20873,
10321,
6106,
4831,
4519,
4213,
3586,
3352,
3212,
3126,
2974,
3195,
3286,
3323,
3576,
3417,
3275,
3210,
2935,
2997,
2932,
2824,
2960,
2906,
2838,
2802,
2718,
2776,
2782,
2713,
2590,
2680,
2598,
2676,
2638,
2587,
2517,
2595,
2492,
2462,
2457,
2363,
2501,
2397,
2420,
2355,
2358,
2330,
2357,
2319,
2312,
2260,
2354,
2326,
2600,
2842,
3256,
3997,
7144,
19066,
47956,
89914,
113552,
94839,
53153,
20727,
6812,
3095,
2459,
3142,
5169,
9339,
13364,
15404,
11999,
7102,
3650,
2102,
1697,
1619,
1601,
1566,
1549,
1432,
1480,
1463,
1426,
1392,
1335,
1371,
1365,
1405,
1346,
1325,
1329,
1343,
1302,
1324,
1286,
1277,
1268,
1326,
1227,
1273,
1211,
1224,
1188,
1212,
1266,
1184,
1198,
1142,
1188,
1184,
1175,
1208,
1145,
1213,
1216,
1310,
1360,
1336,
1211,
1115,
1085,
1097,
1046,
1048,
1050,
1035,
994,
1041,
1058,
1034,
1055,
1030,
1018,
1018,
982,
973,
901,
901,
891,
928,
912,
923,
854,
857,
866,
944,
853,
878,
905,
913,
923,
833,
804,
831,
747,
792,
744,
803,
767,
852,
766,
779,
793,
730,
722,
688,
703,
701,
686,
743,
671,
675,
670,
709,
696,
684,
663,
645,
689,
701,
712,
694,
684,
687,
682,
612,
638,
614,
592,
556,
606,
630,
649,
603,
621,
547,
579,
526,
560,
537,
520,
582,
529,
560,
527,
500,
520,
540,
499,
526,
454,
487,
457,
492,
493,
461,
440,
494,
459,
465,
435,
482,
429,
465,
418,
459,
412,
416,
420,
422,
406,
397,
382,
444,
383,
422,
384,
394,
376,
383,
380,
375,
367,
345,
354,
385,
340,
335,
304,
355,
361,
378,
347,
317,
343,
326,
311,
359,
285,
303,
314,
315,
282,
286,
336,
307,
314,
294,
290,
287,
274,
271,
275,
285,
244,
244,
279,
263,
242,
268,
253,
251,
238,
257,
246,
242,
223,
223,
251,
236,
248,
217,
192,
214,
220,
213,
191,
210,
216,
204,
200,
211,
190,
195,
186,
196,
170,
184,
191,
184,
173,
182,
177,
167,
154,
170,
147,
162,
150,
178,
140,
148,
133,
135,
133,
144,
146,
134,
174,
116,
122,
134,
142,
132,
138,
135,
108,
107,
114,
130,
120,
136,
107,
91,
112,
107,
107,
106,
88,
85,
90,
80,
86,
89,
77,
80,
88,
90,
104,
104,
80,
67,
74,
83,
61,
72,
95,
65,
59,
64,
52,
64,
68,
53,
52,
56,
57,
55,
57,
47,
63,
65,
44,
57,
47,
39,
63,
51,
31,
38,
42,
33,
33,
39,
43,
33,
39,
33,
30,
28,
18,
24,
32,
33,
23,
28,
29,
26,
21,
29,
22,
14,
18,
29,
18,
22,
19,
17,
16,
11,
12,
9,
13,
10,
7,
6,
8,
3,
5,
0,
3,
1,
1,
2,
3,
0,
0,
0,
0,
0,
0,
1,
0,
0,
0,
0,
0,
2,
0,
1,
1,
0,
0,
0,
0,
0,
0,
0,
0,
0,
0,
2,
1,
0,
0,
0,
0,
0,
0,
0,
0,
0,
0,
0,
0,
1,
0,
0,
0,
1,
0,
0,
0,
0,
0,
0,
0,
0,
1,
0,
0,
0,
0,
0,
0,
0,
0,
0,
0,
0,
0,
1,
0,
0,
0,
0,
0,
0,
0,
1,
0,
1,
0,
0,
0,
0,
0,
1,
1,
0,
1,
0,
0,
0,
2,
0,
0,
0,
0,
0,
0,
1,
0,
0,
0,
0,
0,
0,
0,
0,
0,
0,
0,
0,
0,
0,
0,
0,
0,
0,
0,
0,
0,
1,
0,
0,
0,
0,
0,
0,
0,
0,
0,
0,
0,
0,
0,
0,
0,
0,
0,
0,
0,
0,
0,
0,
0,
0,
0,
0,
0,
1,
0,
0,
0,
0,
0,
0,
0,
0,
0,
0,
0,
0,
0,
0,
0,
0,
0,
0,
0,
0,
0,
0,
0,
0,
0,
0,
0,
0,
0,
0,
0,
0,
0,
0,
0,
0,
0,
0,
0,
0,
0,
0,
0,
0,
0,
0,
0,
0,
0,
0,
0,
0,
0,
0,
0,
0,
1,
0,
0,
0,
0,
0,
0,
0,
0,
0,
0,
0,
0,
0,
0,
0,
0,
0,
0,
0,
0,
0,
0,
0,
0,
0,
0,
0,
0,
0,
0,
0,
0,
0,
0,
0,
0,
0,
0,
0,
0,
0,
0,
0,
0,
0,
0,
0,
0,
0,
0,
0,
0,
0,
0,
0,
0,
0,
0,
0,
0,
0,
0,
0,
0,
0,
0,
0,
0,
0,
0,
0,
0,
0,
0,
0,
0,
0,
0,
0,
0,
0,
0,
0,
0,
0,
0,
0,
0,
0,
0,
0,
0,
0,
0,
0,
0,
0,
0,
0,
0,
0,
0,
0,
0,
0,
0,
0,
0,
0,
0,
0,
0,
0,
0,
0,
0,
0,
0,
0,
0,
0,
0,
0,
0,
0,
0,
0,
0,
0,
0,
0,
0,
0,
0,
0,
0,
0,
0,
0,
0,
0,
0,
0,
0,
0,
0,
0,
0,
0,
0,
0,
0,
0,
0,
0,
0,
0,
0,
0,
0,
0,
0,
0,
0,
0,
0,
0,
0,
0,
0,
0,
0,
0,
0,
0,
0,
0,
0,
0,
0,
0,
0,
0,
0,
0,
0,
0,
0,
0,
0,
0,
0,
0,
0,
0,
0,
0,
0,
0,
0,
0,
0,
0,
0,
0,
0,
0,
0,
0,
0,
0,
0,
0,
0,
0,
0,
0,
0,
0,
0,
0,
0,
0,
0,
0,
0,
0,
0,
0,
0,
0,
0,
0,
0,
0,
0,
0,
0,
0,
0,
0,
0,
0,
0,
0,
0,
0,
0,
0,
0,
0,
0,
0,
0,
0,
0,
0,
0,
0,
0,
0,
0,
0,
0,
0,
0,
0,
0,
0,
0,
0,
0,
0,
0,
0,
0,
0,
0,
0,
0,
0,
0,
0,
0,
0,
0,
0,
0,
0,
0,
0,
0,
0,
0,
0,
0,
0,
0,
0,
0,
0,
0,
0,
0,
0,
0,
0,
0,
0,
0,
0,
0,
0,
0,
0,
0,
0,
0,
0,
0,
0,
0,
0,
0,
0,
0,
0,
0,
0,
0,
0,
0,
0,
0,
0,
0,
0,
0,
0,
0,
0,
0,
0,
0,
0,
0,
0,
0,
0,
0,
0,
0,
0,
0,
0,
0,
0,
0,
0,
0,
0,
0,
0,
0,
0,
0,
0,
0,
0,
0,
0,
0,
0,
0,
0,
0,
0,
0,
0,
0,
0,
0,
0,
0,
0,
0,
0,
0,
0,
0,
0,
0,
0,
0,
0,
0,
0,
0,
0,
0,
0,
0,
0,
0,
0,
0,
0,
0,
0,
0,
0,
0,
0,
0,
0,
0,
0,
0,
0,
0,
0,
0,
0,
0,
0,
0,
0,
0,
0,
0,
0,
0,
0,
0,
0,
0,
0,
0,
0,
0,
0,
0,
0,
0,
0,
0,
0,
0,
0,
0,
0,
0,
0,
0,
0,
0,
0,
0,
0,
0,
0,
0,
0,
0,
0,
0,
0,
0,
0,
0,
0,
0,
0,
0,
0,
0,
0,
0,
0,
0,
0,
0,
0,
0,
0,
0,
0,
0,
0,
0,
0,
0,
0,
0,
0,
0,
0,
0,
0,
0,
0,
0,
0,
0,
0,
0,
0,
0,
0,
0,
0,
0,
0,
0,
0,
0,
0,
0,
0,
0,
0,
0,
0,
0,
0,
0,
0,
0,
0,
0,
0,
0,
0,
0,
0,
0,
0,
0,
0,
0,
0,
0,
0,
0,
0,
0,
0,
0,
0,
0,
0,
0,
0,
0,
0,
0,
0,
0,
0,
0,
0,
0,
0,
0,
0,
0,
0,
0,
0,
0,
0,
0,
0,
0,
0,
0,
0,
0,
0,
0,
0,
0,
0,
0,
0,
0,
0,
0,
0,
0,
0,
0,
0,
0,
0,
0,
0,
0,
0,
0,
0,
0,
0,
0,
0,
0,
0,
0,
0,
0,
0,
0,
0,
0,
0,
0,
0,
0,
0,
0,
0,
0,
0,
0,
0,
0,
0,
0,
0,
0,
0,
0,
0,
0,
0,
0,
0,
0,
0,
0,
0,
0,
0,
0,
0,
0,
0,
0,
0,
0,
0,
0,
0,
0,
0,
0,
0,
0,
0,
0,
0,
0,
#ENDOFDATA   :