File: N132962/Quantification/15 keV/Mengason MM2/MMM2 Scheelite[7][4].msa
#FORMAT      : EMSA/MAS Spectral Data File
#VERSION     : 1.0
#TITLE       : MMM2 Scheelite[7][all]
#DATE        : 29-SEP-2025
#TIME        : 00:32
#OWNER       : Unknown
#NPOINTS     : 4096
#NCOLUMNS    : 1
#XUNITS      : eV
#YUNITS      : counts
#DATATYPE    : Y
#XPERCHAN    : 9.99778
#OFFSET      : 1.69135
#BEAMKV      : 15
#SIGNALTYPE  : EDS
#ELEVANGLE   : 35
#AZIMANGLE   : 0
#LIVETIME    : 240.247
#REALTIME    : 260.587
#PROBECUR    : 1.21186
#TAUWIND     : 0
#TDEADLYR    : 0
#TACTLYR     : 0.045
#TALWIND     : 0.025
#CHOFFSET    : 0.0
#XLABEL      : Energy (eV)
#YLABEL      : Counts
#XPOSITION   : -17.48746
#YPOSITION   : 4.44723
#ZPOSITION   : 34.11879
#EDSDET      : SD
##SPECIMEN   : MMM2 Scheelite[7][all]
##DET_HASH   : 12273538-fd48-a23f-0a19-f1e6fa85caef
##CALIB_HASH : 6abaa72c-aa41-8738-0be9-f592914732f3
##WORKING    : 15.0 mm
##DET_NAME   : EDAX All
##DET_MODE   : MediumLE
#SPECTRUM    :
23,
19,
13,
46,
301,
1105,
3720,
9277,
20452,
26058,
15813,
8250,
6078,
5531,
6665,
14169,
42524,
76885,
57525,
18563,
6440,
5378,
5939,
6529,
6840,
6737,
7141,
7440,
7847,
7925,
8016,
8180,
8142,
8484,
8767,
8781,
9042,
9048,
9257,
9539,
9653,
9647,
9986,
10859,
13717,
20006,
24288,
20356,
14589,
11739,
10853,
10680,
10385,
10437,
11203,
13376,
21222,
54863,
136718,
215361,
211326,
150704,
84646,
33909,
12484,
8097,
8611,
10012,
10552,
8754,
6671,
5845,
5527,
5806,
5892,
6174,
6703,
6991,
6798,
6200,
5649,
5426,
5161,
5284,
5293,
5287,
5115,
5080,
5037,
4907,
4966,
4993,
5078,
5064,
5005,
4927,
4956,
5042,
4821,
4810,
4729,
4979,
4800,
4814,
4859,
4978,
4862,
4793,
4947,
4750,
4717,
4694,
4701,
4675,
4589,
4808,
5005,
5159,
5699,
6917,
12062,
24435,
41889,
51927,
44345,
26459,
12729,
6544,
4856,
4681,
4981,
5905,
7588,
9401,
10112,
8639,
6674,
4864,
4245,
4052,
3946,
3974,
3934,
3871,
3855,
3877,
3859,
3870,
3744,
3823,
3797,
3749,
3671,
3694,
3581,
3709,
3608,
3544,
3615,
3537,
3480,
3580,
3576,
3539,
3451,
3457,
3451,
3387,
3338,
3266,
3378,
3395,
3375,
3224,
3284,
3348,
3249,
3083,
3275,
3280,
3324,
3311,
3298,
3176,
3186,
3199,
3125,
3029,
3012,
2960,
3030,
3019,
2960,
3109,
2901,
2891,
2890,
2885,
2909,
2902,
2762,
2785,
2706,
2733,
2678,
2614,
2715,
2597,
2732,
2576,
2675,
2731,
2722,
2712,
2684,
2637,
2488,
2507,
2598,
2510,
2430,
2412,
2441,
2317,
2389,
2398,
2348,
2340,
2361,
2238,
2361,
2235,
2205,
2241,
2158,
2270,
2218,
2176,
2141,
2125,
2139,
2108,
2180,
2233,
2406,
2579,
2586,
2535,
2472,
2201,
2165,
2077,
2006,
2026,
1939,
1921,
1937,
1926,
1940,
1843,
1885,
1934,
1902,
1909,
1851,
1802,
1782,
1829,
1746,
1798,
1782,
1719,
1716,
1913,
2306,
3099,
4478,
6634,
9283,
10975,
11229,
9655,
7003,
4764,
3018,
2143,
1701,
1606,
1614,
1551,
1600,
1554,
1604,
1589,
1496,
1438,
1441,
1427,
1419,
1451,
1364,
1381,
1398,
1326,
1361,
1294,
1355,
1338,
1297,
1253,
1332,
1313,
1308,
1343,
1373,
1453,
1545,
1713,
1955,
2395,
2970,
3502,
3755,
3515,
3180,
2515,
2116,
1979,
2010,
2200,
2525,
2680,
2783,
2568,
2145,
1760,
1345,
1243,
1105,
1033,
1000,
1008,
1057,
925,
948,
948,
901,
881,
916,
882,
893,
898,
897,
924,
813,
805,
839,
856,
818,
859,
818,
770,
786,
803,
784,
711,
795,
747,
739,
737,
801,
795,
884,
889,
958,
1047,
1072,
1083,
911,
851,
755,
725,
674,
698,
675,
709,
647,
676,
717,
660,
612,
669,
629,
596,
513,
527,
546,
507,
501,
522,
491,
514,
484,
468,
525,
528,
499,
447,
467,
443,
456,
421,
425,
414,
423,
413,
394,
406,
360,
428,
387,
356,
373,
349,
359,
360,
365,
318,
328,
328,
362,
331,
318,
280,
302,
303,
290,
278,
267,
254,
275,
290,
252,
252,
254,
212,
219,
249,
218,
237,
193,
228,
196,
208,
166,
192,
192,
160,
176,
170,
169,
144,
163,
150,
159,
149,
143,
136,
144,
147,
141,
117,
109,
117,
103,
92,
106,
91,
68,
84,
86,
100,
85,
75,
69,
55,
57,
58,
55,
51,
48,
32,
35,
38,
28,
21,
24,
15,
12,
8,
7,
5,
6,
4,
11,
5,
6,
4,
3,
5,
2,
2,
1,
5,
5,
2,
4,
2,
3,
8,
5,
1,
5,
3,
5,
3,
1,
1,
4,
2,
3,
3,
1,
0,
2,
5,
0,
4,
3,
2,
5,
1,
2,
0,
3,
2,
0,
2,
1,
1,
0,
6,
4,
2,
1,
2,
3,
2,
2,
0,
0,
3,
3,
4,
1,
0,
4,
2,
3,
1,
0,
1,
3,
3,
1,
1,
3,
4,
3,
2,
2,
1,
2,
1,
1,
3,
1,
0,
0,
1,
3,
0,
1,
0,
1,
0,
0,
0,
2,
0,
0,
0,
0,
2,
6,
0,
0,
0,
5,
1,
0,
1,
1,
1,
1,
1,
0,
3,
2,
1,
3,
1,
1,
1,
1,
3,
1,
0,
1,
1,
1,
1,
1,
0,
2,
1,
0,
0,
3,
1,
0,
1,
0,
2,
2,
2,
1,
0,
2,
1,
1,
1,
1,
0,
1,
0,
0,
1,
1,
0,
0,
0,
1,
1,
2,
0,
0,
0,
1,
1,
0,
3,
1,
1,
0,
0,
1,
1,
1,
0,
0,
0,
1,
0,
0,
0,
1,
0,
1,
1,
1,
0,
0,
2,
0,
0,
1,
0,
0,
0,
1,
0,
0,
0,
0,
2,
0,
0,
0,
0,
0,
0,
0,
0,
0,
0,
0,
0,
0,
0,
0,
0,
0,
0,
0,
1,
0,
0,
0,
0,
0,
0,
0,
0,
1,
1,
0,
0,
0,
0,
0,
0,
0,
0,
0,
0,
0,
1,
1,
0,
1,
0,
0,
0,
1,
0,
0,
0,
2,
0,
0,
0,
0,
0,
0,
0,
0,
0,
0,
0,
0,
0,
0,
0,
0,
1,
0,
0,
0,
0,
0,
0,
0,
0,
0,
0,
0,
1,
0,
0,
0,
0,
0,
0,
0,
0,
0,
0,
0,
0,
0,
0,
0,
0,
0,
1,
1,
0,
0,
0,
0,
0,
0,
0,
0,
0,
0,
0,
0,
0,
0,
1,
0,
0,
0,
0,
0,
0,
0,
0,
0,
0,
0,
0,
0,
0,
0,
0,
0,
0,
0,
0,
0,
0,
0,
0,
0,
0,
0,
0,
0,
0,
0,
0,
0,
0,
0,
0,
0,
0,
0,
0,
0,
0,
0,
0,
0,
0,
0,
0,
0,
0,
0,
0,
0,
0,
0,
0,
0,
0,
0,
0,
0,
0,
0,
0,
0,
0,
0,
0,
0,
0,
0,
0,
0,
0,
0,
0,
0,
0,
0,
0,
0,
0,
0,
0,
0,
0,
0,
0,
0,
0,
0,
0,
0,
0,
0,
0,
0,
0,
0,
0,
0,
0,
0,
0,
0,
0,
0,
0,
0,
0,
0,
0,
0,
0,
0,
0,
0,
0,
0,
0,
0,
0,
0,
0,
0,
0,
0,
0,
0,
0,
0,
0,
0,
0,
0,
0,
0,
0,
0,
0,
0,
0,
0,
0,
0,
0,
0,
0,
0,
0,
0,
0,
0,
0,
0,
0,
0,
0,
0,
0,
0,
0,
0,
0,
0,
0,
0,
0,
0,
0,
0,
0,
0,
0,
0,
0,
0,
0,
0,
0,
0,
0,
0,
0,
0,
0,
0,
0,
0,
0,
0,
0,
0,
0,
0,
0,
0,
0,
0,
0,
0,
0,
0,
0,
0,
0,
0,
0,
0,
0,
0,
0,
0,
0,
0,
0,
0,
0,
0,
0,
0,
0,
0,
0,
0,
0,
0,
0,
0,
0,
0,
0,
0,
0,
0,
0,
0,
0,
0,
0,
0,
0,
0,
0,
0,
0,
0,
0,
0,
0,
0,
0,
0,
0,
0,
0,
0,
0,
0,
0,
0,
0,
0,
0,
0,
0,
0,
0,
0,
0,
0,
0,
0,
0,
0,
0,
0,
0,
0,
0,
0,
0,
0,
0,
0,
0,
0,
0,
0,
0,
0,
0,
0,
0,
0,
0,
0,
0,
0,
0,
0,
0,
0,
0,
0,
0,
0,
0,
0,
0,
0,
0,
0,
0,
0,
0,
0,
0,
0,
0,
0,
0,
0,
0,
0,
0,
0,
0,
0,
0,
0,
0,
0,
0,
0,
0,
0,
0,
0,
0,
0,
0,
0,
0,
0,
0,
0,
0,
0,
0,
0,
0,
0,
0,
0,
0,
0,
0,
0,
0,
0,
0,
0,
0,
0,
0,
0,
0,
0,
0,
0,
0,
0,
0,
0,
0,
0,
0,
0,
0,
0,
0,
0,
0,
0,
0,
0,
0,
0,
0,
0,
0,
0,
0,
0,
0,
0,
0,
0,
0,
0,
0,
0,
0,
0,
0,
0,
0,
0,
0,
0,
0,
0,
0,
0,
0,
0,
0,
0,
0,
0,
0,
0,
0,
0,
0,
0,
0,
0,
0,
0,
0,
0,
0,
0,
0,
0,
0,
0,
0,
0,
0,
0,
0,
0,
0,
0,
0,
0,
0,
0,
0,
0,
0,
0,
0,
0,
0,
0,
0,
0,
0,
0,
0,
0,
0,
0,
0,
0,
0,
0,
0,
0,
0,
0,
0,
0,
0,
0,
0,
0,
0,
0,
0,
0,
0,
0,
0,
0,
0,
0,
0,
0,
0,
0,
0,
0,
0,
0,
0,
0,
0,
0,
0,
0,
0,
0,
0,
0,
0,
0,
0,
0,
0,
0,
0,
0,
0,
0,
0,
0,
0,
0,
0,
0,
0,
0,
0,
0,
0,
0,
0,
0,
0,
0,
0,
0,
0,
0,
0,
0,
0,
0,
0,
#ENDOFDATA   :