File: N132962/Quantification/15 keV/Mengason MM2/MMM2 Manganotantalite[4][4].msa
#FORMAT      : EMSA/MAS Spectral Data File
#VERSION     : 1.0
#TITLE       : MMM2 Manganotantalite[4][all]
#DATE        : 28-SEP-2025
#TIME        : 22:55
#OWNER       : Unknown
#NPOINTS     : 4096
#NCOLUMNS    : 1
#XUNITS      : eV
#YUNITS      : counts
#DATATYPE    : Y
#XPERCHAN    : 9.99778
#OFFSET      : 1.69135
#BEAMKV      : 15
#SIGNALTYPE  : EDS
#ELEVANGLE   : 35
#AZIMANGLE   : 0
#LIVETIME    : 240.232
#REALTIME    : 259.695
#PROBECUR    : 1.2132
#TAUWIND     : 0
#TDEADLYR    : 0
#TACTLYR     : 0.045
#TALWIND     : 0.025
#CHOFFSET    : 0.0
#XLABEL      : Energy (eV)
#YLABEL      : Counts
#XPOSITION   : -22.38373
#YPOSITION   : -0.36888
#ZPOSITION   : 34.11879
#EDSDET      : SD
##SPECIMEN   : MMM2 Manganotantalite[4][all]
##DET_HASH   : 12273538-fd48-a23f-0a19-f1e6fa85caef
##CALIB_HASH : 6abaa72c-aa41-8738-0be9-f592914732f3
##WORKING    : 15.0 mm
##DET_NAME   : EDAX All
##DET_MODE   : MediumLE
#SPECTRUM    :
23,
27,
14,
46,
380,
1763,
4300,
8403,
18099,
21694,
11956,
6142,
5673,
6597,
8603,
17301,
50517,
90854,
68702,
23693,
12529,
15003,
13639,
11052,
9649,
7549,
6642,
6885,
7088,
7310,
7482,
7525,
7667,
7990,
8602,
8417,
8639,
8632,
8861,
9220,
9256,
9694,
11486,
15902,
20630,
19012,
14204,
11244,
10313,
10233,
10439,
10318,
10940,
12819,
20702,
54246,
125346,
179949,
161547,
106912,
53690,
21278,
9884,
8659,
9951,
11099,
10436,
8956,
8041,
9547,
15340,
27993,
39059,
36426,
27713,
23164,
18685,
13520,
9888,
7973,
6412,
5901,
5437,
5182,
5180,
4902,
4982,
5107,
5344,
5354,
5204,
5034,
4884,
4776,
4768,
4775,
4779,
4754,
4825,
4829,
4775,
4694,
4745,
4823,
4713,
4572,
4684,
4704,
4734,
4577,
4736,
4633,
4720,
4784,
4708,
4772,
4792,
4796,
4524,
4544,
4455,
4418,
4377,
4425,
4492,
4298,
4315,
4310,
4242,
4264,
4321,
4322,
4142,
4218,
4222,
4070,
4135,
4225,
4170,
4137,
3956,
4082,
4093,
4031,
3918,
4031,
3827,
4117,
4143,
4433,
4768,
4580,
4319,
3977,
3745,
3699,
3702,
3619,
3575,
3738,
3552,
3660,
3672,
3640,
3658,
3554,
3443,
3500,
3472,
3390,
3424,
3345,
3354,
3343,
3332,
3200,
3164,
3274,
3090,
3175,
3208,
3197,
3124,
3138,
3132,
3096,
3148,
3065,
3023,
2982,
3202,
3361,
3873,
5657,
9184,
13983,
17357,
17137,
13506,
8778,
5228,
3645,
2929,
2809,
2719,
2733,
2712,
2671,
2792,
2851,
3265,
4057,
5140,
5719,
6228,
6122,
5457,
4518,
3832,
3151,
2614,
2490,
2404,
2410,
2290,
2301,
2321,
2312,
2216,
2258,
2316,
2293,
2421,
2412,
2493,
2530,
2586,
2762,
2761,
2618,
2410,
2341,
2201,
2083,
2041,
1967,
1941,
1999,
1952,
2022,
1996,
2017,
1902,
1929,
1999,
1940,
1900,
1826,
1866,
1858,
1825,
1800,
1798,
1788,
1837,
2025,
2406,
3370,
4966,
7189,
9501,
10736,
10266,
8282,
5926,
3802,
2529,
1981,
1654,
1667,
1679,
1601,
1626,
1568,
1624,
1562,
1451,
1572,
1519,
1495,
1454,
1452,
1401,
1407,
1423,
1460,
1485,
1350,
1343,
1383,
1420,
1379,
1337,
1399,
1416,
1650,
1816,
2041,
2423,
3042,
3648,
3902,
3752,
3167,
2618,
2177,
1941,
1793,
1905,
2186,
2543,
2719,
2715,
2496,
2098,
1667,
1339,
1182,
1184,
1075,
1063,
1075,
1085,
1020,
1048,
984,
981,
988,
1001,
939,
971,
952,
922,
940,
910,
946,
927,
857,
860,
916,
898,
877,
860,
865,
846,
823,
796,
832,
828,
899,
1051,
1047,
1125,
1189,
1127,
1070,
909,
886,
787,
801,
778,
748,
738,
791,
802,
739,
749,
751,
725,
685,
630,
631,
604,
631,
588,
618,
601,
609,
619,
585,
536,
581,
559,
525,
478,
539,
491,
498,
507,
496,
495,
496,
444,
498,
462,
463,
491,
465,
438,
410,
428,
424,
431,
423,
423,
422,
389,
394,
390,
406,
384,
407,
349,
353,
343,
343,
333,
294,
322,
334,
312,
308,
303,
296,
298,
299,
310,
269,
264,
279,
259,
247,
253,
250,
243,
232,
244,
222,
214,
191,
193,
185,
211,
184,
193,
174,
194,
157,
163,
165,
165,
147,
165,
167,
144,
158,
145,
136,
152,
135,
139,
106,
128,
103,
91,
107,
79,
87,
70,
87,
74,
69,
68,
79,
73,
66,
70,
52,
65,
51,
48,
28,
31,
27,
38,
23,
23,
17,
12,
12,
8,
3,
2,
9,
3,
3,
5,
3,
5,
3,
5,
3,
3,
3,
2,
5,
4,
1,
6,
3,
1,
1,
1,
4,
1,
1,
3,
4,
2,
2,
5,
1,
1,
1,
1,
1,
2,
3,
2,
2,
4,
3,
0,
1,
3,
2,
1,
1,
4,
2,
1,
1,
2,
2,
0,
2,
0,
1,
2,
3,
5,
3,
3,
1,
3,
2,
0,
2,
2,
3,
1,
0,
3,
1,
1,
2,
1,
0,
1,
2,
2,
2,
1,
3,
0,
3,
2,
0,
2,
1,
1,
2,
1,
0,
1,
3,
2,
1,
4,
2,
3,
2,
4,
1,
1,
2,
1,
2,
5,
3,
1,
1,
0,
0,
0,
0,
0,
1,
1,
1,
1,
3,
0,
0,
1,
1,
1,
0,
1,
1,
2,
0,
0,
2,
0,
0,
0,
0,
2,
0,
2,
1,
0,
0,
0,
2,
0,
3,
2,
0,
0,
1,
1,
2,
1,
2,
2,
0,
1,
1,
0,
0,
1,
1,
1,
0,
0,
2,
0,
1,
2,
1,
0,
1,
0,
1,
2,
0,
1,
0,
0,
1,
1,
0,
4,
0,
0,
0,
0,
0,
1,
0,
0,
1,
1,
0,
1,
0,
0,
0,
0,
0,
1,
0,
1,
0,
0,
1,
0,
0,
0,
0,
0,
0,
1,
0,
0,
0,
0,
0,
0,
2,
0,
0,
0,
0,
0,
0,
0,
0,
0,
0,
0,
0,
0,
0,
1,
0,
0,
0,
0,
0,
0,
0,
0,
0,
1,
0,
1,
0,
0,
0,
0,
0,
0,
0,
0,
0,
0,
0,
0,
0,
0,
0,
0,
0,
0,
0,
0,
0,
0,
0,
0,
0,
0,
0,
0,
0,
0,
0,
0,
0,
0,
0,
0,
0,
0,
0,
0,
0,
0,
0,
0,
0,
0,
0,
1,
0,
0,
0,
0,
0,
0,
0,
0,
1,
0,
0,
0,
0,
0,
0,
0,
0,
0,
0,
0,
0,
0,
1,
0,
0,
0,
0,
0,
0,
0,
0,
0,
0,
0,
1,
0,
0,
0,
0,
0,
0,
0,
0,
0,
0,
0,
0,
0,
0,
0,
0,
0,
0,
0,
0,
0,
0,
0,
0,
0,
0,
0,
0,
0,
0,
0,
0,
0,
0,
0,
0,
0,
0,
0,
0,
0,
0,
0,
0,
0,
0,
0,
0,
0,
0,
0,
0,
0,
0,
0,
0,
0,
0,
0,
0,
0,
0,
0,
0,
0,
0,
0,
0,
0,
0,
0,
0,
0,
0,
0,
0,
0,
0,
0,
0,
0,
0,
0,
0,
0,
0,
0,
0,
0,
0,
0,
0,
0,
0,
0,
0,
0,
0,
0,
0,
0,
0,
0,
0,
0,
0,
0,
0,
0,
0,
0,
0,
0,
0,
0,
0,
0,
0,
0,
0,
0,
0,
0,
0,
0,
0,
0,
0,
0,
0,
0,
0,
0,
0,
0,
0,
0,
0,
0,
0,
0,
0,
0,
0,
0,
0,
0,
0,
0,
0,
0,
0,
0,
0,
0,
0,
0,
0,
0,
0,
0,
0,
0,
0,
0,
0,
0,
0,
0,
0,
0,
0,
0,
0,
0,
0,
0,
0,
0,
0,
0,
0,
0,
0,
0,
0,
0,
0,
0,
0,
0,
0,
0,
0,
0,
0,
0,
0,
0,
0,
0,
0,
0,
0,
0,
0,
0,
0,
0,
0,
0,
0,
0,
0,
0,
0,
0,
0,
0,
0,
0,
0,
0,
0,
0,
0,
0,
0,
0,
0,
0,
0,
0,
0,
0,
0,
0,
0,
0,
0,
0,
0,
0,
0,
0,
0,
0,
0,
0,
0,
0,
0,
0,
0,
0,
0,
0,
0,
0,
0,
0,
0,
0,
0,
0,
0,
0,
0,
0,
0,
0,
0,
0,
0,
0,
0,
0,
0,
0,
0,
0,
0,
0,
0,
0,
0,
0,
0,
0,
0,
0,
0,
0,
0,
0,
0,
0,
0,
0,
0,
0,
0,
0,
0,
0,
0,
0,
0,
0,
0,
0,
0,
0,
0,
0,
0,
0,
0,
0,
0,
0,
0,
0,
0,
0,
0,
0,
0,
0,
0,
0,
0,
0,
0,
0,
0,
0,
0,
0,
0,
0,
0,
0,
0,
0,
0,
0,
0,
0,
0,
0,
0,
0,
0,
0,
0,
0,
0,
0,
0,
0,
0,
0,
0,
0,
0,
0,
0,
0,
0,
0,
0,
0,
0,
0,
0,
0,
0,
0,
0,
0,
0,
0,
0,
0,
0,
0,
0,
0,
0,
0,
0,
0,
0,
0,
0,
0,
0,
0,
0,
0,
0,
0,
0,
0,
0,
0,
0,
0,
0,
0,
0,
0,
0,
0,
0,
0,
0,
0,
0,
0,
0,
0,
0,
0,
0,
0,
0,
0,
0,
0,
0,
0,
0,
0,
0,
0,
0,
0,
0,
0,
0,
0,
0,
0,
0,
0,
0,
0,
0,
0,
0,
0,
0,
0,
0,
0,
0,
0,
0,
0,
0,
0,
0,
0,
0,
0,
0,
0,
0,
0,
0,
0,
0,
0,
0,
0,
0,
0,
0,
0,
0,
0,
0,
0,
0,
0,
0,
0,
0,
0,
0,
0,
0,
0,
0,
0,
0,
0,
0,
0,
0,
0,
0,
0,
0,
0,
0,
0,
0,
0,
0,
0,
0,
0,
0,
0,
0,
0,
0,
0,
0,
0,
0,
0,
0,
0,
0,
0,
0,
0,
0,
0,
0,
#ENDOFDATA   :