File: N132962/Quantification/15 keV/Mengason MM2/MMM2 Uvarovite[7][4].msa
#FORMAT      : EMSA/MAS Spectral Data File
#VERSION     : 1.0
#TITLE       : MMM2 Uvarovite[7][all]
#DATE        : 28-SEP-2025
#TIME        : 22:17
#OWNER       : Unknown
#NPOINTS     : 4096
#NCOLUMNS    : 1
#XUNITS      : eV
#YUNITS      : counts
#DATATYPE    : Y
#XPERCHAN    : 9.99778
#OFFSET      : 1.69135
#BEAMKV      : 15
#SIGNALTYPE  : EDS
#ELEVANGLE   : 35
#AZIMANGLE   : 0
#LIVETIME    : 240.152
#REALTIME    : 254.317
#PROBECUR    : 1.21223
#TAUWIND     : 0
#TDEADLYR    : 0
#TACTLYR     : 0.045
#TALWIND     : 0.025
#CHOFFSET    : 0.0
#XLABEL      : Energy (eV)
#YLABEL      : Counts
#XPOSITION   : -9.31593
#YPOSITION   : -0.11585
#ZPOSITION   : 34.11879
#EDSDET      : SD
##SPECIMEN   : MMM2 Uvarovite[7][all]
##DET_HASH   : 12273538-fd48-a23f-0a19-f1e6fa85caef
##CALIB_HASH : 6abaa72c-aa41-8738-0be9-f592914732f3
##WORKING    : 15.0 mm
##DET_NAME   : EDAX All
##DET_MODE   : MediumLE
#SPECTRUM    :
31,
19,
9,
18,
83,
379,
1345,
4751,
13976,
20589,
14151,
7682,
4818,
4417,
6455,
20272,
71696,
132780,
97669,
29682,
6982,
3330,
2995,
3699,
3721,
3183,
2995,
3224,
3522,
3549,
3676,
3781,
3912,
4156,
4193,
4434,
4434,
4498,
4703,
4735,
4924,
5024,
5204,
5050,
5157,
5223,
5665,
7954,
16896,
29898,
30226,
17933,
8887,
6218,
6431,
12639,
42217,
104439,
141171,
99457,
41452,
15106,
8081,
5263,
4610,
4356,
4088,
3637,
3616,
3413,
3336,
3386,
3399,
3399,
3520,
3477,
3588,
3410,
3276,
3167,
3178,
3035,
3201,
3068,
3042,
2889,
2992,
2969,
2862,
2839,
2866,
2751,
2809,
2719,
2722,
2704,
2696,
2693,
2657,
2563,
2579,
2579,
2527,
2571,
2678,
2508,
2486,
2497,
2447,
2417,
2459,
2385,
2259,
2368,
2444,
2457,
2707,
2942,
3613,
5754,
14246,
35634,
65682,
83055,
69356,
39402,
15712,
5596,
2830,
2450,
2918,
4399,
7231,
10563,
11626,
9389,
5792,
3201,
2092,
1859,
1688,
1688,
1704,
1589,
1555,
1599,
1638,
1702,
2204,
2781,
3146,
3073,
2569,
1971,
1644,
1466,
1404,
1398,
1413,
1361,
1460,
1457,
1488,
1728,
1960,
1943,
1735,
1613,
1403,
1372,
1302,
1309,
1338,
1310,
1406,
1590,
2250,
4466,
8985,
14961,
19475,
18565,
13261,
7567,
3579,
1885,
1306,
1138,
1149,
1098,
1131,
1095,
1122,
1217,
1318,
1716,
2393,
3056,
3390,
3147,
2402,
1661,
1266,
1078,
1014,
941,
884,
908,
961,
1014,
1106,
1342,
1666,
1782,
1788,
1495,
1162,
1007,
872,
865,
818,
808,
804,
851,
804,
748,
781,
803,
775,
809,
757,
769,
824,
852,
876,
883,
864,
806,
746,
717,
698,
708,
709,
782,
634,
702,
722,
691,
629,
651,
634,
632,
632,
613,
636,
671,
645,
620,
585,
602,
578,
623,
580,
608,
595,
532,
539,
534,
504,
527,
554,
539,
548,
484,
555,
483,
491,
491,
523,
499,
467,
514,
487,
449,
455,
454,
478,
477,
459,
459,
435,
444,
469,
450,
439,
432,
411,
423,
416,
439,
372,
437,
442,
381,
378,
445,
375,
396,
372,
410,
384,
368,
382,
346,
357,
380,
381,
351,
366,
397,
370,
319,
330,
325,
352,
311,
338,
329,
325,
315,
342,
319,
319,
306,
284,
268,
294,
272,
276,
300,
313,
281,
270,
257,
283,
259,
255,
241,
256,
247,
257,
246,
236,
237,
261,
233,
243,
232,
217,
250,
223,
231,
212,
217,
243,
203,
206,
191,
204,
204,
207,
220,
187,
184,
188,
167,
178,
183,
186,
165,
169,
169,
153,
195,
151,
168,
168,
163,
145,
141,
129,
123,
149,
136,
139,
146,
158,
133,
126,
114,
135,
122,
106,
125,
106,
118,
113,
129,
124,
105,
123,
121,
104,
119,
126,
100,
105,
86,
109,
88,
94,
108,
97,
84,
105,
83,
70,
73,
85,
55,
75,
69,
63,
61,
64,
71,
54,
91,
65,
68,
65,
42,
63,
45,
48,
44,
42,
45,
52,
56,
54,
50,
35,
49,
43,
47,
32,
32,
29,
40,
40,
42,
34,
22,
33,
23,
27,
18,
35,
26,
19,
20,
19,
17,
22,
24,
21,
20,
17,
25,
27,
14,
20,
19,
14,
10,
10,
9,
6,
12,
7,
4,
5,
2,
6,
5,
1,
7,
0,
2,
2,
1,
1,
0,
1,
0,
2,
0,
1,
0,
1,
0,
0,
4,
0,
1,
2,
1,
1,
2,
1,
0,
0,
0,
0,
1,
0,
0,
0,
1,
1,
1,
0,
1,
1,
0,
1,
0,
0,
0,
0,
0,
0,
0,
0,
0,
0,
0,
0,
1,
0,
1,
0,
0,
0,
0,
0,
0,
1,
0,
0,
0,
0,
0,
0,
2,
1,
2,
0,
0,
0,
1,
1,
0,
1,
1,
1,
0,
0,
1,
0,
0,
0,
0,
0,
0,
0,
0,
0,
0,
1,
0,
0,
0,
0,
1,
0,
0,
0,
0,
0,
1,
0,
0,
1,
0,
0,
0,
0,
1,
0,
0,
0,
0,
0,
0,
0,
0,
0,
0,
1,
0,
0,
0,
0,
1,
0,
0,
0,
0,
0,
1,
1,
0,
0,
0,
0,
0,
0,
0,
0,
0,
0,
0,
0,
0,
0,
0,
0,
0,
0,
0,
0,
0,
0,
0,
0,
0,
0,
0,
0,
0,
0,
0,
0,
0,
0,
0,
0,
0,
0,
0,
1,
0,
0,
0,
0,
0,
0,
0,
0,
0,
0,
0,
0,
0,
0,
0,
0,
0,
0,
0,
0,
0,
0,
0,
0,
0,
0,
0,
0,
0,
0,
0,
0,
0,
0,
0,
0,
0,
0,
0,
0,
0,
0,
0,
0,
0,
0,
0,
0,
0,
0,
0,
0,
0,
0,
0,
0,
0,
0,
0,
0,
0,
0,
0,
0,
0,
0,
0,
0,
0,
0,
0,
0,
0,
0,
0,
0,
0,
0,
0,
0,
0,
0,
0,
0,
0,
0,
0,
0,
0,
0,
0,
0,
0,
0,
0,
0,
0,
0,
0,
0,
0,
0,
0,
0,
0,
0,
0,
0,
0,
0,
0,
0,
0,
0,
0,
0,
0,
0,
0,
0,
0,
0,
0,
0,
0,
0,
0,
0,
0,
0,
0,
0,
0,
0,
0,
0,
0,
0,
0,
0,
0,
0,
1,
0,
0,
0,
0,
0,
0,
0,
0,
0,
0,
0,
0,
0,
0,
0,
0,
0,
0,
0,
0,
0,
0,
0,
0,
0,
0,
0,
0,
0,
0,
0,
0,
0,
0,
0,
0,
0,
0,
0,
0,
0,
0,
0,
0,
0,
0,
0,
0,
0,
0,
0,
0,
0,
0,
0,
0,
0,
0,
0,
0,
0,
0,
0,
0,
0,
0,
0,
0,
0,
0,
0,
0,
0,
0,
0,
0,
0,
0,
0,
0,
0,
0,
0,
0,
0,
0,
0,
0,
0,
0,
0,
0,
0,
0,
0,
0,
0,
0,
0,
0,
0,
0,
0,
0,
0,
0,
0,
0,
0,
0,
0,
0,
0,
0,
0,
0,
0,
0,
0,
0,
0,
0,
0,
0,
0,
0,
0,
0,
0,
0,
0,
0,
0,
0,
0,
0,
0,
0,
0,
0,
0,
0,
0,
0,
0,
0,
0,
0,
0,
0,
0,
0,
0,
0,
0,
0,
0,
0,
0,
0,
0,
0,
0,
0,
0,
0,
0,
0,
0,
0,
0,
0,
0,
0,
0,
0,
0,
0,
0,
0,
0,
0,
0,
0,
0,
0,
0,
0,
0,
0,
0,
0,
0,
0,
0,
0,
0,
0,
0,
0,
0,
0,
0,
0,
0,
0,
0,
0,
0,
0,
0,
0,
0,
0,
0,
0,
0,
0,
0,
0,
0,
0,
0,
0,
0,
0,
0,
0,
0,
0,
0,
0,
0,
0,
0,
0,
0,
0,
0,
0,
0,
0,
0,
0,
0,
0,
0,
0,
0,
0,
0,
0,
0,
0,
0,
0,
0,
0,
0,
0,
0,
0,
0,
0,
0,
0,
0,
0,
0,
0,
0,
0,
0,
0,
0,
0,
0,
0,
0,
0,
0,
0,
0,
0,
0,
0,
0,
0,
0,
0,
0,
0,
0,
0,
0,
0,
0,
0,
0,
0,
0,
0,
0,
0,
0,
0,
0,
0,
0,
0,
0,
0,
0,
0,
0,
0,
0,
0,
0,
0,
0,
0,
0,
0,
0,
0,
0,
0,
0,
0,
0,
0,
0,
0,
0,
0,
0,
0,
0,
0,
0,
0,
0,
0,
0,
0,
0,
0,
0,
0,
0,
0,
0,
0,
0,
0,
0,
0,
0,
0,
0,
0,
0,
0,
0,
0,
0,
0,
0,
0,
0,
0,
0,
0,
0,
0,
0,
0,
0,
0,
0,
0,
0,
0,
0,
0,
0,
0,
0,
0,
0,
0,
0,
0,
0,
0,
0,
0,
0,
0,
0,
0,
0,
0,
0,
0,
0,
0,
0,
0,
0,
0,
0,
0,
0,
0,
0,
0,
0,
0,
0,
0,
0,
0,
0,
0,
0,
0,
0,
0,
0,
0,
0,
0,
0,
0,
0,
0,
0,
0,
0,
0,
0,
0,
0,
0,
0,
0,
0,
0,
0,
0,
0,
0,
0,
0,
0,
0,
0,
0,
0,
0,
0,
0,
0,
0,
0,
0,
0,
0,
0,
0,
0,
0,
0,
0,
0,
0,
0,
0,
0,
0,
0,
0,
0,
0,
0,
0,
0,
0,
0,
0,
0,
0,
0,
0,
0,
0,
0,
0,
0,
0,
0,
0,
0,
0,
0,
0,
0,
0,
0,
0,
0,
0,
0,
0,
0,
0,
0,
0,
0,
0,
0,
0,
0,
0,
0,
0,
0,
0,
0,
0,
0,
0,
0,
0,
0,
0,
0,
0,
0,
0,
0,
0,
0,
0,
0,
0,
0,
0,
#ENDOFDATA   :