File: N132962/Quantification/15 keV/Mengason MM2/MMM2 Uvarovite[5][4].msa
#FORMAT      : EMSA/MAS Spectral Data File
#VERSION     : 1.0
#TITLE       : MMM2 Uvarovite[5][all]
#DATE        : 28-SEP-2025
#TIME        : 22:14
#OWNER       : Unknown
#NPOINTS     : 4096
#NCOLUMNS    : 1
#XUNITS      : eV
#YUNITS      : counts
#DATATYPE    : Y
#XPERCHAN    : 9.99778
#OFFSET      : 1.69135
#BEAMKV      : 15
#SIGNALTYPE  : EDS
#ELEVANGLE   : 35
#AZIMANGLE   : 0
#LIVETIME    : 240.095
#REALTIME    : 254.257
#PROBECUR    : 1.21223
#TAUWIND     : 0
#TDEADLYR    : 0
#TACTLYR     : 0.045
#TALWIND     : 0.025
#CHOFFSET    : 0.0
#XLABEL      : Energy (eV)
#YLABEL      : Counts
#XPOSITION   : -9.28347
#YPOSITION   : -0.08931
#ZPOSITION   : 34.11879
#EDSDET      : SD
##SPECIMEN   : MMM2 Uvarovite[5][all]
##DET_HASH   : 12273538-fd48-a23f-0a19-f1e6fa85caef
##CALIB_HASH : 6abaa72c-aa41-8738-0be9-f592914732f3
##WORKING    : 15.0 mm
##DET_NAME   : EDAX All
##DET_MODE   : MediumLE
#SPECTRUM    :
24,
35,
14,
26,
103,
411,
1376,
4844,
13885,
20491,
14265,
7786,
4916,
4420,
6588,
20445,
71987,
132954,
97365,
29842,
6916,
3261,
3093,
3589,
3853,
3247,
3059,
3204,
3521,
3571,
3671,
3733,
3978,
4224,
4244,
4459,
4424,
4619,
4545,
4780,
4852,
5082,
5099,
5157,
5079,
5259,
5541,
7845,
16288,
28589,
28957,
17270,
8664,
6266,
6470,
12557,
41902,
103517,
141070,
99615,
41214,
15171,
8101,
5377,
4500,
4366,
4137,
3699,
3590,
3419,
3417,
3392,
3334,
3432,
3435,
3540,
3547,
3368,
3262,
3111,
3107,
3150,
3077,
2933,
2995,
2982,
2949,
3022,
2932,
2885,
2800,
2756,
2833,
2738,
2732,
2816,
2634,
2657,
2694,
2630,
2651,
2584,
2527,
2626,
2543,
2517,
2615,
2577,
2478,
2532,
2415,
2353,
2279,
2280,
2359,
2493,
2652,
2983,
3545,
5969,
14593,
35557,
65684,
83049,
69245,
39187,
15714,
5460,
2753,
2444,
2849,
4400,
7186,
10620,
11610,
9446,
5789,
3072,
2094,
1834,
1813,
1720,
1653,
1696,
1564,
1529,
1656,
1828,
2277,
3036,
3594,
3357,
2886,
2036,
1585,
1534,
1363,
1414,
1368,
1377,
1396,
1444,
1645,
1738,
1900,
1896,
1849,
1542,
1396,
1262,
1308,
1365,
1314,
1320,
1370,
1595,
2339,
4642,
9043,
15329,
20075,
19103,
13941,
7621,
3616,
1789,
1273,
1175,
1129,
1055,
1158,
1162,
1125,
1165,
1362,
1770,
2418,
3189,
3459,
3160,
2487,
1748,
1277,
1042,
967,
903,
955,
923,
970,
1001,
1064,
1361,
1624,
1698,
1644,
1473,
1169,
957,
869,
861,
896,
823,
849,
806,
813,
750,
779,
816,
745,
771,
746,
721,
778,
790,
855,
869,
826,
780,
765,
739,
726,
705,
682,
763,
677,
753,
706,
685,
702,
728,
645,
669,
678,
620,
629,
653,
656,
604,
617,
609,
562,
576,
567,
542,
591,
587,
557,
589,
570,
539,
527,
555,
537,
551,
497,
477,
545,
493,
550,
502,
497,
541,
463,
501,
487,
495,
474,
453,
446,
463,
429,
428,
483,
428,
443,
435,
447,
415,
421,
402,
428,
405,
442,
427,
424,
383,
383,
415,
384,
390,
385,
383,
351,
360,
383,
372,
374,
337,
338,
385,
319,
330,
349,
328,
338,
327,
299,
325,
315,
338,
289,
296,
331,
333,
311,
315,
280,
289,
283,
281,
271,
262,
260,
284,
265,
269,
250,
217,
250,
249,
237,
248,
282,
224,
247,
226,
240,
208,
202,
225,
217,
219,
215,
221,
212,
183,
192,
186,
215,
190,
190,
179,
211,
217,
187,
206,
159,
199,
166,
174,
163,
180,
190,
193,
145,
159,
170,
157,
152,
180,
161,
151,
161,
153,
126,
131,
142,
153,
138,
121,
139,
128,
117,
124,
130,
116,
134,
107,
101,
106,
108,
92,
108,
105,
95,
118,
72,
82,
101,
85,
104,
79,
95,
83,
84,
76,
73,
80,
66,
72,
83,
80,
66,
58,
81,
68,
63,
55,
67,
61,
70,
47,
71,
57,
56,
57,
38,
47,
45,
51,
54,
49,
44,
47,
37,
42,
48,
55,
35,
36,
29,
28,
41,
31,
27,
28,
21,
22,
25,
29,
23,
21,
22,
31,
26,
12,
26,
20,
17,
15,
17,
10,
15,
8,
11,
11,
6,
14,
12,
12,
10,
7,
4,
3,
4,
3,
1,
1,
3,
3,
2,
1,
1,
0,
0,
0,
0,
1,
1,
1,
0,
1,
0,
0,
0,
0,
0,
0,
0,
0,
1,
0,
0,
1,
0,
0,
0,
1,
0,
0,
0,
0,
0,
0,
0,
0,
1,
0,
0,
2,
1,
0,
0,
0,
0,
0,
0,
2,
0,
0,
0,
0,
1,
0,
0,
1,
0,
0,
0,
0,
0,
0,
0,
0,
0,
1,
0,
0,
1,
0,
0,
0,
0,
0,
3,
0,
1,
1,
1,
0,
0,
0,
1,
0,
1,
0,
0,
0,
0,
0,
0,
0,
0,
0,
0,
0,
0,
0,
0,
0,
0,
1,
0,
0,
0,
0,
0,
0,
0,
0,
0,
0,
0,
0,
1,
0,
0,
0,
0,
0,
0,
0,
0,
0,
0,
0,
1,
0,
0,
0,
0,
0,
0,
0,
0,
0,
0,
0,
0,
0,
0,
1,
0,
0,
0,
0,
0,
0,
0,
0,
0,
0,
0,
0,
0,
0,
0,
0,
0,
0,
0,
0,
0,
0,
0,
0,
0,
0,
0,
0,
0,
0,
0,
0,
0,
0,
0,
0,
0,
0,
0,
0,
0,
0,
0,
0,
0,
0,
0,
0,
0,
0,
0,
0,
1,
0,
0,
0,
0,
0,
0,
0,
0,
0,
0,
0,
0,
0,
0,
0,
0,
0,
0,
0,
0,
0,
0,
0,
0,
0,
0,
0,
0,
0,
0,
0,
0,
0,
0,
0,
0,
0,
0,
0,
0,
0,
0,
0,
0,
0,
0,
0,
0,
0,
0,
0,
0,
0,
0,
0,
0,
0,
0,
0,
0,
0,
0,
0,
0,
0,
0,
0,
0,
0,
0,
0,
0,
0,
0,
0,
0,
0,
0,
0,
0,
0,
0,
0,
0,
0,
0,
0,
0,
0,
0,
0,
0,
0,
0,
0,
0,
0,
0,
0,
0,
0,
0,
0,
0,
0,
0,
0,
0,
0,
0,
0,
0,
0,
0,
0,
0,
0,
0,
0,
0,
0,
0,
0,
0,
0,
0,
0,
0,
0,
0,
0,
0,
0,
0,
0,
0,
0,
0,
0,
0,
0,
0,
0,
0,
0,
0,
0,
0,
0,
0,
0,
0,
0,
0,
0,
0,
0,
0,
0,
0,
0,
0,
0,
0,
0,
0,
0,
0,
0,
0,
0,
0,
0,
0,
0,
0,
0,
0,
0,
0,
0,
0,
0,
0,
0,
0,
0,
0,
0,
0,
0,
0,
0,
0,
0,
0,
0,
0,
0,
0,
0,
0,
0,
0,
0,
0,
0,
0,
0,
0,
0,
0,
0,
0,
0,
0,
0,
0,
0,
0,
0,
0,
0,
0,
0,
0,
0,
0,
0,
0,
0,
0,
0,
0,
0,
0,
0,
0,
0,
0,
0,
0,
0,
0,
0,
0,
0,
0,
0,
0,
0,
0,
0,
0,
0,
0,
0,
0,
0,
0,
0,
0,
0,
0,
0,
0,
0,
0,
0,
0,
0,
0,
0,
0,
0,
0,
0,
0,
0,
0,
0,
0,
0,
0,
0,
0,
0,
0,
0,
0,
0,
0,
0,
0,
0,
0,
0,
0,
0,
0,
0,
0,
0,
0,
0,
0,
0,
0,
0,
0,
0,
0,
0,
0,
0,
0,
0,
0,
0,
0,
0,
0,
0,
0,
0,
0,
0,
0,
0,
0,
0,
0,
0,
0,
0,
0,
0,
0,
0,
0,
0,
0,
0,
0,
0,
0,
0,
0,
0,
0,
0,
0,
0,
0,
0,
0,
0,
0,
0,
0,
0,
0,
0,
0,
0,
0,
0,
0,
0,
0,
0,
0,
0,
0,
0,
0,
0,
0,
0,
0,
0,
0,
0,
0,
0,
0,
0,
0,
0,
0,
0,
0,
0,
0,
0,
0,
0,
0,
0,
0,
0,
0,
0,
0,
0,
0,
0,
0,
0,
0,
0,
0,
0,
0,
0,
0,
0,
0,
0,
0,
0,
0,
0,
0,
0,
0,
0,
0,
0,
0,
0,
0,
0,
0,
0,
0,
0,
0,
0,
0,
0,
0,
0,
0,
0,
0,
0,
0,
0,
0,
0,
0,
0,
0,
0,
0,
0,
0,
0,
0,
0,
0,
0,
0,
0,
0,
0,
0,
0,
0,
0,
0,
0,
0,
0,
0,
0,
0,
0,
0,
0,
0,
0,
0,
0,
0,
0,
0,
0,
0,
0,
0,
0,
0,
0,
0,
0,
0,
0,
0,
0,
0,
0,
0,
0,
0,
0,
0,
0,
0,
0,
0,
0,
0,
0,
0,
0,
0,
0,
0,
0,
0,
0,
0,
0,
0,
0,
0,
0,
0,
0,
0,
0,
0,
0,
0,
0,
0,
0,
0,
0,
0,
0,
0,
0,
0,
0,
0,
0,
0,
0,
0,
0,
0,
0,
0,
0,
0,
0,
0,
0,
0,
0,
0,
0,
0,
0,
0,
0,
0,
0,
0,
0,
0,
0,
0,
0,
0,
0,
0,
0,
0,
0,
0,
0,
0,
0,
0,
0,
0,
0,
0,
0,
0,
0,
0,
0,
0,
0,
0,
0,
0,
0,
0,
0,
0,
0,
0,
0,
0,
0,
0,
0,
0,
0,
0,
0,
0,
0,
0,
0,
0,
0,
0,
0,
0,
0,
0,
0,
0,
0,
0,
0,
0,
0,
0,
0,
0,
0,
0,
0,
0,
0,
0,
0,
0,
0,
0,
0,
0,
0,
0,
0,
0,
0,
0,
0,
0,
0,
0,
0,
0,
0,
0,
0,
0,
0,
0,
0,
0,
0,
#ENDOFDATA   :