File: N132962/Quantification/15 keV/Mengason MM2/MMM2 Sphene[2][4].msa
#FORMAT      : EMSA/MAS Spectral Data File
#VERSION     : 1.0
#TITLE       : MMM2 Sphene[2][all]
#DATE        : 28-SEP-2025
#TIME        : 22:01
#OWNER       : Unknown
#NPOINTS     : 4096
#NCOLUMNS    : 1
#XUNITS      : eV
#YUNITS      : counts
#DATATYPE    : Y
#XPERCHAN    : 9.99778
#OFFSET      : 1.69135
#BEAMKV      : 15
#SIGNALTYPE  : EDS
#ELEVANGLE   : 35
#AZIMANGLE   : 0
#LIVETIME    : 240.121
#REALTIME    : 253.3517
#PROBECUR    : 1.21223
#TAUWIND     : 0
#TDEADLYR    : 0
#TACTLYR     : 0.045
#TALWIND     : 0.025
#CHOFFSET    : 0.0
#XLABEL      : Energy (eV)
#YLABEL      : Counts
#XPOSITION   : -11.19295
#YPOSITION   : -1.8478
#ZPOSITION   : 34.11879
#EDSDET      : SD
##SPECIMEN   : MMM2 Sphene[2][all]
##DET_HASH   : 12273538-fd48-a23f-0a19-f1e6fa85caef
##CALIB_HASH : 6abaa72c-aa41-8738-0be9-f592914732f3
##WORKING    : 15.0 mm
##DET_NAME   : EDAX All
##DET_MODE   : MediumLE
#SPECTRUM    :
21,
31,
8,
18,
97,
437,
1416,
4853,
13840,
20561,
14501,
8988,
9302,
10822,
12253,
20002,
53221,
96555,
70116,
19014,
3694,
2446,
2898,
3245,
3147,
2959,
2959,
3121,
3493,
3472,
3554,
3679,
3786,
4119,
4192,
4367,
4436,
4399,
4431,
4640,
4710,
4697,
4890,
4925,
5074,
4954,
5147,
5818,
7748,
10574,
10583,
8188,
6205,
5709,
6263,
11777,
36926,
90420,
122251,
86906,
36264,
13926,
7712,
5211,
4665,
4497,
4215,
3907,
3713,
3550,
3548,
3653,
3771,
3775,
3754,
3680,
3635,
3475,
3440,
3335,
3165,
3235,
3099,
3129,
3117,
3005,
2991,
3082,
3008,
2925,
3086,
3183,
3223,
3199,
2984,
2777,
2786,
2766,
2655,
2607,
2711,
2576,
2611,
2553,
2536,
2583,
2601,
2489,
2449,
2468,
2406,
2378,
2339,
2386,
2458,
2515,
2573,
2789,
3428,
5386,
12687,
30670,
56405,
71329,
59675,
34049,
13726,
4990,
2725,
2416,
2829,
4072,
6481,
9355,
10059,
8103,
5109,
3040,
2035,
1804,
1771,
1836,
1778,
1832,
1986,
2197,
3770,
8491,
19549,
36265,
47776,
44526,
29591,
14376,
5827,
2532,
1679,
1566,
1580,
1648,
1770,
2558,
4010,
6016,
7351,
7213,
5439,
3448,
2149,
1526,
1322,
1280,
1188,
1187,
1165,
1171,
1168,
1255,
1218,
1249,
1262,
1312,
1233,
1178,
1146,
1138,
1085,
1092,
1086,
1070,
1038,
1059,
1007,
1017,
1077,
1032,
1050,
1042,
1045,
1031,
993,
963,
998,
942,
901,
915,
980,
971,
945,
1013,
1025,
1132,
1291,
1316,
1232,
1191,
980,
946,
843,
891,
846,
885,
833,
827,
728,
748,
773,
748,
786,
734,
743,
767,
745,
747,
821,
798,
795,
729,
734,
697,
684,
741,
684,
723,
683,
737,
671,
705,
678,
690,
664,
640,
640,
651,
630,
579,
644,
625,
591,
605,
585,
615,
607,
563,
584,
576,
588,
581,
540,
572,
570,
536,
585,
577,
561,
568,
537,
534,
555,
515,
555,
511,
530,
501,
500,
499,
494,
492,
470,
456,
479,
457,
459,
470,
424,
458,
452,
439,
426,
421,
440,
391,
404,
419,
393,
415,
407,
411,
370,
367,
397,
365,
369,
379,
363,
354,
344,
404,
349,
361,
339,
340,
340,
337,
329,
294,
343,
345,
304,
311,
291,
292,
290,
297,
330,
271,
304,
303,
288,
301,
277,
270,
257,
285,
293,
299,
292,
242,
263,
231,
254,
241,
256,
237,
225,
251,
235,
222,
209,
218,
228,
222,
220,
203,
210,
186,
185,
194,
188,
189,
193,
195,
204,
191,
189,
181,
190,
193,
180,
172,
187,
196,
164,
171,
145,
157,
158,
141,
170,
131,
137,
133,
143,
133,
147,
145,
135,
126,
139,
122,
147,
130,
133,
149,
114,
114,
135,
125,
118,
113,
112,
112,
113,
102,
101,
108,
99,
101,
98,
93,
82,
94,
87,
95,
104,
86,
99,
86,
82,
77,
58,
64,
99,
76,
78,
65,
74,
66,
62,
57,
58,
72,
67,
67,
59,
53,
61,
45,
54,
48,
42,
47,
47,
47,
57,
49,
34,
27,
53,
36,
38,
29,
47,
34,
33,
36,
26,
28,
23,
27,
38,
31,
29,
26,
27,
23,
21,
20,
17,
18,
15,
18,
19,
16,
8,
11,
8,
11,
8,
10,
10,
6,
4,
9,
7,
3,
2,
2,
3,
1,
3,
1,
0,
0,
0,
1,
1,
0,
2,
2,
0,
1,
0,
1,
1,
0,
0,
0,
0,
0,
0,
2,
0,
2,
0,
1,
0,
2,
0,
0,
1,
0,
1,
1,
0,
1,
0,
1,
0,
1,
1,
0,
2,
1,
2,
0,
0,
0,
0,
0,
0,
1,
0,
0,
1,
0,
0,
1,
0,
0,
0,
0,
0,
1,
0,
0,
0,
0,
1,
0,
0,
0,
0,
1,
0,
0,
0,
0,
0,
0,
0,
1,
0,
0,
0,
0,
0,
0,
0,
0,
0,
0,
1,
0,
0,
0,
0,
1,
0,
0,
0,
0,
0,
0,
0,
0,
0,
0,
0,
0,
0,
0,
0,
0,
0,
0,
0,
0,
0,
0,
0,
0,
1,
0,
0,
0,
0,
0,
0,
0,
0,
0,
0,
0,
0,
0,
0,
1,
0,
0,
0,
0,
0,
0,
0,
0,
0,
0,
0,
0,
0,
0,
0,
0,
0,
0,
0,
0,
0,
2,
1,
0,
0,
0,
0,
0,
0,
0,
0,
0,
0,
0,
0,
0,
0,
0,
0,
0,
0,
0,
0,
0,
0,
0,
0,
1,
0,
0,
0,
0,
0,
0,
0,
0,
0,
0,
0,
0,
0,
0,
0,
0,
0,
0,
0,
0,
0,
0,
0,
0,
0,
0,
0,
0,
0,
0,
0,
0,
0,
0,
0,
0,
0,
0,
0,
0,
0,
0,
0,
0,
0,
0,
0,
0,
0,
0,
0,
0,
0,
0,
0,
0,
0,
0,
0,
0,
0,
0,
0,
0,
0,
0,
0,
0,
0,
0,
0,
0,
0,
0,
0,
0,
0,
0,
0,
0,
0,
0,
0,
0,
0,
0,
0,
0,
0,
0,
0,
0,
0,
0,
0,
0,
0,
0,
0,
0,
0,
0,
0,
0,
0,
0,
0,
0,
0,
0,
0,
0,
0,
0,
0,
0,
0,
0,
0,
0,
0,
0,
0,
0,
0,
0,
0,
0,
0,
0,
0,
0,
0,
0,
0,
0,
0,
0,
0,
0,
0,
0,
0,
0,
0,
0,
0,
0,
0,
0,
0,
0,
0,
0,
0,
0,
0,
0,
0,
0,
0,
0,
0,
0,
0,
0,
0,
0,
0,
0,
0,
0,
0,
0,
0,
0,
0,
0,
0,
0,
0,
0,
0,
0,
0,
0,
0,
0,
0,
0,
0,
0,
0,
0,
0,
0,
0,
0,
0,
0,
0,
0,
0,
0,
0,
0,
0,
0,
0,
0,
0,
0,
0,
0,
0,
0,
0,
0,
0,
0,
0,
0,
0,
0,
0,
0,
0,
0,
0,
0,
0,
0,
0,
0,
0,
0,
0,
0,
0,
0,
0,
0,
0,
0,
0,
0,
0,
0,
0,
0,
0,
0,
0,
0,
0,
0,
0,
0,
0,
0,
0,
0,
0,
0,
0,
0,
0,
0,
0,
0,
0,
0,
0,
0,
0,
0,
0,
0,
0,
0,
0,
0,
0,
0,
0,
0,
0,
0,
0,
0,
0,
0,
0,
0,
0,
0,
0,
0,
0,
0,
0,
0,
0,
0,
0,
0,
0,
0,
0,
0,
0,
0,
0,
0,
0,
0,
0,
0,
0,
0,
0,
0,
0,
0,
0,
0,
0,
0,
0,
0,
0,
0,
0,
0,
0,
0,
0,
0,
0,
0,
0,
0,
0,
0,
0,
0,
0,
0,
0,
0,
0,
0,
0,
0,
0,
0,
0,
0,
0,
0,
0,
0,
0,
0,
0,
0,
0,
0,
0,
0,
0,
0,
0,
0,
0,
0,
0,
0,
0,
0,
0,
0,
0,
0,
0,
0,
0,
0,
0,
0,
0,
0,
0,
0,
0,
0,
0,
0,
0,
0,
0,
0,
0,
0,
0,
0,
0,
0,
0,
0,
0,
0,
0,
0,
0,
0,
0,
0,
0,
0,
0,
0,
0,
0,
0,
0,
0,
0,
0,
0,
0,
0,
0,
0,
0,
0,
0,
0,
0,
0,
0,
0,
0,
0,
0,
0,
0,
0,
0,
0,
0,
0,
0,
0,
0,
0,
0,
0,
0,
0,
0,
0,
0,
0,
0,
0,
0,
0,
0,
0,
0,
0,
0,
0,
0,
0,
0,
0,
0,
0,
0,
0,
0,
0,
0,
0,
0,
0,
0,
0,
0,
0,
0,
0,
0,
0,
0,
0,
0,
0,
0,
0,
0,
0,
0,
0,
0,
0,
0,
0,
0,
0,
0,
0,
0,
0,
0,
0,
0,
0,
0,
0,
0,
0,
0,
0,
0,
0,
0,
0,
0,
0,
0,
0,
0,
0,
0,
0,
0,
0,
0,
0,
0,
0,
0,
0,
0,
0,
0,
0,
0,
0,
0,
0,
0,
0,
0,
0,
0,
0,
0,
0,
0,
0,
0,
0,
0,
0,
0,
0,
0,
0,
0,
0,
0,
0,
0,
0,
0,
0,
0,
0,
0,
0,
0,
0,
0,
0,
0,
0,
0,
0,
0,
0,
0,
0,
0,
0,
0,
0,
0,
0,
0,
0,
0,
0,
0,
0,
0,
0,
0,
0,
0,
0,
0,
0,
0,
0,
0,
0,
0,
0,
0,
0,
0,
0,
0,
0,
0,
0,
0,
0,
0,
0,
0,
0,
0,
0,
0,
0,
0,
0,
0,
0,
0,
0,
0,
0,
0,
0,
0,
0,
0,
0,
0,
0,
0,
0,
0,
0,
0,
0,
0,
0,
0,
0,
0,
0,
0,
0,
0,
0,
0,
0,
0,
0,
0,
0,
0,
0,
#ENDOFDATA   :