File: N132962/Quantification/15 keV/Mengason MM2/MMM2 Olivine[6][4].msa
#FORMAT      : EMSA/MAS Spectral Data File
#VERSION     : 1.0
#TITLE       : MMM2 Olivine[6][all]
#DATE        : 28-SEP-2025
#TIME        : 23:08
#OWNER       : Unknown
#NPOINTS     : 4096
#NCOLUMNS    : 1
#XUNITS      : eV
#YUNITS      : counts
#DATATYPE    : Y
#XPERCHAN    : 9.99778
#OFFSET      : 1.69135
#BEAMKV      : 15
#SIGNALTYPE  : EDS
#ELEVANGLE   : 35
#AZIMANGLE   : 0
#LIVETIME    : 240.132
#REALTIME    : 257.904
#PROBECUR    : 1.2132
#TAUWIND     : 0
#TDEADLYR    : 0
#TACTLYR     : 0.045
#TALWIND     : 0.025
#CHOFFSET    : 0.0
#XLABEL      : Energy (eV)
#YLABEL      : Counts
#XPOSITION   : -21.38342
#YPOSITION   : 2.50753
#ZPOSITION   : 34.11879
#EDSDET      : SD
##SPECIMEN   : MMM2 Olivine[6][all]
##DET_HASH   : 12273538-fd48-a23f-0a19-f1e6fa85caef
##CALIB_HASH : 6abaa72c-aa41-8738-0be9-f592914732f3
##WORKING    : 15.0 mm
##DET_NAME   : EDAX All
##DET_MODE   : MediumLE
#SPECTRUM    :
29,
26,
10,
19,
105,
370,
1136,
3718,
10585,
13349,
7015,
3808,
4245,
5432,
10538,
38923,
146961,
279335,
204149,
53448,
8421,
4415,
6083,
10077,
10194,
6078,
4213,
4167,
4475,
4466,
4232,
4214,
4584,
4886,
5331,
5777,
6012,
6584,
8781,
22108,
86169,
215416,
260577,
144753,
40595,
8637,
4101,
3419,
3450,
3797,
3885,
3780,
3988,
4052,
4716,
11354,
40375,
102512,
138931,
99071,
40453,
14467,
7387,
3938,
2893,
2513,
2461,
2499,
2510,
2417,
2528,
2496,
2475,
2641,
2822,
3010,
2885,
2696,
2668,
2458,
2452,
2419,
2553,
2701,
2730,
2552,
2407,
2179,
2261,
2344,
2235,
2224,
2163,
2212,
2196,
2153,
2089,
2188,
2289,
2428,
2488,
2305,
2132,
2024,
1933,
1958,
1866,
1908,
1887,
1798,
1830,
1821,
1904,
1867,
1887,
1825,
1899,
1814,
1688,
1679,
1685,
1719,
1640,
1615,
1669,
1576,
1554,
1643,
1563,
1530,
1492,
1429,
1530,
1405,
1496,
1441,
1412,
1461,
1500,
1411,
1313,
1444,
1373,
1373,
1298,
1355,
1339,
1324,
1275,
1335,
1278,
1245,
1281,
1254,
1265,
1236,
1194,
1211,
1175,
1138,
1215,
1133,
1122,
1137,
1110,
1115,
1127,
1090,
1051,
1073,
1058,
1007,
970,
1023,
1009,
993,
985,
954,
997,
980,
1004,
1015,
1004,
899,
940,
886,
896,
879,
901,
894,
863,
882,
893,
936,
939,
921,
868,
951,
898,
831,
829,
815,
807,
801,
751,
782,
768,
847,
912,
1301,
2127,
3646,
5459,
6480,
6046,
4585,
2874,
1527,
983,
742,
708,
669,
652,
700,
660,
637,
626,
680,
640,
640,
733,
749,
843,
1074,
1275,
1310,
1252,
1027,
810,
707,
621,
568,
551,
579,
555,
573,
565,
654,
689,
664,
668,
635,
574,
554,
561,
520,
486,
465,
464,
486,
484,
464,
417,
468,
487,
464,
434,
475,
425,
450,
448,
407,
414,
412,
454,
422,
441,
426,
454,
371,
376,
389,
368,
388,
397,
386,
389,
363,
355,
351,
358,
338,
378,
366,
348,
348,
350,
348,
308,
313,
341,
324,
314,
307,
298,
286,
293,
288,
296,
308,
327,
305,
299,
281,
306,
240,
282,
274,
278,
277,
290,
281,
236,
267,
274,
278,
265,
243,
246,
247,
231,
226,
216,
264,
226,
217,
223,
205,
191,
241,
227,
209,
197,
205,
225,
175,
205,
186,
204,
184,
186,
176,
192,
163,
197,
161,
163,
179,
163,
181,
178,
177,
164,
145,
157,
154,
160,
150,
147,
152,
136,
167,
160,
151,
135,
120,
128,
114,
126,
128,
108,
136,
127,
130,
117,
112,
120,
127,
127,
107,
113,
117,
107,
101,
120,
120,
97,
92,
104,
96,
99,
93,
93,
91,
93,
89,
99,
102,
88,
90,
99,
75,
76,
72,
73,
70,
55,
78,
71,
78,
69,
72,
77,
64,
63,
69,
59,
58,
59,
47,
71,
56,
65,
49,
61,
58,
54,
44,
45,
31,
47,
48,
39,
42,
40,
43,
31,
37,
37,
41,
27,
40,
31,
33,
38,
39,
28,
28,
29,
21,
29,
29,
26,
22,
31,
21,
23,
20,
18,
17,
20,
17,
14,
19,
16,
21,
17,
14,
18,
15,
14,
15,
12,
12,
12,
13,
6,
9,
4,
5,
5,
8,
3,
4,
3,
1,
1,
1,
1,
3,
1,
1,
0,
1,
0,
0,
0,
0,
0,
0,
0,
0,
1,
0,
0,
0,
0,
0,
0,
0,
0,
0,
2,
0,
0,
0,
0,
0,
0,
0,
0,
0,
1,
0,
0,
0,
0,
0,
0,
0,
1,
1,
0,
0,
0,
0,
0,
0,
0,
0,
0,
0,
0,
0,
0,
0,
0,
0,
0,
0,
0,
0,
0,
0,
0,
0,
0,
0,
0,
0,
0,
1,
0,
0,
0,
0,
0,
0,
0,
0,
0,
0,
0,
0,
0,
0,
0,
0,
0,
0,
0,
0,
0,
0,
0,
0,
0,
0,
0,
0,
0,
0,
0,
0,
0,
0,
0,
0,
0,
0,
1,
0,
0,
0,
0,
0,
0,
0,
0,
0,
0,
0,
0,
0,
0,
0,
0,
0,
0,
0,
0,
0,
0,
0,
0,
0,
0,
0,
0,
0,
0,
0,
0,
0,
0,
0,
0,
0,
0,
0,
0,
0,
0,
0,
0,
0,
0,
0,
0,
0,
0,
0,
0,
0,
0,
0,
0,
0,
0,
0,
0,
0,
0,
0,
0,
0,
0,
0,
0,
0,
0,
0,
0,
0,
0,
0,
0,
0,
0,
0,
0,
0,
0,
0,
0,
0,
0,
1,
0,
0,
0,
0,
0,
0,
0,
0,
0,
0,
0,
0,
0,
0,
0,
0,
0,
0,
0,
0,
0,
0,
0,
0,
0,
0,
0,
0,
0,
0,
0,
0,
0,
0,
0,
0,
0,
0,
0,
0,
0,
0,
0,
0,
0,
0,
0,
0,
0,
0,
0,
0,
0,
0,
0,
0,
0,
0,
0,
0,
0,
0,
0,
0,
0,
0,
0,
0,
0,
0,
0,
0,
0,
0,
0,
0,
0,
0,
0,
0,
0,
0,
0,
0,
0,
0,
0,
0,
0,
0,
0,
0,
0,
0,
0,
0,
0,
0,
0,
0,
0,
0,
0,
0,
0,
0,
0,
0,
0,
0,
0,
0,
0,
0,
0,
0,
0,
0,
0,
0,
0,
0,
0,
0,
0,
0,
0,
0,
0,
0,
0,
0,
0,
1,
0,
0,
0,
0,
0,
0,
0,
0,
0,
0,
0,
0,
0,
0,
0,
0,
0,
0,
0,
0,
0,
0,
0,
0,
0,
0,
0,
0,
0,
0,
0,
0,
0,
0,
0,
0,
0,
0,
0,
0,
0,
0,
0,
0,
0,
0,
0,
0,
0,
0,
0,
0,
0,
0,
0,
0,
0,
0,
0,
0,
0,
0,
0,
0,
0,
0,
0,
0,
0,
0,
0,
0,
0,
0,
0,
0,
0,
0,
0,
0,
0,
0,
0,
0,
0,
0,
0,
0,
0,
0,
0,
0,
0,
0,
0,
0,
0,
0,
0,
0,
0,
0,
0,
0,
0,
0,
0,
0,
0,
0,
0,
0,
0,
0,
0,
0,
0,
0,
0,
0,
0,
0,
0,
0,
0,
0,
0,
0,
0,
0,
0,
0,
0,
0,
0,
0,
0,
0,
0,
0,
0,
0,
0,
0,
0,
0,
0,
0,
0,
0,
0,
0,
0,
0,
0,
0,
0,
0,
0,
0,
0,
0,
0,
0,
0,
0,
0,
0,
0,
0,
0,
0,
0,
0,
0,
0,
0,
0,
0,
0,
0,
0,
0,
0,
0,
0,
0,
0,
0,
0,
0,
0,
0,
0,
0,
0,
0,
0,
0,
0,
0,
0,
0,
0,
0,
0,
0,
0,
0,
0,
0,
0,
0,
0,
0,
0,
0,
0,
0,
0,
0,
0,
0,
0,
0,
0,
0,
0,
0,
0,
0,
0,
0,
0,
0,
0,
0,
0,
0,
0,
0,
0,
0,
0,
0,
0,
0,
0,
0,
0,
0,
0,
0,
0,
0,
0,
0,
0,
0,
0,
0,
0,
0,
0,
0,
0,
0,
0,
0,
0,
0,
0,
0,
0,
0,
0,
0,
0,
0,
0,
0,
0,
0,
0,
0,
0,
0,
0,
0,
0,
0,
0,
0,
0,
0,
0,
0,
0,
0,
0,
0,
0,
0,
0,
0,
0,
0,
0,
0,
0,
0,
0,
0,
0,
0,
0,
0,
0,
0,
0,
0,
0,
0,
0,
0,
0,
0,
0,
0,
0,
0,
0,
0,
0,
0,
0,
0,
0,
0,
0,
0,
0,
0,
0,
0,
0,
0,
0,
0,
0,
0,
0,
0,
0,
0,
0,
0,
0,
0,
0,
0,
0,
0,
0,
0,
0,
0,
0,
0,
0,
0,
0,
0,
0,
0,
0,
0,
0,
0,
0,
0,
0,
0,
0,
0,
0,
0,
0,
0,
0,
0,
0,
0,
0,
0,
0,
0,
0,
0,
0,
0,
0,
0,
0,
0,
0,
0,
0,
0,
0,
0,
0,
0,
0,
0,
0,
0,
0,
0,
0,
0,
0,
0,
0,
0,
0,
0,
0,
0,
0,
0,
0,
0,
0,
0,
0,
0,
0,
0,
0,
0,
0,
0,
0,
0,
0,
0,
0,
0,
0,
0,
0,
0,
0,
0,
0,
0,
0,
0,
0,
0,
0,
0,
0,
0,
0,
0,
0,
0,
0,
0,
0,
0,
0,
0,
0,
0,
0,
0,
0,
0,
0,
0,
0,
0,
0,
0,
0,
0,
0,
0,
0,
0,
0,
0,
0,
0,
0,
0,
0,
0,
0,
0,
0,
0,
0,
0,
0,
0,
0,
0,
0,
0,
0,
0,
0,
0,
0,
0,
0,
0,
0,
0,
0,
0,
0,
0,
0,
0,
0,
0,
0,
0,
0,
#ENDOFDATA   :