File: N132962/Quantification/15 keV/Mengason MM2/MMM2 Pollucite[0][4].msa
#FORMAT      : EMSA/MAS Spectral Data File
#VERSION     : 1.0
#TITLE       : MMM2 Pollucite[0][all]
#DATE        : 29-SEP-2025
#TIME        : 00:34
#OWNER       : Unknown
#NPOINTS     : 4096
#NCOLUMNS    : 1
#XUNITS      : eV
#YUNITS      : counts
#DATATYPE    : Y
#XPERCHAN    : 9.99778
#OFFSET      : 1.69135
#BEAMKV      : 15
#SIGNALTYPE  : EDS
#ELEVANGLE   : 35
#AZIMANGLE   : 0
#LIVETIME    : 240.213
#REALTIME    : 257.452
#PROBECUR    : 1.21186
#TAUWIND     : 0
#TDEADLYR    : 0
#TACTLYR     : 0.045
#TALWIND     : 0.025
#CHOFFSET    : 0.0
#XLABEL      : Energy (eV)
#YLABEL      : Counts
#XPOSITION   : -20.66644
#YPOSITION   : 3.82885
#ZPOSITION   : 34.11879
#EDSDET      : SD
##SPECIMEN   : MMM2 Pollucite[0][all]
##DET_HASH   : 12273538-fd48-a23f-0a19-f1e6fa85caef
##CALIB_HASH : 6abaa72c-aa41-8738-0be9-f592914732f3
##WORKING    : 15.0 mm
##DET_NAME   : EDAX All
##DET_MODE   : MediumLE
#SPECTRUM    :
13,
21,
10,
20,
130,
533,
1608,
5087,
13763,
17277,
9616,
5530,
5664,
7031,
11533,
36308,
130212,
246080,
181308,
51772,
9737,
4634,
4947,
6064,
6970,
6177,
5005,
4377,
4671,
5032,
5829,
6437,
6671,
8372,
11944,
12351,
8493,
5523,
4966,
5082,
5159,
5362,
5379,
5515,
5704,
5952,
6647,
12173,
32600,
61416,
61974,
34278,
13938,
7920,
7166,
14096,
46761,
115655,
156708,
111209,
46368,
17341,
9007,
5655,
4279,
4089,
4238,
4588,
4351,
3990,
3894,
3892,
3913,
3993,
4184,
4297,
4334,
4078,
3981,
3813,
3678,
3730,
3802,
3817,
3867,
3926,
3799,
3686,
3608,
3514,
3644,
3452,
3489,
3458,
3559,
3499,
3449,
3470,
3239,
3324,
3361,
3302,
3279,
3208,
3215,
3178,
3140,
3275,
3259,
3268,
3239,
3160,
3105,
2996,
2898,
2972,
2998,
3050,
3016,
2891,
2779,
2745,
2906,
2726,
2975,
3418,
3809,
3893,
3392,
3097,
2752,
2652,
2626,
2525,
2607,
2611,
2752,
2976,
3620,
5040,
9540,
18888,
29781,
33828,
27529,
16206,
7813,
3884,
2703,
2631,
3094,
5010,
8883,
13774,
16578,
15675,
11804,
8509,
5931,
4271,
3314,
3256,
3936,
5182,
6602,
6797,
5463,
3871,
2632,
2153,
2013,
1877,
1947,
2381,
2763,
3405,
3619,
3450,
2731,
2198,
1858,
1806,
1941,
2172,
2370,
2431,
2197,
1950,
1780,
1694,
1687,
1662,
1543,
1504,
1520,
1477,
1501,
1478,
1418,
1366,
1490,
1398,
1402,
1420,
1436,
1416,
1403,
1353,
1316,
1305,
1406,
1387,
1359,
1377,
1342,
1355,
1277,
1257,
1185,
1200,
1262,
1253,
1254,
1227,
1171,
1198,
1121,
1128,
1172,
1121,
1109,
1110,
1160,
1089,
1141,
1106,
1082,
1018,
1065,
1082,
1081,
1051,
1061,
1026,
997,
1031,
1014,
1021,
990,
975,
1036,
1012,
967,
970,
965,
930,
993,
916,
962,
894,
935,
894,
869,
895,
910,
875,
829,
885,
901,
820,
865,
847,
835,
783,
811,
812,
816,
836,
808,
767,
823,
820,
767,
746,
763,
750,
739,
789,
736,
671,
721,
718,
704,
662,
705,
675,
688,
689,
684,
643,
673,
657,
618,
633,
619,
590,
613,
607,
642,
627,
634,
549,
573,
593,
609,
580,
563,
592,
552,
515,
506,
556,
537,
561,
568,
530,
540,
542,
486,
494,
495,
499,
492,
506,
494,
460,
482,
439,
481,
477,
498,
446,
414,
476,
452,
429,
415,
417,
439,
409,
368,
398,
370,
418,
408,
371,
424,
349,
396,
345,
358,
373,
320,
344,
326,
378,
360,
345,
349,
322,
336,
318,
316,
312,
316,
317,
327,
314,
273,
278,
285,
286,
304,
259,
243,
310,
304,
243,
278,
263,
253,
248,
257,
223,
232,
224,
242,
241,
202,
221,
214,
186,
216,
218,
240,
183,
191,
199,
209,
182,
205,
171,
180,
161,
169,
180,
195,
157,
170,
164,
142,
178,
158,
150,
121,
144,
144,
136,
155,
129,
122,
157,
132,
138,
121,
127,
101,
132,
124,
94,
91,
122,
121,
114,
101,
96,
90,
102,
88,
97,
97,
107,
84,
91,
76,
92,
82,
68,
66,
62,
60,
65,
71,
57,
56,
41,
44,
50,
49,
45,
39,
58,
40,
46,
48,
50,
34,
43,
34,
36,
23,
39,
29,
33,
34,
30,
16,
23,
17,
8,
24,
15,
10,
4,
6,
10,
9,
10,
3,
5,
3,
1,
1,
1,
0,
0,
1,
0,
3,
0,
1,
1,
0,
0,
0,
1,
0,
0,
1,
0,
0,
0,
0,
0,
0,
0,
0,
2,
1,
0,
1,
0,
1,
0,
1,
1,
0,
0,
1,
0,
0,
1,
0,
0,
0,
1,
1,
0,
0,
0,
0,
0,
1,
0,
0,
0,
0,
0,
0,
0,
0,
0,
1,
0,
0,
0,
0,
0,
1,
1,
1,
0,
0,
0,
1,
0,
0,
0,
1,
0,
0,
0,
0,
0,
0,
0,
1,
0,
0,
1,
0,
0,
1,
1,
0,
1,
0,
0,
0,
0,
0,
0,
0,
0,
0,
0,
1,
0,
0,
0,
0,
1,
0,
0,
0,
0,
0,
0,
0,
0,
0,
0,
0,
0,
1,
0,
0,
0,
1,
0,
0,
0,
0,
0,
0,
0,
0,
1,
0,
0,
0,
0,
0,
0,
0,
0,
1,
0,
0,
0,
1,
0,
0,
0,
0,
1,
0,
0,
0,
0,
0,
0,
0,
2,
0,
0,
0,
0,
0,
1,
0,
0,
0,
0,
0,
0,
0,
0,
0,
0,
0,
0,
0,
0,
0,
2,
0,
0,
0,
0,
0,
0,
0,
0,
0,
0,
0,
0,
0,
0,
0,
0,
0,
0,
0,
0,
0,
0,
0,
0,
0,
0,
0,
0,
0,
0,
0,
0,
0,
0,
0,
0,
0,
0,
0,
0,
0,
0,
0,
0,
0,
0,
0,
0,
0,
0,
0,
1,
0,
0,
0,
0,
0,
0,
0,
0,
0,
0,
0,
0,
0,
0,
0,
0,
0,
0,
0,
0,
0,
0,
0,
0,
0,
0,
0,
0,
0,
0,
0,
0,
0,
0,
0,
0,
0,
0,
0,
0,
0,
0,
0,
0,
0,
0,
0,
0,
0,
0,
0,
0,
0,
0,
0,
0,
0,
0,
0,
0,
0,
1,
0,
0,
0,
0,
0,
0,
0,
0,
0,
0,
0,
0,
0,
0,
0,
0,
0,
0,
0,
0,
0,
0,
0,
0,
0,
0,
0,
0,
0,
0,
0,
0,
0,
0,
0,
0,
0,
0,
0,
0,
0,
0,
0,
0,
0,
0,
0,
0,
0,
0,
0,
0,
0,
0,
0,
0,
0,
0,
0,
0,
0,
0,
0,
0,
0,
0,
0,
0,
0,
0,
0,
0,
0,
0,
0,
0,
0,
0,
0,
0,
0,
0,
0,
0,
0,
0,
0,
0,
0,
0,
0,
0,
0,
0,
0,
0,
0,
0,
0,
0,
0,
0,
0,
0,
0,
0,
0,
0,
0,
0,
0,
0,
0,
0,
0,
0,
0,
0,
0,
0,
0,
0,
0,
0,
0,
0,
0,
0,
0,
0,
0,
0,
0,
0,
0,
0,
0,
0,
0,
0,
0,
0,
0,
0,
0,
0,
0,
0,
0,
0,
0,
0,
0,
0,
0,
0,
0,
0,
0,
0,
0,
0,
0,
0,
0,
0,
0,
0,
0,
0,
0,
0,
0,
0,
0,
0,
0,
0,
0,
0,
0,
0,
0,
0,
0,
0,
0,
0,
0,
0,
0,
0,
0,
0,
0,
0,
0,
0,
0,
0,
0,
0,
0,
0,
0,
0,
0,
0,
0,
0,
0,
0,
0,
0,
0,
0,
0,
0,
0,
0,
0,
0,
0,
0,
0,
0,
0,
0,
0,
0,
0,
0,
0,
0,
0,
0,
0,
0,
0,
0,
0,
0,
0,
0,
0,
0,
0,
0,
0,
0,
0,
0,
0,
0,
0,
0,
0,
0,
0,
0,
0,
0,
0,
0,
0,
0,
0,
0,
0,
0,
0,
0,
0,
0,
0,
0,
0,
0,
0,
0,
0,
0,
0,
0,
0,
0,
0,
0,
0,
0,
0,
0,
0,
0,
0,
0,
0,
0,
0,
0,
0,
0,
0,
0,
0,
0,
0,
0,
0,
0,
0,
0,
0,
0,
0,
0,
0,
0,
0,
0,
0,
0,
0,
0,
0,
0,
0,
0,
0,
0,
0,
0,
0,
0,
0,
0,
0,
0,
0,
0,
0,
0,
0,
0,
0,
0,
0,
0,
0,
0,
0,
0,
0,
0,
0,
0,
0,
0,
0,
0,
0,
0,
0,
0,
0,
0,
0,
0,
0,
0,
0,
0,
0,
0,
0,
0,
0,
0,
0,
0,
0,
0,
0,
0,
0,
0,
0,
0,
0,
0,
0,
0,
0,
0,
0,
0,
0,
0,
0,
0,
0,
0,
0,
0,
0,
0,
0,
0,
0,
0,
0,
0,
0,
0,
0,
0,
0,
0,
0,
0,
0,
0,
0,
0,
0,
0,
0,
0,
0,
0,
0,
0,
0,
0,
0,
0,
0,
0,
0,
0,
0,
0,
0,
0,
0,
0,
0,
0,
0,
0,
0,
0,
0,
0,
0,
0,
0,
0,
0,
0,
0,
0,
0,
0,
0,
0,
0,
0,
0,
0,
0,
0,
0,
0,
0,
0,
0,
0,
0,
0,
0,
0,
0,
0,
0,
0,
0,
0,
0,
0,
0,
0,
0,
0,
0,
0,
0,
0,
0,
0,
0,
0,
0,
0,
0,
0,
0,
0,
0,
0,
0,
0,
0,
0,
0,
0,
0,
0,
0,
0,
0,
0,
0,
0,
0,
0,
0,
0,
0,
0,
0,
0,
0,
0,
0,
0,
0,
0,
0,
0,
0,
0,
0,
0,
0,
0,
0,
0,
0,
0,
0,
0,
0,
0,
0,
0,
0,
0,
0,
0,
0,
0,
0,
0,
0,
0,
#ENDOFDATA   :