File: N132962/Quantification/15 keV/Mengason MM2/MMM2 Willemite[5][4].msa
#FORMAT      : EMSA/MAS Spectral Data File
#VERSION     : 1.0
#TITLE       : MMM2 Willemite[5][all]
#DATE        : 28-SEP-2025
#TIME        : 23:48
#OWNER       : Unknown
#NPOINTS     : 4096
#NCOLUMNS    : 1
#XUNITS      : eV
#YUNITS      : counts
#DATATYPE    : Y
#XPERCHAN    : 9.99778
#OFFSET      : 1.69135
#BEAMKV      : 15
#SIGNALTYPE  : EDS
#ELEVANGLE   : 35
#AZIMANGLE   : 0
#LIVETIME    : 240.243
#REALTIME    : 257.954
#PROBECUR    : 1.21079
#TAUWIND     : 0
#TDEADLYR    : 0
#TACTLYR     : 0.045
#TALWIND     : 0.025
#CHOFFSET    : 0.0
#XLABEL      : Energy (eV)
#YLABEL      : Counts
#XPOSITION   : -11.58969
#YPOSITION   : 2.2532
#ZPOSITION   : 34.11879
#EDSDET      : SD
##SPECIMEN   : MMM2 Willemite[5][all]
##DET_HASH   : 12273538-fd48-a23f-0a19-f1e6fa85caef
##CALIB_HASH : 6abaa72c-aa41-8738-0be9-f592914732f3
##WORKING    : 15.0 mm
##DET_NAME   : EDAX All
##DET_MODE   : MediumLE
#SPECTRUM    :
26,
34,
13,
17,
125,
510,
1483,
4958,
13797,
17560,
9436,
4872,
4728,
5996,
9189,
26866,
92396,
172529,
126218,
36046,
10111,
9488,
8606,
6895,
6285,
6579,
6966,
8897,
14520,
22790,
24673,
29388,
82855,
207920,
257788,
148670,
44278,
10950,
5391,
4149,
4199,
4716,
5079,
4688,
4221,
4169,
4272,
4543,
4589,
4781,
5397,
5607,
5398,
5364,
5634,
9458,
27115,
64196,
86294,
62117,
27089,
11253,
6855,
5004,
4225,
3981,
4174,
4379,
4389,
4107,
3990,
4034,
3945,
4056,
4040,
4169,
4136,
4040,
3948,
3795,
3826,
3860,
3726,
3816,
3700,
3795,
3737,
3762,
3776,
3748,
3779,
3806,
3916,
3805,
3648,
3603,
3481,
3498,
3375,
3316,
3316,
3428,
3301,
3292,
3271,
3257,
3104,
3327,
3086,
3087,
3178,
3015,
3083,
2938,
2963,
2979,
2980,
2903,
2956,
2947,
2840,
2872,
2706,
2772,
2832,
2802,
2690,
2727,
2771,
2708,
2684,
2628,
2710,
2592,
2576,
2555,
2491,
2558,
2482,
2520,
2459,
2346,
2416,
2415,
2390,
2328,
2328,
2263,
2284,
2180,
2341,
2174,
2125,
2166,
2056,
2047,
2070,
2164,
2115,
2041,
2035,
2047,
1988,
1964,
1889,
2011,
2094,
1878,
1833,
1904,
1986,
1850,
1908,
1862,
1835,
1854,
1860,
1825,
1828,
1765,
1731,
1726,
1707,
1618,
1598,
1751,
1609,
1693,
1671,
1635,
1667,
1618,
1898,
2696,
4063,
5931,
7314,
7142,
5800,
3897,
2502,
1737,
1496,
1485,
1426,
1499,
1406,
1450,
1432,
1387,
1390,
1460,
1530,
1699,
1845,
2017,
2096,
2002,
1802,
1547,
1359,
1295,
1198,
1289,
1243,
1152,
1278,
1228,
1142,
1171,
1183,
1141,
1145,
1194,
1128,
1099,
1149,
1081,
1048,
1065,
1078,
1094,
1035,
1091,
1031,
1065,
1015,
980,
984,
1035,
976,
986,
1014,
942,
947,
959,
946,
965,
940,
938,
879,
898,
902,
900,
889,
824,
854,
829,
826,
874,
785,
843,
865,
799,
833,
842,
804,
793,
804,
834,
893,
1084,
1568,
2912,
5732,
9756,
14719,
17777,
17728,
14734,
10190,
5873,
3117,
1504,
935,
778,
713,
642,
650,
677,
639,
714,
702,
644,
694,
652,
655,
658,
604,
579,
649,
624,
689,
656,
881,
1169,
1682,
2238,
2757,
2811,
2505,
2119,
1533,
1020,
688,
559,
480,
475,
468,
537,
491,
444,
462,
444,
439,
425,
442,
410,
407,
436,
430,
412,
432,
408,
404,
410,
392,
417,
383,
413,
434,
389,
394,
415,
388,
385,
371,
372,
342,
361,
372,
344,
347,
349,
318,
322,
293,
309,
351,
333,
308,
302,
317,
284,
306,
294,
290,
274,
281,
273,
284,
274,
277,
290,
271,
277,
220,
247,
220,
239,
212,
238,
242,
230,
222,
196,
215,
219,
235,
197,
218,
195,
178,
219,
180,
190,
228,
199,
192,
184,
151,
186,
147,
168,
172,
159,
142,
171,
148,
149,
157,
149,
141,
148,
142,
132,
148,
154,
136,
125,
126,
125,
125,
113,
101,
111,
94,
112,
123,
109,
104,
105,
92,
91,
99,
96,
98,
100,
59,
90,
76,
84,
90,
73,
60,
65,
68,
65,
79,
65,
49,
61,
50,
65,
62,
52,
37,
51,
42,
51,
42,
47,
46,
47,
33,
34,
29,
34,
38,
30,
28,
29,
31,
29,
29,
31,
27,
8,
16,
24,
10,
14,
13,
14,
7,
8,
7,
2,
3,
1,
6,
2,
3,
0,
1,
2,
1,
1,
0,
1,
1,
0,
0,
1,
1,
1,
0,
1,
1,
0,
1,
0,
0,
1,
1,
0,
0,
1,
1,
2,
1,
2,
0,
1,
1,
1,
0,
0,
1,
0,
1,
0,
0,
0,
3,
0,
0,
1,
1,
0,
0,
0,
2,
1,
0,
0,
0,
1,
0,
0,
0,
0,
1,
0,
0,
2,
1,
1,
0,
2,
3,
1,
1,
3,
2,
4,
1,
2,
3,
1,
3,
2,
0,
1,
0,
0,
0,
1,
1,
0,
0,
1,
0,
0,
0,
0,
1,
0,
0,
1,
0,
0,
2,
3,
1,
0,
1,
0,
1,
0,
1,
0,
3,
0,
2,
0,
0,
1,
0,
0,
0,
0,
1,
0,
0,
2,
0,
0,
0,
0,
1,
0,
0,
0,
0,
0,
2,
1,
0,
0,
0,
0,
0,
0,
0,
0,
1,
0,
0,
0,
0,
0,
0,
0,
1,
1,
1,
0,
0,
0,
2,
0,
0,
0,
0,
0,
0,
1,
0,
0,
0,
0,
1,
1,
0,
0,
0,
0,
0,
0,
0,
0,
0,
0,
0,
0,
0,
0,
0,
0,
0,
0,
0,
0,
0,
0,
0,
0,
1,
0,
0,
1,
1,
0,
0,
0,
0,
1,
0,
0,
0,
0,
0,
0,
0,
0,
0,
0,
1,
0,
0,
0,
0,
0,
0,
0,
0,
0,
0,
0,
0,
0,
0,
0,
0,
0,
0,
0,
0,
0,
0,
0,
0,
0,
0,
0,
0,
0,
0,
0,
0,
0,
0,
0,
0,
0,
0,
0,
0,
0,
0,
0,
0,
0,
0,
0,
0,
0,
0,
0,
1,
0,
0,
0,
0,
0,
0,
0,
0,
0,
0,
0,
0,
0,
0,
0,
0,
0,
0,
0,
0,
0,
0,
0,
0,
0,
0,
0,
0,
0,
0,
0,
0,
0,
0,
0,
0,
0,
0,
0,
0,
0,
0,
0,
0,
0,
0,
0,
0,
0,
0,
0,
0,
0,
0,
0,
0,
0,
0,
0,
0,
0,
0,
0,
0,
0,
0,
0,
0,
0,
0,
0,
0,
0,
0,
0,
0,
0,
0,
0,
0,
0,
0,
0,
0,
0,
0,
0,
0,
0,
0,
0,
0,
0,
0,
0,
0,
0,
0,
0,
0,
0,
0,
0,
0,
0,
0,
0,
0,
0,
0,
0,
0,
0,
0,
0,
0,
0,
1,
0,
0,
0,
0,
0,
0,
0,
0,
0,
0,
0,
0,
0,
0,
0,
0,
0,
0,
0,
0,
0,
0,
0,
0,
0,
0,
0,
0,
0,
0,
0,
0,
0,
0,
0,
0,
0,
0,
0,
0,
0,
0,
0,
0,
0,
0,
0,
0,
0,
0,
0,
0,
0,
0,
0,
0,
0,
0,
0,
0,
0,
0,
0,
0,
0,
0,
0,
0,
0,
0,
0,
0,
0,
0,
0,
0,
0,
0,
0,
0,
0,
0,
0,
0,
0,
0,
0,
0,
0,
0,
0,
0,
0,
0,
0,
0,
0,
0,
0,
0,
0,
0,
0,
0,
0,
0,
0,
0,
0,
0,
0,
0,
0,
0,
0,
0,
0,
0,
0,
0,
0,
0,
0,
0,
0,
0,
0,
0,
0,
0,
0,
0,
0,
0,
0,
0,
0,
0,
0,
0,
0,
0,
0,
0,
0,
0,
0,
0,
0,
0,
0,
0,
0,
0,
0,
0,
0,
0,
0,
0,
0,
0,
0,
0,
0,
0,
0,
0,
0,
0,
0,
0,
0,
0,
0,
0,
0,
0,
0,
0,
0,
0,
0,
0,
0,
0,
0,
0,
0,
0,
0,
0,
0,
0,
0,
0,
0,
0,
0,
0,
0,
0,
0,
0,
0,
0,
0,
0,
0,
0,
0,
0,
0,
0,
0,
0,
0,
0,
0,
0,
0,
0,
0,
0,
0,
0,
0,
0,
0,
0,
0,
0,
0,
0,
0,
0,
0,
0,
0,
0,
0,
0,
0,
0,
0,
0,
0,
0,
0,
0,
0,
0,
0,
0,
0,
0,
0,
0,
0,
0,
0,
0,
0,
0,
0,
0,
0,
0,
0,
0,
0,
0,
0,
0,
0,
0,
0,
0,
0,
0,
0,
0,
0,
0,
0,
0,
0,
0,
0,
0,
0,
0,
0,
0,
0,
0,
0,
0,
0,
0,
0,
0,
0,
0,
0,
0,
0,
0,
0,
0,
0,
0,
0,
0,
0,
0,
0,
0,
0,
0,
0,
0,
0,
0,
0,
0,
0,
0,
0,
0,
0,
0,
0,
0,
0,
0,
0,
0,
0,
0,
0,
0,
0,
0,
0,
0,
0,
0,
0,
0,
0,
0,
0,
0,
0,
0,
0,
0,
0,
0,
0,
0,
0,
0,
0,
0,
0,
0,
0,
0,
0,
0,
0,
0,
0,
0,
0,
0,
0,
0,
0,
0,
0,
0,
0,
0,
0,
0,
0,
0,
0,
0,
0,
0,
0,
0,
0,
0,
0,
0,
0,
0,
0,
0,
0,
0,
0,
0,
0,
0,
0,
0,
0,
0,
0,
0,
0,
0,
0,
0,
0,
0,
0,
0,
0,
0,
0,
0,
0,
0,
0,
0,
0,
0,
0,
0,
0,
0,
0,
0,
0,
0,
0,
0,
0,
0,
0,
0,
0,
0,
0,
0,
0,
0,
0,
0,
0,
0,
0,
0,
0,
0,
0,
0,
0,
0,
0,
0,
0,
0,
0,
0,
0,
0,
0,
0,
0,
#ENDOFDATA   :