File: N132962/Quantification/15 keV/Mengason MM2/MMM2 Zircon-2[4][4].msa
#FORMAT      : EMSA/MAS Spectral Data File
#VERSION     : 1.0
#TITLE       : MMM2 Zircon-2[4][all]
#DATE        : 29-SEP-2025
#TIME        : 01:20
#OWNER       : Unknown
#NPOINTS     : 4096
#NCOLUMNS    : 1
#XUNITS      : eV
#YUNITS      : counts
#DATATYPE    : Y
#XPERCHAN    : 9.99778
#OFFSET      : 1.69135
#BEAMKV      : 15
#SIGNALTYPE  : EDS
#ELEVANGLE   : 35
#AZIMANGLE   : 0
#LIVETIME    : 240.247
#REALTIME    : 257.13
#PROBECUR    : 1.21248
#TAUWIND     : 0
#TDEADLYR    : 0
#TACTLYR     : 0.045
#TALWIND     : 0.025
#CHOFFSET    : 0.0
#XLABEL      : Energy (eV)
#YLABEL      : Counts
#XPOSITION   : -14.67144
#YPOSITION   : 7.60528
#ZPOSITION   : 34.11879
#EDSDET      : SD
##SPECIMEN   : MMM2 Zircon-2[4][all]
##DET_HASH   : 12273538-fd48-a23f-0a19-f1e6fa85caef
##CALIB_HASH : 6abaa72c-aa41-8738-0be9-f592914732f3
##WORKING    : 15.0 mm
##DET_NAME   : EDAX All
##DET_MODE   : MediumLE
#SPECTRUM    :
27,
24,
16,
68,
479,
1347,
2277,
5389,
14433,
19530,
12057,
5519,
4753,
5280,
6517,
17119,
57858,
107387,
78790,
22195,
5202,
3736,
4111,
4497,
4709,
4629,
4874,
5139,
5527,
5670,
5840,
5966,
6187,
6362,
6499,
6558,
6686,
6959,
6910,
7160,
7055,
7395,
7534,
7499,
7357,
7529,
7626,
7668,
7949,
7805,
8150,
8142,
8145,
8630,
10721,
17768,
48487,
113023,
151389,
112473,
53568,
24353,
14404,
11236,
12303,
20484,
48962,
103097,
142572,
127612,
94823,
72720,
49691,
28330,
16504,
10074,
6483,
4867,
4240,
3686,
3563,
3576,
3896,
4344,
4365,
4038,
3648,
3455,
3285,
3262,
3242,
3161,
3141,
3208,
3115,
3137,
3160,
3070,
3064,
3110,
3068,
3130,
3037,
3217,
3075,
3114,
3120,
3056,
3038,
3008,
2986,
2959,
3084,
3039,
3006,
3106,
3072,
2929,
2952,
2976,
2919,
2920,
2826,
2893,
2880,
2974,
3013,
2939,
2787,
2780,
2798,
2723,
2707,
2645,
2739,
2686,
2746,
2732,
2662,
2695,
2653,
2601,
2552,
2521,
2522,
2472,
2455,
2336,
2368,
2336,
2364,
2284,
2303,
2297,
2218,
2273,
2163,
2287,
2131,
2165,
2253,
2155,
2108,
2154,
2120,
2148,
2165,
2105,
2044,
2057,
2016,
1971,
2005,
1995,
1961,
1898,
1962,
1899,
1927,
1960,
1932,
1921,
1889,
1789,
1795,
1768,
1757,
1727,
1721,
1712,
1789,
1806,
1710,
1739,
1677,
1606,
1652,
1707,
1666,
1634,
1592,
1588,
1633,
1612,
1598,
1559,
1558,
1540,
1477,
1505,
1533,
1484,
1495,
1509,
1509,
1509,
1422,
1419,
1486,
1418,
1379,
1384,
1352,
1377,
1375,
1384,
1382,
1365,
1234,
1309,
1311,
1290,
1313,
1304,
1233,
1224,
1281,
1292,
1208,
1198,
1168,
1192,
1172,
1195,
1173,
1125,
1088,
1107,
1125,
1120,
1155,
1139,
1101,
1091,
1015,
1102,
1079,
1033,
1019,
1069,
1078,
1069,
1088,
1169,
1072,
1053,
981,
1010,
948,
914,
914,
961,
957,
950,
880,
897,
945,
860,
915,
818,
797,
870,
821,
851,
798,
860,
845,
812,
768,
783,
762,
812,
739,
832,
797,
800,
783,
828,
720,
756,
762,
746,
716,
803,
719,
698,
653,
674,
718,
723,
688,
692,
641,
658,
637,
618,
641,
612,
588,
608,
644,
618,
585,
610,
607,
594,
583,
556,
564,
588,
557,
561,
536,
574,
524,
538,
533,
504,
508,
496,
439,
509,
497,
522,
498,
454,
474,
471,
490,
478,
434,
444,
447,
454,
403,
398,
457,
440,
416,
382,
391,
411,
368,
402,
409,
391,
368,
377,
355,
385,
308,
343,
335,
326,
367,
356,
313,
345,
316,
298,
329,
310,
316,
335,
303,
290,
319,
275,
294,
327,
278,
267,
309,
260,
249,
251,
272,
247,
259,
263,
244,
248,
240,
200,
228,
243,
228,
214,
230,
200,
202,
196,
220,
197,
190,
179,
174,
199,
181,
191,
188,
173,
194,
191,
160,
165,
169,
163,
165,
164,
156,
146,
151,
130,
123,
133,
118,
133,
147,
114,
126,
134,
103,
110,
106,
91,
95,
90,
113,
93,
86,
81,
92,
93,
112,
86,
81,
72,
73,
81,
73,
72,
75,
68,
58,
55,
68,
57,
66,
51,
53,
57,
44,
56,
33,
45,
48,
50,
40,
25,
31,
21,
28,
28,
28,
23,
23,
20,
23,
23,
17,
11,
18,
12,
10,
12,
10,
8,
3,
6,
1,
2,
1,
2,
0,
0,
0,
0,
0,
1,
0,
2,
0,
1,
0,
1,
0,
1,
0,
2,
0,
1,
0,
1,
2,
0,
0,
0,
1,
2,
0,
0,
0,
0,
0,
1,
1,
0,
2,
1,
1,
0,
1,
0,
0,
0,
0,
2,
0,
0,
1,
0,
0,
0,
0,
0,
0,
0,
1,
0,
1,
0,
0,
0,
0,
0,
0,
0,
0,
0,
1,
1,
0,
0,
0,
0,
0,
0,
0,
1,
1,
0,
1,
0,
0,
0,
0,
0,
0,
0,
0,
0,
0,
0,
0,
0,
0,
0,
0,
0,
1,
1,
0,
0,
0,
1,
0,
0,
0,
0,
0,
0,
0,
1,
0,
0,
0,
0,
0,
0,
0,
0,
0,
0,
0,
0,
0,
0,
0,
0,
0,
0,
0,
0,
0,
0,
0,
0,
0,
0,
0,
0,
0,
0,
0,
0,
0,
0,
0,
0,
0,
1,
0,
1,
1,
0,
0,
0,
0,
1,
0,
1,
0,
0,
0,
1,
0,
0,
0,
1,
0,
0,
0,
0,
0,
0,
0,
0,
0,
0,
0,
0,
0,
0,
0,
0,
1,
0,
0,
0,
0,
0,
0,
0,
0,
0,
0,
0,
0,
0,
0,
0,
0,
0,
0,
0,
0,
0,
0,
1,
0,
0,
0,
0,
0,
0,
0,
0,
0,
0,
0,
0,
0,
0,
1,
0,
0,
0,
0,
0,
0,
0,
0,
0,
0,
0,
0,
0,
0,
0,
0,
0,
0,
0,
0,
0,
0,
0,
0,
0,
0,
0,
0,
0,
0,
0,
0,
0,
0,
0,
0,
0,
0,
0,
0,
0,
0,
0,
0,
0,
0,
0,
0,
0,
0,
0,
0,
0,
0,
0,
0,
0,
0,
0,
0,
0,
0,
0,
0,
0,
0,
0,
0,
0,
0,
0,
0,
0,
0,
0,
0,
0,
0,
0,
0,
0,
0,
0,
0,
0,
0,
0,
0,
0,
0,
0,
0,
0,
0,
0,
0,
0,
0,
0,
0,
1,
0,
0,
0,
0,
0,
0,
0,
0,
0,
0,
0,
0,
0,
0,
0,
0,
0,
0,
0,
0,
0,
0,
0,
0,
0,
0,
0,
0,
0,
0,
0,
0,
0,
0,
0,
0,
0,
0,
0,
0,
0,
0,
0,
0,
0,
0,
0,
0,
0,
0,
0,
0,
0,
0,
0,
0,
0,
0,
0,
0,
0,
0,
0,
0,
0,
0,
0,
0,
0,
0,
0,
0,
0,
0,
0,
0,
0,
0,
0,
0,
0,
0,
0,
0,
0,
0,
0,
0,
0,
0,
0,
0,
0,
0,
0,
0,
0,
0,
0,
0,
0,
0,
0,
0,
0,
0,
0,
0,
0,
0,
0,
0,
0,
0,
0,
0,
0,
0,
0,
0,
0,
0,
0,
0,
0,
0,
0,
0,
0,
0,
0,
0,
0,
0,
0,
0,
0,
0,
0,
0,
0,
0,
0,
0,
0,
0,
0,
0,
0,
0,
0,
0,
0,
0,
0,
0,
0,
0,
0,
0,
0,
0,
0,
0,
0,
0,
0,
0,
0,
0,
0,
0,
0,
0,
0,
0,
0,
0,
0,
0,
0,
0,
0,
0,
0,
0,
0,
0,
0,
0,
0,
0,
0,
0,
0,
0,
0,
0,
0,
0,
0,
0,
0,
0,
0,
0,
0,
0,
0,
0,
0,
0,
0,
0,
0,
0,
0,
0,
0,
0,
0,
0,
0,
0,
0,
0,
0,
0,
0,
0,
0,
0,
0,
0,
0,
0,
0,
0,
0,
0,
0,
0,
0,
0,
0,
0,
0,
0,
0,
0,
0,
0,
0,
0,
0,
0,
0,
0,
0,
0,
0,
0,
0,
0,
0,
0,
0,
0,
0,
0,
0,
0,
0,
0,
0,
0,
0,
0,
0,
0,
0,
0,
0,
0,
0,
0,
0,
0,
0,
0,
0,
0,
0,
0,
0,
0,
0,
0,
0,
0,
0,
0,
0,
0,
0,
0,
0,
0,
0,
0,
0,
0,
0,
0,
0,
0,
0,
0,
0,
0,
0,
0,
0,
0,
0,
0,
0,
0,
0,
0,
0,
0,
0,
0,
0,
0,
0,
0,
0,
0,
0,
0,
0,
0,
0,
0,
0,
0,
0,
0,
0,
0,
0,
0,
0,
0,
0,
0,
0,
0,
0,
0,
0,
0,
0,
0,
0,
0,
0,
0,
0,
0,
0,
0,
0,
0,
0,
0,
0,
0,
0,
0,
0,
0,
0,
0,
0,
0,
0,
0,
0,
0,
0,
0,
0,
0,
0,
0,
0,
0,
0,
0,
0,
0,
0,
0,
0,
0,
0,
0,
0,
0,
0,
0,
0,
0,
0,
0,
0,
0,
0,
0,
0,
0,
0,
0,
0,
0,
0,
0,
0,
0,
0,
0,
0,
0,
0,
0,
0,
0,
0,
0,
0,
0,
0,
0,
0,
0,
0,
0,
0,
0,
0,
0,
0,
0,
0,
0,
0,
0,
0,
0,
0,
0,
0,
0,
0,
0,
0,
0,
0,
0,
0,
0,
0,
0,
0,
0,
0,
0,
0,
0,
0,
0,
0,
0,
0,
0,
0,
0,
0,
0,
0,
0,
0,
0,
0,
0,
0,
0,
0,
0,
0,
0,
0,
0,
0,
0,
0,
0,
0,
0,
0,
0,
0,
0,
0,
0,
0,
0,
0,
0,
0,
0,
0,
0,
0,
0,
0,
0,
0,
0,
0,
0,
0,
0,
0,
0,
0,
0,
#ENDOFDATA   :