File: N132962/Quantification/15 keV/Mengason MM2/MMM2 Uvarovite[4][4].msa
#FORMAT      : EMSA/MAS Spectral Data File
#VERSION     : 1.0
#TITLE       : MMM2 Uvarovite[4][all]
#DATE        : 28-SEP-2025
#TIME        : 22:13
#OWNER       : Unknown
#NPOINTS     : 4096
#NCOLUMNS    : 1
#XUNITS      : eV
#YUNITS      : counts
#DATATYPE    : Y
#XPERCHAN    : 9.99778
#OFFSET      : 1.69135
#BEAMKV      : 15
#SIGNALTYPE  : EDS
#ELEVANGLE   : 35
#AZIMANGLE   : 0
#LIVETIME    : 240.241
#REALTIME    : 254.4372
#PROBECUR    : 1.21223
#TAUWIND     : 0
#TDEADLYR    : 0
#TACTLYR     : 0.045
#TALWIND     : 0.025
#CHOFFSET    : 0.0
#XLABEL      : Energy (eV)
#YLABEL      : Counts
#XPOSITION   : -9.2734
#YPOSITION   : -0.13848
#ZPOSITION   : 34.11879
#EDSDET      : SD
##SPECIMEN   : MMM2 Uvarovite[4][all]
##DET_HASH   : 12273538-fd48-a23f-0a19-f1e6fa85caef
##CALIB_HASH : 6abaa72c-aa41-8738-0be9-f592914732f3
##WORKING    : 15.0 mm
##DET_NAME   : EDAX All
##DET_MODE   : MediumLE
#SPECTRUM    :
32,
33,
6,
19,
94,
444,
1353,
4755,
13859,
20484,
14181,
7576,
4866,
4358,
6551,
20832,
72047,
133388,
98179,
29730,
6867,
3220,
3021,
3648,
3733,
3145,
3061,
3172,
3602,
3613,
3644,
3790,
3889,
4065,
4321,
4346,
4525,
4525,
4494,
4735,
4882,
5006,
5236,
5157,
5125,
5406,
5770,
8063,
17079,
29910,
29864,
17818,
8910,
6310,
6676,
12713,
42483,
104617,
141231,
100384,
41354,
15635,
8153,
5322,
4631,
4332,
4107,
3743,
3430,
3296,
3305,
3389,
3338,
3504,
3457,
3672,
3570,
3379,
3314,
3238,
3028,
3146,
3007,
3021,
3083,
2832,
3003,
2992,
2889,
2862,
2791,
2869,
2887,
2813,
2768,
2801,
2699,
2697,
2656,
2701,
2613,
2611,
2534,
2545,
2516,
2478,
2502,
2574,
2505,
2382,
2391,
2383,
2426,
2373,
2328,
2465,
2616,
2882,
3527,
5845,
14426,
35700,
65709,
83410,
69402,
39214,
15903,
5357,
2771,
2406,
2959,
4414,
7490,
10616,
11742,
9377,
5735,
3188,
2129,
1736,
1767,
1723,
1691,
1680,
1582,
1623,
1613,
1720,
2149,
2675,
3237,
3062,
2473,
1953,
1674,
1457,
1426,
1448,
1397,
1447,
1437,
1422,
1486,
1748,
1872,
1929,
1778,
1578,
1398,
1300,
1286,
1292,
1344,
1354,
1398,
1598,
2300,
4469,
9073,
15161,
19665,
18960,
13566,
7735,
3737,
1907,
1324,
1131,
1115,
1109,
1114,
1180,
1173,
1165,
1378,
1778,
2317,
3030,
3537,
3236,
2481,
1678,
1245,
1005,
954,
946,
921,
918,
965,
1018,
1175,
1389,
1590,
1783,
1685,
1475,
1208,
991,
926,
826,
858,
805,
837,
767,
838,
840,
812,
771,
773,
770,
776,
820,
768,
795,
835,
866,
769,
800,
765,
750,
709,
738,
719,
682,
709,
712,
710,
703,
710,
669,
640,
642,
676,
668,
615,
627,
643,
633,
602,
606,
602,
592,
606,
584,
570,
552,
568,
564,
535,
544,
544,
512,
514,
540,
544,
526,
465,
531,
556,
527,
495,
481,
468,
499,
494,
491,
458,
465,
447,
492,
449,
417,
456,
430,
454,
473,
439,
408,
405,
448,
426,
420,
421,
432,
439,
388,
454,
393,
370,
402,
365,
367,
362,
325,
368,
355,
352,
343,
388,
334,
343,
340,
344,
325,
351,
341,
340,
326,
336,
325,
284,
298,
348,
304,
309,
297,
289,
306,
297,
266,
259,
275,
277,
275,
246,
253,
258,
262,
251,
250,
241,
249,
248,
224,
257,
217,
216,
250,
252,
244,
210,
206,
195,
228,
194,
216,
190,
215,
223,
191,
209,
207,
193,
209,
180,
207,
217,
183,
159,
184,
169,
175,
178,
163,
165,
162,
171,
144,
172,
142,
158,
143,
151,
172,
135,
139,
133,
137,
135,
145,
124,
135,
129,
111,
126,
119,
111,
111,
128,
120,
95,
105,
104,
90,
102,
102,
101,
104,
101,
89,
80,
92,
90,
78,
74,
76,
92,
74,
73,
69,
84,
75,
69,
73,
64,
75,
59,
65,
71,
70,
61,
68,
55,
60,
40,
54,
47,
59,
45,
42,
42,
41,
49,
57,
46,
41,
47,
31,
46,
27,
35,
41,
34,
31,
34,
36,
30,
25,
29,
28,
23,
28,
21,
23,
24,
19,
21,
22,
15,
21,
20,
17,
19,
15,
8,
16,
13,
10,
10,
16,
8,
9,
3,
6,
2,
2,
2,
4,
2,
4,
0,
2,
1,
1,
1,
0,
0,
1,
2,
0,
0,
0,
1,
1,
0,
1,
1,
1,
0,
0,
0,
1,
3,
0,
0,
0,
1,
0,
0,
1,
0,
0,
0,
0,
0,
0,
0,
0,
0,
0,
0,
1,
0,
0,
0,
1,
0,
0,
0,
0,
0,
1,
0,
0,
0,
0,
1,
0,
0,
1,
0,
0,
0,
1,
0,
1,
1,
0,
0,
0,
1,
0,
1,
0,
0,
0,
1,
0,
1,
0,
0,
0,
0,
0,
1,
0,
3,
0,
0,
0,
0,
0,
0,
1,
0,
1,
0,
0,
0,
1,
0,
2,
1,
0,
0,
0,
0,
0,
0,
0,
0,
0,
0,
1,
0,
0,
0,
0,
0,
0,
0,
0,
0,
0,
0,
0,
0,
0,
0,
0,
0,
0,
0,
0,
0,
0,
0,
1,
1,
0,
0,
0,
0,
0,
0,
0,
0,
0,
0,
0,
0,
0,
0,
0,
0,
0,
0,
0,
0,
0,
0,
0,
0,
1,
0,
0,
0,
0,
0,
0,
0,
0,
0,
0,
0,
0,
0,
0,
0,
0,
0,
0,
0,
0,
0,
0,
0,
0,
0,
0,
1,
1,
0,
0,
0,
0,
0,
0,
0,
0,
0,
0,
0,
0,
0,
0,
0,
0,
0,
0,
0,
0,
0,
0,
0,
0,
0,
0,
0,
0,
0,
0,
0,
0,
0,
0,
0,
0,
0,
0,
0,
0,
0,
0,
0,
0,
0,
0,
0,
0,
0,
0,
0,
0,
0,
0,
0,
0,
0,
0,
0,
0,
0,
0,
0,
0,
0,
0,
0,
0,
0,
0,
0,
0,
0,
0,
0,
0,
0,
1,
0,
0,
0,
0,
0,
0,
0,
0,
0,
0,
0,
0,
0,
0,
0,
0,
0,
0,
0,
0,
0,
0,
0,
0,
0,
0,
0,
0,
0,
0,
0,
0,
0,
0,
0,
0,
0,
0,
0,
0,
0,
0,
0,
0,
0,
0,
0,
0,
0,
0,
0,
0,
0,
0,
0,
0,
0,
0,
0,
0,
0,
0,
0,
0,
0,
0,
0,
0,
0,
0,
0,
0,
0,
0,
0,
0,
0,
0,
0,
0,
0,
0,
0,
0,
0,
0,
0,
0,
0,
0,
0,
0,
0,
0,
0,
0,
0,
0,
0,
0,
0,
0,
0,
0,
0,
0,
0,
0,
0,
0,
0,
0,
0,
0,
0,
0,
0,
0,
0,
0,
0,
0,
0,
0,
0,
0,
0,
0,
0,
0,
0,
0,
0,
0,
0,
0,
0,
0,
0,
0,
0,
0,
0,
0,
0,
0,
0,
0,
0,
0,
0,
0,
0,
0,
0,
0,
0,
0,
0,
0,
0,
0,
0,
0,
0,
0,
0,
0,
0,
0,
0,
0,
0,
0,
0,
0,
0,
0,
0,
0,
0,
0,
0,
0,
0,
0,
0,
0,
0,
0,
0,
0,
0,
0,
0,
0,
0,
0,
0,
0,
0,
0,
0,
0,
0,
0,
0,
0,
0,
0,
0,
0,
0,
0,
0,
0,
0,
0,
0,
0,
0,
0,
0,
0,
0,
0,
0,
0,
0,
0,
0,
0,
0,
0,
0,
0,
0,
0,
0,
0,
0,
0,
0,
0,
0,
0,
0,
0,
0,
0,
0,
0,
0,
0,
0,
0,
0,
0,
0,
0,
0,
0,
0,
0,
0,
0,
0,
0,
0,
0,
0,
0,
0,
0,
0,
0,
0,
0,
0,
0,
0,
0,
0,
0,
0,
0,
0,
0,
0,
0,
0,
0,
0,
0,
0,
0,
0,
0,
0,
0,
0,
0,
0,
0,
0,
0,
0,
0,
0,
0,
0,
0,
0,
0,
0,
0,
0,
0,
0,
0,
0,
0,
0,
0,
0,
0,
0,
0,
0,
0,
0,
0,
0,
0,
0,
0,
0,
0,
0,
0,
0,
0,
0,
0,
0,
0,
0,
0,
0,
0,
0,
0,
0,
0,
0,
0,
0,
0,
0,
0,
0,
0,
0,
0,
0,
0,
0,
0,
0,
0,
0,
0,
0,
0,
0,
0,
0,
0,
0,
0,
0,
0,
0,
0,
0,
0,
0,
0,
0,
0,
0,
0,
0,
0,
0,
0,
0,
0,
0,
0,
0,
0,
0,
0,
0,
0,
0,
0,
0,
0,
0,
0,
0,
0,
0,
0,
0,
0,
0,
0,
0,
0,
0,
0,
0,
0,
0,
0,
0,
0,
0,
0,
0,
0,
0,
0,
0,
0,
0,
0,
0,
0,
0,
0,
0,
0,
0,
0,
0,
0,
0,
0,
0,
0,
0,
0,
0,
0,
0,
0,
0,
0,
0,
0,
0,
0,
0,
0,
0,
0,
0,
0,
0,
0,
0,
0,
0,
0,
0,
0,
0,
0,
0,
0,
0,
0,
0,
0,
0,
0,
0,
0,
0,
0,
0,
0,
0,
0,
0,
0,
0,
0,
0,
0,
0,
0,
0,
0,
0,
0,
0,
0,
0,
0,
0,
0,
0,
0,
0,
0,
0,
0,
0,
0,
0,
0,
0,
0,
0,
0,
0,
0,
0,
0,
0,
0,
0,
0,
0,
0,
0,
0,
0,
0,
0,
0,
0,
0,
0,
0,
0,
0,
0,
0,
0,
0,
0,
0,
0,
0,
0,
0,
0,
0,
0,
0,
0,
0,
0,
0,
0,
0,
0,
0,
0,
0,
0,
0,
0,
0,
0,
0,
0,
0,
0,
0,
0,
0,
0,
0,
0,
0,
0,
0,
0,
0,
#ENDOFDATA   :