File: N132962/Quantification/15 keV/Mengason MM2/MMM2 Pyrite[3][4].msa
#FORMAT      : EMSA/MAS Spectral Data File
#VERSION     : 1.0
#TITLE       : MMM2 Pyrite[3][all]
#DATE        : 28-SEP-2025
#TIME        : 20:49
#OWNER       : Unknown
#NPOINTS     : 4096
#NCOLUMNS    : 1
#XUNITS      : eV
#YUNITS      : counts
#DATATYPE    : Y
#XPERCHAN    : 9.99778
#OFFSET      : 1.69135
#BEAMKV      : 15
#SIGNALTYPE  : EDS
#ELEVANGLE   : 35
#AZIMANGLE   : 0
#LIVETIME    : 240.238
#REALTIME    : 259.052
#PROBECUR    : 1.21333
#TAUWIND     : 0
#TDEADLYR    : 0
#TACTLYR     : 0.045
#TALWIND     : 0.025
#CHOFFSET    : 0.0
#XLABEL      : Energy (eV)
#YLABEL      : Counts
#XPOSITION   : -11.70253
#YPOSITION   : -4.48668
#ZPOSITION   : 34.11879
#EDSDET      : SD
##SPECIMEN   : MMM2 Pyrite[3][all]
##D2STDCMP   : Pyrite,(S:53.4528),(Fe:46.5472)
##DET_HASH   : 12273538-fd48-a23f-0a19-f1e6fa85caef
##CALIB_HASH : 6abaa72c-aa41-8738-0be9-f592914732f3
##WORKING    : 15.0 mm
##DET_NAME   : EDAX All
##DET_MODE   : MediumLE
#SPECTRUM    :
24,
34,
14,
93,
584,
1277,
1650,
4719,
13762,
17272,
8371,
3317,
2971,
3357,
3695,
4500,
6303,
9240,
14495,
21228,
26589,
28704,
47367,
82448,
68581,
25664,
8172,
5377,
4765,
4507,
4546,
4617,
4787,
5040,
5097,
5272,
5279,
5505,
5569,
5645,
5842,
5937,
6063,
6038,
6341,
6434,
6404,
6541,
6491,
6666,
6634,
6473,
6361,
6442,
6516,
6269,
6654,
7045,
7430,
7153,
6849,
6380,
6172,
5924,
6004,
5901,
5977,
6109,
5992,
6116,
6338,
7482,
10459,
18928,
46664,
126751,
259540,
325485,
235832,
101842,
34483,
23450,
26374,
21970,
12672,
6303,
4084,
3447,
3272,
3222,
3275,
3186,
3142,
3204,
3233,
3227,
3298,
3311,
3380,
3366,
3450,
3425,
3205,
3123,
3067,
3077,
2927,
3030,
2917,
3001,
2969,
2959,
3023,
2897,
2859,
2897,
2820,
2917,
2786,
2805,
2847,
2767,
2663,
2790,
2765,
2732,
2648,
2723,
2713,
2543,
2471,
2554,
2633,
2539,
2568,
2459,
2407,
2380,
2408,
2360,
2292,
2318,
2368,
2313,
2292,
2310,
2285,
2346,
2308,
2330,
2347,
2396,
2536,
2777,
2828,
2746,
2643,
2382,
2182,
2169,
2050,
2039,
2043,
2017,
1956,
1934,
1994,
1985,
1941,
1933,
1861,
1944,
1828,
1887,
1924,
1836,
1890,
1810,
1869,
1834,
1739,
1748,
1764,
1770,
1638,
1679,
1667,
1612,
1660,
1645,
1665,
1641,
1564,
1582,
1601,
1476,
1518,
1596,
1516,
1572,
1511,
1513,
1550,
1513,
1609,
1516,
1642,
1944,
2832,
5808,
12982,
25542,
40206,
48547,
45233,
32678,
18552,
8643,
3689,
1946,
1456,
1390,
1234,
1263,
1323,
1292,
1244,
1300,
1257,
1396,
1672,
2099,
3252,
4880,
6397,
7092,
6634,
4904,
3213,
2040,
1428,
1142,
1033,
1010,
968,
930,
966,
942,
1008,
1003,
981,
870,
880,
921,
916,
951,
866,
892,
915,
895,
907,
888,
843,
840,
817,
854,
858,
853,
874,
842,
831,
851,
840,
800,
831,
798,
769,
771,
805,
773,
765,
725,
772,
757,
739,
775,
728,
735,
810,
800,
818,
860,
799,
736,
750,
735,
715,
636,
670,
636,
634,
584,
617,
605,
624,
605,
610,
594,
575,
598,
562,
587,
634,
565,
602,
552,
563,
603,
564,
537,
547,
512,
526,
505,
501,
512,
534,
449,
535,
502,
472,
533,
461,
493,
459,
476,
481,
483,
461,
448,
484,
426,
459,
404,
454,
421,
421,
375,
410,
431,
410,
412,
387,
358,
365,
372,
398,
408,
355,
380,
327,
332,
335,
362,
348,
341,
370,
311,
302,
304,
326,
253,
326,
289,
363,
282,
312,
306,
275,
291,
273,
254,
280,
291,
272,
277,
272,
267,
276,
275,
237,
242,
241,
207,
235,
226,
221,
210,
238,
238,
194,
251,
206,
184,
212,
208,
191,
154,
185,
165,
175,
185,
173,
177,
158,
183,
166,
146,
150,
194,
172,
150,
168,
154,
154,
169,
129,
151,
137,
146,
127,
114,
142,
125,
120,
110,
136,
129,
107,
104,
120,
110,
96,
97,
99,
104,
109,
97,
106,
79,
79,
75,
72,
73,
75,
82,
68,
62,
70,
76,
64,
44,
80,
59,
65,
56,
49,
48,
40,
45,
53,
36,
47,
34,
29,
28,
40,
31,
42,
40,
25,
26,
26,
25,
32,
24,
20,
13,
19,
18,
15,
10,
11,
13,
9,
3,
7,
8,
4,
2,
2,
0,
2,
1,
0,
3,
1,
0,
2,
3,
2,
2,
0,
3,
3,
2,
3,
3,
2,
1,
1,
2,
1,
0,
2,
0,
1,
3,
2,
2,
1,
4,
0,
2,
1,
1,
1,
0,
1,
0,
0,
0,
2,
0,
0,
2,
1,
1,
1,
1,
0,
1,
1,
0,
1,
1,
0,
1,
1,
1,
0,
1,
3,
1,
1,
1,
1,
0,
1,
0,
0,
2,
1,
1,
1,
0,
1,
0,
0,
0,
0,
2,
0,
0,
0,
0,
1,
0,
0,
0,
0,
0,
0,
0,
0,
0,
2,
0,
0,
0,
1,
0,
0,
0,
0,
0,
0,
0,
0,
0,
0,
0,
1,
0,
0,
0,
0,
0,
1,
1,
0,
0,
0,
1,
0,
0,
0,
0,
1,
0,
0,
0,
0,
1,
0,
0,
0,
0,
0,
0,
0,
0,
0,
1,
1,
0,
1,
0,
0,
0,
0,
0,
0,
0,
0,
0,
0,
0,
0,
1,
0,
0,
1,
0,
0,
0,
2,
0,
0,
0,
0,
0,
0,
0,
0,
0,
0,
0,
0,
0,
0,
0,
0,
0,
0,
1,
0,
0,
0,
0,
0,
0,
0,
0,
0,
0,
0,
0,
0,
0,
0,
0,
0,
0,
0,
0,
0,
0,
0,
0,
0,
0,
0,
0,
0,
0,
0,
0,
0,
0,
1,
0,
0,
0,
0,
0,
0,
0,
0,
0,
0,
0,
1,
0,
0,
0,
0,
0,
0,
0,
0,
0,
0,
0,
0,
0,
0,
0,
0,
0,
0,
0,
0,
0,
0,
0,
0,
0,
0,
0,
0,
0,
0,
0,
0,
0,
0,
0,
0,
0,
0,
0,
0,
0,
0,
0,
0,
1,
0,
0,
0,
0,
0,
0,
0,
0,
0,
0,
0,
0,
0,
0,
0,
0,
0,
0,
0,
0,
0,
0,
0,
0,
0,
1,
0,
0,
0,
0,
0,
0,
0,
0,
0,
0,
0,
0,
0,
0,
0,
0,
0,
0,
0,
0,
1,
0,
0,
0,
0,
0,
0,
0,
0,
0,
0,
0,
0,
0,
0,
0,
0,
0,
0,
0,
0,
0,
0,
0,
0,
0,
0,
0,
0,
0,
0,
0,
0,
0,
0,
0,
0,
0,
0,
0,
0,
0,
0,
0,
0,
0,
0,
0,
0,
0,
0,
0,
0,
0,
0,
0,
0,
0,
0,
0,
0,
0,
0,
0,
0,
0,
0,
0,
0,
0,
0,
0,
0,
0,
0,
0,
0,
0,
0,
0,
0,
0,
0,
0,
0,
0,
0,
0,
0,
0,
0,
0,
0,
0,
0,
0,
0,
0,
0,
0,
0,
0,
0,
0,
0,
0,
0,
0,
0,
0,
0,
0,
0,
0,
0,
0,
0,
0,
0,
0,
0,
0,
0,
0,
0,
0,
0,
0,
0,
0,
0,
0,
0,
0,
0,
0,
0,
0,
0,
0,
0,
0,
0,
0,
0,
0,
0,
0,
0,
0,
0,
0,
0,
0,
0,
0,
0,
0,
0,
0,
0,
0,
0,
0,
0,
0,
0,
0,
0,
0,
0,
0,
0,
0,
0,
0,
0,
0,
0,
0,
0,
0,
0,
0,
0,
0,
0,
0,
0,
0,
0,
0,
0,
0,
0,
0,
0,
0,
0,
0,
0,
0,
0,
0,
0,
0,
0,
0,
0,
0,
0,
0,
0,
0,
0,
0,
0,
0,
0,
0,
0,
0,
0,
0,
0,
0,
0,
0,
0,
0,
0,
0,
0,
0,
0,
0,
0,
0,
0,
0,
0,
0,
0,
0,
0,
0,
0,
0,
0,
0,
0,
0,
0,
0,
0,
0,
0,
0,
0,
0,
0,
0,
0,
0,
0,
0,
0,
0,
0,
0,
0,
0,
0,
0,
0,
0,
0,
0,
0,
0,
0,
0,
0,
0,
0,
0,
0,
0,
0,
0,
0,
0,
0,
0,
0,
0,
0,
0,
0,
0,
0,
0,
0,
0,
0,
0,
0,
0,
0,
0,
0,
0,
0,
0,
0,
0,
0,
0,
0,
0,
0,
0,
0,
0,
0,
0,
0,
0,
0,
0,
0,
0,
0,
0,
0,
0,
0,
0,
0,
0,
0,
0,
0,
0,
0,
0,
0,
0,
0,
0,
0,
0,
0,
0,
0,
0,
0,
0,
0,
0,
0,
0,
0,
0,
0,
0,
0,
0,
0,
0,
0,
0,
0,
0,
0,
0,
0,
0,
0,
0,
0,
0,
0,
0,
0,
0,
0,
0,
0,
0,
0,
0,
0,
0,
0,
0,
0,
0,
0,
0,
0,
0,
0,
0,
0,
0,
0,
0,
0,
0,
0,
0,
0,
0,
0,
0,
0,
0,
0,
0,
0,
0,
0,
0,
0,
0,
0,
0,
0,
0,
0,
0,
0,
0,
0,
0,
0,
0,
0,
0,
0,
0,
0,
0,
0,
0,
0,
0,
0,
0,
0,
0,
0,
0,
0,
0,
0,
0,
0,
0,
0,
0,
0,
0,
0,
0,
0,
0,
0,
0,
0,
0,
0,
0,
0,
0,
0,
0,
0,
0,
0,
0,
0,
0,
0,
0,
0,
0,
0,
0,
0,
0,
0,
0,
0,
0,
0,
0,
0,
0,
0,
0,
0,
0,
0,
0,
0,
0,
0,
0,
0,
0,
0,
0,
0,
0,
0,
0,
0,
0,
0,
0,
0,
0,
0,
0,
0,
0,
0,
0,
0,
0,
0,
0,
0,
0,
0,
0,
0,
0,
0,
0,
#ENDOFDATA   :