File: N132962/Quantification/15 keV/Mengason MM2/MMM2 Uvarovite[3][4].msa
#FORMAT      : EMSA/MAS Spectral Data File
#VERSION     : 1.0
#TITLE       : MMM2 Uvarovite[3][all]
#DATE        : 28-SEP-2025
#TIME        : 22:12
#OWNER       : Unknown
#NPOINTS     : 4096
#NCOLUMNS    : 1
#XUNITS      : eV
#YUNITS      : counts
#DATATYPE    : Y
#XPERCHAN    : 9.99778
#OFFSET      : 1.69135
#BEAMKV      : 15
#SIGNALTYPE  : EDS
#ELEVANGLE   : 35
#AZIMANGLE   : 0
#LIVETIME    : 240.097
#REALTIME    : 254.244
#PROBECUR    : 1.21223
#TAUWIND     : 0
#TDEADLYR    : 0
#TACTLYR     : 0.045
#TALWIND     : 0.025
#CHOFFSET    : 0.0
#XLABEL      : Energy (eV)
#YLABEL      : Counts
#XPOSITION   : -9.27834
#YPOSITION   : -0.06469
#ZPOSITION   : 34.11879
#EDSDET      : SD
##SPECIMEN   : MMM2 Uvarovite[3][all]
##DET_HASH   : 12273538-fd48-a23f-0a19-f1e6fa85caef
##CALIB_HASH : 6abaa72c-aa41-8738-0be9-f592914732f3
##WORKING    : 15.0 mm
##DET_NAME   : EDAX All
##DET_MODE   : MediumLE
#SPECTRUM    :
22,
33,
11,
28,
85,
450,
1339,
4595,
13914,
20320,
13930,
7740,
4899,
4361,
6579,
20468,
71523,
131863,
96737,
29682,
6895,
3244,
3162,
3704,
3713,
3225,
3046,
3207,
3312,
3621,
3579,
3765,
3888,
4088,
4237,
4391,
4322,
4538,
4486,
4734,
4810,
5126,
5084,
5227,
5246,
5287,
5675,
7927,
16716,
28842,
29481,
17406,
8808,
6259,
6321,
12602,
42376,
103870,
139802,
99603,
41180,
15227,
8281,
5453,
4515,
4253,
4169,
3758,
3567,
3368,
3411,
3349,
3342,
3312,
3475,
3597,
3508,
3392,
3277,
3096,
3101,
3181,
3024,
2992,
3022,
3103,
2909,
3047,
2958,
2843,
2766,
2867,
2835,
2712,
2665,
2770,
2762,
2772,
2643,
2669,
2559,
2658,
2551,
2595,
2611,
2449,
2565,
2530,
2530,
2470,
2421,
2341,
2350,
2238,
2362,
2441,
2639,
2923,
3527,
5938,
14654,
35553,
65664,
83112,
69530,
39153,
15717,
5554,
2731,
2440,
2933,
4446,
7315,
10539,
11673,
9455,
5868,
3152,
2155,
1769,
1782,
1721,
1619,
1605,
1569,
1544,
1641,
1830,
2239,
2942,
3376,
3198,
2621,
2111,
1599,
1529,
1431,
1466,
1402,
1429,
1382,
1478,
1549,
1784,
1890,
1939,
1871,
1533,
1395,
1336,
1264,
1250,
1236,
1295,
1366,
1564,
2266,
4566,
9082,
15211,
19665,
18876,
13744,
7617,
3614,
1873,
1329,
1156,
1146,
1119,
1118,
1152,
1126,
1178,
1412,
1727,
2419,
3116,
3467,
3213,
2487,
1737,
1314,
1040,
961,
912,
911,
947,
931,
1001,
1109,
1353,
1635,
1793,
1744,
1452,
1201,
1007,
883,
871,
851,
821,
829,
843,
842,
802,
822,
780,
830,
773,
735,
837,
789,
903,
826,
817,
821,
781,
750,
736,
701,
689,
676,
704,
732,
725,
708,
675,
709,
692,
662,
684,
629,
625,
618,
584,
627,
604,
640,
593,
609,
619,
592,
623,
555,
532,
543,
559,
552,
526,
530,
517,
520,
536,
552,
485,
511,
544,
521,
519,
491,
509,
523,
523,
490,
511,
466,
461,
463,
447,
464,
437,
453,
457,
420,
432,
379,
435,
407,
441,
379,
443,
413,
400,
419,
403,
417,
381,
357,
389,
376,
336,
365,
363,
399,
368,
372,
372,
360,
342,
375,
354,
326,
329,
319,
309,
319,
322,
315,
288,
299,
325,
276,
334,
287,
267,
277,
287,
262,
288,
276,
266,
272,
237,
291,
257,
264,
256,
276,
234,
239,
256,
221,
240,
243,
208,
200,
258,
231,
226,
229,
214,
234,
208,
216,
196,
188,
220,
196,
195,
202,
213,
181,
177,
185,
187,
167,
172,
149,
188,
185,
152,
175,
182,
164,
172,
153,
155,
153,
144,
146,
134,
144,
137,
132,
136,
136,
139,
118,
125,
117,
119,
123,
126,
114,
114,
108,
115,
140,
101,
109,
110,
104,
111,
102,
99,
107,
109,
106,
90,
101,
80,
87,
73,
83,
76,
86,
89,
96,
83,
63,
84,
62,
72,
64,
80,
64,
60,
51,
70,
56,
53,
62,
63,
61,
66,
52,
58,
47,
52,
47,
46,
50,
51,
46,
49,
37,
40,
51,
48,
34,
16,
41,
35,
43,
31,
30,
37,
25,
22,
21,
28,
32,
20,
15,
18,
17,
22,
14,
16,
12,
10,
8,
10,
10,
18,
11,
11,
11,
9,
7,
6,
6,
5,
5,
6,
2,
2,
1,
0,
0,
1,
0,
1,
2,
1,
0,
1,
1,
1,
0,
1,
0,
0,
0,
0,
1,
1,
0,
0,
0,
1,
0,
0,
1,
0,
0,
0,
0,
2,
1,
0,
0,
0,
0,
1,
0,
0,
1,
0,
0,
0,
0,
0,
0,
0,
0,
0,
1,
0,
0,
0,
0,
0,
0,
0,
1,
0,
1,
1,
1,
2,
0,
0,
0,
0,
0,
0,
1,
0,
1,
0,
0,
0,
0,
0,
0,
1,
0,
0,
0,
0,
0,
0,
1,
0,
0,
0,
0,
0,
0,
0,
0,
0,
0,
0,
0,
0,
0,
0,
1,
0,
0,
0,
0,
0,
0,
1,
0,
0,
0,
0,
0,
0,
0,
0,
0,
0,
0,
0,
0,
0,
0,
0,
0,
0,
1,
0,
0,
0,
0,
0,
0,
0,
1,
1,
0,
0,
0,
0,
0,
0,
0,
0,
0,
0,
0,
0,
0,
0,
0,
0,
0,
0,
0,
0,
0,
0,
0,
0,
0,
0,
1,
0,
0,
0,
0,
0,
0,
0,
0,
0,
0,
0,
0,
0,
0,
0,
0,
0,
0,
0,
0,
0,
0,
0,
0,
0,
0,
0,
0,
0,
0,
0,
0,
0,
0,
0,
0,
0,
0,
0,
0,
0,
0,
0,
0,
0,
0,
0,
0,
0,
0,
0,
0,
0,
0,
0,
0,
0,
0,
0,
0,
0,
0,
0,
0,
0,
0,
0,
0,
0,
0,
0,
0,
0,
0,
0,
0,
0,
0,
0,
0,
0,
0,
0,
0,
0,
0,
0,
0,
0,
0,
0,
0,
0,
0,
0,
0,
0,
0,
0,
0,
0,
0,
0,
0,
0,
0,
0,
0,
0,
0,
0,
0,
0,
0,
0,
0,
0,
0,
0,
0,
0,
0,
1,
0,
0,
0,
0,
0,
0,
0,
0,
0,
0,
0,
0,
0,
0,
0,
0,
0,
0,
0,
0,
0,
0,
0,
0,
0,
0,
0,
0,
0,
0,
0,
0,
0,
0,
0,
0,
0,
0,
0,
0,
0,
0,
0,
0,
0,
0,
0,
0,
0,
0,
0,
0,
0,
0,
0,
0,
0,
0,
0,
0,
0,
0,
0,
0,
0,
0,
0,
0,
0,
0,
0,
0,
0,
0,
0,
0,
0,
0,
0,
0,
0,
0,
0,
0,
0,
0,
0,
0,
0,
0,
0,
0,
0,
0,
0,
0,
0,
0,
0,
0,
0,
0,
0,
0,
0,
0,
0,
0,
0,
0,
0,
0,
0,
0,
0,
0,
0,
0,
0,
0,
0,
0,
0,
0,
0,
0,
0,
0,
0,
0,
0,
0,
0,
0,
0,
0,
0,
0,
0,
0,
0,
0,
0,
0,
0,
0,
0,
0,
0,
0,
0,
0,
0,
0,
0,
0,
0,
0,
0,
0,
0,
0,
0,
0,
0,
0,
0,
0,
0,
0,
0,
0,
0,
0,
0,
0,
0,
0,
0,
0,
0,
0,
0,
0,
0,
0,
0,
0,
0,
0,
0,
0,
0,
0,
0,
0,
0,
0,
0,
0,
0,
0,
0,
0,
0,
0,
0,
0,
0,
0,
0,
0,
0,
0,
0,
0,
0,
0,
0,
0,
0,
0,
0,
0,
0,
0,
0,
0,
0,
0,
0,
0,
0,
0,
0,
0,
0,
0,
0,
0,
0,
0,
0,
0,
0,
0,
0,
0,
0,
0,
0,
0,
0,
0,
0,
0,
0,
0,
0,
0,
0,
0,
0,
0,
0,
0,
0,
0,
0,
0,
0,
0,
0,
0,
0,
0,
0,
0,
0,
0,
0,
0,
0,
0,
0,
0,
0,
0,
0,
0,
0,
0,
0,
0,
0,
0,
0,
0,
0,
0,
0,
0,
0,
0,
0,
0,
0,
0,
0,
0,
0,
0,
0,
0,
0,
0,
0,
0,
0,
0,
0,
0,
0,
0,
0,
0,
0,
0,
0,
0,
0,
0,
0,
0,
0,
0,
0,
0,
0,
0,
0,
0,
0,
0,
0,
0,
0,
0,
0,
0,
0,
0,
0,
0,
0,
0,
0,
0,
0,
0,
0,
0,
0,
0,
0,
0,
0,
0,
0,
0,
0,
0,
0,
0,
0,
0,
0,
0,
0,
0,
0,
0,
0,
0,
0,
0,
0,
0,
0,
0,
0,
0,
0,
0,
0,
0,
0,
0,
0,
0,
0,
0,
0,
0,
0,
0,
0,
0,
0,
0,
0,
0,
0,
0,
0,
0,
0,
0,
0,
0,
0,
0,
0,
0,
0,
0,
0,
0,
0,
0,
0,
0,
0,
0,
0,
0,
0,
0,
0,
0,
0,
0,
0,
0,
0,
0,
0,
0,
0,
0,
0,
0,
0,
0,
0,
0,
0,
0,
0,
0,
0,
0,
0,
0,
0,
0,
0,
0,
0,
0,
0,
0,
0,
0,
0,
0,
0,
0,
0,
0,
0,
0,
0,
0,
0,
0,
0,
0,
0,
0,
0,
0,
0,
0,
0,
0,
0,
0,
0,
0,
0,
0,
0,
0,
0,
0,
0,
0,
0,
0,
0,
0,
0,
0,
0,
0,
0,
0,
0,
0,
0,
0,
0,
0,
0,
0,
0,
0,
0,
0,
0,
0,
0,
0,
0,
0,
0,
0,
0,
0,
0,
0,
0,
0,
0,
0,
0,
0,
0,
0,
0,
0,
0,
0,
0,
0,
0,
0,
0,
0,
0,
0,
0,
0,
0,
0,
0,
0,
0,
0,
0,
0,
0,
0,
0,
0,
0,
0,
0,
0,
#ENDOFDATA   :