File: N132962/Quantification/15 keV/Mengason MM2/MMM2 Manganotantalite[5][4].msa
#FORMAT      : EMSA/MAS Spectral Data File
#VERSION     : 1.0
#TITLE       : MMM2 Manganotantalite[5][all]
#DATE        : 28-SEP-2025
#TIME        : 22:56
#OWNER       : Unknown
#NPOINTS     : 4096
#NCOLUMNS    : 1
#XUNITS      : eV
#YUNITS      : counts
#DATATYPE    : Y
#XPERCHAN    : 9.99778
#OFFSET      : 1.69135
#BEAMKV      : 15
#SIGNALTYPE  : EDS
#ELEVANGLE   : 35
#AZIMANGLE   : 0
#LIVETIME    : 240.307
#REALTIME    : 259.757
#PROBECUR    : 1.2132
#TAUWIND     : 0
#TDEADLYR    : 0
#TACTLYR     : 0.045
#TALWIND     : 0.025
#CHOFFSET    : 0.0
#XLABEL      : Energy (eV)
#YLABEL      : Counts
#XPOSITION   : -22.41502
#YPOSITION   : -0.44975
#ZPOSITION   : 34.11879
#EDSDET      : SD
##SPECIMEN   : MMM2 Manganotantalite[5][all]
##DET_HASH   : 12273538-fd48-a23f-0a19-f1e6fa85caef
##CALIB_HASH : 6abaa72c-aa41-8738-0be9-f592914732f3
##WORKING    : 15.0 mm
##DET_NAME   : EDAX All
##DET_MODE   : MediumLE
#SPECTRUM    :
33,
21,
8,
47,
404,
1712,
4336,
8628,
18201,
21894,
11643,
6180,
5747,
6531,
8578,
17456,
49981,
91038,
68865,
23723,
12475,
14885,
13753,
11056,
9440,
7515,
6520,
6868,
7317,
7426,
7393,
7626,
7806,
8025,
8625,
8377,
8621,
8706,
8778,
8960,
9364,
10035,
11501,
16056,
20452,
19183,
14174,
11084,
10389,
10482,
10478,
10398,
10771,
12776,
20906,
53737,
123980,
178806,
161525,
106694,
53441,
21052,
9828,
8763,
9891,
10951,
10420,
8726,
7881,
9338,
15343,
28319,
39048,
36490,
27827,
22807,
18710,
13518,
9818,
7844,
6557,
5870,
5333,
5235,
5176,
4957,
5008,
5057,
5217,
5503,
5103,
5001,
4903,
4893,
4868,
4833,
4758,
4799,
4755,
4772,
4748,
4627,
4793,
4754,
4808,
4628,
4750,
4740,
4598,
4610,
4669,
4764,
4724,
4743,
4837,
4922,
4800,
4632,
4625,
4573,
4572,
4475,
4492,
4442,
4484,
4520,
4359,
4441,
4308,
4260,
4208,
4355,
4158,
4181,
4227,
4028,
4170,
4111,
4088,
4072,
3996,
4087,
4003,
3890,
3974,
3818,
3909,
4022,
4183,
4483,
4717,
4611,
4325,
3981,
3747,
3819,
3811,
3579,
3611,
3668,
3597,
3671,
3749,
3676,
3598,
3581,
3621,
3557,
3383,
3379,
3333,
3352,
3343,
3354,
3304,
3302,
3200,
3292,
3285,
3119,
3199,
3171,
3089,
3099,
3088,
3060,
3066,
3013,
3063,
3056,
3103,
3184,
3827,
5638,
8992,
13818,
17375,
17195,
13521,
8595,
5190,
3693,
2958,
2714,
2669,
2695,
2801,
2697,
2795,
2883,
3317,
4093,
5089,
5861,
6262,
5832,
5401,
4670,
3847,
3262,
2701,
2487,
2405,
2406,
2408,
2324,
2328,
2227,
2299,
2260,
2343,
2237,
2322,
2365,
2557,
2587,
2622,
2622,
2626,
2622,
2523,
2414,
2170,
2083,
2156,
2062,
2064,
1981,
2046,
1927,
1899,
1951,
2034,
1994,
1944,
1950,
1877,
1959,
1856,
1823,
1811,
1735,
1842,
1806,
1832,
2020,
2466,
3263,
4921,
7145,
9624,
10796,
10346,
8333,
5836,
3843,
2580,
1892,
1684,
1738,
1646,
1710,
1647,
1628,
1535,
1520,
1552,
1560,
1491,
1408,
1540,
1409,
1482,
1411,
1458,
1461,
1429,
1421,
1338,
1319,
1401,
1333,
1327,
1433,
1426,
1523,
1748,
2039,
2443,
3111,
3629,
3915,
3664,
3211,
2658,
2244,
1951,
1870,
1976,
2245,
2609,
2753,
2770,
2358,
2108,
1668,
1381,
1232,
1132,
1070,
1097,
1017,
1068,
1078,
1003,
976,
963,
968,
938,
990,
907,
907,
882,
924,
968,
865,
902,
871,
861,
838,
841,
875,
860,
890,
846,
811,
827,
844,
848,
881,
1027,
1144,
1147,
1234,
1090,
973,
970,
810,
791,
739,
762,
805,
738,
796,
777,
757,
795,
745,
722,
679,
626,
620,
613,
623,
607,
628,
565,
604,
594,
531,
575,
577,
534,
549,
540,
530,
533,
514,
485,
512,
474,
482,
465,
469,
481,
466,
479,
438,
402,
432,
398,
423,
435,
424,
382,
387,
383,
401,
415,
355,
377,
396,
363,
404,
391,
307,
317,
341,
334,
329,
342,
334,
309,
297,
290,
312,
285,
290,
277,
259,
260,
265,
241,
292,
250,
261,
214,
214,
222,
211,
215,
204,
204,
204,
186,
195,
175,
178,
191,
190,
155,
164,
146,
145,
117,
131,
142,
124,
146,
128,
135,
124,
126,
109,
85,
109,
98,
89,
83,
85,
91,
60,
68,
61,
64,
61,
55,
69,
49,
43,
37,
31,
37,
31,
28,
14,
18,
9,
13,
9,
8,
4,
3,
5,
8,
5,
3,
3,
4,
5,
6,
5,
6,
3,
4,
0,
2,
3,
3,
1,
3,
2,
1,
1,
1,
2,
4,
2,
6,
5,
5,
3,
4,
3,
2,
3,
3,
1,
3,
3,
1,
8,
2,
0,
2,
0,
2,
1,
2,
0,
2,
2,
1,
1,
4,
1,
2,
1,
1,
2,
2,
2,
4,
1,
3,
3,
1,
2,
3,
2,
0,
0,
1,
0,
2,
1,
1,
1,
2,
2,
0,
1,
1,
4,
2,
4,
0,
4,
1,
2,
2,
3,
2,
1,
3,
2,
3,
1,
2,
1,
2,
0,
1,
7,
2,
0,
0,
1,
1,
0,
1,
1,
0,
1,
2,
1,
2,
2,
1,
1,
3,
1,
0,
1,
3,
2,
2,
2,
3,
2,
1,
0,
2,
0,
0,
2,
2,
1,
0,
1,
0,
0,
0,
1,
0,
0,
1,
1,
1,
0,
0,
0,
1,
1,
1,
0,
0,
0,
3,
1,
1,
1,
1,
0,
3,
1,
0,
0,
0,
0,
1,
0,
0,
1,
1,
0,
0,
0,
0,
1,
1,
0,
1,
0,
0,
3,
0,
2,
0,
0,
0,
0,
0,
0,
2,
0,
0,
1,
0,
0,
0,
1,
0,
0,
1,
0,
1,
0,
0,
0,
1,
0,
0,
0,
1,
1,
1,
1,
0,
0,
1,
0,
0,
0,
0,
0,
0,
0,
1,
0,
0,
1,
0,
0,
0,
1,
0,
0,
0,
0,
0,
0,
0,
0,
0,
0,
0,
0,
0,
0,
1,
0,
1,
0,
0,
0,
0,
0,
0,
0,
0,
0,
1,
0,
0,
0,
0,
0,
0,
0,
0,
0,
1,
0,
0,
1,
0,
0,
0,
0,
0,
0,
0,
0,
1,
0,
0,
0,
0,
0,
0,
0,
0,
1,
0,
0,
0,
0,
0,
0,
0,
0,
0,
0,
0,
0,
0,
0,
0,
0,
0,
0,
0,
0,
0,
0,
0,
0,
0,
0,
0,
0,
0,
0,
0,
0,
0,
0,
0,
0,
0,
0,
0,
0,
0,
0,
0,
0,
0,
0,
0,
0,
0,
0,
0,
0,
0,
0,
0,
0,
0,
0,
0,
0,
0,
0,
0,
0,
0,
0,
0,
0,
0,
0,
0,
0,
0,
0,
0,
0,
0,
0,
0,
0,
0,
0,
0,
0,
0,
0,
0,
0,
0,
0,
0,
0,
0,
0,
0,
0,
0,
0,
0,
0,
0,
0,
0,
0,
0,
0,
0,
0,
0,
0,
0,
0,
0,
0,
0,
0,
0,
0,
0,
0,
0,
0,
0,
0,
0,
0,
0,
0,
0,
0,
0,
0,
0,
0,
0,
0,
0,
0,
0,
0,
0,
0,
0,
0,
0,
0,
0,
0,
0,
0,
0,
0,
0,
0,
0,
0,
0,
0,
0,
0,
0,
0,
0,
0,
0,
0,
0,
0,
0,
0,
0,
0,
0,
0,
0,
0,
0,
0,
0,
0,
0,
0,
0,
0,
0,
0,
0,
0,
0,
0,
0,
0,
0,
0,
0,
0,
0,
0,
0,
0,
0,
0,
0,
0,
0,
0,
0,
0,
0,
0,
0,
0,
0,
0,
0,
0,
0,
0,
0,
0,
0,
0,
0,
0,
0,
0,
0,
0,
0,
0,
0,
0,
0,
0,
0,
0,
0,
0,
0,
0,
0,
0,
0,
0,
0,
0,
0,
0,
0,
0,
0,
0,
0,
0,
0,
0,
0,
0,
0,
0,
0,
0,
0,
0,
0,
0,
0,
0,
0,
0,
0,
0,
0,
0,
0,
0,
0,
0,
0,
0,
0,
0,
0,
0,
0,
0,
0,
0,
0,
0,
0,
0,
0,
0,
0,
0,
0,
0,
0,
0,
0,
0,
0,
0,
0,
0,
0,
0,
0,
0,
0,
0,
0,
0,
0,
0,
0,
0,
0,
0,
0,
0,
0,
0,
0,
0,
0,
0,
0,
0,
0,
0,
0,
0,
0,
0,
0,
0,
0,
0,
0,
0,
0,
0,
0,
0,
0,
0,
0,
0,
0,
0,
0,
0,
0,
0,
0,
0,
0,
0,
0,
0,
0,
0,
0,
0,
0,
0,
0,
0,
0,
0,
0,
0,
0,
0,
0,
0,
0,
0,
0,
0,
0,
0,
0,
0,
0,
0,
0,
0,
0,
0,
0,
0,
0,
0,
0,
0,
0,
0,
0,
0,
0,
0,
0,
0,
0,
0,
0,
0,
0,
0,
0,
0,
0,
0,
0,
0,
0,
0,
0,
0,
0,
0,
0,
0,
0,
0,
0,
0,
0,
0,
0,
0,
0,
0,
0,
0,
0,
0,
0,
0,
0,
0,
0,
0,
0,
0,
0,
0,
0,
0,
0,
0,
0,
0,
0,
0,
0,
0,
0,
0,
0,
0,
0,
0,
0,
0,
0,
0,
0,
0,
0,
0,
0,
0,
0,
0,
0,
0,
0,
0,
0,
0,
0,
0,
0,
0,
0,
0,
0,
0,
0,
0,
0,
0,
0,
0,
0,
0,
0,
0,
0,
0,
0,
0,
0,
0,
0,
0,
0,
0,
0,
0,
0,
0,
0,
0,
0,
0,
0,
0,
0,
0,
0,
0,
0,
0,
0,
0,
0,
0,
0,
0,
0,
0,
0,
0,
0,
0,
0,
0,
0,
0,
0,
0,
0,
0,
0,
0,
0,
0,
0,
0,
0,
0,
0,
0,
0,
0,
0,
0,
0,
0,
0,
0,
0,
0,
0,
0,
0,
0,
#ENDOFDATA   :