File: N132962/Quantification/15 keV/Mengason MM2/MMM2 Orthoclaise[3][4].msa
#FORMAT      : EMSA/MAS Spectral Data File
#VERSION     : 1.0
#TITLE       : MMM2 Orthoclaise[3][all]
#DATE        : 28-SEP-2025
#TIME        : 21:00
#OWNER       : Unknown
#NPOINTS     : 4096
#NCOLUMNS    : 1
#XUNITS      : eV
#YUNITS      : counts
#DATATYPE    : Y
#XPERCHAN    : 9.99778
#OFFSET      : 1.69135
#BEAMKV      : 15
#SIGNALTYPE  : EDS
#ELEVANGLE   : 35
#AZIMANGLE   : 0
#LIVETIME    : 240.202
#REALTIME    : 256.24
#PROBECUR    : 1.21333
#TAUWIND     : 0
#TDEADLYR    : 0
#TACTLYR     : 0.045
#TALWIND     : 0.025
#CHOFFSET    : 0.0
#XLABEL      : Energy (eV)
#YLABEL      : Counts
#XPOSITION   : -14.1389
#YPOSITION   : -3.92407
#ZPOSITION   : 34.11879
#EDSDET      : SD
##SPECIMEN   : MMM2 Orthoclaise[3][all]
##DET_HASH   : 12273538-fd48-a23f-0a19-f1e6fa85caef
##CALIB_HASH : 6abaa72c-aa41-8738-0be9-f592914732f3
##WORKING    : 15.0 mm
##DET_NAME   : EDAX All
##DET_MODE   : MediumLE
#SPECTRUM    :
21,
29,
11,
21,
103,
352,
1294,
4681,
12864,
14872,
7258,
3187,
3151,
3843,
7293,
25942,
98598,
186114,
134529,
35887,
5462,
3011,
3614,
4977,
4924,
3889,
3426,
3418,
3718,
3788,
3782,
4052,
4137,
4772,
5704,
5956,
5201,
4786,
4769,
4843,
4767,
4989,
5039,
5082,
5374,
5601,
6656,
13313,
37853,
73673,
74116,
40243,
15789,
8278,
7683,
18238,
70935,
180774,
245022,
173260,
69160,
23361,
10506,
5435,
3229,
2917,
2655,
2892,
2749,
2600,
2704,
2641,
2687,
2802,
3084,
3134,
3132,
2747,
2661,
2553,
2400,
2488,
2416,
2501,
2330,
2443,
2453,
2344,
2294,
2340,
2315,
2332,
2309,
2296,
2309,
2348,
2285,
2298,
2194,
2211,
2239,
2180,
2145,
2212,
2283,
2640,
3450,
5942,
14163,
30746,
46575,
46452,
31021,
13757,
5242,
2805,
2797,
3471,
5113,
6871,
6999,
5558,
3707,
2164,
1735,
1616,
1660,
1671,
1633,
1633,
1547,
1442,
1507,
1461,
1531,
1450,
1499,
1451,
1440,
1366,
1373,
1375,
1337,
1367,
1368,
1333,
1281,
1338,
1327,
1293,
1334,
1291,
1288,
1285,
1136,
1254,
1183,
1172,
1240,
1196,
1217,
1237,
1234,
1179,
1166,
1172,
1175,
1218,
1213,
1230,
1139,
1082,
1139,
1113,
1107,
1047,
1000,
1033,
1044,
960,
969,
1043,
959,
963,
942,
959,
927,
1000,
894,
920,
909,
847,
889,
892,
891,
872,
882,
863,
880,
817,
866,
827,
753,
848,
828,
802,
802,
773,
848,
981,
1252,
1670,
2222,
2519,
2470,
1916,
1360,
944,
768,
668,
697,
702,
707,
662,
671,
645,
654,
663,
662,
641,
644,
697,
667,
789,
804,
804,
775,
729,
643,
625,
600,
553,
557,
539,
551,
552,
576,
529,
550,
552,
551,
550,
528,
524,
547,
496,
521,
513,
469,
466,
513,
538,
511,
514,
484,
478,
477,
486,
472,
499,
449,
433,
437,
440,
426,
460,
414,
473,
405,
414,
407,
388,
390,
390,
373,
411,
409,
371,
384,
354,
365,
390,
371,
395,
387,
344,
332,
354,
335,
354,
346,
350,
351,
329,
321,
313,
323,
308,
319,
304,
309,
301,
316,
328,
327,
263,
287,
293,
266,
270,
274,
266,
281,
242,
292,
259,
260,
273,
256,
252,
247,
253,
239,
227,
274,
202,
234,
222,
216,
251,
238,
237,
212,
198,
209,
222,
216,
213,
209,
210,
220,
219,
202,
160,
181,
186,
173,
188,
179,
196,
156,
171,
181,
202,
172,
158,
176,
145,
142,
157,
161,
171,
139,
135,
153,
143,
156,
134,
141,
152,
137,
138,
128,
124,
122,
123,
145,
102,
104,
128,
133,
127,
123,
110,
107,
132,
123,
106,
107,
109,
100,
117,
114,
104,
93,
91,
99,
92,
98,
94,
102,
100,
93,
62,
103,
83,
69,
70,
93,
73,
75,
82,
75,
67,
67,
66,
79,
60,
55,
53,
55,
62,
55,
49,
51,
62,
58,
53,
50,
52,
43,
54,
40,
39,
37,
43,
39,
51,
32,
54,
39,
29,
38,
25,
37,
41,
42,
36,
28,
30,
33,
22,
27,
18,
25,
28,
24,
30,
20,
27,
12,
14,
19,
19,
20,
19,
15,
12,
19,
18,
9,
14,
8,
21,
8,
6,
6,
9,
8,
5,
4,
4,
4,
3,
1,
9,
4,
1,
1,
1,
1,
1,
3,
0,
2,
0,
0,
0,
0,
0,
2,
0,
0,
0,
0,
0,
1,
2,
0,
0,
0,
1,
0,
0,
1,
0,
0,
0,
1,
0,
0,
0,
0,
0,
0,
0,
0,
0,
0,
0,
0,
0,
0,
0,
1,
1,
0,
0,
0,
0,
0,
0,
0,
0,
0,
0,
0,
0,
0,
0,
0,
0,
0,
0,
0,
0,
0,
0,
0,
0,
0,
0,
0,
1,
0,
0,
0,
0,
0,
0,
0,
0,
0,
0,
0,
0,
0,
0,
0,
1,
0,
0,
0,
0,
0,
0,
0,
0,
0,
0,
0,
0,
0,
0,
0,
0,
0,
0,
0,
0,
0,
0,
1,
2,
0,
0,
0,
0,
0,
0,
0,
0,
0,
0,
0,
0,
0,
0,
0,
0,
0,
0,
0,
0,
0,
0,
0,
0,
0,
0,
0,
0,
0,
0,
0,
0,
0,
0,
0,
1,
0,
0,
0,
0,
0,
0,
0,
0,
0,
0,
0,
0,
0,
0,
0,
0,
0,
0,
0,
0,
0,
0,
0,
0,
0,
0,
0,
0,
0,
0,
0,
0,
0,
0,
0,
0,
0,
0,
0,
0,
0,
0,
0,
0,
0,
0,
0,
0,
0,
0,
0,
0,
0,
0,
0,
0,
0,
0,
0,
0,
0,
0,
0,
0,
0,
0,
0,
0,
0,
0,
0,
0,
0,
0,
0,
0,
0,
0,
0,
1,
0,
0,
0,
0,
0,
0,
0,
0,
0,
0,
0,
0,
0,
0,
0,
0,
0,
0,
0,
0,
0,
0,
0,
0,
0,
0,
0,
0,
0,
0,
0,
0,
0,
0,
0,
0,
0,
0,
0,
0,
0,
0,
0,
0,
0,
0,
0,
0,
0,
0,
0,
0,
0,
0,
0,
0,
0,
0,
0,
0,
0,
0,
0,
0,
0,
0,
0,
0,
0,
0,
0,
0,
0,
0,
0,
0,
0,
0,
0,
0,
0,
0,
0,
0,
0,
0,
0,
0,
0,
0,
0,
0,
0,
0,
0,
0,
0,
0,
0,
0,
0,
0,
0,
0,
0,
0,
0,
0,
0,
0,
0,
0,
0,
0,
0,
0,
0,
0,
0,
0,
0,
0,
0,
0,
0,
0,
0,
0,
0,
0,
0,
0,
0,
0,
0,
0,
0,
0,
0,
0,
0,
0,
0,
0,
0,
0,
0,
0,
0,
0,
0,
0,
0,
0,
0,
0,
0,
0,
0,
0,
0,
0,
0,
0,
0,
0,
0,
0,
0,
0,
0,
0,
0,
0,
0,
0,
0,
0,
0,
0,
0,
0,
0,
0,
0,
0,
0,
0,
0,
0,
0,
0,
0,
0,
0,
0,
0,
0,
0,
0,
0,
0,
0,
0,
0,
0,
0,
0,
0,
0,
0,
0,
0,
0,
0,
0,
0,
0,
0,
0,
0,
0,
0,
0,
0,
0,
0,
0,
0,
0,
0,
0,
0,
0,
0,
0,
0,
0,
0,
0,
0,
0,
0,
0,
0,
0,
0,
0,
0,
0,
0,
0,
0,
0,
0,
0,
0,
0,
0,
0,
0,
0,
0,
0,
0,
0,
0,
0,
0,
0,
0,
0,
0,
0,
0,
0,
0,
0,
0,
0,
0,
0,
0,
0,
0,
0,
0,
0,
0,
0,
0,
0,
0,
0,
0,
0,
0,
0,
0,
0,
0,
0,
0,
0,
0,
0,
0,
0,
0,
0,
0,
0,
0,
0,
0,
0,
0,
0,
0,
0,
0,
0,
0,
0,
0,
0,
0,
0,
0,
0,
0,
0,
0,
0,
0,
0,
0,
0,
0,
0,
0,
0,
0,
0,
0,
0,
0,
0,
0,
0,
0,
0,
0,
0,
0,
0,
0,
0,
0,
0,
0,
0,
0,
0,
0,
0,
0,
0,
0,
0,
0,
0,
0,
0,
0,
0,
0,
0,
0,
0,
0,
0,
0,
0,
0,
0,
0,
0,
0,
0,
0,
0,
0,
0,
0,
0,
0,
0,
0,
0,
0,
0,
0,
0,
0,
0,
0,
0,
0,
0,
0,
0,
0,
0,
0,
0,
0,
0,
0,
0,
0,
0,
0,
0,
0,
0,
0,
0,
0,
0,
0,
0,
0,
0,
0,
0,
0,
0,
0,
0,
0,
0,
0,
0,
0,
0,
0,
0,
0,
0,
0,
0,
0,
0,
0,
0,
0,
0,
0,
0,
0,
0,
0,
0,
0,
0,
0,
0,
0,
0,
0,
0,
0,
0,
0,
0,
0,
0,
0,
0,
0,
0,
0,
0,
0,
0,
0,
0,
0,
0,
0,
0,
0,
0,
0,
0,
0,
0,
0,
0,
0,
0,
0,
0,
0,
0,
0,
0,
0,
0,
0,
0,
0,
0,
0,
0,
0,
0,
0,
0,
0,
0,
0,
0,
0,
0,
0,
0,
0,
0,
0,
0,
0,
0,
0,
0,
0,
0,
0,
0,
0,
0,
0,
0,
0,
0,
0,
0,
0,
0,
0,
0,
0,
0,
0,
0,
0,
0,
0,
0,
0,
0,
0,
0,
0,
0,
0,
0,
0,
0,
0,
0,
0,
0,
0,
0,
0,
0,
0,
0,
0,
0,
0,
0,
0,
0,
0,
0,
0,
0,
0,
0,
0,
0,
0,
0,
0,
0,
0,
0,
0,
0,
0,
0,
0,
0,
0,
0,
0,
0,
0,
0,
0,
0,
0,
0,
0,
0,
0,
0,
0,
0,
0,
0,
0,
0,
0,
0,
0,
0,
0,
0,
0,
0,
0,
0,
#ENDOFDATA   :