File: N132962/Quantification/15 keV/Mengason MM2/MMM2 Zircon[6][4].msa
#FORMAT      : EMSA/MAS Spectral Data File
#VERSION     : 1.0
#TITLE       : MMM2 Zircon[6][all]
#DATE        : 29-SEP-2025
#TIME        : 01:12
#OWNER       : Unknown
#NPOINTS     : 4096
#NCOLUMNS    : 1
#XUNITS      : eV
#YUNITS      : counts
#DATATYPE    : Y
#XPERCHAN    : 9.99778
#OFFSET      : 1.69135
#BEAMKV      : 15
#SIGNALTYPE  : EDS
#ELEVANGLE   : 35
#AZIMANGLE   : 0
#LIVETIME    : 240.3727
#REALTIME    : 257.189
#PROBECUR    : 1.21248
#TAUWIND     : 0
#TDEADLYR    : 0
#TACTLYR     : 0.045
#TALWIND     : 0.025
#CHOFFSET    : 0.0
#XLABEL      : Energy (eV)
#YLABEL      : Counts
#XPOSITION   : -13.65682
#YPOSITION   : 6.95009
#ZPOSITION   : 34.11879
#EDSDET      : SD
##SPECIMEN   : MMM2 Zircon[6][all]
##D2STDCMP   : Zircon,(O:34.9128),(Si:15.3216),(Zr:49.7657),8.0
##DET_HASH   : 12273538-fd48-a23f-0a19-f1e6fa85caef
##CALIB_HASH : 6abaa72c-aa41-8738-0be9-f592914732f3
##WORKING    : 15.0 mm
##DET_NAME   : EDAX All
##DET_MODE   : MediumLE
#SPECTRUM    :
28,
19,
15,
65,
465,
1337,
2341,
5309,
14705,
19788,
12288,
5733,
4647,
5288,
6455,
16812,
57450,
106974,
77794,
22290,
5259,
3640,
4099,
4501,
4744,
4791,
4900,
5239,
5364,
5692,
5799,
5836,
6190,
6276,
6623,
6664,
6738,
6835,
6847,
7139,
7116,
7283,
7375,
7697,
7596,
7500,
7623,
7662,
7747,
8093,
7971,
8066,
8090,
8773,
10614,
17697,
48550,
112423,
151820,
112370,
53139,
23882,
14441,
11066,
12259,
20694,
48378,
102344,
142404,
127293,
93207,
72291,
48863,
28488,
16283,
9955,
6316,
4815,
4097,
3664,
3514,
3577,
3811,
4272,
4335,
3978,
3686,
3397,
3315,
3279,
3327,
3238,
3226,
3263,
3182,
3138,
3182,
3148,
3148,
3124,
3177,
3149,
3126,
3117,
3096,
3130,
3047,
3095,
2955,
3103,
3041,
2981,
3021,
2938,
2933,
3019,
3037,
2920,
2982,
2914,
2865,
2800,
2865,
2830,
2925,
3009,
2999,
2956,
2891,
2806,
2681,
2790,
2639,
2689,
2624,
2807,
2737,
2625,
2690,
2672,
2598,
2590,
2576,
2520,
2412,
2473,
2356,
2384,
2370,
2300,
2244,
2295,
2366,
2311,
2211,
2229,
2141,
2265,
2259,
2218,
2129,
2192,
2112,
2145,
2157,
2166,
2128,
2054,
2042,
1961,
1959,
2007,
1998,
2013,
1918,
1939,
2009,
1957,
1919,
1975,
1908,
1928,
1874,
1767,
1852,
1780,
1867,
1771,
1769,
1809,
1724,
1737,
1735,
1703,
1695,
1693,
1735,
1588,
1641,
1641,
1551,
1568,
1632,
1607,
1646,
1506,
1577,
1530,
1525,
1422,
1505,
1526,
1499,
1529,
1541,
1484,
1459,
1384,
1390,
1427,
1390,
1343,
1342,
1308,
1386,
1314,
1335,
1244,
1308,
1294,
1289,
1255,
1250,
1241,
1315,
1278,
1200,
1230,
1224,
1181,
1169,
1156,
1164,
1125,
1131,
1193,
1202,
1193,
1151,
1121,
1199,
1093,
1133,
1115,
1021,
1045,
1039,
1064,
1036,
996,
1094,
1082,
1138,
1108,
1155,
1076,
987,
954,
961,
943,
890,
953,
930,
917,
917,
927,
921,
874,
865,
867,
844,
852,
878,
769,
823,
822,
857,
848,
772,
782,
745,
763,
805,
732,
792,
774,
747,
758,
770,
771,
754,
795,
807,
807,
764,
720,
678,
732,
687,
700,
660,
706,
674,
647,
673,
663,
619,
651,
638,
582,
607,
571,
606,
575,
611,
603,
592,
570,
548,
536,
568,
515,
523,
498,
532,
567,
543,
478,
513,
503,
548,
487,
494,
511,
494,
493,
429,
456,
472,
486,
479,
445,
472,
455,
418,
451,
438,
428,
399,
410,
423,
372,
392,
395,
410,
411,
387,
343,
354,
359,
376,
367,
357,
376,
342,
337,
359,
320,
337,
304,
302,
313,
312,
319,
292,
293,
275,
322,
275,
292,
265,
279,
273,
223,
268,
245,
290,
266,
255,
264,
259,
252,
231,
244,
211,
241,
179,
239,
233,
195,
230,
200,
194,
210,
212,
204,
184,
187,
194,
192,
176,
179,
180,
155,
156,
154,
146,
144,
167,
157,
166,
145,
154,
134,
132,
137,
152,
142,
147,
112,
127,
129,
130,
112,
111,
94,
97,
105,
102,
107,
107,
79,
81,
96,
83,
77,
86,
80,
77,
70,
56,
71,
67,
63,
68,
68,
59,
59,
56,
61,
47,
59,
40,
46,
42,
50,
41,
48,
37,
42,
35,
39,
32,
30,
30,
25,
15,
15,
19,
21,
10,
17,
14,
7,
9,
4,
3,
6,
6,
10,
3,
3,
0,
0,
1,
1,
0,
2,
1,
0,
3,
0,
3,
0,
0,
0,
0,
0,
0,
0,
1,
0,
0,
2,
1,
0,
1,
1,
1,
1,
0,
0,
1,
2,
1,
1,
1,
0,
2,
0,
1,
2,
0,
0,
0,
0,
1,
0,
0,
1,
1,
0,
0,
0,
0,
0,
0,
0,
1,
0,
0,
0,
0,
0,
0,
0,
1,
0,
1,
0,
0,
0,
0,
0,
0,
3,
2,
1,
0,
2,
0,
1,
0,
0,
0,
0,
0,
1,
0,
0,
0,
0,
0,
0,
0,
0,
0,
0,
0,
0,
0,
0,
0,
0,
0,
0,
1,
0,
0,
0,
0,
2,
0,
0,
0,
0,
2,
0,
1,
0,
0,
0,
0,
0,
1,
0,
0,
0,
0,
0,
0,
0,
0,
0,
0,
0,
0,
0,
0,
0,
0,
0,
0,
0,
0,
0,
0,
1,
0,
0,
0,
0,
0,
0,
0,
1,
0,
0,
0,
1,
1,
0,
1,
0,
0,
0,
0,
0,
0,
0,
0,
0,
0,
0,
0,
1,
0,
0,
0,
0,
0,
1,
0,
0,
0,
0,
0,
0,
0,
0,
0,
0,
0,
0,
0,
0,
0,
0,
0,
0,
0,
0,
0,
0,
0,
0,
0,
0,
0,
0,
0,
0,
0,
0,
0,
0,
0,
0,
0,
0,
0,
0,
0,
0,
0,
0,
0,
0,
0,
0,
0,
0,
0,
0,
0,
0,
0,
0,
0,
0,
0,
0,
0,
0,
0,
0,
0,
0,
1,
0,
0,
0,
0,
0,
0,
0,
0,
0,
0,
0,
0,
1,
0,
0,
0,
0,
0,
0,
0,
0,
0,
0,
0,
0,
0,
0,
0,
0,
0,
0,
0,
0,
0,
0,
0,
0,
0,
0,
0,
0,
0,
0,
0,
0,
0,
0,
0,
0,
0,
0,
0,
0,
0,
0,
0,
0,
0,
0,
0,
0,
0,
0,
0,
0,
0,
0,
0,
0,
0,
0,
0,
0,
0,
0,
0,
0,
0,
0,
0,
0,
0,
0,
0,
0,
0,
0,
0,
0,
0,
0,
0,
0,
0,
0,
0,
0,
0,
0,
0,
0,
0,
0,
0,
0,
0,
0,
0,
0,
0,
0,
0,
0,
0,
0,
0,
0,
0,
0,
0,
0,
0,
0,
0,
0,
0,
0,
0,
0,
0,
0,
0,
0,
0,
0,
0,
0,
0,
0,
0,
0,
0,
0,
0,
0,
0,
0,
0,
0,
0,
0,
0,
0,
0,
0,
0,
0,
0,
0,
0,
0,
0,
0,
0,
0,
0,
0,
0,
0,
0,
0,
0,
0,
0,
0,
0,
0,
0,
0,
0,
0,
0,
0,
0,
0,
0,
0,
0,
0,
0,
0,
0,
0,
0,
0,
0,
0,
0,
0,
0,
0,
0,
0,
0,
0,
0,
0,
0,
0,
0,
0,
0,
0,
0,
0,
0,
0,
0,
0,
0,
0,
0,
0,
0,
0,
0,
0,
0,
0,
0,
0,
0,
0,
0,
0,
0,
0,
0,
0,
0,
0,
0,
0,
0,
0,
0,
0,
0,
0,
0,
0,
0,
0,
0,
0,
0,
0,
0,
0,
0,
0,
0,
0,
0,
0,
0,
0,
0,
0,
0,
0,
0,
0,
0,
0,
0,
0,
0,
0,
0,
0,
0,
0,
0,
0,
0,
0,
0,
0,
0,
0,
0,
0,
0,
0,
0,
0,
0,
0,
0,
0,
0,
0,
0,
0,
0,
0,
0,
0,
0,
0,
0,
0,
0,
0,
0,
0,
0,
0,
0,
0,
0,
0,
0,
0,
0,
0,
0,
0,
0,
0,
0,
0,
0,
0,
0,
0,
0,
0,
0,
0,
0,
0,
0,
0,
0,
0,
0,
0,
0,
0,
0,
0,
0,
0,
0,
0,
0,
0,
0,
0,
0,
0,
0,
0,
0,
0,
0,
0,
0,
0,
0,
0,
0,
0,
0,
0,
0,
0,
0,
0,
0,
0,
0,
0,
0,
0,
0,
0,
0,
0,
0,
0,
0,
0,
0,
0,
0,
0,
0,
0,
0,
0,
0,
0,
0,
0,
0,
0,
0,
0,
0,
0,
0,
0,
0,
0,
0,
0,
0,
0,
0,
0,
0,
0,
0,
0,
0,
0,
0,
0,
0,
0,
0,
0,
0,
0,
0,
0,
0,
0,
0,
0,
0,
0,
0,
0,
0,
0,
0,
0,
0,
0,
0,
0,
0,
0,
0,
0,
0,
0,
0,
0,
0,
0,
0,
0,
0,
0,
0,
0,
0,
0,
0,
0,
0,
0,
0,
0,
0,
0,
0,
0,
0,
0,
0,
0,
0,
0,
0,
0,
0,
0,
0,
0,
0,
0,
0,
0,
0,
0,
0,
0,
0,
0,
0,
0,
0,
0,
0,
0,
0,
0,
0,
0,
0,
0,
0,
0,
0,
0,
0,
0,
0,
0,
0,
0,
0,
0,
0,
0,
0,
0,
0,
0,
0,
0,
0,
0,
0,
0,
0,
0,
0,
0,
0,
0,
0,
0,
0,
0,
0,
0,
0,
0,
0,
0,
0,
0,
0,
0,
0,
0,
0,
0,
0,
0,
0,
0,
0,
0,
0,
0,
0,
0,
0,
0,
0,
0,
0,
0,
0,
0,
0,
0,
0,
0,
0,
0,
0,
0,
0,
0,
0,
0,
0,
0,
0,
0,
0,
0,
0,
0,
0,
0,
0,
0,
0,
0,
0,
0,
0,
0,
0,
0,
0,
0,
#ENDOFDATA   :