File: N132962/Quantification/15 keV/Mengason MM2/MMM2 Pyrite[1][4].msa
#FORMAT      : EMSA/MAS Spectral Data File
#VERSION     : 1.0
#TITLE       : MMM2 Pyrite[1][all]
#DATE        : 28-SEP-2025
#TIME        : 20:47
#OWNER       : Unknown
#NPOINTS     : 4096
#NCOLUMNS    : 1
#XUNITS      : eV
#YUNITS      : counts
#DATATYPE    : Y
#XPERCHAN    : 9.99778
#OFFSET      : 1.69135
#BEAMKV      : 15
#SIGNALTYPE  : EDS
#ELEVANGLE   : 35
#AZIMANGLE   : 0
#LIVETIME    : 240.206
#REALTIME    : 259.032
#PROBECUR    : 1.21333
#TAUWIND     : 0
#TDEADLYR    : 0
#TACTLYR     : 0.045
#TALWIND     : 0.025
#CHOFFSET    : 0.0
#XLABEL      : Energy (eV)
#YLABEL      : Counts
#XPOSITION   : -11.59572
#YPOSITION   : -4.40353
#ZPOSITION   : 34.11879
#EDSDET      : SD
##SPECIMEN   : MMM2 Pyrite[1][all]
##D2STDCMP   : Pyrite,(S:53.4528),(Fe:46.5472)
##DET_HASH   : 12273538-fd48-a23f-0a19-f1e6fa85caef
##CALIB_HASH : 6abaa72c-aa41-8738-0be9-f592914732f3
##WORKING    : 15.0 mm
##DET_NAME   : EDAX All
##DET_MODE   : MediumLE
#SPECTRUM    :
21,
31,
16,
79,
596,
1243,
1698,
4528,
13174,
17049,
8256,
3344,
3036,
3362,
3796,
4675,
6675,
10116,
14834,
21222,
26543,
28738,
47759,
81759,
68324,
25993,
8320,
5294,
4719,
4662,
4526,
4619,
4734,
4911,
5052,
5325,
5353,
5582,
5523,
5727,
5782,
5989,
6097,
6199,
6198,
6238,
6486,
6355,
6423,
6640,
6599,
6611,
6521,
6452,
6252,
6505,
6640,
7116,
7225,
7157,
6814,
6362,
5971,
5936,
5809,
6029,
6051,
6043,
6051,
6299,
6433,
7470,
10704,
19388,
45865,
127072,
259161,
325031,
235677,
101338,
34545,
23853,
26588,
21953,
12793,
6293,
3783,
3355,
3306,
3263,
3201,
3273,
3233,
3163,
3205,
3201,
3401,
3352,
3347,
3458,
3534,
3264,
3207,
3156,
3108,
3127,
3012,
2941,
2998,
2881,
3078,
2849,
2982,
2925,
2956,
2860,
2753,
2739,
2725,
2723,
2799,
2818,
2772,
2740,
2786,
2709,
2678,
2545,
2663,
2645,
2484,
2562,
2599,
2507,
2519,
2531,
2474,
2519,
2409,
2448,
2442,
2334,
2279,
2360,
2303,
2336,
2266,
2383,
2326,
2355,
2373,
2343,
2568,
2692,
2835,
2810,
2611,
2364,
2319,
2138,
2057,
2081,
1965,
2071,
1956,
2019,
2024,
2021,
1961,
1924,
1861,
1943,
1901,
1882,
1945,
1861,
1835,
1783,
1766,
1824,
1818,
1791,
1744,
1790,
1686,
1704,
1698,
1699,
1637,
1646,
1656,
1653,
1701,
1579,
1617,
1587,
1596,
1558,
1556,
1540,
1470,
1535,
1499,
1546,
1597,
1587,
1639,
1813,
2899,
5782,
12969,
25464,
39985,
48302,
45387,
32777,
18363,
8438,
3673,
1943,
1403,
1290,
1388,
1387,
1355,
1260,
1261,
1181,
1338,
1415,
1600,
2107,
3234,
4884,
6536,
7339,
6582,
4913,
3211,
2042,
1336,
1103,
1032,
1065,
988,
993,
967,
995,
1028,
984,
1004,
954,
920,
957,
907,
958,
836,
903,
884,
935,
886,
880,
907,
927,
859,
858,
839,
874,
848,
809,
810,
800,
765,
783,
797,
812,
781,
785,
790,
756,
811,
736,
745,
759,
752,
734,
812,
782,
824,
891,
827,
836,
781,
725,
735,
681,
662,
609,
639,
657,
666,
625,
648,
632,
648,
619,
615,
605,
588,
669,
567,
616,
602,
610,
581,
562,
572,
580,
553,
519,
558,
528,
506,
571,
521,
520,
520,
511,
486,
478,
498,
477,
473,
487,
496,
478,
497,
452,
433,
445,
435,
447,
414,
400,
413,
399,
413,
414,
399,
421,
424,
364,
380,
400,
375,
398,
336,
382,
346,
358,
332,
353,
355,
385,
342,
329,
348,
325,
297,
296,
312,
315,
325,
309,
334,
325,
285,
289,
290,
283,
260,
256,
262,
260,
256,
264,
233,
277,
252,
243,
246,
243,
231,
264,
225,
236,
246,
225,
234,
231,
219,
189,
215,
217,
175,
190,
179,
225,
244,
189,
197,
192,
175,
184,
173,
163,
175,
158,
173,
166,
158,
135,
166,
159,
156,
147,
157,
147,
145,
139,
137,
136,
142,
111,
106,
132,
104,
123,
117,
115,
107,
99,
105,
116,
90,
91,
104,
76,
99,
90,
109,
78,
78,
79,
78,
76,
63,
63,
76,
61,
78,
58,
41,
50,
45,
39,
47,
52,
57,
60,
45,
51,
40,
38,
34,
43,
32,
33,
31,
32,
31,
23,
34,
15,
22,
20,
19,
17,
21,
13,
11,
15,
9,
14,
9,
7,
7,
8,
6,
3,
1,
1,
0,
0,
3,
0,
3,
1,
2,
1,
0,
0,
0,
1,
1,
0,
2,
0,
4,
1,
0,
1,
2,
0,
0,
0,
1,
0,
1,
1,
0,
0,
0,
4,
2,
0,
0,
0,
2,
2,
1,
2,
0,
1,
1,
1,
0,
1,
0,
1,
1,
0,
2,
0,
1,
1,
1,
0,
0,
1,
0,
2,
1,
0,
1,
1,
3,
0,
1,
0,
0,
2,
0,
1,
0,
0,
0,
0,
1,
1,
1,
0,
0,
1,
1,
0,
0,
1,
1,
0,
0,
0,
0,
0,
1,
0,
0,
0,
0,
1,
0,
0,
0,
1,
2,
0,
1,
0,
1,
0,
0,
0,
0,
0,
1,
0,
0,
0,
2,
0,
0,
0,
1,
1,
0,
1,
1,
0,
1,
1,
0,
0,
0,
0,
1,
1,
0,
0,
0,
0,
0,
1,
0,
0,
0,
0,
0,
0,
0,
0,
0,
1,
0,
0,
0,
0,
0,
0,
0,
1,
0,
0,
0,
0,
0,
1,
0,
0,
1,
0,
0,
0,
0,
0,
0,
0,
0,
0,
0,
0,
0,
0,
2,
0,
0,
0,
0,
0,
0,
0,
0,
0,
0,
0,
0,
0,
0,
0,
1,
0,
0,
0,
0,
0,
0,
0,
0,
0,
1,
0,
0,
0,
0,
0,
0,
1,
0,
0,
0,
0,
0,
0,
0,
0,
0,
1,
1,
0,
0,
0,
0,
0,
0,
0,
0,
0,
0,
0,
0,
0,
0,
0,
0,
0,
0,
0,
0,
0,
0,
0,
0,
0,
0,
0,
0,
0,
0,
0,
0,
0,
0,
1,
0,
0,
0,
0,
0,
0,
0,
0,
0,
0,
0,
0,
0,
0,
0,
0,
0,
0,
0,
0,
0,
0,
0,
0,
0,
0,
0,
0,
0,
0,
0,
0,
0,
0,
0,
0,
0,
0,
0,
0,
0,
0,
0,
0,
0,
0,
0,
0,
0,
0,
0,
0,
0,
0,
0,
0,
0,
0,
0,
0,
0,
0,
0,
0,
0,
0,
0,
0,
0,
0,
0,
0,
0,
0,
0,
0,
0,
0,
0,
0,
0,
0,
0,
0,
0,
0,
0,
0,
0,
0,
0,
0,
0,
0,
0,
0,
0,
0,
0,
0,
0,
0,
0,
0,
0,
0,
0,
0,
0,
0,
0,
0,
0,
0,
0,
0,
0,
0,
0,
0,
0,
0,
0,
0,
0,
0,
0,
0,
0,
0,
0,
0,
0,
0,
0,
0,
0,
0,
0,
0,
0,
0,
0,
0,
0,
0,
0,
0,
0,
0,
0,
0,
0,
0,
0,
0,
0,
0,
0,
0,
0,
0,
0,
0,
0,
0,
0,
0,
0,
0,
0,
0,
0,
0,
0,
0,
0,
0,
0,
0,
0,
0,
0,
0,
0,
0,
0,
0,
0,
0,
0,
0,
0,
0,
0,
0,
0,
0,
0,
0,
0,
0,
0,
0,
0,
0,
0,
0,
0,
0,
0,
0,
0,
0,
0,
0,
0,
0,
0,
0,
0,
0,
0,
0,
0,
0,
0,
0,
0,
0,
0,
0,
0,
0,
0,
0,
0,
0,
0,
0,
0,
0,
0,
0,
0,
0,
0,
0,
0,
0,
0,
0,
0,
0,
0,
0,
0,
0,
0,
0,
0,
0,
0,
0,
0,
0,
0,
0,
0,
0,
0,
0,
0,
0,
0,
0,
0,
0,
0,
0,
0,
0,
0,
0,
0,
0,
0,
0,
0,
0,
0,
0,
0,
0,
0,
0,
0,
0,
0,
0,
0,
0,
0,
0,
0,
0,
0,
0,
0,
0,
0,
0,
0,
0,
0,
0,
0,
0,
0,
0,
0,
0,
0,
0,
0,
0,
0,
0,
0,
0,
0,
0,
0,
0,
0,
0,
0,
0,
0,
0,
0,
0,
0,
0,
0,
0,
0,
0,
0,
0,
0,
0,
0,
0,
0,
0,
0,
0,
0,
0,
0,
0,
0,
0,
0,
0,
0,
0,
0,
0,
0,
0,
0,
0,
0,
0,
0,
0,
0,
0,
0,
0,
0,
0,
0,
0,
0,
0,
0,
0,
0,
0,
0,
0,
0,
0,
0,
0,
0,
0,
0,
0,
0,
0,
0,
0,
0,
0,
0,
0,
0,
0,
0,
0,
0,
0,
0,
0,
0,
0,
0,
0,
0,
0,
0,
0,
0,
0,
0,
0,
0,
0,
0,
0,
0,
0,
0,
0,
0,
0,
0,
0,
0,
0,
0,
0,
0,
0,
0,
0,
0,
0,
0,
0,
0,
0,
0,
0,
0,
0,
0,
0,
0,
0,
0,
0,
0,
0,
0,
0,
0,
0,
0,
0,
0,
0,
0,
0,
0,
0,
0,
0,
0,
0,
0,
0,
0,
0,
0,
0,
0,
0,
0,
0,
0,
0,
0,
0,
0,
0,
0,
0,
0,
0,
0,
0,
0,
0,
0,
0,
0,
0,
0,
0,
0,
0,
0,
0,
0,
0,
0,
0,
0,
0,
0,
0,
0,
0,
0,
0,
0,
0,
0,
0,
0,
0,
0,
0,
0,
0,
0,
0,
0,
0,
0,
0,
0,
0,
0,
0,
0,
0,
0,
0,
0,
0,
0,
0,
0,
0,
0,
0,
0,
0,
0,
0,
0,
0,
0,
0,
0,
0,
0,
0,
0,
0,
0,
0,
0,
0,
0,
0,
0,
0,
0,
0,
0,
0,
0,
0,
0,
0,
0,
0,
0,
0,
0,
0,
0,
0,
0,
0,
0,
0,
#ENDOFDATA   :