File: N132962/Quantification/15 keV/Mengason MM2/MMM2 Uvarovite[0][4].msa
#FORMAT      : EMSA/MAS Spectral Data File
#VERSION     : 1.0
#TITLE       : MMM2 Uvarovite[0][all]
#DATE        : 28-SEP-2025
#TIME        : 22:09
#OWNER       : Unknown
#NPOINTS     : 4096
#NCOLUMNS    : 1
#XUNITS      : eV
#YUNITS      : counts
#DATATYPE    : Y
#XPERCHAN    : 9.99778
#OFFSET      : 1.69135
#BEAMKV      : 15
#SIGNALTYPE  : EDS
#ELEVANGLE   : 35
#AZIMANGLE   : 0
#LIVETIME    : 240.137
#REALTIME    : 254.306
#PROBECUR    : 1.21223
#TAUWIND     : 0
#TDEADLYR    : 0
#TACTLYR     : 0.045
#TALWIND     : 0.025
#CHOFFSET    : 0.0
#XLABEL      : Energy (eV)
#YLABEL      : Counts
#XPOSITION   : -9.28008
#YPOSITION   : -0.10495
#ZPOSITION   : 34.11879
#EDSDET      : SD
##SPECIMEN   : MMM2 Uvarovite[0][all]
##DET_HASH   : 12273538-fd48-a23f-0a19-f1e6fa85caef
##CALIB_HASH : 6abaa72c-aa41-8738-0be9-f592914732f3
##WORKING    : 15.0 mm
##DET_NAME   : EDAX All
##DET_MODE   : MediumLE
#SPECTRUM    :
17,
20,
9,
12,
106,
444,
1400,
4702,
14013,
20491,
14152,
7670,
4873,
4439,
6517,
20439,
71819,
133161,
97489,
30045,
6921,
3188,
3082,
3723,
3659,
3197,
3160,
3309,
3448,
3682,
3652,
3693,
3892,
4047,
4372,
4420,
4424,
4517,
4514,
4834,
4831,
5037,
5150,
5192,
5153,
5156,
5670,
7900,
16613,
28431,
28799,
17322,
8646,
6234,
6346,
12635,
41983,
103870,
140906,
100047,
41182,
15452,
8181,
5400,
4576,
4421,
4089,
3698,
3509,
3290,
3280,
3241,
3423,
3282,
3541,
3598,
3527,
3334,
3199,
3130,
2999,
3100,
3022,
3066,
3029,
3083,
3073,
2849,
2982,
2896,
2869,
2805,
2768,
2861,
2726,
2790,
2735,
2589,
2713,
2685,
2615,
2661,
2628,
2471,
2526,
2573,
2498,
2392,
2453,
2492,
2336,
2316,
2387,
2283,
2450,
2513,
2649,
2923,
3500,
5833,
14365,
35828,
66484,
82885,
69647,
39253,
15671,
5554,
2789,
2481,
2865,
4229,
7421,
10516,
11675,
9472,
5843,
3279,
2118,
1805,
1789,
1670,
1781,
1600,
1696,
1607,
1624,
1771,
2347,
2970,
3477,
3415,
2835,
1963,
1658,
1465,
1404,
1404,
1439,
1401,
1473,
1428,
1586,
1758,
1884,
1969,
1766,
1622,
1418,
1390,
1240,
1353,
1346,
1342,
1444,
1587,
2343,
4541,
9176,
15320,
19490,
19310,
13735,
7591,
3622,
1876,
1270,
1166,
1092,
1164,
1112,
1110,
1168,
1239,
1368,
1698,
2305,
3150,
3407,
3164,
2405,
1853,
1326,
1053,
955,
916,
969,
978,
953,
954,
1067,
1383,
1671,
1755,
1652,
1384,
1224,
993,
910,
858,
866,
790,
785,
843,
785,
774,
775,
795,
777,
809,
823,
775,
795,
805,
831,
900,
862,
815,
814,
775,
725,
745,
716,
737,
737,
692,
702,
684,
660,
686,
648,
638,
661,
633,
665,
628,
573,
611,
580,
642,
607,
559,
555,
584,
608,
486,
592,
577,
579,
556,
546,
536,
540,
507,
543,
519,
493,
516,
497,
496,
452,
497,
474,
496,
531,
469,
467,
504,
465,
488,
420,
458,
417,
433,
437,
444,
421,
409,
408,
386,
410,
419,
413,
404,
412,
418,
373,
384,
373,
400,
400,
377,
363,
350,
387,
399,
337,
364,
369,
356,
337,
350,
329,
344,
342,
328,
326,
343,
307,
330,
324,
297,
306,
287,
307,
302,
326,
283,
284,
304,
248,
252,
284,
285,
285,
262,
236,
239,
277,
262,
242,
247,
241,
233,
221,
231,
227,
233,
206,
242,
223,
244,
222,
226,
207,
225,
200,
209,
189,
198,
195,
213,
201,
212,
230,
191,
174,
212,
191,
175,
173,
165,
161,
139,
158,
159,
185,
137,
135,
152,
171,
134,
145,
129,
136,
137,
135,
129,
156,
126,
120,
121,
133,
138,
125,
117,
129,
119,
128,
119,
109,
106,
99,
104,
97,
115,
96,
83,
115,
94,
75,
97,
96,
113,
92,
94,
76,
84,
84,
78,
70,
65,
79,
81,
58,
66,
63,
67,
43,
77,
70,
50,
54,
67,
64,
59,
58,
65,
48,
50,
45,
51,
37,
41,
43,
53,
42,
38,
37,
42,
28,
31,
34,
40,
30,
32,
33,
27,
32,
25,
29,
23,
23,
17,
22,
20,
23,
24,
18,
14,
21,
7,
14,
15,
14,
12,
12,
12,
7,
9,
7,
5,
8,
8,
8,
6,
4,
6,
1,
1,
1,
0,
2,
1,
1,
1,
2,
1,
2,
0,
0,
0,
0,
0,
1,
0,
0,
0,
1,
0,
2,
1,
0,
0,
1,
0,
0,
1,
0,
0,
0,
2,
1,
0,
1,
0,
0,
0,
0,
0,
0,
0,
0,
1,
0,
2,
0,
0,
0,
0,
0,
0,
0,
0,
0,
0,
0,
0,
0,
0,
0,
0,
0,
0,
0,
0,
0,
0,
0,
0,
0,
0,
1,
0,
0,
0,
0,
1,
0,
1,
1,
0,
0,
0,
0,
0,
0,
0,
0,
0,
2,
0,
0,
0,
0,
0,
0,
0,
0,
0,
0,
0,
0,
0,
1,
0,
0,
0,
0,
0,
0,
0,
0,
0,
0,
0,
0,
0,
0,
0,
0,
0,
0,
0,
0,
0,
0,
0,
0,
0,
0,
0,
0,
0,
0,
0,
0,
0,
0,
0,
0,
0,
0,
0,
0,
0,
0,
0,
0,
0,
0,
0,
0,
0,
0,
0,
0,
0,
0,
0,
0,
0,
0,
0,
0,
0,
0,
0,
0,
0,
0,
0,
0,
0,
0,
1,
0,
0,
0,
0,
0,
0,
0,
0,
0,
0,
0,
0,
0,
0,
0,
0,
0,
0,
0,
0,
0,
0,
0,
0,
0,
0,
0,
0,
0,
0,
0,
0,
0,
0,
0,
0,
0,
0,
0,
0,
0,
0,
0,
0,
0,
0,
0,
0,
0,
0,
0,
0,
0,
0,
0,
0,
0,
0,
0,
0,
0,
0,
0,
0,
0,
0,
0,
0,
0,
0,
0,
0,
0,
0,
0,
0,
0,
0,
0,
0,
0,
0,
0,
0,
0,
0,
0,
0,
0,
0,
0,
0,
0,
0,
0,
0,
0,
0,
0,
0,
0,
0,
0,
0,
0,
0,
0,
0,
0,
0,
0,
0,
0,
0,
0,
0,
0,
0,
0,
0,
0,
0,
0,
0,
0,
0,
0,
0,
0,
0,
0,
0,
0,
0,
0,
0,
0,
0,
0,
0,
0,
0,
0,
0,
0,
0,
0,
0,
0,
0,
0,
0,
0,
0,
0,
0,
0,
0,
0,
0,
0,
0,
0,
0,
0,
0,
0,
0,
0,
0,
0,
0,
0,
0,
0,
0,
0,
0,
0,
0,
0,
0,
0,
0,
0,
0,
0,
0,
0,
0,
0,
0,
0,
0,
0,
0,
0,
0,
0,
0,
0,
0,
0,
0,
0,
0,
0,
0,
0,
0,
0,
0,
0,
0,
0,
0,
0,
0,
0,
0,
0,
0,
0,
0,
0,
0,
0,
0,
0,
0,
0,
0,
0,
0,
0,
0,
0,
0,
0,
0,
0,
0,
0,
0,
0,
0,
0,
0,
0,
0,
0,
0,
0,
0,
0,
0,
0,
0,
0,
0,
0,
0,
0,
0,
0,
0,
0,
0,
0,
0,
0,
0,
0,
0,
0,
0,
0,
0,
0,
0,
0,
0,
0,
0,
0,
0,
0,
0,
0,
0,
0,
0,
0,
0,
0,
0,
0,
0,
0,
0,
0,
0,
0,
0,
0,
0,
0,
0,
0,
0,
0,
0,
0,
0,
0,
0,
0,
0,
0,
0,
0,
0,
0,
0,
0,
0,
0,
0,
0,
0,
0,
0,
0,
0,
0,
0,
0,
0,
0,
0,
0,
0,
0,
0,
0,
0,
0,
0,
0,
0,
0,
0,
0,
0,
0,
0,
0,
0,
0,
0,
0,
0,
0,
0,
0,
0,
0,
0,
0,
0,
0,
0,
0,
0,
0,
0,
0,
0,
0,
0,
0,
0,
0,
0,
0,
0,
0,
0,
0,
0,
0,
0,
0,
0,
0,
0,
0,
0,
0,
0,
0,
0,
0,
0,
0,
0,
0,
0,
0,
0,
0,
0,
0,
0,
0,
0,
0,
0,
0,
0,
0,
0,
0,
0,
0,
0,
0,
0,
0,
0,
0,
0,
0,
0,
0,
0,
0,
0,
0,
0,
0,
0,
0,
0,
0,
0,
0,
0,
0,
0,
0,
0,
0,
0,
0,
0,
0,
0,
0,
0,
0,
0,
0,
0,
0,
0,
0,
0,
0,
0,
0,
0,
0,
0,
0,
0,
0,
0,
0,
0,
0,
0,
0,
0,
0,
0,
0,
0,
0,
0,
0,
0,
0,
0,
0,
0,
0,
0,
0,
0,
0,
0,
0,
0,
0,
0,
0,
0,
0,
0,
0,
0,
0,
0,
0,
0,
0,
0,
0,
0,
0,
0,
0,
0,
0,
0,
0,
0,
0,
0,
0,
0,
0,
0,
0,
0,
0,
0,
0,
0,
0,
0,
0,
0,
0,
0,
0,
0,
0,
0,
0,
0,
0,
0,
0,
0,
0,
0,
0,
0,
0,
0,
0,
0,
0,
0,
0,
0,
0,
0,
0,
0,
0,
0,
0,
0,
0,
0,
0,
0,
0,
0,
0,
0,
0,
0,
0,
0,
0,
0,
0,
0,
0,
0,
0,
0,
0,
0,
0,
0,
0,
0,
0,
0,
0,
0,
0,
0,
0,
0,
0,
0,
0,
0,
0,
0,
0,
0,
0,
0,
0,
0,
0,
0,
0,
0,
0,
0,
0,
0,
0,
0,
0,
0,
0,
0,
0,
0,
0,
0,
0,
0,
0,
0,
0,
0,
0,
0,
0,
0,
0,
0,
0,
0,
0,
0,
0,
0,
0,
0,
0,
0,
0,
0,
0,
0,
0,
0,
0,
0,
0,
0,
0,
0,
0,
0,
0,
0,
0,
0,
0,
0,
0,
0,
0,
0,
0,
0,
0,
0,
#ENDOFDATA   :