File: N132962/Quantification/15 keV/Mengason MM2/MMM2 Sphene[3][4].msa
#FORMAT      : EMSA/MAS Spectral Data File
#VERSION     : 1.0
#TITLE       : MMM2 Sphene[3][all]
#DATE        : 28-SEP-2025
#TIME        : 22:02
#OWNER       : Unknown
#NPOINTS     : 4096
#NCOLUMNS    : 1
#XUNITS      : eV
#YUNITS      : counts
#DATATYPE    : Y
#XPERCHAN    : 9.99778
#OFFSET      : 1.69135
#BEAMKV      : 15
#SIGNALTYPE  : EDS
#ELEVANGLE   : 35
#AZIMANGLE   : 0
#LIVETIME    : 240.127
#REALTIME    : 253.361
#PROBECUR    : 1.21223
#TAUWIND     : 0
#TDEADLYR    : 0
#TACTLYR     : 0.045
#TALWIND     : 0.025
#CHOFFSET    : 0.0
#XLABEL      : Energy (eV)
#YLABEL      : Counts
#XPOSITION   : -11.17152
#YPOSITION   : -1.88372
#ZPOSITION   : 34.11879
#EDSDET      : SD
##SPECIMEN   : MMM2 Sphene[3][all]
##DET_HASH   : 12273538-fd48-a23f-0a19-f1e6fa85caef
##CALIB_HASH : 6abaa72c-aa41-8738-0be9-f592914732f3
##WORKING    : 15.0 mm
##DET_NAME   : EDAX All
##DET_MODE   : MediumLE
#SPECTRUM    :
25,
32,
12,
21,
108,
423,
1409,
4800,
14012,
20276,
14378,
9143,
9203,
10785,
12241,
19985,
53357,
96743,
70381,
19125,
3811,
2422,
2893,
3254,
3311,
2918,
2970,
3159,
3269,
3433,
3486,
3643,
3851,
3921,
4110,
4210,
4321,
4409,
4670,
4620,
4659,
4955,
4837,
5000,
5025,
5072,
5267,
5866,
7822,
10663,
10727,
8194,
6155,
5668,
6231,
11638,
37347,
90738,
121891,
86500,
36432,
13977,
7562,
5503,
4481,
4509,
4195,
3880,
3728,
3632,
3552,
3702,
3731,
3639,
3679,
3765,
3755,
3415,
3346,
3073,
3152,
3138,
3132,
3089,
3069,
3002,
2885,
2996,
3129,
2942,
3072,
3197,
3236,
3229,
2924,
2885,
2635,
2726,
2806,
2695,
2633,
2546,
2553,
2502,
2578,
2589,
2535,
2629,
2556,
2454,
2474,
2399,
2333,
2274,
2426,
2474,
2591,
2888,
3362,
5340,
12585,
30774,
56567,
70886,
59903,
33947,
13794,
4952,
2728,
2564,
2840,
4004,
6489,
9198,
10366,
8249,
5229,
3040,
2086,
1776,
1764,
1782,
1852,
1826,
1888,
2299,
3670,
8565,
19902,
36513,
48174,
44434,
29439,
14280,
5564,
2542,
1768,
1656,
1534,
1665,
1833,
2603,
3956,
5905,
7442,
7377,
5538,
3494,
2145,
1502,
1263,
1192,
1177,
1180,
1162,
1168,
1151,
1152,
1180,
1208,
1313,
1216,
1292,
1233,
1192,
1077,
1131,
1114,
1133,
1062,
1011,
1087,
1087,
1079,
1017,
1037,
1064,
1005,
1059,
1005,
944,
936,
963,
957,
950,
981,
1012,
1045,
1002,
930,
1031,
1094,
1213,
1423,
1272,
1188,
1000,
945,
804,
860,
795,
845,
786,
849,
845,
799,
765,
773,
811,
769,
760,
751,
839,
795,
750,
819,
773,
782,
758,
732,
758,
714,
718,
704,
713,
735,
701,
694,
683,
697,
656,
645,
682,
596,
607,
638,
616,
629,
586,
614,
592,
575,
571,
603,
541,
546,
573,
568,
555,
574,
555,
520,
578,
547,
548,
533,
539,
517,
523,
504,
501,
500,
542,
469,
491,
475,
479,
496,
492,
512,
478,
418,
468,
445,
442,
409,
396,
456,
409,
458,
392,
430,
446,
422,
384,
400,
373,
399,
407,
364,
398,
382,
348,
352,
380,
342,
367,
343,
344,
378,
345,
359,
340,
364,
322,
319,
353,
323,
355,
305,
315,
349,
289,
313,
313,
311,
293,
293,
292,
271,
305,
302,
296,
288,
248,
286,
270,
270,
263,
222,
237,
241,
265,
265,
226,
240,
242,
247,
232,
216,
202,
225,
210,
221,
233,
235,
190,
212,
210,
204,
208,
195,
187,
189,
178,
186,
167,
203,
185,
186,
174,
150,
182,
165,
164,
147,
157,
167,
159,
137,
148,
159,
131,
152,
141,
137,
154,
145,
141,
137,
135,
120,
116,
131,
130,
127,
121,
129,
141,
128,
117,
111,
105,
86,
113,
116,
106,
130,
95,
87,
99,
112,
102,
99,
86,
101,
78,
70,
72,
63,
80,
73,
77,
70,
79,
65,
74,
59,
60,
56,
65,
51,
60,
57,
68,
61,
45,
43,
44,
50,
51,
54,
40,
36,
42,
42,
44,
33,
48,
42,
43,
37,
27,
40,
25,
32,
24,
26,
27,
37,
25,
28,
26,
20,
27,
20,
19,
21,
19,
16,
15,
13,
21,
15,
12,
16,
8,
10,
9,
10,
12,
3,
5,
6,
1,
1,
3,
1,
2,
1,
1,
0,
1,
2,
1,
0,
0,
0,
1,
0,
0,
0,
2,
0,
0,
0,
0,
0,
0,
1,
1,
2,
2,
0,
1,
0,
1,
0,
1,
1,
0,
0,
0,
0,
1,
0,
0,
0,
2,
0,
0,
1,
0,
2,
1,
0,
0,
0,
1,
0,
2,
0,
0,
0,
0,
1,
0,
1,
0,
0,
0,
0,
0,
1,
0,
0,
0,
1,
0,
0,
0,
0,
0,
0,
0,
0,
0,
1,
0,
0,
0,
0,
0,
0,
0,
0,
0,
0,
0,
0,
1,
0,
0,
0,
0,
0,
0,
0,
1,
0,
0,
0,
0,
0,
0,
0,
0,
0,
0,
0,
0,
0,
0,
1,
0,
0,
0,
0,
0,
0,
0,
0,
0,
0,
0,
1,
0,
0,
1,
0,
0,
0,
0,
0,
0,
1,
0,
0,
0,
0,
1,
0,
0,
0,
0,
0,
0,
0,
0,
0,
0,
0,
0,
0,
0,
0,
1,
0,
0,
0,
0,
0,
0,
0,
0,
1,
0,
0,
0,
0,
0,
0,
0,
0,
0,
1,
0,
0,
0,
0,
0,
0,
0,
0,
0,
0,
0,
0,
0,
0,
0,
0,
0,
0,
0,
0,
0,
0,
1,
0,
1,
0,
0,
0,
0,
0,
0,
0,
0,
0,
0,
0,
0,
0,
0,
0,
0,
0,
0,
0,
0,
0,
0,
0,
0,
0,
0,
0,
0,
0,
0,
0,
0,
0,
0,
0,
0,
0,
0,
0,
0,
0,
0,
0,
0,
0,
0,
0,
0,
0,
0,
0,
0,
0,
0,
0,
0,
0,
0,
0,
0,
0,
0,
0,
0,
0,
0,
0,
0,
0,
1,
0,
0,
0,
0,
0,
0,
0,
0,
0,
0,
0,
0,
0,
0,
0,
0,
0,
0,
0,
0,
0,
0,
0,
0,
0,
0,
0,
0,
0,
0,
0,
0,
0,
0,
0,
0,
0,
0,
0,
0,
0,
0,
0,
0,
0,
0,
0,
0,
0,
0,
0,
0,
0,
0,
0,
0,
0,
0,
0,
0,
0,
0,
0,
0,
0,
0,
0,
0,
0,
0,
0,
0,
0,
0,
0,
0,
0,
0,
0,
0,
0,
0,
0,
0,
0,
0,
0,
0,
0,
0,
0,
0,
0,
0,
0,
0,
0,
0,
0,
0,
0,
0,
0,
0,
0,
0,
0,
0,
0,
0,
0,
0,
0,
0,
0,
0,
0,
0,
0,
0,
0,
0,
0,
0,
0,
0,
0,
0,
0,
0,
0,
0,
0,
0,
0,
0,
0,
0,
0,
0,
0,
0,
0,
0,
0,
0,
0,
0,
0,
0,
0,
0,
0,
0,
0,
0,
0,
0,
0,
0,
0,
0,
0,
0,
0,
0,
0,
0,
0,
0,
0,
0,
0,
0,
0,
0,
0,
0,
0,
0,
0,
0,
0,
0,
0,
0,
0,
0,
0,
0,
0,
0,
0,
0,
0,
0,
0,
0,
0,
0,
0,
0,
0,
0,
0,
0,
0,
0,
0,
0,
0,
0,
0,
0,
0,
0,
0,
0,
0,
0,
0,
0,
0,
0,
0,
0,
0,
0,
0,
0,
0,
0,
0,
0,
0,
0,
0,
0,
0,
0,
0,
0,
0,
0,
0,
0,
0,
0,
0,
0,
0,
0,
0,
0,
0,
0,
0,
0,
0,
0,
0,
0,
0,
0,
0,
0,
0,
0,
0,
0,
0,
0,
0,
0,
0,
0,
0,
0,
0,
0,
0,
0,
0,
0,
0,
0,
0,
0,
0,
0,
0,
0,
0,
0,
0,
0,
0,
0,
0,
0,
0,
0,
0,
0,
0,
0,
0,
0,
0,
0,
0,
0,
0,
0,
0,
0,
0,
0,
0,
0,
0,
0,
0,
0,
0,
0,
0,
0,
0,
0,
0,
0,
0,
0,
0,
0,
0,
0,
0,
0,
0,
0,
0,
0,
0,
0,
0,
0,
0,
0,
0,
0,
0,
0,
0,
0,
0,
0,
0,
0,
0,
0,
0,
0,
0,
0,
0,
0,
0,
0,
0,
0,
0,
0,
0,
0,
0,
0,
0,
0,
0,
0,
0,
0,
0,
0,
0,
0,
0,
0,
0,
0,
0,
0,
0,
0,
0,
0,
0,
0,
0,
0,
0,
0,
0,
0,
0,
0,
0,
0,
0,
0,
0,
0,
0,
0,
0,
0,
0,
0,
0,
0,
0,
0,
0,
0,
0,
0,
0,
0,
0,
0,
0,
0,
0,
0,
0,
0,
0,
0,
0,
0,
0,
0,
0,
0,
0,
0,
0,
0,
0,
0,
0,
0,
0,
0,
0,
0,
0,
0,
0,
0,
0,
0,
0,
0,
0,
0,
0,
0,
0,
0,
0,
0,
0,
0,
0,
0,
0,
0,
0,
0,
0,
0,
0,
0,
0,
0,
0,
0,
0,
0,
0,
0,
0,
0,
0,
0,
0,
0,
0,
0,
0,
0,
0,
0,
0,
0,
0,
0,
0,
0,
0,
0,
0,
0,
0,
0,
0,
0,
0,
0,
0,
0,
0,
0,
0,
0,
0,
0,
0,
0,
0,
0,
0,
0,
0,
0,
0,
0,
0,
0,
0,
0,
0,
0,
0,
0,
0,
0,
0,
0,
0,
0,
0,
0,
0,
0,
0,
0,
0,
0,
0,
0,
0,
0,
0,
0,
0,
0,
0,
0,
0,
0,
0,
0,
0,
0,
0,
0,
0,
0,
0,
0,
0,
0,
0,
0,
0,
0,
0,
0,
0,
0,
0,
#ENDOFDATA   :