File: N132962/Quantification/15 keV/Mengason MM2/MMM2 Spessartine[3][4].msa
#FORMAT      : EMSA/MAS Spectral Data File
#VERSION     : 1.0
#TITLE       : MMM2 Spessartine[3][all]
#DATE        : 29-SEP-2025
#TIME        : 00:48
#OWNER       : Unknown
#NPOINTS     : 4096
#NCOLUMNS    : 1
#XUNITS      : eV
#YUNITS      : counts
#DATATYPE    : Y
#XPERCHAN    : 9.99778
#OFFSET      : 1.69135
#BEAMKV      : 15
#SIGNALTYPE  : EDS
#ELEVANGLE   : 35
#AZIMANGLE   : 0
#LIVETIME    : 240.388
#REALTIME    : 256.81
#PROBECUR    : 1.21186
#TAUWIND     : 0
#TDEADLYR    : 0
#TACTLYR     : 0.045
#TALWIND     : 0.025
#CHOFFSET    : 0.0
#XLABEL      : Energy (eV)
#YLABEL      : Counts
#XPOSITION   : -19.75445
#YPOSITION   : 6.63347
#ZPOSITION   : 34.11879
#EDSDET      : SD
##SPECIMEN   : MMM2 Spessartine[3][all]
##DET_HASH   : 12273538-fd48-a23f-0a19-f1e6fa85caef
##CALIB_HASH : 6abaa72c-aa41-8738-0be9-f592914732f3
##WORKING    : 15.0 mm
##DET_NAME   : EDAX All
##DET_MODE   : MediumLE
#SPECTRUM    :
27,
14,
7,
22,
111,
474,
1289,
4529,
12361,
15866,
8591,
4853,
5071,
6609,
11716,
39410,
144576,
274258,
200643,
59313,
20890,
25436,
20613,
10051,
5193,
3555,
2959,
3098,
3238,
3402,
3383,
3609,
3758,
4093,
4426,
4485,
4347,
4309,
4513,
4558,
4698,
4687,
5091,
5045,
5283,
5632,
6786,
14196,
41596,
82592,
83682,
44764,
16144,
7350,
6209,
11762,
38155,
93998,
126619,
89603,
37696,
14216,
7667,
4766,
3745,
3484,
3731,
3728,
3566,
3431,
3297,
3289,
3374,
3524,
3491,
3588,
3681,
3466,
3249,
3143,
3140,
3030,
3053,
2991,
2978,
3032,
2844,
2886,
2866,
2973,
2850,
2833,
2813,
2834,
2639,
2771,
2814,
2693,
2706,
2697,
2706,
2622,
2592,
2672,
2575,
2542,
2525,
2583,
2547,
2595,
2450,
2399,
2493,
2448,
2505,
2461,
2362,
2397,
2369,
2226,
2394,
2617,
2846,
3065,
2866,
2516,
2117,
2073,
1947,
1963,
2043,
2015,
2081,
2129,
1971,
2089,
2049,
2035,
2024,
2057,
1926,
1865,
1816,
1801,
1697,
1665,
1714,
1760,
1642,
1745,
1763,
1676,
1614,
1667,
1629,
1587,
1617,
1620,
1708,
1571,
1541,
1501,
1563,
1450,
1481,
1467,
1468,
1418,
1469,
1395,
1468,
1399,
1367,
1273,
1307,
1353,
1360,
1339,
1363,
1314,
1241,
1252,
1258,
1322,
1226,
1249,
1293,
1267,
1284,
1323,
1404,
1973,
3642,
8460,
18003,
30609,
40091,
39427,
29966,
16664,
7895,
3192,
1589,
1154,
1142,
1075,
1066,
1052,
1111,
1204,
1362,
1882,
2469,
3676,
4799,
6011,
6372,
5788,
4275,
2686,
1705,
1091,
937,
872,
760,
819,
813,
783,
776,
795,
763,
788,
845,
913,
927,
924,
877,
810,
787,
768,
728,
691,
783,
699,
730,
718,
737,
702,
736,
716,
698,
753,
700,
718,
745,
724,
686,
629,
623,
664,
586,
563,
619,
594,
613,
563,
607,
565,
572,
583,
555,
574,
561,
540,
558,
531,
537,
534,
567,
516,
561,
514,
522,
515,
530,
477,
524,
480,
514,
480,
464,
497,
492,
459,
464,
453,
478,
445,
441,
505,
429,
431,
401,
424,
397,
395,
455,
425,
409,
415,
401,
415,
408,
355,
395,
347,
394,
341,
343,
380,
376,
366,
348,
364,
336,
345,
361,
351,
337,
372,
338,
294,
330,
279,
312,
317,
335,
314,
292,
303,
283,
302,
307,
292,
267,
274,
278,
289,
279,
243,
278,
278,
270,
254,
241,
255,
243,
231,
246,
239,
238,
229,
228,
255,
237,
201,
236,
244,
245,
233,
198,
230,
197,
193,
203,
178,
208,
181,
217,
196,
165,
162,
177,
173,
190,
184,
169,
189,
179,
175,
170,
171,
176,
144,
160,
164,
145,
152,
145,
153,
158,
148,
137,
122,
129,
129,
111,
127,
131,
118,
111,
122,
116,
122,
112,
125,
119,
96,
116,
107,
98,
88,
105,
107,
98,
111,
91,
93,
80,
71,
86,
76,
85,
81,
87,
60,
78,
90,
55,
75,
65,
62,
68,
68,
56,
73,
61,
57,
53,
45,
56,
50,
38,
50,
43,
36,
32,
55,
34,
49,
38,
42,
27,
39,
40,
32,
31,
30,
25,
29,
29,
22,
21,
21,
29,
30,
27,
23,
25,
16,
15,
19,
12,
12,
20,
12,
14,
9,
7,
9,
7,
5,
7,
12,
8,
5,
5,
3,
2,
2,
0,
4,
2,
0,
0,
1,
1,
0,
0,
1,
0,
0,
1,
0,
0,
0,
0,
1,
1,
0,
0,
2,
0,
0,
0,
0,
1,
1,
1,
0,
1,
1,
0,
3,
1,
0,
1,
0,
0,
0,
0,
0,
0,
0,
0,
0,
0,
0,
0,
1,
1,
0,
0,
0,
0,
0,
0,
1,
0,
0,
0,
0,
1,
0,
0,
0,
0,
0,
1,
1,
1,
0,
0,
1,
0,
1,
0,
1,
0,
1,
1,
0,
0,
0,
0,
1,
0,
0,
0,
0,
0,
0,
0,
0,
1,
1,
0,
0,
2,
1,
0,
0,
1,
0,
1,
1,
0,
0,
0,
0,
0,
0,
0,
0,
0,
0,
0,
0,
0,
0,
0,
0,
0,
0,
0,
0,
0,
1,
0,
0,
0,
0,
0,
0,
0,
0,
0,
0,
0,
0,
0,
0,
0,
0,
0,
0,
0,
0,
0,
0,
0,
1,
0,
0,
0,
0,
0,
0,
0,
0,
0,
0,
0,
0,
0,
0,
0,
1,
0,
0,
0,
0,
0,
0,
0,
0,
0,
0,
0,
0,
0,
0,
0,
0,
0,
0,
0,
0,
0,
0,
0,
0,
0,
0,
0,
0,
0,
0,
0,
0,
0,
0,
0,
0,
0,
0,
0,
0,
0,
0,
0,
0,
0,
0,
0,
0,
0,
0,
0,
0,
0,
0,
0,
0,
0,
0,
0,
0,
0,
0,
0,
0,
0,
0,
0,
0,
0,
0,
0,
0,
0,
0,
0,
0,
0,
0,
0,
0,
0,
0,
0,
0,
0,
0,
0,
0,
0,
0,
0,
0,
0,
0,
0,
0,
0,
0,
0,
0,
0,
0,
0,
0,
0,
0,
0,
0,
0,
0,
0,
0,
0,
0,
0,
0,
0,
0,
0,
0,
0,
0,
0,
0,
0,
0,
0,
0,
0,
0,
0,
0,
0,
0,
0,
0,
0,
0,
0,
0,
0,
0,
0,
0,
0,
0,
0,
0,
0,
0,
0,
0,
0,
0,
0,
0,
0,
0,
0,
0,
0,
0,
0,
0,
0,
0,
0,
0,
0,
0,
0,
0,
0,
0,
0,
0,
0,
0,
0,
0,
0,
0,
0,
0,
0,
0,
0,
0,
0,
0,
0,
0,
0,
0,
0,
0,
0,
0,
0,
0,
0,
0,
0,
0,
0,
0,
0,
0,
0,
0,
0,
0,
0,
0,
0,
0,
0,
0,
0,
0,
0,
0,
0,
0,
0,
0,
0,
0,
0,
0,
0,
0,
0,
0,
0,
0,
0,
0,
0,
0,
0,
0,
0,
0,
0,
0,
0,
0,
0,
0,
0,
0,
0,
0,
0,
0,
0,
0,
0,
0,
0,
0,
0,
0,
0,
0,
0,
0,
0,
0,
0,
0,
0,
0,
0,
0,
0,
0,
0,
0,
0,
0,
0,
0,
0,
0,
0,
0,
0,
0,
0,
0,
0,
0,
0,
0,
0,
0,
0,
0,
0,
0,
0,
0,
0,
0,
0,
0,
0,
0,
0,
0,
0,
0,
0,
0,
0,
0,
0,
0,
0,
0,
0,
0,
0,
0,
0,
0,
0,
0,
0,
0,
0,
0,
0,
0,
0,
0,
0,
0,
0,
0,
0,
0,
0,
0,
0,
0,
0,
0,
0,
0,
0,
0,
0,
0,
0,
0,
0,
0,
0,
0,
0,
0,
0,
0,
0,
0,
0,
0,
0,
0,
0,
0,
0,
0,
0,
0,
0,
0,
0,
0,
0,
0,
0,
0,
0,
0,
0,
0,
0,
0,
0,
0,
0,
0,
0,
0,
0,
0,
0,
0,
0,
0,
0,
0,
0,
0,
0,
0,
0,
0,
0,
0,
0,
0,
0,
0,
0,
0,
0,
0,
0,
0,
0,
0,
0,
0,
0,
0,
0,
0,
0,
0,
0,
0,
0,
0,
0,
0,
0,
0,
0,
0,
0,
0,
0,
0,
0,
0,
0,
0,
0,
0,
0,
0,
0,
0,
0,
0,
0,
0,
0,
0,
0,
0,
0,
0,
0,
0,
0,
0,
0,
0,
0,
0,
0,
0,
0,
0,
0,
0,
0,
0,
0,
0,
0,
0,
0,
0,
0,
0,
0,
0,
0,
0,
0,
0,
0,
0,
0,
0,
0,
0,
0,
0,
0,
0,
0,
0,
0,
0,
0,
0,
0,
0,
0,
0,
0,
0,
0,
0,
0,
0,
0,
0,
0,
0,
0,
0,
0,
0,
0,
0,
0,
0,
0,
0,
0,
0,
0,
0,
0,
0,
0,
0,
0,
0,
0,
0,
0,
0,
0,
0,
0,
0,
0,
0,
0,
0,
0,
0,
0,
0,
0,
0,
0,
0,
0,
0,
0,
0,
0,
0,
0,
0,
0,
0,
0,
0,
0,
0,
0,
0,
0,
0,
0,
0,
0,
0,
0,
0,
0,
0,
0,
0,
0,
0,
0,
0,
0,
0,
0,
0,
0,
0,
0,
0,
0,
0,
0,
0,
0,
0,
0,
0,
0,
0,
0,
0,
0,
0,
0,
0,
0,
0,
0,
0,
0,
0,
0,
0,
0,
0,
0,
0,
0,
0,
0,
0,
0,
0,
0,
0,
0,
0,
0,
0,
0,
0,
0,
0,
0,
0,
0,
0,
0,
0,
0,
0,
0,
0,
0,
0,
0,
0,
0,
0,
0,
0,
0,
0,
0,
0,
0,
0,
0,
0,
0,
0,
0,
0,
0,
0,
0,
0,
0,
0,
0,
0,
0,
0,
0,
0,
0,
0,
0,
0,
#ENDOFDATA   :