File: N132962/Quantification/15 keV/Mengason MM2/MMM2 Pyrope[6][4].msa
#FORMAT      : EMSA/MAS Spectral Data File
#VERSION     : 1.0
#TITLE       : MMM2 Pyrope[6][all]
#DATE        : 28-SEP-2025
#TIME        : 21:55
#OWNER       : Unknown
#NPOINTS     : 4096
#NCOLUMNS    : 1
#XUNITS      : eV
#YUNITS      : counts
#DATATYPE    : Y
#XPERCHAN    : 9.99778
#OFFSET      : 1.69135
#BEAMKV      : 15
#SIGNALTYPE  : EDS
#ELEVANGLE   : 35
#AZIMANGLE   : 0
#LIVETIME    : 240.244
#REALTIME    : 256.747
#PROBECUR    : 1.21223
#TAUWIND     : 0
#TDEADLYR    : 0
#TACTLYR     : 0.045
#TALWIND     : 0.025
#CHOFFSET    : 0.0
#XLABEL      : Energy (eV)
#YLABEL      : Counts
#XPOSITION   : -13.89621
#YPOSITION   : -1.85128
#ZPOSITION   : 34.11879
#EDSDET      : SD
##SPECIMEN   : MMM2 Pyrope[6][all]
##D2STDCMP   : Pyrope,(O:47.6258),(Mg:18.0873),(Al:13.3861),(Si:20.9007),5.0
##DET_HASH   : 12273538-fd48-a23f-0a19-f1e6fa85caef
##CALIB_HASH : 6abaa72c-aa41-8738-0be9-f592914732f3
##WORKING    : 15.0 mm
##DET_NAME   : EDAX All
##DET_MODE   : MediumLE
#SPECTRUM    :
18,
27,
10,
22,
90,
399,
1172,
3918,
11264,
14541,
8005,
4219,
4155,
5192,
9635,
35490,
132651,
251973,
181880,
48250,
7850,
4507,
6268,
10162,
10196,
5956,
3884,
3649,
3667,
3820,
3832,
3957,
4086,
4622,
5078,
5302,
5238,
5412,
6321,
11600,
36416,
88199,
105408,
60054,
19336,
7252,
6292,
13853,
43189,
85355,
86054,
45410,
15728,
6716,
5698,
11779,
42167,
105784,
143467,
101085,
41561,
14971,
7224,
4442,
3131,
2953,
3007,
3086,
2959,
2693,
2499,
2573,
2607,
2723,
2846,
3065,
3030,
2652,
2555,
2496,
2491,
2387,
2548,
2466,
2453,
2496,
2328,
2348,
2373,
2422,
2347,
2453,
2381,
2302,
2275,
2183,
2239,
2198,
2238,
2345,
2297,
2234,
2119,
2122,
2056,
2022,
2053,
2115,
2148,
2031,
2009,
1941,
1917,
1893,
1921,
1896,
2028,
2022,
2004,
2240,
3214,
5738,
9389,
11348,
9792,
6126,
3253,
2005,
1745,
1643,
1773,
1836,
2284,
2489,
2677,
2412,
1999,
1618,
1477,
1418,
1447,
1431,
1492,
1366,
1334,
1358,
1385,
1424,
1503,
1776,
1926,
1887,
1655,
1412,
1283,
1340,
1196,
1221,
1276,
1226,
1260,
1185,
1226,
1299,
1243,
1266,
1192,
1175,
1144,
1155,
1072,
1063,
1048,
1055,
1096,
1026,
1115,
1183,
1494,
1833,
2069,
2108,
1746,
1341,
1100,
1031,
944,
911,
932,
958,
953,
971,
948,
940,
1020,
1115,
1193,
1213,
1164,
1061,
990,
884,
801,
802,
774,
822,
814,
854,
945,
1355,
2410,
3977,
5763,
7056,
6722,
5011,
3130,
1740,
1035,
751,
696,
722,
677,
696,
714,
681,
684,
715,
689,
676,
693,
775,
951,
1160,
1312,
1377,
1325,
1097,
834,
736,
683,
582,
560,
538,
591,
572,
548,
576,
550,
543,
539,
499,
535,
522,
575,
544,
426,
516,
472,
508,
492,
486,
489,
497,
489,
486,
434,
466,
458,
436,
436,
456,
432,
430,
425,
414,
401,
397,
407,
402,
405,
394,
360,
356,
407,
390,
406,
402,
347,
353,
377,
428,
356,
358,
339,
343,
366,
344,
350,
334,
316,
312,
333,
333,
319,
308,
290,
316,
330,
281,
302,
295,
336,
317,
285,
288,
306,
271,
272,
281,
269,
279,
291,
265,
261,
236,
260,
265,
265,
256,
264,
254,
222,
252,
233,
239,
254,
224,
251,
191,
239,
239,
224,
199,
201,
207,
200,
196,
208,
250,
188,
218,
201,
180,
178,
202,
203,
202,
167,
159,
191,
176,
188,
166,
174,
177,
175,
157,
153,
154,
156,
152,
142,
144,
148,
145,
144,
157,
125,
163,
151,
122,
157,
108,
140,
109,
134,
119,
137,
111,
98,
126,
145,
115,
95,
86,
96,
102,
102,
91,
105,
92,
86,
103,
98,
96,
117,
76,
94,
86,
82,
75,
76,
79,
69,
72,
73,
75,
81,
86,
77,
57,
64,
67,
80,
62,
73,
82,
54,
67,
55,
59,
52,
58,
57,
57,
62,
45,
47,
46,
37,
48,
50,
66,
38,
39,
42,
39,
33,
40,
43,
40,
41,
31,
40,
36,
32,
30,
25,
29,
31,
25,
24,
28,
23,
22,
21,
19,
24,
19,
20,
22,
22,
15,
19,
17,
16,
17,
19,
6,
8,
6,
12,
7,
13,
9,
9,
7,
11,
8,
4,
6,
2,
3,
2,
1,
1,
2,
0,
2,
4,
0,
0,
0,
0,
0,
0,
0,
0,
0,
0,
0,
0,
1,
0,
1,
3,
0,
0,
0,
0,
0,
0,
0,
0,
0,
1,
0,
0,
0,
0,
0,
0,
0,
0,
1,
0,
0,
0,
0,
0,
0,
0,
0,
0,
0,
0,
0,
0,
0,
0,
0,
0,
1,
0,
0,
0,
0,
0,
0,
0,
0,
0,
0,
0,
1,
0,
0,
0,
0,
0,
0,
0,
0,
0,
0,
0,
0,
0,
0,
0,
0,
0,
0,
0,
0,
0,
0,
0,
0,
0,
0,
0,
0,
0,
0,
0,
0,
0,
0,
0,
0,
0,
0,
0,
0,
0,
0,
0,
0,
0,
0,
0,
0,
0,
0,
0,
0,
0,
0,
0,
0,
0,
0,
0,
0,
0,
0,
0,
0,
0,
0,
0,
0,
0,
0,
0,
0,
0,
0,
0,
0,
0,
1,
0,
0,
0,
0,
0,
0,
0,
0,
0,
1,
0,
0,
0,
0,
0,
0,
0,
0,
0,
0,
0,
0,
0,
0,
0,
0,
0,
0,
0,
0,
0,
0,
0,
0,
0,
0,
0,
0,
0,
0,
0,
0,
0,
0,
0,
0,
0,
0,
0,
0,
0,
0,
0,
0,
0,
0,
0,
0,
0,
0,
0,
0,
0,
0,
0,
0,
0,
0,
0,
0,
0,
0,
0,
0,
0,
0,
0,
0,
0,
0,
0,
0,
0,
0,
0,
0,
0,
0,
0,
0,
0,
0,
0,
0,
0,
0,
0,
0,
0,
0,
0,
0,
0,
0,
0,
0,
0,
0,
0,
0,
0,
0,
0,
0,
0,
0,
0,
0,
0,
0,
0,
0,
0,
0,
0,
0,
0,
0,
0,
0,
0,
0,
0,
0,
0,
0,
0,
0,
0,
0,
0,
0,
0,
0,
0,
0,
0,
0,
0,
0,
0,
0,
0,
0,
0,
0,
0,
0,
0,
0,
0,
0,
0,
0,
0,
0,
0,
0,
0,
0,
0,
0,
0,
0,
0,
0,
0,
0,
0,
0,
0,
0,
0,
0,
0,
0,
0,
0,
0,
0,
0,
0,
0,
0,
0,
0,
0,
0,
0,
0,
0,
0,
0,
0,
0,
0,
0,
0,
0,
0,
0,
0,
0,
0,
0,
0,
0,
0,
0,
0,
0,
0,
0,
0,
0,
0,
0,
0,
0,
0,
0,
0,
0,
0,
0,
0,
0,
0,
0,
0,
0,
0,
0,
0,
0,
0,
0,
0,
0,
0,
0,
0,
0,
0,
0,
0,
0,
0,
0,
0,
0,
0,
0,
0,
0,
0,
0,
0,
0,
0,
0,
0,
0,
0,
0,
0,
0,
0,
0,
0,
0,
0,
0,
0,
0,
0,
0,
0,
0,
0,
0,
0,
0,
0,
0,
0,
0,
0,
0,
0,
0,
0,
0,
0,
0,
0,
0,
0,
0,
0,
0,
0,
0,
0,
0,
0,
0,
0,
0,
0,
0,
0,
0,
0,
0,
0,
0,
0,
0,
0,
0,
0,
0,
0,
0,
0,
0,
0,
0,
0,
0,
0,
0,
0,
0,
0,
0,
0,
0,
0,
0,
0,
0,
0,
0,
0,
0,
0,
0,
0,
0,
0,
0,
0,
0,
0,
0,
0,
0,
0,
0,
0,
0,
0,
0,
0,
0,
0,
0,
0,
0,
0,
0,
0,
0,
0,
0,
0,
0,
0,
0,
0,
0,
0,
0,
0,
0,
0,
0,
0,
0,
0,
0,
0,
0,
0,
0,
0,
0,
0,
0,
0,
0,
0,
0,
0,
0,
0,
0,
0,
0,
0,
0,
0,
0,
0,
0,
0,
0,
0,
0,
0,
0,
0,
0,
0,
0,
0,
0,
0,
0,
0,
0,
0,
0,
0,
0,
0,
0,
0,
0,
0,
0,
0,
0,
0,
0,
0,
0,
0,
0,
0,
0,
0,
0,
0,
0,
0,
0,
0,
0,
0,
0,
0,
0,
0,
0,
0,
0,
0,
0,
0,
0,
0,
0,
0,
0,
0,
0,
0,
0,
0,
0,
0,
0,
0,
0,
0,
0,
0,
0,
0,
0,
0,
0,
0,
0,
0,
0,
0,
0,
0,
0,
0,
0,
0,
0,
0,
0,
0,
0,
0,
0,
0,
0,
0,
0,
0,
0,
0,
0,
0,
0,
0,
0,
0,
0,
0,
0,
0,
0,
0,
0,
0,
0,
0,
0,
0,
0,
0,
0,
0,
0,
0,
0,
0,
0,
0,
0,
0,
0,
0,
0,
0,
0,
0,
0,
0,
0,
0,
0,
0,
0,
0,
0,
0,
0,
0,
0,
0,
0,
0,
0,
0,
0,
0,
0,
0,
0,
0,
0,
0,
0,
0,
0,
0,
0,
0,
0,
0,
0,
0,
0,
0,
0,
0,
0,
0,
0,
0,
0,
0,
0,
0,
0,
0,
0,
0,
0,
0,
0,
0,
0,
0,
0,
0,
0,
0,
0,
0,
0,
0,
0,
0,
0,
0,
0,
0,
0,
0,
0,
0,
0,
0,
0,
0,
0,
0,
0,
0,
0,
0,
0,
0,
0,
0,
0,
0,
0,
0,
0,
0,
0,
0,
0,
0,
0,
0,
0,
0,
0,
0,
0,
0,
0,
0,
0,
0,
0,
0,
0,
0,
0,
0,
0,
0,
0,
0,
0,
0,
0,
0,
0,
0,
0,
0,
0,
0,
0,
0,
0,
0,
0,
0,
0,
0,
0,
0,
0,
0,
0,
0,
0,
0,
0,
0,
0,
0,
0,
0,
0,
0,
#ENDOFDATA   :