File: N132962/Quantification/15 keV/Mengason MM2/MMM2 Willemite[6][4].msa
#FORMAT      : EMSA/MAS Spectral Data File
#VERSION     : 1.0
#TITLE       : MMM2 Willemite[6][all]
#DATE        : 28-SEP-2025
#TIME        : 23:49
#OWNER       : Unknown
#NPOINTS     : 4096
#NCOLUMNS    : 1
#XUNITS      : eV
#YUNITS      : counts
#DATATYPE    : Y
#XPERCHAN    : 9.99778
#OFFSET      : 1.69135
#BEAMKV      : 15
#SIGNALTYPE  : EDS
#ELEVANGLE   : 35
#AZIMANGLE   : 0
#LIVETIME    : 240.241
#REALTIME    : 257.908
#PROBECUR    : 1.21079
#TAUWIND     : 0
#TDEADLYR    : 0
#TACTLYR     : 0.045
#TALWIND     : 0.025
#CHOFFSET    : 0.0
#XLABEL      : Energy (eV)
#YLABEL      : Counts
#XPOSITION   : -11.64009
#YPOSITION   : 2.21549
#ZPOSITION   : 34.11879
#EDSDET      : SD
##SPECIMEN   : MMM2 Willemite[6][all]
##DET_HASH   : 12273538-fd48-a23f-0a19-f1e6fa85caef
##CALIB_HASH : 6abaa72c-aa41-8738-0be9-f592914732f3
##WORKING    : 15.0 mm
##DET_NAME   : EDAX All
##DET_MODE   : MediumLE
#SPECTRUM    :
25,
26,
10,
21,
132,
490,
1521,
5011,
13777,
17696,
9199,
4758,
4838,
5977,
9388,
26718,
92405,
171386,
125546,
36015,
9910,
9605,
8631,
6916,
6357,
6440,
7068,
8928,
14529,
22742,
24738,
29300,
82555,
207996,
256446,
148188,
43675,
10879,
5264,
4068,
4132,
4654,
5163,
4522,
4137,
4098,
4233,
4511,
4446,
4986,
5240,
5594,
5474,
5169,
5680,
9416,
27083,
64420,
86467,
62076,
27029,
11592,
6939,
4853,
4166,
4063,
4172,
4258,
4357,
4223,
4003,
3939,
3893,
3959,
3927,
4106,
4096,
3895,
3911,
3869,
3761,
3838,
3767,
3891,
3785,
3681,
3775,
3720,
3672,
3742,
3749,
3827,
3880,
3756,
3572,
3491,
3544,
3456,
3443,
3395,
3371,
3420,
3312,
3161,
3278,
3336,
3155,
3111,
3152,
3228,
3093,
3084,
3174,
3065,
3083,
2976,
3003,
3031,
2815,
2798,
2884,
2916,
2886,
2808,
2733,
2681,
2774,
2735,
2746,
2692,
2675,
2658,
2607,
2517,
2552,
2468,
2575,
2489,
2463,
2519,
2428,
2454,
2376,
2372,
2345,
2323,
2230,
2286,
2343,
2260,
2345,
2111,
2149,
2223,
2244,
2113,
2075,
2190,
2088,
2083,
2009,
2022,
1947,
2004,
1981,
1988,
1962,
1936,
2023,
1867,
1860,
1865,
1901,
1799,
1806,
1785,
1691,
1792,
1795,
1804,
1696,
1740,
1747,
1797,
1776,
1708,
1640,
1659,
1611,
1670,
1638,
1706,
1990,
2681,
4052,
6063,
7488,
7415,
5775,
3954,
2477,
1783,
1516,
1493,
1470,
1418,
1456,
1450,
1341,
1375,
1432,
1421,
1515,
1655,
1921,
2059,
2136,
2047,
1801,
1511,
1351,
1232,
1262,
1228,
1234,
1203,
1240,
1239,
1208,
1207,
1162,
1102,
1160,
1174,
1173,
1117,
1169,
1108,
1059,
1099,
1113,
1035,
1157,
1025,
1063,
1004,
1037,
1037,
954,
1035,
1017,
1002,
931,
972,
947,
927,
903,
911,
949,
946,
923,
869,
828,
882,
893,
897,
887,
810,
852,
875,
854,
868,
842,
835,
848,
805,
791,
848,
823,
826,
963,
1021,
1633,
2817,
5647,
9708,
14399,
17668,
17916,
14942,
9981,
5862,
2902,
1574,
928,
790,
709,
644,
679,
707,
646,
644,
631,
698,
652,
659,
645,
658,
667,
619,
649,
684,
662,
718,
828,
1167,
1707,
2327,
2716,
2859,
2609,
2049,
1389,
1033,
742,
578,
523,
497,
517,
490,
501,
454,
458,
469,
474,
437,
455,
437,
418,
428,
418,
406,
427,
448,
445,
407,
404,
403,
405,
396,
382,
429,
363,
374,
385,
386,
342,
327,
365,
312,
368,
351,
352,
333,
312,
339,
352,
327,
320,
282,
320,
323,
290,
302,
293,
280,
304,
283,
292,
277,
271,
284,
267,
303,
284,
272,
244,
238,
245,
221,
222,
251,
227,
252,
234,
230,
215,
227,
193,
207,
191,
185,
194,
186,
183,
213,
204,
180,
194,
173,
170,
171,
173,
173,
177,
167,
179,
147,
162,
161,
166,
165,
137,
152,
120,
131,
142,
147,
136,
117,
119,
133,
109,
134,
112,
99,
95,
93,
99,
106,
115,
119,
112,
101,
90,
74,
90,
84,
76,
80,
85,
85,
65,
83,
64,
65,
75,
63,
64,
55,
62,
54,
61,
54,
68,
59,
61,
37,
55,
52,
44,
50,
38,
44,
55,
33,
42,
45,
35,
34,
20,
23,
17,
20,
33,
22,
19,
11,
20,
25,
15,
13,
11,
12,
5,
9,
6,
8,
7,
2,
1,
2,
1,
0,
0,
2,
0,
1,
0,
0,
3,
3,
0,
0,
4,
1,
0,
0,
1,
1,
1,
2,
2,
0,
2,
1,
1,
1,
0,
0,
0,
0,
0,
0,
1,
1,
0,
1,
0,
0,
1,
0,
0,
1,
0,
0,
0,
1,
1,
0,
0,
0,
0,
0,
0,
1,
0,
0,
0,
0,
1,
1,
1,
2,
0,
1,
0,
1,
0,
1,
2,
5,
1,
1,
5,
5,
5,
0,
0,
2,
1,
0,
3,
1,
2,
0,
1,
0,
1,
0,
0,
0,
1,
0,
1,
1,
0,
0,
0,
0,
1,
0,
0,
2,
0,
1,
0,
0,
2,
0,
1,
1,
0,
1,
0,
0,
2,
1,
0,
0,
0,
0,
0,
0,
0,
0,
2,
0,
0,
0,
0,
0,
1,
1,
0,
0,
0,
0,
0,
0,
0,
1,
0,
0,
0,
0,
0,
0,
0,
0,
0,
0,
0,
0,
0,
0,
0,
0,
0,
1,
0,
0,
0,
0,
0,
0,
0,
0,
0,
1,
0,
0,
1,
0,
1,
0,
1,
0,
1,
0,
0,
0,
0,
1,
0,
0,
0,
0,
0,
0,
0,
0,
0,
0,
0,
0,
0,
0,
0,
0,
0,
0,
0,
0,
0,
0,
1,
0,
0,
0,
0,
0,
0,
0,
0,
0,
0,
0,
0,
0,
0,
0,
0,
0,
0,
0,
0,
0,
0,
0,
0,
0,
0,
0,
0,
0,
0,
0,
0,
0,
1,
0,
0,
0,
1,
0,
0,
0,
0,
0,
0,
0,
0,
0,
0,
0,
0,
0,
0,
0,
0,
0,
0,
0,
0,
0,
0,
0,
0,
1,
0,
0,
0,
0,
0,
0,
0,
0,
0,
0,
1,
0,
0,
0,
0,
0,
0,
1,
0,
0,
0,
0,
0,
0,
0,
0,
0,
0,
0,
0,
0,
0,
0,
0,
0,
0,
0,
0,
0,
0,
0,
0,
0,
0,
0,
0,
0,
0,
0,
0,
0,
0,
0,
0,
0,
0,
0,
0,
0,
0,
0,
0,
0,
0,
0,
0,
0,
0,
0,
0,
0,
0,
0,
0,
0,
0,
0,
0,
0,
0,
0,
0,
0,
0,
0,
0,
0,
0,
0,
0,
0,
0,
0,
1,
0,
0,
0,
0,
0,
0,
0,
0,
0,
0,
0,
0,
0,
0,
0,
0,
0,
0,
0,
0,
0,
0,
0,
0,
0,
0,
0,
1,
0,
0,
0,
0,
0,
0,
0,
0,
0,
0,
0,
0,
0,
0,
0,
0,
0,
0,
0,
0,
0,
0,
0,
0,
0,
0,
0,
0,
0,
0,
0,
0,
0,
0,
0,
0,
0,
0,
0,
0,
0,
0,
0,
0,
0,
0,
0,
0,
0,
0,
0,
0,
0,
0,
0,
0,
0,
0,
0,
0,
0,
0,
0,
0,
0,
0,
0,
0,
0,
0,
0,
0,
0,
0,
0,
0,
0,
0,
0,
0,
0,
0,
0,
0,
0,
0,
0,
0,
0,
0,
0,
0,
0,
0,
0,
0,
0,
0,
0,
0,
0,
0,
0,
0,
0,
0,
0,
0,
0,
0,
0,
0,
0,
0,
0,
0,
0,
0,
0,
0,
0,
0,
0,
0,
0,
0,
0,
0,
0,
0,
0,
0,
0,
0,
0,
0,
0,
0,
0,
0,
0,
0,
0,
0,
0,
0,
0,
0,
0,
0,
0,
0,
0,
0,
0,
0,
0,
0,
0,
0,
0,
0,
0,
0,
0,
0,
0,
0,
0,
0,
0,
0,
0,
0,
0,
0,
0,
0,
0,
0,
0,
0,
0,
0,
0,
0,
0,
0,
0,
0,
0,
0,
0,
0,
0,
0,
0,
0,
0,
0,
0,
0,
0,
0,
0,
0,
0,
0,
0,
0,
0,
0,
0,
0,
0,
0,
0,
0,
0,
0,
0,
0,
0,
0,
0,
0,
0,
0,
0,
0,
0,
0,
0,
0,
0,
0,
0,
0,
0,
0,
0,
0,
0,
0,
0,
0,
0,
0,
0,
0,
0,
0,
0,
0,
0,
0,
0,
0,
0,
0,
0,
0,
0,
0,
0,
0,
0,
0,
0,
0,
0,
0,
0,
0,
0,
0,
0,
0,
0,
0,
0,
0,
0,
0,
0,
0,
0,
0,
0,
0,
0,
0,
0,
0,
0,
0,
0,
0,
0,
0,
0,
0,
0,
0,
0,
0,
0,
0,
0,
0,
0,
0,
0,
0,
0,
0,
0,
0,
0,
0,
0,
0,
0,
0,
0,
0,
0,
0,
0,
0,
0,
0,
0,
0,
0,
0,
0,
0,
0,
0,
0,
0,
0,
0,
0,
0,
0,
0,
0,
0,
0,
0,
0,
0,
0,
0,
0,
0,
0,
0,
0,
0,
0,
0,
0,
0,
0,
0,
0,
0,
0,
0,
0,
0,
0,
0,
0,
0,
0,
0,
0,
0,
0,
0,
0,
0,
0,
0,
0,
0,
0,
0,
0,
0,
0,
0,
0,
0,
0,
0,
0,
0,
0,
0,
0,
0,
0,
0,
0,
0,
0,
0,
0,
0,
0,
0,
0,
0,
0,
0,
0,
0,
0,
0,
0,
0,
0,
0,
0,
0,
0,
0,
0,
0,
0,
0,
0,
0,
0,
0,
0,
0,
0,
0,
0,
0,
0,
0,
0,
0,
0,
0,
0,
0,
0,
0,
0,
0,
0,
0,
0,
0,
0,
0,
0,
0,
0,
0,
0,
0,
0,
0,
0,
0,
#ENDOFDATA   :