File: N132962/Quantification/15 keV/Mengason MM2/MMM2 Spodumene[1][4].msa
#FORMAT      : EMSA/MAS Spectral Data File
#VERSION     : 1.0
#TITLE       : MMM2 Spodumene[1][all]
#DATE        : 28-SEP-2025
#TIME        : 22:20
#OWNER       : Unknown
#NPOINTS     : 4096
#NCOLUMNS    : 1
#XUNITS      : eV
#YUNITS      : counts
#DATATYPE    : Y
#XPERCHAN    : 9.99778
#OFFSET      : 1.69135
#BEAMKV      : 15
#SIGNALTYPE  : EDS
#ELEVANGLE   : 35
#AZIMANGLE   : 0
#LIVETIME    : 240.298
#REALTIME    : 257.38
#PROBECUR    : 1.21261
#TAUWIND     : 0
#TDEADLYR    : 0
#TACTLYR     : 0.045
#TALWIND     : 0.025
#CHOFFSET    : 0.0
#XLABEL      : Energy (eV)
#YLABEL      : Counts
#XPOSITION   : -12.96806
#YPOSITION   : 0.17042
#ZPOSITION   : 34.11879
#EDSDET      : SD
##SPECIMEN   : MMM2 Spodumene[1][all]
##DET_HASH   : 12273538-fd48-a23f-0a19-f1e6fa85caef
##CALIB_HASH : 6abaa72c-aa41-8738-0be9-f592914732f3
##WORKING    : 15.0 mm
##DET_NAME   : EDAX All
##DET_MODE   : MediumLE
#SPECTRUM    :
25,
21,
11,
11,
83,
379,
1064,
3598,
10201,
12949,
6780,
3457,
3701,
5232,
10457,
40825,
157694,
298683,
214737,
55645,
6861,
2422,
2291,
2578,
2763,
2940,
3078,
3192,
3384,
3527,
3665,
3849,
4049,
4562,
5381,
5370,
4808,
4348,
4393,
4513,
4662,
4682,
4881,
5146,
5247,
5665,
7379,
18612,
61452,
124229,
125810,
65774,
21749,
8365,
6942,
16886,
67662,
172804,
234848,
165845,
65705,
22011,
9548,
4844,
2889,
2587,
2729,
2696,
2554,
2356,
2143,
2194,
2337,
2482,
2792,
3013,
3010,
2646,
2301,
2246,
2139,
2086,
2096,
2116,
2055,
2054,
2026,
1996,
2018,
1908,
1987,
1989,
1886,
2007,
1851,
1999,
1907,
1894,
1890,
1888,
1884,
1903,
1833,
1773,
1889,
1827,
1946,
2179,
2098,
1939,
1812,
1751,
1679,
1774,
1788,
1942,
2014,
1881,
1694,
1615,
1530,
1546,
1518,
1531,
1448,
1489,
1401,
1380,
1372,
1359,
1314,
1305,
1316,
1334,
1354,
1264,
1276,
1291,
1315,
1214,
1231,
1300,
1204,
1215,
1161,
1173,
1178,
1143,
1138,
1201,
1126,
1124,
1064,
1058,
1115,
1101,
1103,
1075,
1085,
1050,
1072,
972,
1033,
1057,
998,
935,
958,
971,
980,
982,
944,
944,
899,
946,
881,
902,
876,
878,
859,
870,
837,
899,
880,
848,
805,
788,
800,
814,
802,
837,
781,
829,
781,
746,
761,
724,
784,
791,
757,
726,
729,
705,
696,
638,
697,
661,
696,
687,
628,
655,
712,
641,
612,
685,
661,
609,
660,
611,
600,
612,
586,
568,
540,
628,
610,
572,
560,
572,
607,
551,
560,
540,
522,
525,
511,
512,
498,
509,
500,
493,
535,
457,
470,
495,
510,
501,
480,
484,
481,
476,
470,
413,
440,
471,
446,
416,
398,
403,
430,
430,
396,
396,
438,
381,
371,
391,
408,
365,
395,
380,
373,
389,
358,
380,
349,
377,
402,
374,
328,
380,
350,
356,
328,
320,
311,
338,
341,
315,
345,
314,
293,
299,
293,
308,
301,
347,
288,
268,
297,
305,
266,
268,
278,
259,
276,
285,
275,
249,
243,
238,
250,
272,
234,
229,
255,
260,
247,
240,
239,
225,
236,
232,
225,
220,
224,
222,
225,
210,
229,
192,
208,
202,
221,
228,
219,
206,
190,
197,
177,
185,
196,
204,
193,
164,
165,
172,
172,
166,
160,
173,
159,
143,
145,
143,
120,
163,
166,
164,
132,
144,
151,
152,
159,
129,
141,
140,
159,
140,
119,
139,
120,
129,
138,
126,
141,
130,
130,
127,
113,
112,
113,
106,
98,
112,
96,
99,
93,
117,
96,
94,
106,
87,
108,
87,
93,
99,
97,
78,
86,
80,
90,
93,
82,
83,
71,
78,
61,
72,
65,
81,
59,
70,
66,
82,
56,
81,
64,
61,
70,
61,
63,
60,
63,
51,
44,
54,
47,
64,
56,
45,
45,
40,
57,
39,
53,
53,
42,
33,
49,
46,
28,
37,
34,
29,
43,
37,
30,
32,
41,
32,
28,
32,
32,
33,
30,
27,
21,
28,
20,
27,
18,
25,
23,
15,
19,
23,
11,
21,
12,
16,
19,
17,
16,
12,
9,
14,
8,
13,
8,
9,
7,
10,
8,
6,
11,
4,
6,
6,
6,
3,
4,
4,
7,
3,
2,
2,
2,
0,
0,
0,
1,
0,
0,
0,
0,
0,
0,
0,
0,
0,
1,
1,
0,
0,
0,
0,
0,
0,
0,
0,
0,
0,
0,
0,
0,
0,
0,
0,
1,
0,
0,
0,
0,
0,
0,
1,
0,
0,
0,
0,
0,
1,
0,
0,
0,
0,
0,
0,
0,
0,
0,
0,
0,
1,
0,
0,
0,
1,
0,
0,
0,
1,
0,
1,
0,
0,
0,
0,
0,
0,
0,
0,
0,
1,
0,
0,
0,
0,
0,
0,
0,
0,
0,
0,
0,
0,
0,
0,
0,
0,
0,
0,
0,
0,
0,
0,
0,
0,
0,
0,
0,
0,
0,
0,
0,
0,
0,
0,
0,
0,
0,
0,
0,
0,
0,
0,
0,
0,
0,
0,
0,
0,
0,
0,
0,
0,
0,
0,
0,
0,
0,
0,
0,
0,
0,
0,
0,
0,
0,
0,
0,
0,
0,
0,
0,
1,
0,
0,
0,
0,
0,
0,
0,
0,
0,
0,
0,
0,
0,
0,
0,
0,
0,
0,
0,
0,
0,
0,
0,
0,
0,
0,
0,
0,
0,
0,
0,
0,
0,
0,
0,
0,
0,
0,
0,
0,
0,
0,
0,
0,
0,
0,
0,
0,
0,
0,
0,
0,
0,
0,
0,
0,
0,
0,
0,
0,
0,
0,
0,
0,
0,
0,
0,
0,
0,
0,
0,
0,
0,
0,
0,
0,
0,
0,
0,
0,
0,
0,
0,
0,
0,
0,
0,
0,
0,
0,
0,
0,
0,
0,
0,
0,
0,
0,
0,
0,
0,
0,
0,
0,
0,
0,
0,
0,
0,
0,
0,
0,
0,
0,
0,
0,
0,
0,
0,
0,
0,
0,
0,
0,
0,
0,
0,
0,
0,
0,
0,
0,
0,
0,
0,
0,
0,
0,
0,
0,
0,
0,
0,
0,
0,
0,
0,
0,
0,
0,
0,
0,
0,
0,
0,
0,
0,
0,
0,
0,
0,
0,
0,
0,
0,
0,
0,
0,
0,
0,
0,
0,
0,
0,
0,
0,
0,
0,
0,
0,
0,
0,
0,
0,
0,
0,
0,
0,
0,
0,
0,
0,
0,
0,
0,
0,
0,
0,
0,
0,
0,
0,
0,
0,
0,
0,
0,
0,
0,
0,
0,
0,
0,
0,
0,
0,
0,
0,
0,
0,
0,
0,
0,
0,
0,
0,
0,
0,
0,
0,
0,
0,
0,
0,
0,
0,
0,
0,
0,
0,
0,
0,
0,
0,
0,
0,
0,
0,
0,
0,
0,
0,
0,
0,
0,
0,
0,
0,
0,
0,
0,
0,
0,
0,
0,
0,
0,
0,
0,
0,
0,
0,
0,
0,
0,
0,
0,
0,
0,
0,
0,
0,
0,
0,
0,
0,
0,
0,
0,
0,
0,
0,
0,
0,
0,
0,
0,
0,
0,
0,
0,
0,
0,
0,
0,
0,
0,
0,
0,
0,
0,
0,
0,
0,
0,
0,
0,
0,
0,
0,
0,
0,
0,
0,
0,
0,
0,
0,
0,
0,
0,
0,
0,
0,
0,
0,
0,
0,
0,
0,
0,
0,
0,
0,
0,
0,
0,
0,
0,
0,
0,
0,
0,
0,
0,
0,
0,
0,
0,
0,
0,
0,
0,
0,
0,
0,
0,
0,
0,
0,
0,
0,
0,
0,
0,
0,
0,
0,
0,
0,
0,
0,
0,
0,
0,
0,
0,
0,
0,
0,
0,
0,
0,
0,
0,
0,
0,
0,
0,
0,
0,
0,
0,
0,
0,
0,
0,
0,
0,
0,
0,
0,
0,
0,
0,
0,
0,
0,
0,
0,
0,
0,
0,
0,
0,
0,
0,
0,
0,
0,
0,
0,
0,
0,
0,
0,
0,
0,
0,
0,
0,
0,
0,
0,
0,
0,
0,
0,
0,
0,
0,
0,
0,
0,
0,
0,
0,
0,
0,
0,
0,
0,
0,
0,
0,
0,
0,
0,
0,
0,
0,
0,
0,
0,
0,
0,
0,
0,
0,
0,
0,
0,
0,
0,
0,
0,
0,
0,
0,
0,
0,
0,
0,
0,
0,
0,
0,
0,
0,
0,
0,
0,
0,
0,
0,
0,
0,
0,
0,
0,
0,
0,
0,
0,
0,
0,
0,
0,
0,
0,
0,
0,
0,
0,
0,
0,
0,
0,
0,
0,
0,
0,
0,
0,
0,
0,
0,
0,
0,
0,
0,
0,
0,
0,
0,
0,
0,
0,
0,
0,
0,
0,
0,
0,
0,
0,
0,
0,
0,
0,
0,
0,
0,
0,
0,
0,
0,
0,
0,
0,
0,
0,
0,
0,
0,
0,
0,
0,
0,
0,
0,
0,
0,
0,
0,
0,
0,
0,
0,
0,
0,
0,
0,
0,
0,
0,
0,
0,
0,
0,
0,
0,
0,
0,
0,
0,
0,
0,
0,
0,
0,
0,
0,
0,
0,
0,
0,
0,
0,
0,
0,
0,
0,
0,
0,
0,
0,
0,
0,
0,
0,
0,
0,
0,
0,
0,
0,
0,
0,
0,
0,
0,
0,
0,
0,
0,
0,
0,
0,
0,
0,
0,
0,
0,
0,
0,
0,
0,
0,
0,
0,
0,
0,
0,
0,
0,
0,
0,
0,
0,
0,
0,
0,
0,
0,
0,
0,
0,
0,
0,
0,
0,
0,
0,
0,
0,
0,
0,
0,
0,
0,
0,
0,
0,
0,
0,
0,
0,
0,
0,
0,
0,
0,
0,
0,
0,
0,
0,
0,
0,
0,
0,
0,
0,
0,
0,
0,
0,
0,
0,
#ENDOFDATA   :