File: N132962/Quantification/15 keV/Mengason MM2/MMM2 Zircon[2][4].msa
#FORMAT      : EMSA/MAS Spectral Data File
#VERSION     : 1.0
#TITLE       : MMM2 Zircon[2][all]
#DATE        : 29-SEP-2025
#TIME        : 01:08
#OWNER       : Unknown
#NPOINTS     : 4096
#NCOLUMNS    : 1
#XUNITS      : eV
#YUNITS      : counts
#DATATYPE    : Y
#XPERCHAN    : 9.99778
#OFFSET      : 1.69135
#BEAMKV      : 15
#SIGNALTYPE  : EDS
#ELEVANGLE   : 35
#AZIMANGLE   : 0
#LIVETIME    : 240.311
#REALTIME    : 257.129
#PROBECUR    : 1.21248
#TAUWIND     : 0
#TDEADLYR    : 0
#TACTLYR     : 0.045
#TALWIND     : 0.025
#CHOFFSET    : 0.0
#XLABEL      : Energy (eV)
#YLABEL      : Counts
#XPOSITION   : -13.64969
#YPOSITION   : 6.9803
#ZPOSITION   : 34.11879
#EDSDET      : SD
##SPECIMEN   : MMM2 Zircon[2][all]
##D2STDCMP   : Zircon,(O:34.9128),(Si:15.3216),(Zr:49.7657),8.0
##DET_HASH   : 12273538-fd48-a23f-0a19-f1e6fa85caef
##CALIB_HASH : 6abaa72c-aa41-8738-0be9-f592914732f3
##WORKING    : 15.0 mm
##DET_NAME   : EDAX All
##DET_MODE   : MediumLE
#SPECTRUM    :
31,
30,
10,
61,
457,
1352,
2283,
5449,
14291,
19766,
12235,
5656,
4709,
5087,
6358,
17046,
57189,
106658,
77861,
21877,
5135,
3746,
4078,
4508,
4682,
4847,
4949,
5027,
5536,
5650,
5748,
5750,
6156,
6260,
6483,
6584,
6726,
6911,
6849,
7021,
7160,
7248,
7513,
7606,
7494,
7423,
7644,
7778,
7728,
8072,
8200,
8092,
8215,
8918,
10518,
17922,
48193,
112248,
150877,
111220,
52627,
24358,
14530,
11325,
11937,
20685,
48130,
102127,
141756,
126294,
93998,
72654,
49176,
28430,
16372,
9865,
6508,
4742,
4094,
3722,
3452,
3619,
3885,
4287,
4387,
4145,
3630,
3354,
3269,
3275,
3200,
3157,
3182,
3140,
3207,
3159,
3166,
3157,
3150,
3121,
3125,
3167,
3018,
3094,
3105,
3023,
3049,
3118,
2970,
3026,
2977,
2931,
2979,
2998,
3010,
3018,
3093,
3017,
2963,
2972,
2970,
2787,
2806,
2802,
2977,
2975,
2956,
2915,
2866,
2817,
2759,
2748,
2786,
2744,
2646,
2726,
2658,
2633,
2787,
2672,
2550,
2455,
2568,
2495,
2426,
2468,
2412,
2488,
2371,
2378,
2387,
2433,
2302,
2245,
2300,
2272,
2261,
2105,
2158,
2223,
2160,
2130,
2151,
2110,
2164,
2167,
2112,
2110,
2021,
1986,
2053,
2006,
1972,
2037,
1986,
1971,
1922,
1974,
1847,
1893,
1885,
1870,
1769,
1842,
1893,
1878,
1804,
1809,
1819,
1793,
1737,
1758,
1718,
1702,
1645,
1748,
1640,
1654,
1627,
1620,
1553,
1610,
1567,
1630,
1587,
1588,
1578,
1527,
1486,
1540,
1534,
1466,
1541,
1595,
1565,
1519,
1526,
1406,
1476,
1403,
1407,
1343,
1343,
1406,
1319,
1338,
1281,
1292,
1337,
1325,
1266,
1281,
1301,
1298,
1252,
1270,
1222,
1153,
1260,
1184,
1195,
1173,
1088,
1164,
1137,
1117,
1159,
1095,
1118,
1125,
1069,
1048,
1083,
1073,
1077,
1092,
975,
1046,
1098,
1039,
1037,
1087,
1176,
1113,
1103,
1063,
1052,
1038,
995,
944,
972,
915,
928,
924,
959,
886,
920,
846,
877,
877,
864,
907,
783,
859,
843,
835,
819,
781,
816,
827,
801,
734,
757,
784,
819,
742,
776,
815,
804,
785,
797,
763,
751,
742,
647,
696,
703,
712,
683,
618,
681,
695,
670,
631,
640,
640,
646,
618,
607,
612,
638,
570,
592,
579,
611,
563,
639,
610,
567,
550,
558,
480,
543,
541,
530,
534,
510,
519,
509,
526,
475,
478,
487,
471,
513,
464,
475,
466,
516,
477,
449,
484,
425,
424,
444,
420,
444,
415,
436,
444,
435,
398,
409,
373,
386,
386,
399,
342,
373,
405,
351,
368,
350,
359,
333,
322,
351,
334,
327,
323,
321,
288,
319,
316,
300,
325,
281,
302,
296,
251,
278,
302,
258,
271,
306,
253,
255,
265,
262,
230,
235,
248,
273,
215,
234,
222,
192,
257,
193,
186,
219,
183,
215,
203,
190,
179,
203,
171,
184,
194,
173,
168,
166,
157,
155,
176,
160,
151,
156,
155,
130,
138,
155,
153,
126,
133,
124,
124,
119,
128,
140,
102,
110,
99,
123,
109,
107,
101,
91,
105,
104,
89,
90,
81,
102,
83,
74,
78,
93,
69,
67,
88,
69,
65,
66,
74,
59,
64,
60,
49,
58,
54,
49,
49,
42,
51,
38,
39,
44,
40,
43,
25,
33,
25,
31,
27,
32,
22,
20,
20,
8,
12,
8,
9,
13,
4,
9,
3,
4,
3,
6,
0,
2,
0,
3,
2,
1,
1,
3,
0,
1,
0,
0,
1,
0,
0,
1,
1,
2,
1,
0,
1,
1,
0,
0,
0,
0,
0,
0,
3,
2,
1,
0,
0,
2,
0,
0,
2,
0,
0,
2,
0,
0,
0,
0,
0,
0,
0,
0,
0,
0,
0,
0,
0,
0,
1,
0,
1,
0,
1,
0,
0,
0,
1,
0,
1,
1,
2,
0,
1,
1,
0,
0,
0,
1,
1,
0,
0,
0,
0,
0,
0,
0,
0,
0,
0,
0,
0,
0,
0,
0,
0,
0,
2,
1,
1,
0,
0,
1,
0,
0,
1,
0,
0,
1,
0,
0,
1,
0,
0,
0,
0,
0,
0,
0,
0,
0,
0,
0,
0,
0,
0,
0,
0,
1,
1,
0,
0,
0,
0,
0,
1,
0,
0,
0,
0,
0,
0,
0,
0,
0,
0,
0,
0,
0,
0,
0,
1,
0,
1,
0,
0,
0,
0,
0,
0,
0,
0,
0,
0,
1,
0,
0,
0,
0,
0,
0,
0,
0,
0,
0,
0,
0,
0,
0,
1,
0,
0,
0,
0,
0,
0,
0,
0,
1,
0,
0,
0,
0,
0,
1,
0,
0,
0,
0,
0,
0,
0,
0,
0,
0,
0,
0,
0,
0,
0,
0,
0,
0,
0,
0,
0,
0,
0,
0,
0,
0,
0,
1,
0,
0,
0,
0,
0,
0,
0,
0,
0,
0,
0,
0,
0,
1,
0,
0,
1,
0,
0,
0,
0,
0,
0,
0,
0,
0,
0,
0,
0,
0,
0,
0,
0,
0,
0,
0,
0,
1,
0,
0,
0,
0,
0,
0,
0,
0,
0,
0,
0,
0,
0,
0,
0,
0,
0,
0,
0,
0,
0,
0,
0,
0,
0,
0,
0,
0,
0,
0,
0,
0,
0,
0,
0,
0,
0,
0,
0,
0,
0,
0,
0,
0,
0,
0,
0,
0,
0,
0,
0,
0,
0,
0,
0,
0,
0,
0,
0,
0,
0,
0,
0,
0,
0,
0,
0,
0,
0,
0,
0,
0,
0,
0,
0,
0,
0,
0,
0,
0,
0,
0,
0,
0,
1,
0,
0,
0,
0,
0,
0,
0,
0,
0,
0,
0,
0,
0,
0,
0,
0,
0,
0,
0,
0,
0,
0,
0,
0,
0,
0,
0,
0,
0,
0,
0,
0,
0,
0,
0,
0,
0,
0,
0,
0,
0,
0,
0,
0,
0,
0,
0,
0,
0,
0,
0,
0,
0,
0,
0,
0,
0,
0,
0,
0,
0,
0,
0,
0,
0,
0,
0,
0,
0,
0,
0,
0,
0,
0,
0,
0,
0,
0,
0,
0,
0,
0,
0,
0,
0,
0,
0,
0,
0,
0,
0,
0,
0,
0,
0,
0,
0,
0,
0,
0,
0,
0,
0,
0,
0,
0,
0,
0,
0,
0,
0,
0,
0,
0,
0,
0,
0,
0,
0,
0,
0,
0,
0,
0,
0,
0,
0,
0,
0,
0,
0,
0,
0,
0,
0,
0,
0,
0,
0,
0,
0,
0,
0,
0,
0,
0,
0,
0,
0,
0,
0,
0,
0,
0,
0,
0,
0,
0,
0,
0,
0,
0,
0,
0,
0,
0,
0,
0,
0,
0,
0,
0,
0,
0,
0,
0,
0,
0,
0,
0,
0,
0,
0,
0,
0,
0,
0,
0,
0,
0,
0,
0,
0,
0,
0,
0,
0,
0,
0,
0,
0,
0,
0,
0,
0,
0,
0,
0,
0,
0,
0,
0,
0,
0,
0,
0,
0,
0,
0,
0,
0,
0,
0,
0,
0,
0,
0,
0,
0,
0,
0,
0,
0,
0,
0,
0,
0,
0,
0,
0,
0,
0,
0,
0,
0,
0,
0,
0,
0,
0,
0,
0,
0,
0,
0,
0,
0,
0,
0,
0,
0,
0,
0,
0,
0,
0,
0,
0,
0,
0,
0,
0,
0,
0,
0,
0,
0,
0,
0,
0,
0,
0,
0,
0,
0,
0,
0,
0,
0,
0,
0,
0,
0,
0,
0,
0,
0,
0,
0,
0,
0,
0,
0,
0,
0,
0,
0,
0,
0,
0,
0,
0,
0,
0,
0,
0,
0,
0,
0,
0,
0,
0,
0,
0,
0,
0,
0,
0,
0,
0,
0,
0,
0,
0,
0,
0,
0,
0,
0,
0,
0,
0,
0,
0,
0,
0,
0,
0,
0,
0,
0,
0,
0,
0,
0,
0,
0,
0,
0,
0,
0,
0,
0,
0,
0,
0,
0,
0,
0,
0,
0,
0,
0,
0,
0,
0,
0,
0,
0,
0,
0,
0,
0,
0,
0,
0,
0,
0,
0,
0,
0,
0,
0,
0,
0,
0,
0,
0,
0,
0,
0,
0,
0,
0,
0,
0,
0,
0,
0,
0,
0,
0,
0,
0,
0,
0,
0,
0,
0,
0,
0,
0,
0,
0,
0,
0,
0,
0,
0,
0,
0,
0,
0,
0,
0,
0,
0,
0,
0,
0,
0,
0,
0,
0,
0,
0,
0,
0,
0,
0,
0,
0,
0,
0,
0,
0,
0,
0,
0,
0,
0,
0,
0,
0,
0,
0,
0,
0,
0,
0,
0,
0,
0,
0,
0,
0,
0,
0,
0,
0,
0,
0,
0,
0,
0,
0,
0,
0,
0,
0,
0,
0,
0,
0,
0,
0,
0,
0,
0,
0,
0,
0,
0,
0,
0,
0,
0,
0,
0,
0,
0,
0,
0,
0,
0,
0,
0,
0,
0,
0,
0,
0,
0,
0,
#ENDOFDATA   :