File: N132962/Quantification/15 keV/Mengason MM2/MMM2 SrTiO3[1][4].msa
#FORMAT      : EMSA/MAS Spectral Data File
#VERSION     : 1.0
#TITLE       : MMM2 SrTiO3[1][all]
#DATE        : 29-SEP-2025
#TIME        : 00:14
#OWNER       : Unknown
#NPOINTS     : 4096
#NCOLUMNS    : 1
#XUNITS      : eV
#YUNITS      : counts
#DATATYPE    : Y
#XPERCHAN    : 9.99778
#OFFSET      : 1.69135
#BEAMKV      : 15
#SIGNALTYPE  : EDS
#ELEVANGLE   : 35
#AZIMANGLE   : 0
#LIVETIME    : 240.084
#REALTIME    : 256.493
#PROBECUR    : 1.21151
#TAUWIND     : 0
#TDEADLYR    : 0
#TACTLYR     : 0.045
#TALWIND     : 0.025
#CHOFFSET    : 0.0
#XLABEL      : Energy (eV)
#YLABEL      : Counts
#XPOSITION   : -15.22531
#YPOSITION   : 4.52411
#ZPOSITION   : 34.11879
#EDSDET      : SD
##SPECIMEN   : MMM2 SrTiO3[1][all]
##D2STDCMP   : SrTiO3,(O:26.1592),(Ti:26.0877),(Sr:47.7532)
##DET_HASH   : 12273538-fd48-a23f-0a19-f1e6fa85caef
##CALIB_HASH : 6abaa72c-aa41-8738-0be9-f592914732f3
##WORKING    : 15.0 mm
##DET_NAME   : EDAX All
##DET_MODE   : MediumLE
#SPECTRUM    :
29,
19,
21,
87,
342,
901,
2080,
5843,
15061,
18589,
9679,
5974,
9108,
12220,
13632,
18678,
38737,
66289,
49252,
14624,
4208,
3472,
3810,
4257,
4437,
4641,
4664,
5071,
5605,
5647,
5581,
5734,
6043,
6226,
6298,
6462,
6552,
6605,
7100,
7099,
7037,
7250,
7300,
7205,
7465,
7602,
7619,
7679,
7845,
8124,
8558,
10688,
14111,
15882,
14701,
12598,
11620,
16978,
47797,
126094,
199229,
189220,
130904,
79129,
40833,
20042,
10688,
6700,
4839,
4271,
4170,
4366,
4552,
4734,
4770,
4200,
4105,
4093,
4109,
4081,
3991,
3903,
3933,
3863,
3842,
3855,
3839,
3808,
3830,
3841,
4087,
4116,
4194,
4186,
3938,
3814,
3686,
3666,
3676,
3711,
3508,
3580,
3626,
3708,
3628,
3548,
3538,
3576,
3634,
3485,
3436,
3442,
3468,
3479,
3395,
3379,
3377,
3363,
3280,
3384,
3493,
3377,
3411,
3445,
3360,
3277,
3185,
3137,
3019,
3032,
3033,
3073,
2961,
2976,
2891,
2909,
2816,
2948,
2785,
2848,
2783,
2848,
2884,
3004,
3186,
3544,
5481,
11477,
26514,
47973,
62706,
58971,
39525,
19090,
7941,
3916,
2850,
2651,
2572,
2685,
3147,
3835,
5669,
8183,
10156,
9721,
7559,
4957,
3271,
2458,
2245,
2021,
2040,
2065,
2032,
2095,
2136,
2044,
2057,
1991,
1941,
1911,
2019,
1968,
1985,
1929,
1852,
1839,
1886,
1899,
1798,
1868,
1829,
1734,
1762,
1748,
1748,
1700,
1800,
1712,
1780,
1678,
1680,
1659,
1606,
1680,
1724,
1609,
1661,
1678,
1761,
1767,
1810,
1764,
1603,
1646,
1527,
1475,
1596,
1560,
1528,
1493,
1412,
1536,
1468,
1349,
1483,
1373,
1484,
1356,
1315,
1286,
1344,
1314,
1382,
1377,
1320,
1318,
1323,
1305,
1164,
1288,
1312,
1259,
1248,
1236,
1157,
1287,
1284,
1230,
1238,
1148,
1175,
1153,
1084,
1146,
1141,
1130,
1146,
1114,
1085,
1138,
1098,
1026,
1049,
1097,
996,
1017,
1014,
1003,
1056,
1006,
993,
967,
975,
965,
987,
911,
999,
884,
908,
901,
901,
864,
905,
886,
856,
905,
903,
870,
896,
847,
827,
890,
858,
767,
866,
781,
851,
769,
787,
799,
806,
770,
730,
731,
720,
696,
738,
735,
689,
717,
661,
767,
721,
664,
700,
714,
624,
660,
636,
660,
653,
617,
606,
607,
612,
606,
618,
604,
601,
583,
613,
608,
557,
550,
540,
564,
551,
532,
568,
508,
552,
568,
517,
544,
486,
533,
509,
478,
470,
475,
485,
455,
461,
447,
463,
454,
457,
384,
427,
467,
429,
414,
429,
430,
382,
424,
403,
372,
405,
408,
370,
357,
372,
354,
330,
394,
363,
342,
358,
371,
323,
330,
295,
329,
323,
312,
327,
307,
309,
294,
305,
292,
283,
290,
286,
266,
265,
252,
276,
283,
244,
256,
237,
238,
293,
232,
248,
245,
240,
231,
209,
207,
191,
209,
191,
209,
187,
191,
219,
190,
199,
181,
198,
182,
185,
172,
156,
158,
149,
172,
159,
165,
135,
139,
145,
125,
124,
140,
125,
119,
156,
129,
146,
122,
102,
119,
110,
133,
114,
95,
120,
91,
99,
81,
77,
101,
85,
90,
85,
68,
70,
65,
64,
73,
73,
64,
59,
68,
69,
51,
59,
48,
43,
41,
47,
55,
44,
42,
33,
42,
34,
32,
28,
23,
20,
31,
27,
23,
20,
19,
22,
16,
12,
8,
9,
2,
2,
6,
1,
3,
1,
1,
2,
1,
0,
4,
4,
3,
1,
1,
1,
1,
2,
1,
0,
1,
1,
0,
2,
1,
0,
1,
1,
1,
3,
2,
1,
1,
1,
0,
1,
1,
0,
2,
0,
1,
2,
0,
2,
1,
1,
1,
1,
1,
1,
1,
0,
0,
2,
0,
0,
0,
0,
1,
0,
0,
0,
0,
1,
1,
0,
1,
3,
0,
0,
0,
1,
0,
1,
0,
0,
0,
0,
2,
1,
1,
0,
1,
0,
0,
1,
0,
0,
2,
1,
1,
0,
0,
1,
1,
1,
1,
0,
0,
1,
0,
0,
0,
0,
2,
0,
0,
0,
0,
0,
0,
2,
0,
0,
1,
1,
0,
0,
0,
0,
0,
0,
0,
1,
0,
0,
1,
1,
0,
0,
0,
0,
0,
0,
0,
0,
0,
0,
0,
0,
0,
0,
0,
1,
0,
1,
0,
0,
1,
0,
0,
0,
0,
1,
0,
0,
0,
0,
0,
0,
0,
1,
0,
0,
0,
0,
0,
0,
0,
0,
0,
0,
1,
0,
0,
0,
0,
2,
0,
0,
0,
0,
0,
0,
0,
0,
0,
0,
0,
1,
0,
0,
0,
0,
0,
0,
1,
0,
0,
0,
1,
0,
0,
0,
0,
0,
0,
0,
0,
0,
0,
0,
0,
0,
0,
0,
0,
0,
0,
0,
0,
0,
0,
0,
0,
0,
0,
0,
0,
0,
0,
0,
0,
0,
0,
0,
0,
0,
0,
0,
0,
1,
0,
0,
0,
0,
0,
0,
0,
0,
0,
0,
0,
0,
0,
0,
0,
0,
0,
0,
0,
0,
0,
0,
0,
0,
0,
0,
0,
0,
0,
0,
0,
0,
0,
0,
0,
0,
0,
0,
0,
0,
0,
0,
0,
0,
0,
0,
0,
0,
0,
0,
0,
0,
0,
0,
0,
0,
0,
0,
0,
0,
0,
0,
0,
0,
0,
0,
0,
0,
0,
0,
0,
0,
0,
0,
0,
0,
0,
0,
0,
0,
0,
0,
0,
0,
0,
0,
0,
0,
0,
0,
0,
0,
0,
0,
0,
0,
0,
0,
0,
0,
0,
0,
0,
0,
0,
0,
0,
0,
0,
0,
0,
0,
0,
0,
0,
0,
0,
0,
0,
0,
0,
0,
0,
0,
0,
0,
0,
0,
0,
0,
0,
0,
0,
0,
0,
0,
0,
0,
0,
0,
0,
0,
0,
0,
0,
0,
0,
0,
0,
0,
0,
0,
0,
0,
0,
0,
0,
0,
0,
0,
0,
0,
0,
0,
0,
0,
0,
0,
0,
0,
0,
0,
0,
0,
0,
0,
0,
0,
0,
0,
0,
0,
0,
0,
0,
0,
0,
0,
0,
0,
0,
0,
0,
0,
0,
0,
0,
0,
0,
0,
0,
0,
0,
0,
0,
0,
0,
0,
0,
0,
0,
0,
0,
0,
0,
0,
0,
0,
0,
0,
0,
0,
0,
0,
0,
0,
0,
0,
0,
0,
0,
0,
0,
0,
0,
0,
0,
0,
0,
0,
0,
0,
0,
0,
0,
0,
0,
0,
0,
0,
0,
0,
0,
0,
0,
0,
0,
0,
0,
0,
0,
0,
0,
0,
0,
0,
0,
0,
0,
0,
0,
0,
0,
0,
0,
0,
0,
0,
0,
0,
0,
0,
0,
0,
0,
0,
0,
0,
0,
0,
0,
0,
0,
0,
0,
0,
0,
0,
0,
0,
0,
0,
0,
0,
0,
0,
0,
0,
0,
0,
0,
0,
0,
0,
0,
0,
0,
0,
0,
0,
0,
0,
0,
0,
0,
0,
0,
0,
0,
0,
0,
0,
0,
0,
0,
0,
0,
0,
0,
0,
0,
0,
0,
0,
0,
0,
0,
0,
0,
0,
0,
0,
0,
0,
0,
0,
0,
0,
0,
0,
0,
0,
0,
0,
0,
0,
0,
0,
0,
0,
0,
0,
0,
0,
0,
0,
0,
0,
0,
0,
0,
0,
0,
0,
0,
0,
0,
0,
0,
0,
0,
0,
0,
0,
0,
0,
0,
0,
0,
0,
0,
0,
0,
0,
0,
0,
0,
0,
0,
0,
0,
0,
0,
0,
0,
0,
0,
0,
0,
0,
0,
0,
0,
0,
0,
0,
0,
0,
0,
0,
0,
0,
0,
0,
0,
0,
0,
0,
0,
0,
0,
0,
0,
0,
0,
0,
0,
0,
0,
0,
0,
0,
0,
0,
0,
0,
0,
0,
0,
0,
0,
0,
0,
0,
0,
0,
0,
0,
0,
0,
0,
0,
0,
0,
0,
0,
0,
0,
0,
0,
0,
0,
0,
0,
0,
0,
0,
0,
0,
0,
0,
0,
0,
0,
0,
0,
0,
0,
0,
0,
0,
0,
0,
0,
0,
0,
0,
0,
0,
0,
0,
0,
0,
0,
0,
0,
0,
0,
0,
0,
0,
0,
0,
0,
0,
0,
0,
0,
0,
0,
0,
0,
0,
0,
0,
0,
0,
0,
0,
0,
0,
0,
0,
0,
0,
0,
0,
0,
0,
0,
0,
0,
0,
0,
0,
0,
0,
0,
0,
0,
0,
0,
0,
0,
0,
0,
0,
0,
0,
0,
0,
0,
0,
0,
0,
0,
0,
0,
0,
0,
0,
0,
0,
0,
0,
0,
0,
0,
0,
0,
0,
0,
0,
0,
0,
0,
0,
0,
0,
0,
0,
0,
0,
0,
0,
0,
0,
0,
0,
0,
0,
0,
0,
0,
0,
0,
0,
0,
0,
0,
0,
0,
0,
0,
0,
0,
0,
#ENDOFDATA   :