File: N132962/Quantification/15 keV/Mengason MM2/MMM2 Pyrite[0][4].msa
#FORMAT      : EMSA/MAS Spectral Data File
#VERSION     : 1.0
#TITLE       : MMM2 Pyrite[0][all]
#DATE        : 28-SEP-2025
#TIME        : 20:46
#OWNER       : Unknown
#NPOINTS     : 4096
#NCOLUMNS    : 1
#XUNITS      : eV
#YUNITS      : counts
#DATATYPE    : Y
#XPERCHAN    : 9.99778
#OFFSET      : 1.69135
#BEAMKV      : 15
#SIGNALTYPE  : EDS
#ELEVANGLE   : 35
#AZIMANGLE   : 0
#LIVETIME    : 240.2168
#REALTIME    : 259.042
#PROBECUR    : 1.21333
#TAUWIND     : 0
#TDEADLYR    : 0
#TACTLYR     : 0.045
#TALWIND     : 0.025
#CHOFFSET    : 0.0
#XLABEL      : Energy (eV)
#YLABEL      : Counts
#XPOSITION   : -11.67549
#YPOSITION   : -4.4005
#ZPOSITION   : 34.11879
#EDSDET      : SD
##SPECIMEN   : MMM2 Pyrite[0][all]
##D2STDCMP   : Pyrite,(S:53.4528),(Fe:46.5472)
##DET_HASH   : 12273538-fd48-a23f-0a19-f1e6fa85caef
##CALIB_HASH : 6abaa72c-aa41-8738-0be9-f592914732f3
##WORKING    : 15.0 mm
##DET_NAME   : EDAX All
##DET_MODE   : MediumLE
#SPECTRUM    :
27,
23,
17,
87,
568,
1311,
1715,
4555,
13304,
16661,
8095,
3223,
2742,
3197,
3805,
4590,
6002,
8472,
13973,
21140,
26878,
29017,
47754,
82218,
68812,
25692,
8164,
5255,
4810,
4388,
4479,
4846,
4781,
4888,
5094,
5222,
5465,
5607,
5610,
5729,
5904,
5880,
6160,
6209,
6410,
6281,
6452,
6568,
6639,
6785,
6784,
6618,
6536,
6505,
6356,
6399,
6723,
7037,
7240,
7220,
6808,
6442,
6113,
5815,
5878,
5929,
5856,
6113,
6119,
6248,
6225,
7569,
10905,
19063,
46308,
127009,
260416,
326091,
235689,
101022,
34506,
23703,
26414,
22073,
12870,
6294,
4100,
3374,
3336,
3307,
3196,
3162,
3222,
3191,
3207,
3334,
3302,
3183,
3351,
3269,
3534,
3454,
3187,
3089,
3096,
2961,
3028,
3017,
2906,
2985,
2979,
2918,
2831,
2907,
2971,
2827,
2759,
2829,
2825,
2763,
2862,
2686,
2695,
2728,
2709,
2591,
2659,
2588,
2545,
2505,
2523,
2489,
2452,
2425,
2618,
2534,
2427,
2432,
2409,
2475,
2398,
2406,
2347,
2316,
2273,
2236,
2285,
2256,
2234,
2273,
2232,
2405,
2453,
2658,
2815,
2758,
2530,
2337,
2314,
2153,
2081,
2004,
2057,
2003,
2050,
2056,
1870,
1912,
1981,
1891,
1814,
1827,
1860,
1782,
1807,
1861,
1761,
1789,
1833,
1873,
1803,
1788,
1774,
1701,
1710,
1677,
1733,
1655,
1686,
1598,
1617,
1610,
1673,
1632,
1656,
1642,
1448,
1477,
1548,
1481,
1508,
1545,
1509,
1478,
1629,
1513,
1697,
1847,
2851,
5857,
13084,
25586,
39809,
48443,
45620,
32953,
18537,
8544,
3722,
1888,
1493,
1367,
1292,
1304,
1289,
1285,
1375,
1320,
1342,
1435,
1673,
2142,
3284,
4781,
6590,
7249,
6681,
5021,
3290,
2060,
1292,
1140,
1039,
1057,
983,
1019,
946,
1029,
941,
983,
990,
935,
973,
970,
964,
953,
920,
883,
871,
943,
876,
849,
859,
834,
857,
883,
838,
857,
794,
819,
838,
851,
817,
835,
782,
764,
745,
784,
738,
715,
726,
751,
800,
692,
735,
780,
728,
794,
803,
781,
845,
835,
797,
727,
701,
678,
677,
667,
656,
597,
616,
651,
653,
620,
579,
624,
596,
632,
647,
630,
600,
626,
564,
602,
580,
576,
552,
529,
534,
568,
532,
552,
539,
556,
501,
547,
510,
516,
492,
520,
491,
468,
481,
479,
453,
468,
474,
442,
450,
467,
452,
455,
412,
428,
421,
396,
426,
483,
441,
364,
414,
411,
378,
351,
392,
391,
353,
390,
391,
380,
376,
368,
385,
363,
358,
345,
335,
315,
334,
309,
310,
324,
317,
312,
324,
303,
316,
267,
296,
294,
308,
288,
277,
275,
230,
264,
297,
246,
262,
240,
259,
222,
229,
227,
233,
254,
209,
223,
204,
229,
206,
199,
218,
187,
202,
219,
192,
203,
181,
198,
198,
156,
189,
174,
156,
152,
145,
189,
159,
163,
155,
164,
148,
136,
162,
180,
139,
143,
159,
148,
148,
128,
81,
118,
117,
137,
116,
104,
104,
111,
106,
96,
111,
98,
104,
97,
94,
89,
94,
71,
90,
99,
82,
91,
82,
69,
68,
63,
76,
70,
66,
62,
71,
71,
57,
56,
63,
45,
50,
53,
48,
48,
49,
38,
51,
41,
29,
34,
31,
29,
32,
21,
23,
18,
24,
24,
18,
27,
20,
18,
17,
10,
6,
13,
14,
6,
6,
3,
3,
2,
3,
3,
1,
2,
2,
1,
3,
1,
2,
1,
2,
1,
0,
2,
1,
2,
0,
3,
0,
2,
0,
0,
1,
1,
3,
0,
1,
0,
1,
1,
1,
0,
1,
1,
1,
2,
0,
0,
2,
3,
2,
1,
0,
2,
2,
0,
0,
1,
0,
1,
1,
0,
0,
2,
2,
1,
0,
0,
0,
1,
1,
3,
0,
0,
1,
3,
1,
2,
3,
0,
1,
0,
0,
1,
1,
1,
1,
2,
1,
0,
0,
1,
1,
1,
1,
0,
1,
1,
0,
0,
2,
0,
0,
0,
0,
0,
0,
1,
0,
1,
0,
0,
0,
0,
0,
0,
0,
0,
0,
0,
0,
0,
0,
0,
1,
2,
2,
0,
0,
1,
0,
0,
1,
0,
1,
0,
0,
0,
1,
1,
0,
1,
0,
0,
0,
0,
0,
0,
0,
1,
0,
0,
2,
0,
0,
1,
0,
1,
0,
0,
0,
0,
0,
0,
0,
0,
0,
0,
0,
0,
0,
0,
0,
0,
0,
0,
0,
0,
0,
0,
1,
0,
0,
0,
0,
0,
0,
0,
0,
0,
0,
0,
0,
0,
0,
1,
0,
0,
0,
0,
0,
0,
0,
0,
0,
0,
0,
0,
0,
0,
0,
0,
0,
0,
0,
0,
0,
0,
0,
0,
1,
0,
0,
0,
0,
0,
0,
0,
0,
0,
0,
0,
0,
0,
0,
0,
0,
1,
0,
0,
0,
0,
0,
0,
0,
0,
0,
0,
0,
0,
0,
0,
0,
1,
0,
0,
0,
0,
0,
0,
0,
0,
0,
0,
0,
0,
0,
0,
0,
0,
0,
0,
0,
0,
0,
0,
0,
0,
0,
0,
0,
0,
0,
0,
0,
0,
0,
0,
0,
0,
0,
0,
0,
0,
0,
0,
0,
0,
0,
0,
0,
0,
0,
0,
0,
0,
0,
0,
0,
0,
0,
0,
0,
0,
0,
0,
0,
0,
0,
0,
0,
0,
0,
0,
0,
0,
0,
0,
0,
0,
0,
0,
0,
0,
0,
1,
0,
0,
0,
0,
0,
0,
0,
0,
0,
0,
0,
0,
0,
0,
0,
0,
0,
0,
0,
0,
0,
0,
0,
0,
0,
0,
0,
0,
0,
0,
0,
0,
0,
0,
0,
0,
0,
0,
0,
0,
0,
0,
0,
0,
0,
0,
0,
0,
0,
0,
0,
0,
0,
0,
0,
0,
0,
0,
0,
0,
0,
0,
0,
0,
0,
0,
0,
0,
0,
0,
0,
0,
0,
0,
0,
0,
0,
0,
0,
0,
0,
0,
0,
0,
0,
0,
0,
0,
0,
0,
0,
0,
0,
0,
0,
0,
0,
0,
0,
0,
0,
0,
0,
0,
0,
0,
0,
0,
0,
0,
0,
0,
0,
0,
0,
0,
0,
0,
0,
0,
0,
0,
0,
0,
0,
0,
0,
0,
0,
0,
0,
0,
0,
0,
0,
0,
0,
0,
0,
0,
0,
0,
0,
0,
0,
0,
0,
0,
0,
0,
0,
0,
0,
0,
0,
0,
0,
0,
0,
0,
0,
0,
0,
0,
0,
0,
0,
0,
0,
0,
0,
0,
0,
0,
0,
0,
0,
0,
0,
0,
0,
0,
0,
0,
0,
0,
0,
0,
0,
0,
0,
0,
0,
0,
0,
0,
0,
0,
0,
0,
0,
0,
0,
0,
0,
0,
0,
0,
0,
0,
0,
0,
0,
0,
0,
0,
0,
0,
0,
0,
0,
0,
0,
0,
0,
0,
0,
0,
0,
0,
0,
0,
0,
0,
0,
0,
0,
0,
0,
0,
0,
0,
0,
0,
0,
0,
0,
0,
0,
0,
0,
0,
0,
0,
0,
0,
0,
0,
0,
0,
0,
0,
0,
0,
0,
0,
0,
0,
0,
0,
0,
0,
0,
0,
0,
0,
0,
0,
0,
0,
0,
0,
0,
0,
0,
0,
0,
0,
0,
0,
0,
0,
0,
0,
0,
0,
0,
0,
0,
0,
0,
0,
0,
0,
0,
0,
0,
0,
0,
0,
0,
0,
0,
0,
0,
0,
0,
0,
0,
0,
0,
0,
0,
0,
0,
0,
0,
0,
0,
0,
0,
0,
0,
0,
0,
0,
0,
0,
0,
0,
0,
0,
0,
0,
0,
0,
0,
0,
0,
0,
0,
0,
0,
0,
0,
0,
0,
0,
0,
0,
0,
0,
0,
0,
0,
0,
0,
0,
0,
0,
0,
0,
0,
0,
0,
0,
0,
0,
0,
0,
0,
0,
0,
0,
0,
0,
0,
0,
0,
0,
0,
0,
0,
0,
0,
0,
0,
0,
0,
0,
0,
0,
0,
0,
0,
0,
0,
0,
0,
0,
0,
0,
0,
0,
0,
0,
0,
0,
0,
0,
0,
0,
0,
0,
0,
0,
0,
0,
0,
0,
0,
0,
0,
0,
0,
0,
0,
0,
0,
0,
0,
0,
0,
0,
0,
0,
0,
0,
0,
0,
0,
0,
0,
0,
0,
0,
0,
0,
0,
0,
0,
0,
0,
0,
0,
0,
0,
0,
0,
0,
0,
0,
0,
0,
0,
0,
0,
0,
0,
0,
0,
0,
0,
0,
0,
0,
0,
0,
0,
0,
0,
0,
0,
0,
0,
0,
0,
0,
0,
0,
0,
0,
0,
0,
0,
0,
0,
0,
0,
0,
0,
0,
0,
0,
0,
0,
0,
0,
0,
0,
0,
0,
0,
0,
0,
0,
0,
0,
0,
0,
0,
0,
0,
0,
0,
0,
0,
0,
0,
0,
#ENDOFDATA   :