File: N132962/Quantification/15 keV/Mengason MM2/MMM2 Scheelite[6][4].msa
#FORMAT      : EMSA/MAS Spectral Data File
#VERSION     : 1.0
#TITLE       : MMM2 Scheelite[6][all]
#DATE        : 29-SEP-2025
#TIME        : 00:31
#OWNER       : Unknown
#NPOINTS     : 4096
#NCOLUMNS    : 1
#XUNITS      : eV
#YUNITS      : counts
#DATATYPE    : Y
#XPERCHAN    : 9.99778
#OFFSET      : 1.69135
#BEAMKV      : 15
#SIGNALTYPE  : EDS
#ELEVANGLE   : 35
#AZIMANGLE   : 0
#LIVETIME    : 240.247
#REALTIME    : 260.586
#PROBECUR    : 1.21186
#TAUWIND     : 0
#TDEADLYR    : 0
#TACTLYR     : 0.045
#TALWIND     : 0.025
#CHOFFSET    : 0.0
#XLABEL      : Energy (eV)
#YLABEL      : Counts
#XPOSITION   : -17.52038
#YPOSITION   : 4.44043
#ZPOSITION   : 34.11879
#EDSDET      : SD
##SPECIMEN   : MMM2 Scheelite[6][all]
##DET_HASH   : 12273538-fd48-a23f-0a19-f1e6fa85caef
##CALIB_HASH : 6abaa72c-aa41-8738-0be9-f592914732f3
##WORKING    : 15.0 mm
##DET_NAME   : EDAX All
##DET_MODE   : MediumLE
#SPECTRUM    :
17,
32,
16,
54,
250,
1114,
3719,
9298,
20670,
25930,
15642,
8286,
6103,
5567,
6807,
14554,
42428,
76027,
57380,
18416,
6396,
5454,
5977,
6424,
6737,
6888,
7150,
7306,
7653,
7924,
7799,
8058,
8230,
8411,
8649,
8918,
9144,
9249,
9244,
9399,
9617,
9910,
10134,
10711,
13906,
19973,
24295,
20422,
14578,
11766,
10842,
10625,
10535,
10703,
11121,
13629,
21394,
54812,
136584,
215512,
211588,
151129,
85364,
34285,
12776,
7697,
8584,
10135,
10437,
8666,
6726,
5861,
5580,
5683,
5886,
6129,
6559,
6763,
6746,
6094,
5707,
5430,
5183,
5140,
5053,
5109,
4892,
5160,
5065,
4989,
5082,
5041,
5110,
5016,
5017,
4991,
4937,
4909,
4874,
4990,
5036,
4826,
4820,
4920,
4875,
4866,
4903,
4889,
4783,
4696,
4678,
4691,
4813,
4718,
4718,
4786,
4883,
5094,
5690,
7203,
12217,
24529,
42221,
51921,
44492,
26376,
12473,
6456,
4914,
4750,
4955,
5858,
7432,
9550,
10202,
8716,
6467,
4816,
4191,
4018,
3967,
3936,
3950,
3884,
3775,
3808,
3844,
3818,
3720,
3842,
3716,
3639,
3721,
3713,
3804,
3718,
3499,
3626,
3660,
3606,
3523,
3537,
3505,
3514,
3480,
3424,
3471,
3396,
3476,
3341,
3370,
3497,
3309,
3325,
3218,
3230,
3268,
3272,
3301,
3253,
3317,
3264,
3271,
3276,
3237,
3141,
3103,
3050,
3095,
3053,
2943,
3043,
2953,
2904,
2938,
2861,
2921,
2846,
2794,
2845,
2790,
2759,
2801,
2768,
2651,
2789,
2706,
2697,
2647,
2675,
2615,
2681,
2713,
2658,
2701,
2673,
2580,
2575,
2451,
2558,
2520,
2473,
2378,
2439,
2378,
2364,
2312,
2355,
2357,
2233,
2298,
2231,
2236,
2194,
2323,
2238,
2274,
2137,
2219,
2180,
2159,
2220,
2222,
2263,
2376,
2524,
2526,
2510,
2335,
2301,
2139,
2074,
2062,
2004,
1984,
1928,
1936,
1905,
1918,
1881,
1888,
1790,
1879,
1919,
1748,
1851,
1878,
1853,
1807,
1872,
1779,
1726,
1830,
1944,
2336,
2945,
4385,
6548,
9200,
11065,
11244,
9789,
6957,
4698,
2891,
2065,
1716,
1596,
1611,
1586,
1448,
1660,
1559,
1524,
1456,
1455,
1402,
1390,
1374,
1349,
1366,
1369,
1350,
1394,
1376,
1362,
1323,
1292,
1303,
1341,
1257,
1300,
1267,
1291,
1314,
1500,
1541,
1758,
1958,
2364,
2912,
3353,
3632,
3573,
3053,
2469,
2126,
1914,
1960,
2282,
2525,
2662,
2783,
2549,
2242,
1812,
1441,
1198,
1104,
1166,
1018,
1039,
982,
978,
971,
887,
888,
873,
832,
906,
840,
817,
899,
884,
886,
884,
883,
864,
840,
823,
836,
797,
823,
797,
751,
764,
764,
776,
771,
754,
800,
740,
810,
839,
948,
1077,
1084,
1081,
999,
880,
801,
662,
731,
687,
684,
624,
682,
694,
779,
704,
699,
634,
568,
588,
603,
531,
519,
522,
555,
529,
552,
532,
535,
497,
491,
479,
468,
471,
469,
454,
447,
416,
431,
419,
415,
413,
397,
379,
421,
410,
347,
374,
335,
387,
340,
328,
361,
323,
350,
335,
311,
338,
311,
315,
305,
324,
288,
303,
268,
266,
267,
287,
266,
261,
264,
286,
221,
254,
212,
242,
192,
223,
209,
192,
198,
234,
206,
179,
184,
172,
173,
175,
164,
154,
139,
149,
139,
135,
130,
126,
133,
122,
114,
113,
94,
95,
95,
91,
96,
96,
73,
84,
81,
72,
67,
57,
53,
56,
59,
46,
50,
40,
29,
30,
37,
20,
21,
18,
13,
14,
5,
6,
5,
3,
5,
3,
6,
3,
2,
3,
3,
4,
2,
3,
4,
5,
3,
5,
2,
1,
1,
2,
0,
5,
0,
1,
3,
1,
3,
2,
1,
4,
4,
5,
5,
1,
2,
1,
5,
3,
4,
0,
1,
2,
0,
2,
3,
1,
1,
0,
0,
6,
2,
2,
1,
2,
0,
0,
1,
3,
3,
5,
1,
2,
2,
2,
2,
4,
1,
1,
1,
1,
1,
2,
0,
0,
3,
2,
1,
1,
1,
2,
2,
1,
0,
2,
1,
2,
1,
3,
0,
1,
1,
2,
4,
1,
0,
2,
2,
0,
0,
3,
4,
1,
0,
0,
1,
0,
1,
1,
2,
0,
1,
0,
1,
2,
1,
0,
1,
2,
1,
3,
0,
0,
1,
0,
0,
1,
0,
0,
0,
1,
1,
2,
1,
1,
1,
0,
0,
0,
1,
1,
2,
0,
0,
0,
0,
0,
2,
1,
0,
1,
0,
1,
1,
0,
1,
0,
0,
0,
0,
1,
1,
0,
1,
0,
0,
1,
0,
0,
0,
0,
0,
0,
0,
0,
1,
1,
0,
1,
0,
0,
1,
0,
0,
0,
1,
1,
0,
2,
0,
0,
2,
0,
0,
0,
1,
0,
0,
1,
0,
0,
0,
1,
0,
0,
0,
1,
0,
0,
1,
0,
0,
0,
0,
0,
0,
0,
1,
1,
0,
0,
0,
0,
1,
1,
1,
0,
0,
0,
0,
0,
0,
0,
0,
0,
0,
1,
0,
0,
0,
2,
0,
0,
0,
0,
1,
0,
0,
0,
0,
0,
0,
1,
0,
0,
0,
0,
0,
0,
0,
0,
0,
0,
0,
0,
0,
0,
0,
0,
0,
0,
0,
0,
0,
0,
1,
0,
0,
0,
0,
0,
0,
0,
0,
0,
0,
1,
0,
0,
0,
0,
0,
0,
0,
1,
0,
0,
0,
1,
1,
0,
0,
0,
0,
0,
0,
0,
0,
0,
0,
0,
0,
0,
0,
0,
0,
0,
0,
0,
0,
0,
0,
0,
0,
0,
0,
0,
0,
0,
0,
0,
0,
0,
0,
0,
0,
0,
0,
0,
0,
0,
0,
0,
0,
0,
0,
0,
0,
0,
0,
0,
0,
0,
0,
0,
0,
0,
0,
0,
0,
1,
0,
0,
0,
0,
0,
0,
0,
0,
0,
0,
0,
0,
0,
0,
0,
0,
0,
0,
0,
0,
0,
0,
0,
0,
0,
0,
0,
0,
0,
0,
0,
0,
0,
0,
0,
0,
0,
0,
0,
0,
0,
1,
0,
0,
0,
0,
0,
0,
0,
0,
0,
0,
0,
0,
0,
0,
0,
0,
0,
0,
0,
0,
0,
0,
0,
0,
0,
0,
0,
0,
0,
0,
0,
0,
0,
0,
0,
0,
0,
0,
0,
0,
0,
0,
0,
0,
0,
0,
0,
0,
0,
0,
0,
0,
0,
0,
0,
0,
0,
0,
0,
0,
0,
0,
0,
0,
0,
0,
0,
0,
0,
0,
0,
0,
0,
0,
0,
0,
0,
0,
0,
0,
0,
0,
0,
0,
0,
0,
0,
0,
0,
0,
0,
0,
0,
0,
0,
0,
0,
0,
0,
0,
0,
0,
0,
0,
0,
0,
0,
0,
0,
0,
0,
0,
0,
0,
0,
0,
0,
0,
0,
0,
0,
0,
0,
0,
0,
0,
0,
0,
0,
0,
0,
0,
0,
0,
0,
0,
0,
0,
0,
0,
0,
0,
0,
0,
0,
0,
0,
0,
0,
0,
0,
0,
0,
0,
0,
0,
0,
0,
0,
0,
0,
0,
0,
0,
0,
0,
0,
0,
0,
0,
0,
0,
0,
0,
0,
0,
0,
0,
0,
0,
0,
0,
0,
0,
0,
0,
0,
0,
0,
0,
0,
0,
0,
0,
0,
0,
0,
0,
0,
0,
0,
0,
0,
0,
0,
0,
0,
0,
0,
0,
0,
0,
0,
0,
0,
0,
0,
0,
0,
0,
0,
0,
0,
0,
0,
0,
0,
0,
0,
0,
0,
0,
0,
0,
0,
0,
0,
0,
0,
0,
0,
0,
0,
0,
0,
0,
0,
0,
0,
0,
0,
0,
0,
0,
0,
0,
0,
0,
0,
0,
0,
0,
0,
0,
0,
0,
0,
0,
0,
0,
0,
0,
0,
0,
0,
0,
0,
0,
0,
0,
0,
0,
0,
0,
0,
0,
0,
0,
0,
0,
0,
0,
0,
0,
0,
0,
0,
0,
0,
0,
0,
0,
0,
0,
0,
0,
0,
0,
0,
0,
0,
0,
0,
0,
0,
0,
0,
0,
0,
0,
0,
0,
0,
0,
0,
0,
0,
0,
0,
0,
0,
0,
0,
0,
0,
0,
0,
0,
0,
0,
0,
0,
0,
0,
0,
0,
0,
0,
0,
0,
0,
0,
0,
0,
0,
0,
0,
0,
0,
0,
0,
0,
0,
0,
0,
0,
0,
0,
0,
0,
0,
0,
0,
0,
0,
0,
0,
0,
0,
0,
0,
0,
0,
0,
0,
0,
0,
0,
0,
0,
0,
0,
0,
0,
0,
0,
0,
0,
0,
0,
0,
0,
0,
0,
0,
0,
0,
0,
0,
0,
0,
0,
0,
0,
0,
0,
0,
0,
0,
0,
0,
0,
0,
0,
0,
0,
0,
0,
0,
0,
0,
0,
0,
0,
0,
0,
0,
0,
0,
0,
0,
0,
0,
0,
0,
0,
0,
0,
0,
0,
0,
0,
0,
0,
0,
0,
0,
0,
0,
0,
0,
0,
#ENDOFDATA   :