File: N132962/Quantification/15 keV/Mengason MM2/MMM2 Scheelite[5][4].msa
#FORMAT      : EMSA/MAS Spectral Data File
#VERSION     : 1.0
#TITLE       : MMM2 Scheelite[5][all]
#DATE        : 29-SEP-2025
#TIME        : 00:29
#OWNER       : Unknown
#NPOINTS     : 4096
#NCOLUMNS    : 1
#XUNITS      : eV
#YUNITS      : counts
#DATATYPE    : Y
#XPERCHAN    : 9.99778
#OFFSET      : 1.69135
#BEAMKV      : 15
#SIGNALTYPE  : EDS
#ELEVANGLE   : 35
#AZIMANGLE   : 0
#LIVETIME    : 240.27
#REALTIME    : 260.5934
#PROBECUR    : 1.21186
#TAUWIND     : 0
#TDEADLYR    : 0
#TACTLYR     : 0.045
#TALWIND     : 0.025
#CHOFFSET    : 0.0
#XLABEL      : Energy (eV)
#YLABEL      : Counts
#XPOSITION   : -17.6071
#YPOSITION   : 4.45242
#ZPOSITION   : 34.11879
#EDSDET      : SD
##SPECIMEN   : MMM2 Scheelite[5][all]
##DET_HASH   : 12273538-fd48-a23f-0a19-f1e6fa85caef
##CALIB_HASH : 6abaa72c-aa41-8738-0be9-f592914732f3
##WORKING    : 15.0 mm
##DET_NAME   : EDAX All
##DET_MODE   : MediumLE
#SPECTRUM    :
21,
28,
10,
51,
238,
1133,
3633,
9289,
20174,
26022,
16030,
8214,
6142,
5588,
6802,
14234,
42177,
76543,
56777,
18171,
6164,
5554,
5906,
6503,
6814,
6935,
7134,
7457,
8000,
7804,
7871,
8099,
8355,
8478,
8722,
8938,
9164,
9289,
9193,
9515,
9575,
9743,
10030,
10835,
13860,
19795,
24031,
20435,
14765,
11959,
10788,
10401,
10515,
10494,
11359,
13288,
21380,
54484,
135901,
215106,
211047,
150848,
84765,
34262,
12632,
7843,
8611,
10102,
10406,
8680,
6568,
5868,
5591,
5629,
5913,
6041,
6642,
6957,
6815,
6359,
5581,
5388,
5151,
5139,
5215,
5024,
5085,
5033,
4926,
5042,
4988,
5008,
5148,
5136,
5162,
5074,
4932,
4844,
4864,
4856,
4775,
4863,
4833,
4832,
4869,
4780,
4891,
4909,
4844,
4755,
4838,
4819,
4766,
4753,
4615,
4724,
4840,
5115,
5682,
7012,
12058,
24689,
42208,
52021,
44409,
26616,
12565,
6550,
4820,
4676,
5102,
5677,
7612,
9422,
10085,
8669,
6455,
4772,
4342,
4042,
3997,
3943,
3804,
3942,
3855,
3898,
3806,
3838,
3770,
3812,
3668,
3745,
3757,
3672,
3684,
3686,
3767,
3535,
3583,
3517,
3546,
3508,
3527,
3481,
3442,
3520,
3394,
3451,
3442,
3472,
3359,
3252,
3364,
3302,
3283,
3225,
3332,
3337,
3298,
3257,
3355,
3243,
3321,
3189,
3272,
3150,
3104,
3049,
3056,
3042,
2987,
2933,
3092,
2973,
3008,
2918,
2894,
2917,
2767,
2740,
2684,
2710,
2824,
2748,
2668,
2710,
2714,
2737,
2626,
2636,
2643,
2630,
2775,
2808,
2609,
2648,
2624,
2495,
2456,
2445,
2458,
2411,
2379,
2376,
2372,
2339,
2304,
2395,
2394,
2390,
2305,
2302,
2288,
2280,
2283,
2217,
2180,
2180,
2199,
2139,
2086,
2179,
2217,
2185,
2383,
2499,
2627,
2531,
2363,
2201,
2201,
2065,
1952,
1937,
1975,
1945,
1942,
1870,
1929,
1848,
1807,
1843,
1876,
1811,
1810,
1902,
1784,
1815,
1753,
1717,
1870,
1806,
1879,
1951,
2246,
3048,
4421,
6730,
9238,
10817,
11126,
9486,
6967,
4477,
3002,
2131,
1753,
1573,
1595,
1562,
1582,
1631,
1536,
1464,
1424,
1466,
1447,
1397,
1366,
1377,
1367,
1386,
1395,
1346,
1329,
1351,
1334,
1272,
1343,
1323,
1293,
1334,
1354,
1349,
1316,
1325,
1448,
1779,
1959,
2412,
3045,
3539,
3717,
3656,
3038,
2487,
2177,
1905,
1958,
2197,
2479,
2700,
2788,
2507,
2180,
1656,
1376,
1261,
1092,
1020,
1086,
1061,
1096,
995,
982,
949,
933,
878,
851,
893,
867,
889,
881,
815,
843,
854,
848,
844,
774,
748,
805,
812,
817,
782,
847,
821,
823,
743,
746,
761,
794,
760,
854,
903,
1020,
1119,
1094,
1024,
931,
871,
778,
724,
703,
666,
642,
657,
700,
679,
679,
723,
591,
610,
629,
585,
550,
548,
515,
542,
521,
521,
552,
491,
528,
497,
450,
463,
507,
454,
431,
435,
435,
450,
401,
444,
438,
423,
422,
357,
399,
421,
382,
356,
342,
377,
359,
386,
349,
316,
312,
326,
325,
310,
292,
279,
298,
305,
315,
304,
278,
242,
256,
240,
259,
272,
260,
260,
227,
237,
217,
230,
218,
230,
222,
181,
190,
198,
174,
178,
201,
168,
167,
154,
168,
166,
142,
146,
138,
118,
130,
134,
118,
118,
119,
125,
113,
118,
107,
106,
89,
115,
91,
84,
83,
62,
83,
71,
58,
69,
56,
49,
43,
36,
33,
40,
24,
19,
25,
17,
13,
12,
9,
5,
5,
5,
3,
2,
6,
3,
4,
6,
1,
3,
2,
6,
4,
10,
2,
1,
5,
2,
4,
0,
4,
2,
2,
2,
1,
4,
3,
3,
3,
3,
1,
4,
0,
1,
4,
0,
2,
0,
2,
0,
1,
3,
1,
1,
0,
2,
2,
0,
1,
2,
2,
3,
1,
4,
1,
2,
3,
1,
2,
3,
2,
2,
6,
3,
2,
2,
1,
1,
1,
1,
1,
1,
1,
0,
4,
3,
0,
0,
1,
3,
1,
2,
2,
4,
4,
2,
1,
4,
3,
1,
0,
0,
0,
2,
2,
0,
1,
3,
1,
2,
0,
1,
2,
0,
2,
3,
2,
2,
3,
1,
1,
0,
0,
2,
0,
0,
2,
0,
0,
0,
1,
2,
0,
1,
2,
2,
3,
0,
0,
0,
0,
2,
3,
2,
2,
1,
2,
1,
1,
1,
2,
0,
2,
0,
2,
1,
1,
1,
1,
1,
0,
1,
1,
0,
1,
0,
0,
0,
1,
1,
2,
0,
1,
2,
1,
0,
1,
1,
1,
0,
0,
2,
0,
0,
0,
0,
0,
0,
0,
2,
0,
1,
3,
1,
0,
0,
2,
2,
0,
0,
0,
1,
2,
0,
0,
1,
0,
0,
0,
0,
0,
0,
0,
0,
0,
1,
0,
0,
1,
1,
0,
0,
0,
1,
0,
0,
0,
1,
1,
1,
0,
0,
1,
0,
0,
0,
0,
1,
0,
0,
0,
0,
0,
0,
0,
0,
0,
0,
1,
0,
0,
1,
0,
0,
0,
0,
0,
0,
0,
0,
0,
0,
0,
0,
0,
0,
0,
1,
0,
0,
0,
0,
1,
0,
0,
0,
0,
0,
0,
0,
0,
0,
0,
0,
0,
0,
0,
0,
0,
0,
0,
0,
0,
0,
0,
0,
0,
0,
0,
0,
0,
0,
0,
0,
1,
0,
0,
0,
0,
0,
0,
0,
0,
0,
0,
0,
0,
0,
0,
0,
0,
0,
0,
0,
0,
0,
0,
0,
0,
0,
0,
0,
0,
0,
0,
0,
1,
0,
0,
0,
0,
0,
0,
0,
1,
0,
0,
0,
0,
0,
0,
0,
0,
0,
0,
0,
0,
0,
0,
0,
0,
0,
0,
0,
0,
0,
0,
0,
0,
0,
0,
0,
0,
0,
0,
0,
0,
0,
0,
0,
0,
0,
0,
0,
0,
0,
0,
0,
0,
0,
0,
0,
0,
0,
0,
0,
0,
0,
0,
0,
0,
0,
0,
0,
0,
0,
0,
0,
0,
0,
0,
0,
0,
0,
0,
0,
0,
0,
0,
0,
0,
0,
0,
0,
0,
0,
0,
0,
0,
0,
0,
0,
0,
0,
0,
0,
0,
0,
0,
0,
0,
0,
0,
0,
0,
0,
0,
0,
0,
0,
0,
0,
0,
0,
0,
0,
0,
0,
0,
0,
0,
0,
0,
0,
0,
0,
0,
0,
0,
0,
0,
0,
0,
0,
0,
0,
0,
0,
0,
0,
0,
0,
0,
0,
0,
0,
0,
0,
0,
0,
0,
0,
0,
0,
0,
0,
0,
0,
0,
0,
0,
0,
0,
0,
0,
0,
0,
0,
0,
0,
0,
0,
0,
0,
0,
0,
0,
0,
0,
0,
0,
0,
0,
0,
0,
0,
0,
0,
0,
0,
0,
0,
0,
0,
0,
0,
0,
0,
0,
0,
0,
0,
0,
0,
0,
0,
0,
0,
0,
0,
0,
0,
0,
0,
0,
0,
0,
0,
0,
0,
0,
0,
0,
0,
0,
0,
0,
0,
0,
0,
0,
0,
0,
0,
0,
0,
0,
0,
0,
0,
0,
0,
0,
0,
0,
0,
0,
0,
0,
0,
0,
0,
0,
0,
0,
0,
0,
0,
0,
0,
0,
0,
0,
0,
0,
0,
0,
0,
0,
0,
0,
0,
0,
0,
0,
0,
0,
0,
0,
0,
0,
0,
0,
0,
0,
0,
0,
0,
0,
0,
0,
0,
0,
0,
0,
0,
0,
0,
0,
0,
0,
0,
0,
0,
0,
0,
0,
0,
0,
0,
0,
0,
0,
0,
0,
0,
0,
0,
0,
0,
0,
0,
0,
0,
0,
0,
0,
0,
0,
0,
0,
0,
0,
0,
0,
0,
0,
0,
0,
0,
0,
0,
0,
0,
0,
0,
0,
0,
0,
0,
0,
0,
0,
0,
0,
0,
0,
0,
0,
0,
0,
0,
0,
0,
0,
0,
0,
0,
0,
0,
0,
0,
0,
0,
0,
0,
0,
0,
0,
0,
0,
0,
0,
0,
0,
0,
0,
0,
0,
0,
0,
0,
0,
0,
0,
0,
0,
0,
0,
0,
0,
0,
0,
0,
0,
0,
0,
0,
0,
0,
0,
0,
0,
0,
0,
0,
0,
0,
0,
0,
0,
0,
0,
0,
0,
0,
0,
0,
0,
0,
0,
0,
0,
0,
0,
0,
0,
0,
0,
0,
0,
0,
0,
0,
0,
0,
0,
0,
0,
0,
0,
0,
0,
0,
0,
0,
0,
0,
0,
0,
0,
0,
0,
0,
0,
0,
0,
0,
0,
0,
0,
0,
0,
0,
0,
0,
0,
0,
0,
0,
0,
0,
0,
0,
0,
0,
0,
0,
0,
0,
0,
0,
0,
0,
0,
0,
0,
0,
0,
0,
0,
0,
0,
0,
0,
0,
0,
0,
0,
0,
0,
0,
0,
0,
0,
0,
0,
0,
0,
0,
0,
0,
0,
0,
0,
0,
0,
0,
0,
0,
0,
0,
0,
0,
#ENDOFDATA   :