File: N132962/Quantification/15 keV/Mengason MM2/MMM2 Pollucite[3][4].msa
#FORMAT      : EMSA/MAS Spectral Data File
#VERSION     : 1.0
#TITLE       : MMM2 Pollucite[3][all]
#DATE        : 29-SEP-2025
#TIME        : 00:38
#OWNER       : Unknown
#NPOINTS     : 4096
#NCOLUMNS    : 1
#XUNITS      : eV
#YUNITS      : counts
#DATATYPE    : Y
#XPERCHAN    : 9.99778
#OFFSET      : 1.69135
#BEAMKV      : 15
#SIGNALTYPE  : EDS
#ELEVANGLE   : 35
#AZIMANGLE   : 0
#LIVETIME    : 240.794
#REALTIME    : 258.099
#PROBECUR    : 1.21186
#TAUWIND     : 0
#TDEADLYR    : 0
#TACTLYR     : 0.045
#TALWIND     : 0.025
#CHOFFSET    : 0.0
#XLABEL      : Energy (eV)
#YLABEL      : Counts
#XPOSITION   : -20.61191
#YPOSITION   : 3.78647
#ZPOSITION   : 34.11879
#EDSDET      : SD
##SPECIMEN   : MMM2 Pollucite[3][all]
##DET_HASH   : 12273538-fd48-a23f-0a19-f1e6fa85caef
##CALIB_HASH : 6abaa72c-aa41-8738-0be9-f592914732f3
##WORKING    : 15.0 mm
##DET_NAME   : EDAX All
##DET_MODE   : MediumLE
#SPECTRUM    :
27,
23,
11,
17,
133,
502,
1712,
5413,
14795,
18440,
9989,
5454,
5724,
7145,
11551,
36429,
130496,
248121,
181818,
51628,
9654,
4691,
4916,
6329,
7102,
6288,
4905,
4577,
4712,
5151,
5922,
6509,
6814,
8678,
11980,
12390,
8490,
5421,
5016,
5189,
5210,
5197,
5399,
5581,
5681,
5949,
6863,
12099,
31998,
61652,
62416,
34336,
13960,
7827,
7323,
13986,
46962,
116269,
158165,
111727,
46362,
17220,
8875,
5628,
4297,
4198,
4323,
4401,
4467,
4058,
3856,
3891,
3915,
3978,
4179,
4395,
4273,
4073,
3876,
3669,
3716,
3798,
3696,
3816,
3924,
3845,
3817,
3641,
3725,
3702,
3576,
3463,
3620,
3552,
3426,
3500,
3537,
3595,
3308,
3431,
3257,
3355,
3200,
3126,
3149,
3180,
3131,
3289,
3249,
3273,
3156,
3155,
3094,
3028,
3000,
2984,
3023,
3052,
2923,
2902,
2867,
2805,
2791,
2946,
3057,
3342,
3810,
3825,
3457,
2974,
2801,
2684,
2603,
2587,
2563,
2615,
2822,
3025,
3477,
4979,
9791,
19020,
29600,
33976,
27207,
16238,
7734,
3863,
2679,
2674,
3055,
5047,
8861,
13892,
16478,
15622,
11928,
8173,
5823,
4360,
3450,
3181,
3940,
5253,
6731,
6727,
5612,
3812,
2613,
2159,
1960,
1862,
2040,
2282,
2757,
3336,
3590,
3331,
2742,
2136,
1906,
1791,
1918,
2090,
2312,
2413,
2239,
2012,
1748,
1706,
1691,
1673,
1653,
1560,
1542,
1456,
1436,
1443,
1451,
1452,
1448,
1471,
1420,
1416,
1337,
1344,
1335,
1305,
1307,
1291,
1326,
1382,
1316,
1418,
1369,
1384,
1329,
1205,
1236,
1224,
1203,
1196,
1210,
1223,
1220,
1252,
1143,
1197,
1137,
1144,
1161,
1111,
1118,
1086,
1127,
1161,
1067,
1101,
1044,
1041,
1047,
1112,
1023,
977,
1025,
1017,
1024,
1025,
993,
978,
966,
977,
1005,
986,
947,
884,
904,
958,
948,
949,
965,
896,
885,
889,
856,
898,
847,
841,
876,
831,
863,
779,
842,
810,
821,
835,
865,
711,
764,
751,
809,
817,
758,
736,
780,
757,
780,
730,
728,
742,
705,
629,
681,
709,
676,
685,
688,
678,
698,
654,
679,
694,
633,
608,
641,
660,
626,
628,
629,
576,
605,
619,
599,
611,
595,
600,
530,
576,
565,
527,
550,
533,
547,
566,
545,
543,
505,
504,
463,
497,
478,
514,
484,
485,
489,
468,
459,
500,
477,
479,
484,
408,
470,
456,
396,
430,
441,
432,
414,
404,
431,
408,
416,
383,
370,
395,
372,
379,
356,
354,
372,
340,
364,
377,
343,
363,
352,
338,
333,
341,
328,
298,
313,
326,
275,
302,
346,
298,
283,
300,
292,
274,
299,
260,
258,
288,
274,
252,
280,
241,
248,
262,
249,
259,
267,
242,
241,
232,
234,
199,
211,
220,
207,
191,
207,
207,
226,
212,
200,
212,
202,
184,
171,
204,
169,
203,
199,
144,
165,
144,
155,
159,
170,
164,
142,
150,
147,
138,
150,
139,
143,
152,
121,
123,
92,
125,
105,
123,
95,
105,
104,
95,
106,
100,
103,
100,
97,
116,
92,
85,
84,
77,
96,
76,
78,
76,
74,
82,
79,
60,
59,
67,
53,
58,
58,
52,
54,
61,
37,
40,
36,
41,
47,
44,
50,
39,
43,
27,
36,
27,
33,
28,
27,
26,
25,
26,
17,
19,
22,
25,
16,
7,
15,
9,
10,
5,
4,
9,
5,
4,
5,
2,
0,
1,
2,
0,
1,
1,
2,
1,
2,
0,
0,
3,
0,
2,
2,
0,
0,
1,
1,
1,
0,
0,
1,
2,
2,
0,
0,
0,
0,
1,
0,
1,
1,
0,
0,
0,
1,
0,
0,
2,
1,
0,
1,
1,
0,
0,
1,
3,
0,
0,
0,
0,
0,
0,
0,
0,
3,
0,
0,
0,
0,
0,
2,
1,
1,
0,
0,
3,
0,
1,
0,
0,
0,
0,
1,
0,
1,
1,
1,
0,
0,
0,
0,
0,
0,
1,
0,
0,
1,
0,
1,
1,
0,
0,
0,
1,
0,
0,
0,
0,
0,
0,
0,
0,
0,
0,
0,
0,
0,
1,
0,
0,
0,
0,
0,
1,
0,
0,
1,
0,
0,
0,
0,
0,
0,
0,
0,
0,
1,
0,
0,
0,
0,
0,
0,
0,
0,
0,
0,
1,
1,
0,
0,
0,
0,
0,
0,
0,
0,
0,
0,
0,
1,
0,
0,
0,
0,
0,
0,
0,
0,
0,
0,
0,
0,
0,
0,
0,
0,
0,
0,
0,
0,
0,
0,
0,
0,
0,
0,
0,
0,
0,
0,
0,
0,
0,
0,
0,
0,
0,
0,
0,
0,
0,
0,
0,
0,
0,
0,
0,
0,
0,
0,
0,
0,
0,
1,
0,
0,
0,
0,
0,
0,
0,
0,
0,
0,
0,
0,
0,
2,
0,
0,
0,
0,
0,
0,
0,
0,
0,
0,
0,
0,
0,
0,
1,
0,
0,
0,
0,
0,
0,
0,
0,
0,
0,
0,
0,
0,
0,
0,
0,
0,
0,
0,
0,
0,
0,
0,
0,
0,
0,
0,
0,
0,
1,
0,
0,
0,
0,
0,
0,
0,
0,
0,
0,
0,
0,
0,
0,
0,
0,
0,
0,
0,
0,
0,
0,
0,
0,
0,
0,
0,
0,
0,
0,
0,
0,
0,
0,
0,
0,
0,
0,
0,
0,
0,
0,
0,
0,
0,
0,
0,
0,
0,
0,
0,
0,
0,
0,
0,
0,
0,
0,
0,
0,
0,
0,
0,
0,
0,
0,
0,
0,
0,
0,
0,
0,
0,
0,
0,
0,
0,
0,
0,
0,
0,
0,
0,
0,
0,
0,
0,
0,
0,
0,
0,
0,
0,
0,
0,
0,
0,
0,
0,
0,
0,
0,
0,
0,
0,
0,
0,
0,
0,
0,
0,
0,
0,
0,
0,
0,
0,
0,
0,
0,
0,
0,
0,
0,
0,
0,
0,
0,
0,
0,
0,
0,
0,
0,
0,
0,
0,
0,
0,
0,
0,
0,
0,
0,
0,
0,
0,
0,
0,
0,
0,
0,
0,
0,
0,
0,
0,
0,
0,
0,
0,
0,
0,
0,
0,
0,
0,
0,
0,
0,
0,
0,
0,
0,
0,
0,
0,
0,
0,
0,
0,
0,
0,
0,
0,
0,
0,
0,
0,
0,
0,
0,
0,
0,
0,
0,
0,
0,
0,
0,
0,
0,
0,
0,
0,
0,
0,
0,
0,
0,
0,
0,
0,
0,
0,
0,
0,
0,
0,
0,
0,
0,
0,
0,
0,
0,
0,
0,
0,
0,
0,
0,
0,
0,
0,
0,
0,
0,
0,
0,
0,
0,
0,
0,
0,
0,
0,
0,
0,
0,
0,
0,
0,
0,
0,
0,
0,
0,
0,
0,
0,
0,
0,
0,
0,
0,
0,
0,
0,
0,
0,
0,
0,
0,
0,
0,
0,
0,
0,
0,
0,
0,
0,
0,
0,
0,
0,
0,
0,
0,
0,
0,
0,
0,
0,
0,
0,
0,
0,
0,
0,
0,
0,
0,
0,
0,
0,
0,
0,
0,
0,
0,
0,
0,
0,
0,
0,
0,
0,
0,
0,
0,
0,
0,
0,
0,
0,
0,
0,
0,
0,
0,
0,
0,
0,
0,
0,
0,
0,
0,
0,
0,
0,
0,
0,
0,
0,
0,
0,
0,
0,
0,
0,
0,
0,
0,
0,
0,
0,
0,
0,
0,
0,
0,
0,
0,
0,
0,
0,
0,
0,
0,
0,
0,
0,
0,
0,
0,
0,
0,
0,
0,
0,
0,
0,
0,
0,
0,
0,
0,
0,
0,
0,
0,
0,
0,
0,
0,
0,
0,
0,
0,
0,
0,
0,
0,
0,
0,
0,
0,
0,
0,
0,
0,
0,
0,
0,
0,
0,
0,
0,
0,
0,
0,
0,
0,
0,
0,
0,
0,
0,
0,
0,
0,
0,
0,
0,
0,
0,
0,
0,
0,
0,
0,
0,
0,
0,
0,
0,
0,
0,
0,
0,
0,
0,
0,
0,
0,
0,
0,
0,
0,
0,
0,
0,
0,
0,
0,
0,
0,
0,
0,
0,
0,
0,
0,
0,
0,
0,
0,
0,
0,
0,
0,
0,
0,
0,
0,
0,
0,
0,
0,
0,
0,
0,
0,
0,
0,
0,
0,
0,
0,
0,
0,
0,
0,
0,
0,
0,
0,
0,
0,
0,
0,
0,
0,
0,
0,
0,
0,
0,
0,
0,
0,
0,
0,
0,
0,
0,
0,
0,
0,
0,
0,
0,
0,
0,
0,
0,
0,
0,
0,
0,
0,
0,
0,
0,
0,
0,
0,
0,
0,
0,
0,
0,
0,
0,
0,
0,
0,
0,
0,
0,
0,
0,
0,
0,
0,
0,
0,
0,
0,
0,
0,
0,
0,
0,
0,
0,
0,
0,
0,
0,
0,
0,
0,
0,
0,
0,
0,
0,
0,
0,
0,
0,
0,
0,
0,
#ENDOFDATA   :