File: N132962/Quantification/15 keV/Mengason MM2/MMM2 Pollucite[6][4].msa
#FORMAT      : EMSA/MAS Spectral Data File
#VERSION     : 1.0
#TITLE       : MMM2 Pollucite[6][all]
#DATE        : 29-SEP-2025
#TIME        : 00:41
#OWNER       : Unknown
#NPOINTS     : 4096
#NCOLUMNS    : 1
#XUNITS      : eV
#YUNITS      : counts
#DATATYPE    : Y
#XPERCHAN    : 9.99778
#OFFSET      : 1.69135
#BEAMKV      : 15
#SIGNALTYPE  : EDS
#ELEVANGLE   : 35
#AZIMANGLE   : 0
#LIVETIME    : 240.333
#REALTIME    : 257.581
#PROBECUR    : 1.21186
#TAUWIND     : 0
#TDEADLYR    : 0
#TACTLYR     : 0.045
#TALWIND     : 0.025
#CHOFFSET    : 0.0
#XLABEL      : Energy (eV)
#YLABEL      : Counts
#XPOSITION   : -20.69154
#YPOSITION   : 3.85452
#ZPOSITION   : 34.11879
#EDSDET      : SD
##SPECIMEN   : MMM2 Pollucite[6][all]
##DET_HASH   : 12273538-fd48-a23f-0a19-f1e6fa85caef
##CALIB_HASH : 6abaa72c-aa41-8738-0be9-f592914732f3
##WORKING    : 15.0 mm
##DET_NAME   : EDAX All
##DET_MODE   : MediumLE
#SPECTRUM    :
15,
30,
7,
22,
128,
513,
1636,
5123,
13825,
17101,
9473,
5408,
5643,
7099,
11388,
36482,
130679,
247200,
181812,
51659,
9563,
4690,
4890,
6149,
6960,
6073,
4886,
4492,
4554,
5161,
6009,
6340,
6694,
8517,
12340,
12228,
8090,
5580,
4986,
5075,
5067,
5215,
5376,
5505,
5549,
5888,
6888,
12296,
32370,
61311,
62374,
34068,
14069,
7848,
7245,
14053,
46987,
115694,
157939,
111675,
46144,
17259,
8895,
5608,
4300,
4052,
4595,
4513,
4348,
4043,
3791,
3905,
3769,
3968,
4153,
4248,
4295,
4003,
3695,
3738,
3764,
3713,
3877,
3890,
3896,
4016,
3898,
3619,
3682,
3607,
3553,
3503,
3489,
3618,
3468,
3467,
3536,
3528,
3450,
3453,
3335,
3380,
3245,
3132,
3127,
3280,
3295,
3321,
3231,
3280,
3295,
3187,
3180,
3060,
3004,
3051,
2991,
2912,
2963,
2962,
2918,
2814,
2759,
2844,
3025,
3447,
3795,
3919,
3489,
2891,
2719,
2659,
2551,
2548,
2549,
2708,
2768,
3093,
3582,
5045,
9757,
19254,
29851,
33578,
27288,
16280,
7787,
3920,
2740,
2647,
3287,
4972,
8857,
13732,
16581,
15723,
12001,
8309,
5763,
4412,
3317,
3287,
3821,
5397,
6471,
6811,
5438,
3901,
2716,
2126,
1963,
1922,
2060,
2277,
2801,
3393,
3777,
3471,
2765,
2208,
1866,
1742,
1920,
2201,
2342,
2393,
2178,
1968,
1791,
1687,
1624,
1641,
1560,
1495,
1469,
1514,
1450,
1527,
1452,
1469,
1509,
1406,
1468,
1453,
1436,
1379,
1360,
1352,
1304,
1353,
1346,
1344,
1411,
1376,
1398,
1241,
1264,
1260,
1265,
1235,
1244,
1287,
1181,
1269,
1168,
1142,
1156,
1175,
1145,
1169,
1165,
1147,
1086,
1170,
1083,
1111,
1144,
1075,
1048,
1066,
1066,
1051,
1084,
1025,
973,
1065,
1100,
1009,
1000,
977,
972,
929,
968,
951,
981,
902,
926,
941,
914,
940,
861,
886,
925,
907,
894,
880,
815,
892,
891,
866,
850,
819,
795,
844,
802,
765,
797,
798,
834,
785,
756,
794,
795,
744,
738,
743,
753,
760,
691,
732,
686,
657,
674,
723,
681,
664,
634,
639,
634,
677,
636,
656,
660,
616,
647,
661,
604,
625,
571,
629,
655,
602,
610,
614,
572,
571,
605,
601,
597,
561,
524,
553,
525,
536,
544,
534,
511,
529,
494,
521,
488,
495,
519,
512,
476,
475,
509,
460,
438,
513,
470,
435,
466,
447,
456,
443,
453,
428,
423,
433,
404,
451,
403,
401,
405,
352,
400,
408,
412,
370,
398,
370,
383,
345,
358,
339,
363,
328,
346,
338,
351,
348,
319,
314,
303,
325,
342,
286,
319,
322,
282,
307,
298,
317,
291,
255,
283,
272,
270,
285,
250,
233,
254,
237,
243,
237,
233,
207,
220,
262,
216,
219,
217,
220,
198,
194,
210,
205,
214,
197,
196,
197,
178,
177,
192,
165,
189,
157,
163,
158,
150,
175,
161,
177,
179,
178,
136,
147,
134,
151,
131,
144,
117,
119,
121,
115,
149,
128,
120,
114,
114,
105,
106,
115,
96,
120,
108,
91,
80,
85,
101,
90,
76,
79,
89,
73,
82,
72,
62,
72,
79,
71,
64,
62,
51,
72,
52,
40,
53,
44,
42,
46,
48,
44,
51,
27,
34,
37,
39,
32,
34,
23,
29,
19,
21,
14,
22,
14,
24,
17,
8,
13,
11,
13,
9,
10,
4,
3,
4,
5,
4,
0,
1,
1,
0,
0,
1,
0,
1,
3,
2,
1,
3,
0,
0,
1,
1,
0,
1,
0,
1,
1,
0,
0,
1,
0,
0,
0,
0,
0,
0,
1,
0,
0,
0,
1,
2,
1,
4,
1,
0,
0,
0,
0,
2,
0,
0,
0,
0,
0,
0,
0,
0,
0,
0,
1,
1,
0,
0,
0,
0,
0,
2,
1,
0,
0,
0,
0,
0,
1,
0,
0,
0,
1,
1,
0,
1,
0,
1,
1,
0,
0,
0,
0,
1,
0,
0,
1,
0,
0,
0,
0,
0,
1,
0,
1,
1,
0,
1,
0,
0,
0,
2,
0,
0,
0,
0,
0,
0,
1,
0,
0,
0,
0,
0,
0,
0,
0,
0,
0,
0,
0,
0,
0,
0,
0,
0,
0,
0,
1,
0,
0,
0,
0,
0,
0,
0,
1,
0,
0,
0,
0,
0,
0,
0,
0,
0,
0,
0,
0,
0,
0,
0,
0,
0,
0,
0,
0,
0,
0,
0,
0,
0,
0,
0,
0,
1,
0,
0,
0,
1,
0,
0,
0,
0,
0,
0,
0,
0,
0,
0,
0,
0,
0,
0,
0,
0,
0,
0,
0,
0,
0,
1,
0,
0,
0,
0,
0,
0,
0,
0,
0,
0,
0,
0,
0,
0,
0,
0,
0,
0,
0,
0,
0,
0,
0,
1,
0,
0,
0,
0,
0,
0,
0,
0,
0,
0,
0,
0,
0,
0,
0,
0,
0,
1,
0,
0,
0,
0,
0,
0,
0,
0,
0,
0,
0,
0,
0,
0,
0,
0,
0,
0,
0,
0,
0,
0,
0,
0,
0,
0,
0,
0,
0,
0,
0,
0,
0,
1,
0,
0,
0,
0,
0,
0,
0,
0,
0,
0,
0,
0,
0,
0,
0,
0,
0,
0,
0,
0,
0,
0,
0,
0,
0,
0,
0,
0,
0,
0,
0,
0,
0,
0,
0,
0,
0,
0,
0,
0,
0,
0,
0,
0,
0,
0,
0,
0,
0,
0,
0,
0,
0,
0,
0,
0,
0,
0,
0,
0,
0,
0,
0,
0,
0,
0,
0,
0,
0,
0,
0,
0,
0,
0,
0,
0,
0,
0,
0,
0,
0,
0,
0,
0,
0,
0,
0,
0,
0,
0,
0,
0,
0,
0,
0,
0,
0,
0,
0,
0,
0,
0,
0,
0,
0,
0,
0,
0,
0,
0,
0,
0,
0,
0,
0,
0,
0,
0,
0,
0,
0,
0,
0,
0,
0,
0,
0,
0,
0,
0,
0,
0,
0,
0,
0,
0,
0,
0,
0,
0,
0,
0,
0,
0,
0,
0,
0,
0,
0,
0,
0,
0,
0,
0,
0,
0,
0,
0,
0,
0,
0,
0,
0,
0,
0,
0,
0,
0,
0,
0,
0,
0,
0,
0,
0,
0,
0,
0,
0,
0,
0,
0,
0,
0,
0,
0,
0,
0,
0,
0,
0,
0,
0,
0,
0,
0,
0,
0,
0,
0,
0,
0,
0,
0,
0,
0,
0,
0,
0,
0,
0,
0,
0,
0,
0,
0,
0,
0,
0,
0,
0,
0,
0,
0,
0,
0,
0,
0,
0,
0,
0,
0,
0,
0,
0,
0,
0,
0,
0,
0,
0,
0,
0,
0,
0,
0,
0,
0,
0,
0,
0,
0,
0,
0,
0,
0,
0,
0,
0,
0,
0,
0,
0,
0,
0,
0,
0,
0,
0,
0,
0,
0,
0,
0,
0,
0,
0,
0,
0,
0,
0,
0,
0,
0,
0,
0,
0,
0,
0,
0,
0,
0,
0,
0,
0,
0,
0,
0,
0,
0,
0,
0,
0,
0,
0,
0,
0,
0,
0,
0,
0,
0,
0,
0,
0,
0,
0,
0,
0,
0,
0,
0,
0,
0,
0,
0,
0,
0,
0,
0,
0,
0,
0,
0,
0,
0,
0,
0,
0,
0,
0,
0,
0,
0,
0,
0,
0,
0,
0,
0,
0,
0,
0,
0,
0,
0,
0,
0,
0,
0,
0,
0,
0,
0,
0,
0,
0,
0,
0,
0,
0,
0,
0,
0,
0,
0,
0,
0,
0,
0,
0,
0,
0,
0,
0,
0,
0,
0,
0,
0,
0,
0,
0,
0,
0,
0,
0,
0,
0,
0,
0,
0,
0,
0,
0,
0,
0,
0,
0,
0,
0,
0,
0,
0,
0,
0,
0,
0,
0,
0,
0,
0,
0,
0,
0,
0,
0,
0,
0,
0,
0,
0,
0,
0,
0,
0,
0,
0,
0,
0,
0,
0,
0,
0,
0,
0,
0,
0,
0,
0,
0,
0,
0,
0,
0,
0,
0,
0,
0,
0,
0,
0,
0,
0,
0,
0,
0,
0,
0,
0,
0,
0,
0,
0,
0,
0,
0,
0,
0,
0,
0,
0,
0,
0,
0,
0,
0,
0,
0,
0,
0,
0,
0,
0,
0,
0,
0,
0,
0,
0,
0,
0,
0,
0,
0,
0,
0,
0,
0,
0,
0,
0,
0,
0,
0,
0,
0,
0,
0,
0,
0,
0,
0,
0,
0,
0,
0,
0,
0,
0,
0,
0,
0,
0,
0,
0,
0,
0,
0,
0,
0,
0,
0,
0,
0,
0,
0,
0,
0,
0,
0,
0,
0,
0,
0,
0,
0,
0,
0,
0,
0,
0,
0,
0,
0,
0,
0,
0,
0,
0,
0,
0,
0,
0,
0,
0,
0,
0,
0,
0,
0,
0,
0,
0,
0,
0,
0,
0,
0,
0,
0,
0,
0,
0,
0,
0,
0,
#ENDOFDATA   :