File: N132962/Quantification/15 keV/Mengason MM2/MMM2 Spessartine[4][4].msa
#FORMAT      : EMSA/MAS Spectral Data File
#VERSION     : 1.0
#TITLE       : MMM2 Spessartine[4][all]
#DATE        : 29-SEP-2025
#TIME        : 00:49
#OWNER       : Unknown
#NPOINTS     : 4096
#NCOLUMNS    : 1
#XUNITS      : eV
#YUNITS      : counts
#DATATYPE    : Y
#XPERCHAN    : 9.99778
#OFFSET      : 1.69135
#BEAMKV      : 15
#SIGNALTYPE  : EDS
#ELEVANGLE   : 35
#AZIMANGLE   : 0
#LIVETIME    : 240.313
#REALTIME    : 256.744
#PROBECUR    : 1.21186
#TAUWIND     : 0
#TDEADLYR    : 0
#TACTLYR     : 0.045
#TALWIND     : 0.025
#CHOFFSET    : 0.0
#XLABEL      : Energy (eV)
#YLABEL      : Counts
#XPOSITION   : -19.73243
#YPOSITION   : 6.8014
#ZPOSITION   : 34.11879
#EDSDET      : SD
##SPECIMEN   : MMM2 Spessartine[4][all]
##DET_HASH   : 12273538-fd48-a23f-0a19-f1e6fa85caef
##CALIB_HASH : 6abaa72c-aa41-8738-0be9-f592914732f3
##WORKING    : 15.0 mm
##DET_NAME   : EDAX All
##DET_MODE   : MediumLE
#SPECTRUM    :
32,
27,
13,
16,
112,
458,
1423,
4297,
12209,
15545,
8578,
4813,
5075,
6620,
11704,
39340,
144850,
274573,
202031,
58766,
20754,
25558,
20192,
9932,
5135,
3456,
3025,
2952,
3175,
3401,
3428,
3477,
3773,
4081,
4513,
4524,
4296,
4300,
4385,
4683,
4822,
4796,
4958,
5119,
5189,
5567,
6752,
13951,
41645,
82380,
84383,
44762,
15993,
7537,
6255,
11494,
38334,
94278,
127279,
90561,
37634,
14194,
7543,
4850,
3670,
3577,
3725,
3842,
3732,
3352,
3329,
3369,
3399,
3349,
3552,
3764,
3517,
3374,
3301,
3126,
3244,
3193,
3093,
3044,
3037,
3020,
2950,
2949,
3009,
2822,
2946,
2813,
2858,
2778,
2770,
2841,
2640,
2700,
2626,
2729,
2653,
2559,
2642,
2531,
2528,
2521,
2510,
2684,
2582,
2603,
2475,
2480,
2341,
2328,
2425,
2458,
2457,
2313,
2295,
2258,
2281,
2566,
2876,
2986,
2850,
2495,
2233,
2073,
2056,
2075,
2042,
2025,
2045,
2078,
1994,
2029,
2045,
2107,
2075,
1978,
1898,
1857,
1888,
1719,
1727,
1765,
1757,
1659,
1730,
1715,
1739,
1693,
1641,
1563,
1628,
1622,
1583,
1500,
1536,
1557,
1525,
1543,
1499,
1456,
1469,
1493,
1498,
1438,
1447,
1465,
1456,
1362,
1435,
1344,
1387,
1406,
1327,
1305,
1349,
1333,
1309,
1309,
1307,
1328,
1373,
1261,
1249,
1301,
1262,
1370,
1452,
1973,
3579,
8420,
17510,
30699,
40140,
39524,
29864,
16950,
7713,
3165,
1660,
1212,
1041,
1124,
1057,
1088,
1155,
1199,
1389,
1810,
2576,
3516,
4799,
6057,
6455,
5710,
4359,
2699,
1713,
1145,
914,
794,
819,
786,
839,
810,
801,
806,
759,
740,
822,
820,
877,
895,
901,
831,
806,
743,
726,
708,
771,
707,
769,
758,
716,
742,
710,
732,
723,
664,
677,
719,
689,
713,
709,
641,
620,
592,
628,
648,
602,
593,
624,
596,
645,
589,
550,
560,
629,
561,
543,
642,
551,
550,
585,
548,
521,
548,
562,
502,
522,
515,
511,
515,
494,
463,
459,
494,
467,
460,
481,
462,
495,
481,
493,
423,
472,
440,
405,
435,
480,
407,
428,
426,
432,
410,
409,
423,
375,
399,
444,
384,
385,
353,
383,
374,
352,
319,
344,
362,
387,
336,
338,
349,
390,
342,
368,
317,
322,
335,
306,
312,
321,
293,
323,
279,
300,
309,
295,
320,
326,
292,
280,
295,
258,
271,
295,
282,
256,
257,
263,
223,
251,
267,
234,
257,
241,
253,
245,
239,
232,
230,
211,
211,
225,
220,
214,
227,
211,
216,
230,
200,
196,
212,
178,
170,
181,
190,
192,
187,
191,
186,
149,
177,
173,
171,
162,
136,
179,
160,
163,
170,
165,
148,
131,
170,
148,
124,
157,
135,
144,
144,
103,
121,
118,
149,
105,
110,
98,
124,
122,
92,
111,
113,
107,
91,
98,
131,
105,
106,
93,
93,
88,
83,
88,
99,
87,
82,
86,
102,
88,
83,
74,
80,
67,
77,
79,
73,
63,
76,
67,
67,
63,
64,
69,
51,
58,
64,
55,
43,
49,
55,
44,
40,
29,
48,
56,
40,
45,
41,
55,
41,
30,
40,
40,
32,
31,
37,
30,
27,
26,
16,
26,
20,
29,
20,
22,
16,
22,
19,
13,
16,
22,
7,
15,
15,
7,
9,
9,
7,
3,
4,
5,
3,
5,
0,
2,
0,
2,
1,
1,
0,
1,
1,
0,
1,
1,
0,
0,
0,
0,
0,
1,
0,
0,
0,
0,
0,
0,
0,
2,
1,
0,
0,
2,
1,
0,
0,
0,
1,
1,
0,
0,
0,
0,
0,
0,
0,
0,
0,
1,
0,
1,
0,
0,
0,
0,
0,
0,
0,
0,
0,
0,
0,
0,
0,
1,
0,
1,
0,
0,
0,
0,
1,
0,
1,
0,
0,
0,
0,
0,
0,
0,
0,
0,
2,
0,
0,
1,
0,
0,
0,
1,
0,
0,
0,
0,
0,
0,
0,
0,
0,
0,
0,
0,
0,
0,
1,
2,
0,
0,
0,
0,
0,
0,
0,
0,
0,
0,
0,
0,
0,
0,
0,
0,
2,
1,
0,
1,
0,
0,
0,
0,
0,
0,
0,
0,
0,
1,
0,
0,
1,
0,
0,
0,
0,
0,
0,
0,
0,
0,
0,
0,
0,
0,
0,
0,
0,
0,
0,
0,
0,
0,
0,
0,
1,
0,
0,
0,
0,
0,
0,
0,
0,
0,
1,
0,
0,
0,
0,
0,
1,
0,
0,
0,
1,
0,
0,
0,
0,
0,
0,
0,
0,
0,
1,
0,
0,
0,
0,
0,
0,
0,
0,
0,
0,
0,
0,
0,
0,
0,
0,
0,
0,
0,
0,
0,
0,
0,
0,
0,
0,
0,
0,
0,
0,
0,
0,
0,
0,
0,
0,
0,
0,
0,
0,
0,
0,
0,
0,
0,
0,
0,
0,
0,
0,
0,
0,
0,
0,
0,
0,
0,
0,
0,
0,
0,
0,
0,
0,
0,
0,
0,
0,
0,
0,
0,
0,
0,
0,
0,
0,
0,
0,
0,
0,
0,
0,
0,
0,
0,
0,
0,
0,
0,
0,
0,
0,
0,
0,
0,
0,
0,
0,
0,
0,
0,
0,
0,
0,
0,
0,
0,
0,
0,
0,
0,
0,
0,
0,
0,
0,
0,
0,
0,
0,
0,
0,
0,
0,
0,
0,
0,
0,
0,
0,
0,
0,
0,
0,
0,
0,
0,
0,
0,
0,
0,
0,
0,
0,
0,
0,
0,
0,
0,
0,
0,
0,
0,
0,
0,
0,
0,
0,
0,
0,
0,
0,
0,
0,
0,
0,
0,
0,
0,
0,
0,
0,
0,
0,
0,
0,
0,
0,
0,
0,
0,
0,
0,
0,
0,
0,
0,
0,
0,
0,
0,
0,
0,
1,
0,
0,
0,
0,
0,
0,
0,
0,
0,
0,
0,
0,
0,
0,
0,
0,
0,
0,
0,
0,
0,
0,
0,
0,
0,
0,
0,
0,
0,
0,
0,
0,
0,
0,
0,
0,
0,
0,
0,
0,
0,
0,
0,
0,
0,
0,
0,
0,
0,
0,
0,
0,
0,
0,
0,
0,
0,
0,
0,
0,
0,
0,
0,
0,
0,
0,
0,
0,
0,
0,
0,
0,
0,
0,
0,
0,
0,
0,
0,
0,
0,
0,
0,
0,
0,
0,
0,
0,
0,
0,
0,
0,
0,
0,
0,
0,
0,
0,
0,
0,
0,
0,
0,
0,
0,
0,
0,
0,
0,
0,
0,
0,
0,
0,
0,
0,
0,
0,
0,
0,
0,
0,
0,
0,
0,
0,
0,
0,
0,
0,
0,
0,
0,
0,
0,
0,
0,
0,
0,
0,
0,
0,
0,
0,
0,
0,
0,
0,
0,
0,
0,
0,
0,
0,
0,
0,
0,
0,
0,
0,
0,
0,
0,
0,
0,
0,
0,
0,
0,
0,
0,
0,
0,
0,
0,
0,
0,
0,
0,
0,
0,
0,
0,
0,
0,
0,
0,
0,
0,
0,
0,
0,
0,
0,
0,
0,
0,
0,
0,
0,
0,
0,
0,
0,
0,
0,
0,
0,
0,
0,
0,
0,
0,
0,
0,
0,
0,
0,
0,
0,
0,
0,
0,
0,
0,
0,
0,
0,
0,
0,
0,
0,
0,
0,
0,
0,
0,
0,
0,
0,
0,
0,
0,
0,
0,
0,
0,
0,
0,
0,
0,
0,
0,
0,
0,
0,
0,
0,
0,
0,
0,
0,
0,
0,
0,
0,
0,
0,
0,
0,
0,
0,
0,
0,
0,
0,
0,
0,
0,
0,
0,
0,
0,
0,
0,
0,
0,
0,
0,
0,
0,
0,
0,
0,
0,
0,
0,
0,
0,
0,
0,
0,
0,
0,
0,
0,
0,
0,
0,
0,
0,
0,
0,
0,
0,
0,
0,
0,
0,
0,
0,
0,
0,
0,
0,
0,
0,
0,
0,
0,
0,
0,
0,
0,
0,
0,
0,
0,
0,
0,
0,
0,
0,
0,
0,
0,
0,
0,
0,
0,
0,
0,
0,
0,
0,
0,
0,
0,
0,
0,
0,
0,
0,
0,
0,
0,
0,
0,
0,
0,
0,
0,
0,
0,
0,
0,
0,
0,
0,
0,
0,
0,
0,
0,
0,
0,
0,
0,
0,
0,
0,
0,
0,
0,
0,
0,
0,
0,
0,
0,
0,
0,
0,
0,
0,
0,
0,
0,
0,
0,
0,
0,
0,
0,
0,
0,
0,
0,
0,
0,
0,
0,
0,
0,
0,
0,
0,
0,
0,
0,
0,
0,
0,
0,
0,
0,
0,
0,
0,
0,
0,
0,
0,
0,
0,
0,
0,
0,
0,
0,
0,
0,
0,
0,
0,
0,
0,
0,
0,
0,
0,
0,
0,
0,
0,
0,
0,
0,
0,
0,
0,
0,
0,
0,
0,
0,
0,
0,
0,
0,
0,
0,
0,
0,
#ENDOFDATA   :