File: N132962/Quantification/15 keV/Mengason MM2/MMM2 Zircon[5][4].msa
#FORMAT      : EMSA/MAS Spectral Data File
#VERSION     : 1.0
#TITLE       : MMM2 Zircon[5][all]
#DATE        : 29-SEP-2025
#TIME        : 01:11
#OWNER       : Unknown
#NPOINTS     : 4096
#NCOLUMNS    : 1
#XUNITS      : eV
#YUNITS      : counts
#DATATYPE    : Y
#XPERCHAN    : 9.99778
#OFFSET      : 1.69135
#BEAMKV      : 15
#SIGNALTYPE  : EDS
#ELEVANGLE   : 35
#AZIMANGLE   : 0
#LIVETIME    : 240.306
#REALTIME    : 257.1283
#PROBECUR    : 1.21247
#TAUWIND     : 0
#TDEADLYR    : 0
#TACTLYR     : 0.045
#TALWIND     : 0.025
#CHOFFSET    : 0.0
#XLABEL      : Energy (eV)
#YLABEL      : Counts
#XPOSITION   : -13.63576
#YPOSITION   : 6.99326
#ZPOSITION   : 34.11879
#EDSDET      : SD
##SPECIMEN   : MMM2 Zircon[5][all]
##D2STDCMP   : Zircon,(O:34.9128),(Si:15.3216),(Zr:49.7657),8.0
##DET_HASH   : 12273538-fd48-a23f-0a19-f1e6fa85caef
##CALIB_HASH : 6abaa72c-aa41-8738-0be9-f592914732f3
##WORKING    : 15.0 mm
##DET_NAME   : EDAX All
##DET_MODE   : MediumLE
#SPECTRUM    :
32,
25,
11,
71,
469,
1373,
2181,
5215,
14492,
20043,
12220,
5603,
4621,
5149,
6541,
16857,
57140,
107363,
78149,
22018,
5121,
3721,
4099,
4634,
4866,
4839,
4871,
5160,
5568,
5574,
5677,
5928,
6235,
6242,
6496,
6713,
6830,
6727,
6857,
7123,
7059,
7230,
7388,
7529,
7564,
7695,
7637,
7601,
7833,
8083,
8230,
8085,
8243,
8791,
10556,
17927,
48288,
112774,
151768,
112236,
52856,
24055,
14467,
11255,
12421,
20269,
48052,
102687,
142578,
126987,
94099,
72486,
49197,
28059,
16435,
9947,
6502,
4951,
4117,
3623,
3408,
3610,
3957,
4364,
4270,
4031,
3647,
3440,
3368,
3281,
3229,
3218,
3176,
3309,
3088,
3207,
3223,
3145,
3054,
3219,
3015,
3182,
3156,
3048,
3137,
3096,
3139,
3083,
2996,
2934,
3055,
2915,
2986,
2936,
2970,
2982,
3038,
2979,
2940,
2836,
2953,
2843,
2679,
2806,
2917,
2878,
3076,
2980,
3022,
2920,
2904,
2645,
2639,
2609,
2684,
2722,
2718,
2682,
2646,
2621,
2651,
2558,
2496,
2488,
2452,
2453,
2397,
2292,
2365,
2345,
2357,
2299,
2389,
2203,
2232,
2235,
2276,
2181,
2231,
2190,
2131,
2156,
2196,
2075,
2120,
2148,
2101,
2040,
2081,
2028,
1981,
2012,
2077,
2003,
1946,
1910,
1925,
1961,
1872,
1895,
1821,
1922,
1833,
1786,
1814,
1810,
1786,
1701,
1734,
1762,
1700,
1792,
1661,
1684,
1749,
1705,
1661,
1648,
1726,
1670,
1586,
1605,
1606,
1590,
1632,
1591,
1539,
1560,
1520,
1578,
1551,
1552,
1527,
1547,
1578,
1492,
1547,
1474,
1411,
1382,
1362,
1410,
1336,
1373,
1355,
1364,
1284,
1293,
1324,
1320,
1355,
1357,
1258,
1200,
1188,
1234,
1247,
1222,
1201,
1221,
1199,
1170,
1179,
1209,
1228,
1127,
1179,
1153,
1141,
1114,
1166,
1068,
1088,
1034,
1147,
1081,
1039,
1044,
980,
1060,
1038,
1124,
1037,
1115,
1102,
1076,
1061,
968,
974,
948,
899,
897,
971,
858,
910,
808,
864,
874,
867,
872,
875,
866,
849,
840,
886,
867,
838,
808,
822,
824,
765,
806,
788,
800,
761,
770,
816,
744,
792,
767,
756,
783,
713,
688,
732,
692,
688,
682,
671,
686,
670,
686,
633,
653,
663,
629,
626,
605,
584,
628,
589,
602,
615,
609,
528,
603,
561,
549,
572,
541,
538,
550,
555,
544,
549,
555,
496,
503,
466,
518,
491,
511,
535,
510,
507,
483,
451,
420,
524,
444,
490,
458,
429,
418,
442,
446,
415,
416,
428,
420,
426,
395,
383,
358,
393,
367,
383,
384,
361,
393,
375,
355,
376,
330,
296,
344,
321,
308,
320,
356,
324,
313,
326,
310,
344,
265,
300,
273,
300,
263,
290,
257,
288,
267,
280,
245,
251,
236,
253,
258,
254,
254,
236,
236,
222,
212,
214,
228,
201,
210,
211,
214,
202,
185,
216,
200,
195,
196,
166,
196,
165,
169,
172,
187,
181,
145,
162,
145,
162,
146,
143,
132,
123,
161,
133,
139,
144,
150,
115,
126,
117,
117,
113,
114,
117,
107,
118,
109,
100,
94,
114,
102,
101,
86,
88,
84,
82,
91,
73,
61,
81,
79,
71,
70,
73,
59,
58,
46,
51,
66,
43,
36,
49,
44,
41,
51,
50,
31,
45,
30,
43,
26,
27,
38,
29,
23,
26,
17,
17,
12,
20,
14,
12,
11,
12,
8,
6,
5,
6,
3,
2,
1,
3,
2,
1,
2,
2,
2,
0,
2,
0,
0,
1,
1,
0,
1,
0,
1,
0,
0,
1,
0,
0,
0,
1,
3,
0,
1,
0,
1,
0,
0,
1,
1,
0,
0,
1,
0,
0,
0,
0,
1,
0,
0,
1,
0,
1,
0,
0,
0,
1,
0,
0,
0,
0,
0,
1,
0,
0,
0,
2,
0,
1,
0,
0,
1,
0,
0,
0,
0,
1,
0,
0,
0,
0,
0,
0,
0,
0,
0,
0,
0,
0,
0,
1,
2,
0,
0,
0,
1,
2,
1,
0,
0,
0,
0,
0,
1,
0,
1,
1,
1,
0,
2,
0,
0,
1,
2,
0,
1,
0,
0,
1,
1,
0,
1,
0,
0,
0,
0,
0,
0,
0,
0,
0,
1,
0,
1,
0,
0,
0,
0,
0,
0,
0,
0,
0,
0,
0,
0,
0,
0,
0,
0,
0,
1,
0,
0,
0,
0,
0,
0,
0,
0,
0,
0,
0,
0,
0,
0,
0,
1,
0,
0,
0,
0,
0,
0,
0,
0,
0,
1,
0,
0,
1,
0,
0,
0,
0,
0,
0,
0,
0,
0,
0,
0,
1,
0,
0,
0,
0,
0,
0,
0,
0,
0,
0,
0,
0,
1,
0,
1,
0,
0,
0,
0,
1,
0,
0,
0,
0,
0,
0,
1,
0,
0,
0,
0,
0,
0,
0,
0,
0,
0,
0,
0,
0,
0,
0,
0,
0,
0,
0,
0,
0,
0,
0,
0,
0,
0,
0,
0,
0,
0,
0,
0,
0,
0,
0,
0,
0,
0,
0,
0,
0,
0,
0,
0,
0,
0,
0,
0,
0,
0,
0,
0,
0,
0,
0,
0,
0,
0,
0,
0,
0,
0,
0,
0,
0,
0,
0,
0,
0,
0,
0,
0,
0,
0,
0,
0,
0,
0,
0,
0,
0,
0,
0,
0,
0,
0,
0,
0,
0,
0,
0,
0,
0,
0,
0,
0,
0,
0,
0,
0,
0,
0,
0,
0,
0,
0,
0,
0,
0,
0,
0,
0,
0,
0,
0,
0,
1,
0,
0,
0,
0,
0,
0,
0,
0,
0,
0,
0,
0,
0,
0,
0,
0,
0,
0,
0,
0,
0,
0,
0,
0,
0,
0,
0,
0,
0,
0,
0,
0,
0,
0,
0,
0,
0,
0,
0,
0,
0,
0,
0,
0,
0,
0,
0,
0,
0,
0,
0,
0,
0,
0,
0,
0,
0,
0,
0,
0,
0,
0,
0,
0,
0,
0,
0,
0,
0,
0,
0,
0,
0,
0,
0,
0,
0,
0,
0,
0,
0,
0,
0,
0,
0,
0,
0,
0,
0,
0,
0,
0,
0,
0,
0,
0,
0,
0,
0,
0,
0,
0,
0,
0,
0,
0,
0,
0,
0,
0,
0,
0,
0,
0,
0,
0,
0,
0,
0,
0,
0,
0,
0,
0,
0,
0,
0,
0,
0,
0,
0,
0,
0,
0,
0,
0,
0,
0,
0,
0,
0,
0,
0,
0,
0,
0,
0,
0,
0,
0,
0,
0,
0,
0,
0,
0,
0,
0,
0,
0,
0,
0,
0,
0,
0,
0,
0,
0,
0,
0,
0,
0,
0,
0,
0,
0,
0,
0,
0,
0,
0,
0,
0,
0,
0,
0,
0,
0,
0,
0,
0,
0,
0,
0,
0,
0,
0,
0,
0,
0,
0,
0,
0,
0,
0,
0,
0,
0,
0,
0,
0,
0,
0,
0,
0,
0,
0,
0,
0,
0,
0,
0,
0,
0,
0,
0,
0,
0,
0,
0,
0,
0,
0,
0,
0,
0,
0,
0,
0,
0,
0,
0,
0,
0,
0,
0,
0,
0,
0,
0,
0,
0,
0,
0,
0,
0,
0,
0,
0,
0,
0,
0,
0,
0,
0,
0,
0,
0,
0,
0,
0,
0,
0,
0,
0,
0,
0,
0,
0,
0,
0,
0,
0,
0,
0,
0,
0,
0,
0,
0,
0,
0,
0,
0,
0,
0,
0,
0,
0,
0,
0,
0,
0,
0,
0,
0,
0,
0,
0,
0,
0,
0,
0,
0,
0,
0,
0,
0,
0,
0,
0,
0,
0,
0,
0,
0,
0,
0,
0,
0,
0,
0,
0,
0,
0,
0,
0,
0,
0,
0,
0,
0,
0,
0,
0,
0,
0,
0,
0,
0,
0,
0,
0,
0,
0,
0,
0,
0,
0,
0,
0,
0,
0,
0,
0,
0,
0,
0,
0,
0,
0,
0,
0,
0,
0,
0,
0,
0,
0,
0,
0,
0,
0,
0,
0,
0,
0,
0,
0,
0,
0,
0,
0,
0,
0,
0,
0,
0,
0,
0,
0,
0,
0,
0,
0,
0,
0,
0,
0,
0,
0,
0,
0,
0,
0,
0,
0,
0,
0,
0,
0,
0,
0,
0,
0,
0,
0,
0,
0,
0,
0,
0,
0,
0,
0,
0,
0,
0,
0,
0,
0,
0,
0,
0,
0,
0,
0,
0,
0,
0,
0,
0,
0,
0,
0,
0,
0,
0,
0,
0,
0,
0,
0,
0,
0,
0,
0,
0,
0,
0,
0,
0,
0,
0,
0,
0,
0,
0,
0,
0,
0,
0,
0,
0,
0,
0,
0,
0,
0,
0,
0,
0,
0,
0,
0,
0,
0,
0,
0,
0,
0,
0,
0,
0,
0,
0,
0,
0,
0,
0,
0,
0,
0,
0,
0,
0,
0,
0,
0,
0,
0,
0,
0,
0,
0,
0,
0,
0,
0,
0,
0,
0,
0,
0,
0,
#ENDOFDATA   :