File: N132962/Quantification/15 keV/Mengason MM2/MMM2 Olivine[3][4].msa
#FORMAT      : EMSA/MAS Spectral Data File
#VERSION     : 1.0
#TITLE       : MMM2 Olivine[3][all]
#DATE        : 28-SEP-2025
#TIME        : 23:04
#OWNER       : Unknown
#NPOINTS     : 4096
#NCOLUMNS    : 1
#XUNITS      : eV
#YUNITS      : counts
#DATATYPE    : Y
#XPERCHAN    : 9.99778
#OFFSET      : 1.69135
#BEAMKV      : 15
#SIGNALTYPE  : EDS
#ELEVANGLE   : 35
#AZIMANGLE   : 0
#LIVETIME    : 239.8386
#REALTIME    : 257.633
#PROBECUR    : 1.2132
#TAUWIND     : 0
#TDEADLYR    : 0
#TACTLYR     : 0.045
#TALWIND     : 0.025
#CHOFFSET    : 0.0
#XLABEL      : Energy (eV)
#YLABEL      : Counts
#XPOSITION   : -21.30316
#YPOSITION   : 2.57623
#ZPOSITION   : 34.11879
#EDSDET      : SD
##SPECIMEN   : MMM2 Olivine[3][all]
##DET_HASH   : 12273538-fd48-a23f-0a19-f1e6fa85caef
##CALIB_HASH : 6abaa72c-aa41-8738-0be9-f592914732f3
##WORKING    : 15.0 mm
##DET_NAME   : EDAX All
##DET_MODE   : MediumLE
#SPECTRUM    :
18,
25,
14,
16,
98,
403,
1147,
3750,
10407,
13309,
7200,
3921,
4223,
5657,
10456,
38803,
147132,
281149,
203933,
53820,
8399,
4505,
6117,
10072,
10000,
6205,
4154,
4158,
4502,
4597,
4343,
4236,
4612,
4789,
5645,
5851,
6051,
6611,
8605,
22220,
85821,
215933,
259950,
144769,
40682,
8783,
3987,
3507,
3495,
3570,
3894,
3944,
3844,
4098,
4983,
11356,
40763,
102366,
139650,
98294,
40379,
14603,
7052,
4174,
2974,
2581,
2589,
2645,
2500,
2530,
2471,
2472,
2457,
2713,
2815,
3074,
2941,
2671,
2489,
2427,
2419,
2510,
2561,
2739,
2781,
2619,
2359,
2388,
2137,
2225,
2221,
2187,
2158,
2168,
2110,
2173,
2197,
2114,
2269,
2409,
2432,
2289,
2149,
1967,
1855,
1930,
1790,
1876,
1823,
1852,
1867,
1796,
1834,
1840,
1794,
1834,
1813,
1869,
1730,
1728,
1661,
1653,
1747,
1682,
1605,
1576,
1580,
1573,
1573,
1622,
1535,
1462,
1494,
1527,
1453,
1527,
1461,
1374,
1498,
1404,
1413,
1402,
1356,
1366,
1262,
1317,
1374,
1306,
1289,
1266,
1269,
1294,
1249,
1226,
1235,
1222,
1219,
1212,
1190,
1134,
1161,
1113,
1125,
1077,
1105,
1149,
1114,
1107,
1075,
1074,
1059,
1056,
1034,
1066,
1021,
987,
1023,
985,
993,
945,
990,
1016,
982,
943,
933,
914,
940,
944,
868,
853,
913,
882,
953,
841,
931,
909,
956,
979,
904,
841,
885,
811,
813,
835,
716,
763,
827,
790,
941,
1270,
2148,
3629,
5503,
6543,
6223,
4614,
2870,
1606,
959,
715,
733,
669,
666,
686,
654,
685,
697,
626,
638,
644,
690,
768,
875,
1075,
1263,
1283,
1256,
1080,
850,
679,
617,
552,
620,
571,
560,
581,
600,
655,
715,
706,
661,
608,
627,
534,
540,
503,
492,
475,
523,
472,
446,
453,
444,
427,
415,
430,
451,
418,
431,
456,
428,
436,
438,
436,
431,
400,
410,
426,
410,
392,
376,
362,
364,
378,
359,
356,
348,
359,
365,
354,
363,
348,
323,
364,
312,
358,
341,
325,
307,
334,
322,
321,
327,
326,
289,
296,
305,
309,
303,
319,
272,
295,
311,
277,
289,
286,
273,
277,
250,
271,
244,
251,
269,
241,
249,
281,
239,
276,
241,
239,
225,
234,
233,
235,
233,
223,
230,
240,
218,
207,
195,
193,
207,
194,
232,
199,
177,
185,
188,
199,
206,
193,
180,
187,
184,
173,
181,
190,
201,
175,
163,
163,
161,
174,
134,
172,
160,
173,
137,
145,
145,
151,
136,
146,
149,
132,
146,
118,
147,
110,
148,
115,
126,
120,
117,
121,
111,
140,
128,
126,
123,
93,
125,
108,
98,
105,
95,
123,
113,
98,
107,
79,
89,
85,
87,
81,
86,
91,
97,
98,
102,
88,
88,
81,
82,
90,
65,
70,
73,
63,
57,
80,
69,
72,
59,
65,
44,
66,
75,
69,
36,
64,
40,
50,
45,
37,
39,
54,
47,
56,
43,
52,
43,
35,
56,
39,
43,
37,
39,
31,
43,
38,
32,
25,
31,
35,
34,
31,
26,
27,
24,
26,
31,
29,
23,
18,
22,
22,
17,
18,
19,
18,
25,
13,
22,
13,
18,
13,
13,
11,
15,
11,
8,
8,
7,
8,
6,
5,
8,
8,
4,
6,
6,
0,
1,
4,
4,
3,
1,
0,
3,
1,
1,
0,
2,
1,
1,
0,
1,
1,
0,
0,
2,
2,
0,
1,
0,
0,
0,
1,
0,
0,
0,
0,
0,
0,
1,
0,
0,
0,
0,
0,
0,
0,
0,
1,
0,
0,
0,
1,
0,
0,
1,
0,
0,
1,
1,
0,
2,
0,
2,
0,
0,
0,
0,
0,
0,
0,
0,
1,
0,
0,
0,
1,
0,
0,
0,
0,
1,
0,
0,
0,
0,
0,
0,
0,
0,
0,
0,
0,
0,
0,
0,
0,
0,
1,
0,
0,
0,
0,
0,
1,
0,
0,
0,
0,
0,
0,
0,
0,
0,
0,
0,
0,
0,
0,
1,
0,
0,
0,
0,
0,
0,
0,
0,
0,
0,
0,
0,
0,
0,
0,
0,
0,
0,
0,
0,
0,
0,
0,
0,
0,
0,
0,
0,
0,
0,
0,
1,
0,
0,
0,
0,
0,
0,
0,
0,
0,
0,
0,
0,
0,
0,
0,
0,
0,
0,
0,
0,
0,
0,
0,
0,
0,
0,
0,
0,
0,
0,
0,
0,
0,
0,
0,
0,
0,
0,
0,
0,
0,
0,
0,
0,
0,
0,
0,
0,
0,
0,
0,
0,
0,
0,
0,
0,
0,
0,
0,
0,
0,
0,
0,
0,
0,
0,
0,
0,
0,
0,
0,
0,
0,
0,
0,
0,
0,
0,
0,
0,
0,
0,
0,
0,
0,
0,
0,
0,
0,
0,
0,
0,
0,
0,
0,
0,
0,
0,
0,
0,
0,
0,
0,
0,
0,
0,
0,
0,
0,
0,
0,
0,
0,
0,
0,
0,
0,
0,
0,
0,
0,
0,
0,
0,
0,
0,
0,
0,
0,
0,
0,
0,
0,
0,
0,
0,
0,
0,
0,
0,
0,
0,
0,
0,
0,
0,
0,
0,
0,
0,
0,
0,
0,
0,
0,
0,
0,
0,
0,
0,
0,
0,
0,
0,
0,
0,
0,
0,
0,
0,
0,
0,
0,
0,
0,
0,
0,
0,
0,
0,
0,
0,
0,
0,
0,
0,
0,
0,
0,
0,
0,
0,
0,
0,
0,
0,
0,
0,
0,
0,
0,
0,
0,
0,
0,
0,
0,
0,
0,
0,
0,
0,
0,
0,
0,
0,
0,
0,
0,
0,
0,
0,
0,
0,
0,
0,
0,
0,
0,
0,
0,
0,
0,
0,
0,
0,
0,
0,
0,
0,
0,
0,
0,
0,
0,
0,
0,
0,
0,
0,
0,
0,
0,
0,
0,
0,
0,
0,
0,
0,
0,
0,
0,
0,
0,
0,
0,
0,
0,
0,
0,
0,
0,
0,
0,
0,
0,
0,
0,
0,
0,
0,
0,
0,
0,
0,
0,
0,
0,
0,
0,
0,
0,
0,
0,
0,
0,
0,
0,
0,
0,
0,
0,
0,
0,
0,
0,
0,
0,
0,
0,
0,
0,
0,
0,
0,
0,
0,
0,
0,
0,
0,
0,
0,
0,
0,
0,
0,
0,
0,
0,
0,
0,
0,
0,
0,
0,
0,
0,
0,
0,
0,
0,
0,
0,
0,
0,
0,
0,
0,
0,
0,
0,
0,
0,
0,
0,
0,
0,
0,
0,
0,
0,
0,
0,
0,
0,
0,
0,
0,
0,
0,
0,
0,
0,
0,
0,
0,
0,
0,
0,
0,
0,
0,
0,
0,
0,
0,
0,
0,
0,
0,
0,
0,
0,
0,
0,
0,
0,
0,
0,
0,
0,
0,
0,
0,
0,
0,
0,
0,
0,
0,
0,
0,
0,
0,
0,
0,
0,
0,
0,
0,
0,
0,
0,
0,
0,
0,
0,
0,
0,
0,
0,
0,
0,
0,
0,
0,
0,
0,
0,
0,
0,
0,
0,
0,
0,
0,
0,
0,
0,
0,
0,
0,
0,
0,
0,
0,
0,
0,
0,
0,
0,
0,
0,
0,
0,
0,
0,
0,
0,
0,
0,
0,
0,
0,
0,
0,
0,
0,
0,
0,
0,
0,
0,
0,
0,
0,
0,
0,
0,
0,
0,
0,
0,
0,
0,
0,
0,
0,
0,
0,
0,
0,
0,
0,
0,
0,
0,
0,
0,
0,
0,
0,
0,
0,
0,
0,
0,
0,
0,
0,
0,
0,
0,
0,
0,
0,
0,
0,
0,
0,
0,
0,
0,
0,
0,
0,
0,
0,
0,
0,
0,
0,
0,
0,
0,
0,
0,
0,
0,
0,
0,
0,
0,
0,
0,
0,
0,
0,
0,
0,
0,
0,
0,
0,
0,
0,
0,
0,
0,
0,
0,
0,
0,
0,
0,
0,
0,
0,
0,
0,
0,
0,
0,
0,
0,
0,
0,
0,
0,
0,
0,
0,
0,
0,
0,
0,
0,
0,
0,
0,
0,
0,
0,
0,
0,
0,
0,
0,
0,
0,
0,
0,
0,
0,
0,
0,
0,
0,
0,
0,
0,
0,
0,
0,
0,
0,
0,
0,
0,
0,
0,
0,
0,
0,
0,
0,
0,
0,
0,
0,
0,
0,
0,
0,
0,
0,
0,
0,
0,
0,
0,
0,
0,
0,
0,
0,
0,
0,
0,
0,
0,
0,
0,
0,
0,
0,
0,
0,
0,
0,
0,
0,
0,
0,
0,
0,
0,
0,
0,
0,
0,
0,
0,
0,
0,
0,
0,
0,
0,
0,
0,
0,
0,
0,
0,
0,
0,
0,
0,
0,
0,
0,
0,
0,
0,
0,
0,
0,
0,
0,
0,
0,
0,
0,
0,
0,
0,
0,
0,
0,
0,
0,
0,
0,
0,
#ENDOFDATA   :