File: N132962/Quantification/15 keV/Mengason MM2/MMM2 Rhodonite[2][4].msa
#FORMAT      : EMSA/MAS Spectral Data File
#VERSION     : 1.0
#TITLE       : MMM2 Rhodonite[2][all]
#DATE        : 28-SEP-2025
#TIME        : 23:24
#OWNER       : Unknown
#NPOINTS     : 4096
#NCOLUMNS    : 1
#XUNITS      : eV
#YUNITS      : counts
#DATATYPE    : Y
#XPERCHAN    : 9.99778
#OFFSET      : 1.69135
#BEAMKV      : 15
#SIGNALTYPE  : EDS
#ELEVANGLE   : 35
#AZIMANGLE   : 0
#LIVETIME    : 240.191
#REALTIME    : 256.042
#PROBECUR    : 1.21079
#TAUWIND     : 0
#TDEADLYR    : 0
#TACTLYR     : 0.045
#TALWIND     : 0.025
#CHOFFSET    : 0.0
#XLABEL      : Energy (eV)
#YLABEL      : Counts
#XPOSITION   : -16.66613
#YPOSITION   : 1.86544
#ZPOSITION   : 34.11879
#EDSDET      : SD
##SPECIMEN   : MMM2 Rhodonite[2][all]
##DET_HASH   : 12273538-fd48-a23f-0a19-f1e6fa85caef
##CALIB_HASH : 6abaa72c-aa41-8738-0be9-f592914732f3
##WORKING    : 15.0 mm
##DET_NAME   : EDAX All
##DET_MODE   : MediumLE
#SPECTRUM    :
18,
20,
8,
17,
107,
419,
1409,
4584,
12732,
16573,
9366,
5287,
5085,
6220,
10530,
35351,
128708,
242911,
178936,
52973,
19879,
24163,
19053,
10378,
6575,
4139,
3159,
3069,
3266,
3299,
3323,
3508,
3693,
4028,
4400,
4445,
4407,
4273,
4464,
4984,
7056,
11088,
12384,
9041,
5824,
4977,
4924,
5124,
5327,
5265,
5684,
5627,
5631,
5692,
6647,
14918,
52524,
131431,
177686,
125620,
50930,
18637,
9284,
5532,
4006,
3574,
3482,
3386,
3425,
3390,
3313,
3411,
3441,
3459,
3657,
3891,
3846,
3580,
3360,
3347,
3295,
3248,
3101,
3175,
3162,
3186,
3064,
3098,
3084,
2909,
3011,
2951,
2875,
2870,
2885,
2854,
2892,
2835,
2797,
2743,
2711,
2722,
2752,
2641,
2640,
2624,
2534,
2539,
2454,
2503,
2555,
2444,
2473,
2481,
2471,
2471,
2594,
2631,
2666,
2810,
3892,
6720,
11030,
13231,
11537,
7291,
4129,
2508,
2148,
2158,
2157,
2380,
2736,
3236,
3341,
3035,
2502,
2228,
2084,
1985,
1876,
1892,
1800,
1939,
1803,
1826,
1806,
1742,
1685,
1726,
1666,
1739,
1718,
1673,
1650,
1644,
1600,
1649,
1561,
1585,
1630,
1539,
1539,
1531,
1487,
1535,
1448,
1479,
1462,
1498,
1416,
1440,
1390,
1420,
1392,
1436,
1349,
1359,
1262,
1370,
1281,
1373,
1342,
1277,
1337,
1303,
1273,
1260,
1318,
1390,
1530,
1997,
3649,
8551,
18172,
30829,
40136,
39721,
29982,
16945,
7772,
3229,
1616,
1231,
1155,
1137,
1151,
1134,
1169,
1455,
2049,
3103,
4534,
5868,
7068,
7514,
7243,
6186,
4467,
2875,
1679,
1229,
933,
871,
888,
815,
884,
855,
840,
837,
886,
852,
972,
1054,
1130,
1204,
1195,
1098,
933,
786,
783,
759,
753,
736,
722,
729,
689,
729,
712,
778,
695,
717,
733,
756,
790,
745,
734,
628,
689,
661,
619,
615,
642,
607,
646,
581,
620,
635,
579,
596,
573,
578,
592,
634,
603,
597,
620,
602,
573,
569,
588,
578,
527,
542,
526,
538,
563,
532,
547,
544,
506,
507,
505,
489,
482,
490,
482,
465,
479,
447,
442,
404,
475,
451,
445,
444,
438,
412,
405,
395,
388,
439,
384,
360,
381,
403,
372,
414,
447,
381,
363,
372,
390,
368,
374,
375,
351,
351,
356,
352,
356,
331,
340,
339,
308,
351,
335,
301,
339,
301,
324,
328,
317,
301,
316,
287,
292,
293,
270,
281,
274,
278,
276,
287,
289,
268,
240,
247,
260,
275,
262,
272,
224,
226,
200,
242,
259,
239,
236,
192,
227,
242,
222,
204,
211,
212,
206,
194,
206,
228,
208,
182,
191,
164,
195,
184,
188,
167,
168,
145,
163,
169,
183,
191,
167,
161,
178,
143,
144,
136,
156,
135,
149,
133,
149,
122,
155,
137,
136,
135,
110,
141,
142,
135,
103,
121,
99,
107,
98,
117,
126,
108,
108,
111,
89,
98,
98,
91,
71,
84,
78,
82,
100,
88,
70,
97,
82,
77,
78,
67,
65,
69,
59,
66,
72,
56,
62,
43,
57,
48,
58,
39,
59,
51,
44,
42,
43,
38,
36,
28,
44,
38,
41,
36,
41,
32,
33,
36,
19,
33,
28,
30,
29,
20,
29,
23,
16,
26,
25,
15,
19,
11,
16,
25,
16,
13,
8,
13,
11,
12,
11,
3,
4,
7,
3,
5,
5,
3,
7,
5,
2,
3,
1,
0,
1,
1,
1,
1,
0,
1,
1,
0,
0,
1,
0,
0,
0,
1,
0,
1,
0,
0,
0,
0,
0,
0,
1,
0,
0,
1,
1,
0,
0,
0,
1,
0,
2,
1,
0,
1,
0,
1,
1,
0,
0,
2,
0,
0,
0,
0,
0,
0,
0,
0,
0,
0,
0,
1,
0,
0,
0,
0,
0,
0,
0,
0,
1,
0,
1,
0,
0,
0,
1,
0,
0,
0,
1,
0,
0,
0,
0,
0,
0,
0,
0,
0,
1,
0,
0,
0,
0,
0,
0,
0,
0,
0,
0,
0,
0,
2,
0,
0,
0,
0,
0,
0,
0,
0,
0,
0,
0,
0,
1,
0,
0,
0,
0,
0,
0,
0,
0,
0,
0,
0,
0,
0,
0,
0,
0,
0,
0,
0,
0,
0,
0,
0,
0,
2,
0,
0,
0,
0,
0,
1,
0,
0,
0,
0,
0,
0,
0,
0,
0,
0,
1,
0,
0,
0,
0,
0,
0,
0,
1,
0,
0,
0,
0,
0,
0,
0,
0,
0,
0,
0,
0,
0,
0,
0,
0,
0,
0,
0,
0,
0,
0,
0,
0,
0,
0,
0,
0,
0,
0,
0,
0,
0,
0,
0,
0,
0,
0,
0,
0,
0,
0,
0,
0,
0,
0,
0,
0,
0,
1,
0,
0,
0,
0,
0,
0,
0,
0,
0,
0,
0,
0,
0,
0,
0,
0,
0,
0,
1,
0,
0,
0,
0,
0,
0,
1,
0,
0,
0,
0,
0,
0,
0,
0,
0,
0,
0,
0,
0,
0,
0,
0,
0,
0,
0,
0,
0,
0,
0,
0,
0,
0,
0,
0,
0,
0,
0,
0,
0,
0,
0,
0,
0,
0,
0,
0,
0,
0,
0,
0,
0,
0,
0,
0,
0,
0,
0,
0,
0,
0,
0,
0,
0,
0,
0,
0,
0,
0,
0,
0,
0,
0,
0,
0,
0,
0,
0,
0,
0,
0,
0,
0,
0,
0,
0,
0,
0,
0,
0,
0,
0,
0,
0,
0,
0,
0,
0,
0,
0,
0,
0,
0,
0,
0,
0,
0,
0,
0,
0,
0,
0,
0,
0,
0,
0,
0,
0,
0,
0,
0,
0,
0,
0,
0,
0,
0,
0,
0,
0,
0,
0,
0,
0,
0,
0,
0,
0,
0,
0,
0,
0,
0,
0,
0,
0,
0,
0,
0,
0,
0,
0,
0,
0,
0,
0,
0,
0,
0,
0,
0,
0,
0,
0,
0,
0,
0,
0,
0,
0,
0,
0,
0,
0,
0,
0,
0,
0,
0,
0,
0,
0,
0,
0,
0,
0,
0,
0,
0,
0,
0,
0,
0,
0,
0,
0,
0,
0,
0,
0,
0,
0,
0,
0,
0,
0,
0,
0,
0,
0,
0,
0,
0,
0,
0,
0,
0,
0,
0,
0,
0,
0,
0,
0,
0,
0,
0,
0,
0,
0,
0,
0,
0,
0,
0,
0,
0,
0,
0,
0,
0,
0,
0,
0,
0,
0,
0,
0,
0,
0,
0,
0,
0,
0,
0,
0,
0,
0,
0,
0,
0,
0,
0,
0,
0,
0,
0,
0,
0,
0,
0,
0,
0,
0,
0,
0,
0,
0,
0,
0,
0,
0,
0,
0,
0,
0,
0,
0,
0,
0,
0,
0,
0,
0,
0,
0,
0,
0,
0,
0,
0,
0,
0,
0,
0,
0,
0,
0,
0,
0,
0,
0,
0,
0,
0,
0,
0,
0,
0,
0,
0,
0,
0,
0,
0,
0,
0,
0,
0,
0,
0,
0,
0,
0,
0,
0,
0,
0,
0,
0,
0,
0,
0,
0,
0,
0,
0,
0,
0,
0,
0,
0,
0,
0,
0,
0,
0,
0,
0,
0,
0,
0,
0,
0,
0,
0,
0,
0,
0,
0,
0,
0,
0,
0,
0,
0,
0,
0,
0,
0,
0,
0,
0,
0,
0,
0,
0,
0,
0,
0,
0,
0,
0,
0,
0,
0,
0,
0,
0,
0,
0,
0,
0,
0,
0,
0,
0,
0,
0,
0,
0,
0,
0,
0,
0,
0,
0,
0,
0,
0,
0,
0,
0,
0,
0,
0,
0,
0,
0,
0,
0,
0,
0,
0,
0,
0,
0,
0,
0,
0,
0,
0,
0,
0,
0,
0,
0,
0,
0,
0,
0,
0,
0,
0,
0,
0,
0,
0,
0,
0,
0,
0,
0,
0,
0,
0,
0,
0,
0,
0,
0,
0,
0,
0,
0,
0,
0,
0,
0,
0,
0,
0,
0,
0,
0,
0,
0,
0,
0,
0,
0,
0,
0,
0,
0,
0,
0,
0,
0,
0,
0,
0,
0,
0,
0,
0,
0,
0,
0,
0,
0,
0,
0,
0,
0,
0,
0,
0,
0,
0,
0,
0,
0,
0,
0,
0,
0,
0,
0,
0,
0,
0,
0,
0,
0,
0,
0,
0,
0,
0,
0,
0,
0,
0,
0,
0,
0,
0,
0,
0,
0,
0,
0,
0,
0,
0,
0,
0,
0,
0,
0,
0,
0,
0,
0,
0,
0,
0,
0,
0,
0,
0,
0,
0,
0,
0,
0,
0,
0,
0,
0,
0,
0,
0,
0,
0,
0,
0,
0,
0,
0,
0,
0,
0,
0,
0,
0,
0,
0,
0,
0,
0,
0,
0,
0,
0,
0,
0,
0,
0,
0,
0,
0,
0,
0,
0,
0,
0,
0,
0,
0,
0,
0,
0,
0,
0,
0,
0,
0,
0,
0,
0,
0,
0,
#ENDOFDATA   :