File: N132962/Quantification/15 keV/Mengason MM2/MMM2 Manganotantalite[3][4].msa
#FORMAT      : EMSA/MAS Spectral Data File
#VERSION     : 1.0
#TITLE       : MMM2 Manganotantalite[3][all]
#DATE        : 28-SEP-2025
#TIME        : 22:54
#OWNER       : Unknown
#NPOINTS     : 4096
#NCOLUMNS    : 1
#XUNITS      : eV
#YUNITS      : counts
#DATATYPE    : Y
#XPERCHAN    : 9.99778
#OFFSET      : 1.69135
#BEAMKV      : 15
#SIGNALTYPE  : EDS
#ELEVANGLE   : 35
#AZIMANGLE   : 0
#LIVETIME    : 240.357
#REALTIME    : 259.879
#PROBECUR    : 1.2132
#TAUWIND     : 0
#TDEADLYR    : 0
#TACTLYR     : 0.045
#TALWIND     : 0.025
#CHOFFSET    : 0.0
#XLABEL      : Energy (eV)
#YLABEL      : Counts
#XPOSITION   : -22.44803
#YPOSITION   : -0.39288
#ZPOSITION   : 34.11879
#EDSDET      : SD
##SPECIMEN   : MMM2 Manganotantalite[3][all]
##DET_HASH   : 12273538-fd48-a23f-0a19-f1e6fa85caef
##CALIB_HASH : 6abaa72c-aa41-8738-0be9-f592914732f3
##WORKING    : 15.0 mm
##DET_NAME   : EDAX All
##DET_MODE   : MediumLE
#SPECTRUM    :
21,
22,
9,
56,
382,
1708,
4316,
8645,
18167,
21719,
11740,
6137,
5827,
6545,
8573,
17537,
50417,
91183,
68876,
23984,
12695,
15200,
13756,
11064,
9499,
7409,
6896,
6877,
7321,
7426,
7453,
7556,
7863,
8146,
8461,
8618,
8469,
8694,
8948,
8998,
9405,
9659,
11484,
15987,
20587,
19409,
14199,
11376,
10401,
10534,
10511,
10441,
11011,
12663,
20661,
54287,
125564,
182296,
163641,
107593,
54091,
21403,
10098,
8705,
9971,
10811,
10261,
8809,
7856,
9259,
15147,
27750,
37995,
35705,
27379,
22555,
18403,
13347,
9756,
7656,
6516,
5755,
5492,
5193,
5215,
5060,
5137,
5183,
5416,
5406,
5216,
5073,
4932,
4946,
4910,
4801,
4895,
4894,
4757,
4670,
4722,
4681,
4698,
4721,
4695,
4782,
4724,
4741,
4602,
4771,
4696,
4680,
4710,
4732,
4931,
4815,
4610,
4662,
4540,
4431,
4340,
4420,
4482,
4499,
4439,
4359,
4318,
4411,
4328,
4363,
4365,
4299,
4363,
4168,
4106,
4222,
4127,
4264,
4110,
4025,
4042,
4027,
4067,
3933,
3980,
3896,
3888,
4106,
4085,
4477,
4709,
4500,
4236,
3981,
3704,
3666,
3817,
3678,
3691,
3571,
3592,
3549,
3610,
3607,
3612,
3648,
3594,
3385,
3482,
3441,
3393,
3408,
3330,
3451,
3316,
3312,
3291,
3202,
3156,
3260,
3213,
3159,
3201,
3120,
3120,
3087,
3033,
3115,
2967,
3030,
3117,
3249,
3843,
5676,
9135,
13858,
17512,
17142,
13587,
8609,
5339,
3563,
2934,
2722,
2676,
2708,
2612,
2809,
2768,
2977,
3221,
4086,
5052,
5791,
6231,
6024,
5393,
4711,
3825,
3182,
2670,
2486,
2369,
2275,
2332,
2368,
2363,
2285,
2325,
2203,
2242,
2274,
2309,
2572,
2461,
2672,
2640,
2623,
2751,
2639,
2534,
2379,
2137,
2109,
2048,
2083,
2086,
2055,
1995,
2149,
2064,
1981,
1974,
1986,
1908,
1888,
1882,
1904,
1780,
1885,
1822,
1844,
1756,
1832,
1952,
1943,
2491,
3378,
4954,
7392,
9744,
10921,
10718,
8289,
6017,
3927,
2547,
2009,
1789,
1673,
1673,
1652,
1617,
1612,
1551,
1549,
1562,
1552,
1585,
1436,
1481,
1463,
1380,
1459,
1474,
1379,
1390,
1430,
1367,
1346,
1331,
1336,
1360,
1347,
1445,
1602,
1737,
2027,
2509,
3201,
3765,
4008,
3707,
3368,
2695,
2240,
1962,
1871,
2034,
2282,
2546,
2725,
2819,
2468,
1993,
1704,
1385,
1207,
1118,
1105,
1075,
1099,
1042,
1014,
1007,
1033,
1029,
934,
954,
949,
967,
962,
946,
944,
898,
913,
885,
932,
884,
846,
849,
904,
838,
874,
798,
856,
784,
831,
861,
961,
1064,
1138,
1161,
1198,
1166,
1048,
904,
864,
789,
788,
700,
758,
731,
816,
804,
812,
788,
745,
678,
697,
632,
664,
601,
619,
627,
640,
570,
623,
604,
611,
559,
590,
549,
545,
521,
555,
505,
505,
514,
497,
454,
488,
499,
469,
488,
461,
493,
434,
430,
458,
440,
419,
430,
386,
390,
393,
424,
388,
414,
347,
373,
348,
357,
353,
386,
352,
322,
350,
302,
294,
338,
290,
308,
324,
302,
279,
281,
255,
280,
226,
259,
223,
275,
249,
222,
242,
200,
200,
226,
233,
220,
199,
184,
188,
215,
198,
182,
183,
161,
162,
186,
175,
160,
140,
132,
142,
125,
139,
120,
118,
119,
112,
116,
95,
101,
115,
85,
87,
93,
98,
79,
84,
69,
60,
62,
53,
57,
49,
57,
47,
36,
28,
31,
30,
25,
26,
17,
15,
14,
7,
10,
4,
11,
1,
2,
7,
3,
6,
2,
4,
3,
4,
4,
1,
2,
1,
3,
1,
3,
3,
6,
3,
2,
2,
2,
1,
2,
3,
2,
1,
2,
0,
1,
1,
2,
4,
3,
3,
2,
2,
0,
3,
1,
1,
2,
0,
0,
1,
5,
1,
2,
4,
3,
2,
1,
3,
2,
2,
3,
2,
1,
0,
2,
1,
2,
6,
0,
3,
2,
0,
1,
1,
1,
2,
2,
3,
1,
3,
5,
1,
2,
0,
0,
0,
1,
3,
3,
1,
4,
4,
0,
2,
4,
2,
3,
4,
1,
1,
2,
0,
2,
1,
2,
2,
0,
0,
1,
2,
0,
1,
0,
0,
0,
7,
1,
1,
1,
2,
2,
0,
3,
0,
1,
2,
2,
2,
0,
3,
1,
0,
3,
2,
0,
0,
1,
2,
3,
0,
2,
1,
1,
0,
0,
1,
1,
2,
1,
3,
0,
1,
1,
0,
0,
1,
1,
2,
2,
1,
0,
1,
0,
1,
0,
3,
2,
1,
0,
2,
0,
0,
0,
1,
1,
0,
0,
1,
0,
1,
0,
0,
1,
0,
0,
1,
0,
0,
0,
0,
1,
0,
0,
0,
0,
1,
0,
0,
0,
1,
1,
1,
0,
0,
0,
1,
1,
0,
1,
1,
0,
0,
0,
0,
0,
0,
0,
0,
0,
0,
0,
1,
0,
0,
0,
0,
1,
1,
0,
0,
0,
0,
0,
0,
0,
0,
0,
0,
0,
1,
0,
0,
0,
0,
0,
0,
1,
0,
1,
0,
0,
0,
0,
0,
1,
1,
0,
0,
0,
0,
0,
0,
0,
0,
0,
0,
0,
0,
0,
1,
0,
0,
0,
0,
0,
0,
1,
0,
0,
0,
0,
0,
0,
0,
0,
0,
0,
1,
0,
0,
0,
0,
1,
0,
0,
0,
0,
0,
0,
0,
0,
0,
0,
0,
0,
0,
0,
0,
0,
0,
0,
0,
0,
0,
0,
0,
0,
0,
0,
0,
0,
0,
0,
0,
0,
0,
0,
0,
0,
0,
0,
0,
0,
0,
0,
0,
0,
0,
0,
0,
0,
0,
0,
0,
0,
0,
0,
0,
0,
0,
0,
0,
0,
0,
0,
0,
0,
0,
0,
0,
0,
0,
0,
0,
0,
0,
0,
0,
0,
0,
0,
0,
0,
0,
0,
0,
0,
1,
0,
0,
0,
0,
0,
0,
0,
0,
0,
0,
0,
0,
0,
0,
0,
0,
0,
0,
0,
0,
0,
0,
0,
0,
0,
0,
0,
0,
0,
0,
0,
0,
0,
0,
0,
0,
0,
0,
0,
0,
0,
0,
0,
0,
0,
0,
0,
0,
0,
0,
0,
0,
0,
0,
0,
0,
0,
0,
0,
0,
0,
0,
0,
0,
0,
0,
0,
0,
0,
0,
0,
0,
0,
0,
0,
0,
0,
0,
0,
0,
0,
0,
0,
0,
0,
0,
0,
0,
0,
0,
0,
0,
0,
0,
0,
0,
0,
0,
0,
0,
0,
0,
0,
0,
0,
0,
0,
0,
0,
0,
0,
0,
0,
0,
0,
0,
0,
0,
0,
0,
0,
0,
0,
0,
0,
0,
0,
0,
0,
0,
0,
0,
0,
0,
0,
0,
0,
0,
0,
0,
0,
0,
0,
0,
0,
0,
0,
0,
0,
0,
0,
0,
0,
0,
0,
0,
0,
0,
0,
0,
0,
0,
0,
0,
0,
0,
0,
0,
0,
0,
0,
0,
0,
0,
0,
0,
0,
0,
0,
0,
0,
0,
0,
0,
0,
0,
0,
0,
0,
0,
0,
0,
0,
0,
0,
0,
0,
0,
0,
0,
0,
0,
0,
0,
0,
0,
0,
0,
0,
0,
0,
0,
0,
0,
0,
0,
0,
0,
0,
0,
0,
0,
0,
0,
0,
0,
0,
0,
0,
0,
0,
0,
0,
0,
0,
0,
0,
0,
0,
0,
0,
0,
0,
0,
0,
0,
0,
0,
0,
0,
0,
0,
0,
0,
0,
0,
0,
0,
0,
0,
0,
0,
0,
0,
0,
0,
0,
0,
0,
0,
0,
0,
0,
0,
0,
0,
0,
0,
0,
0,
0,
0,
0,
0,
0,
0,
0,
0,
0,
0,
0,
0,
0,
0,
0,
0,
0,
0,
0,
0,
0,
0,
0,
0,
0,
0,
0,
0,
0,
0,
0,
0,
0,
0,
0,
0,
0,
0,
0,
0,
0,
0,
0,
0,
0,
0,
0,
0,
0,
0,
0,
0,
0,
0,
0,
0,
0,
0,
0,
0,
0,
0,
0,
0,
0,
0,
0,
0,
0,
0,
0,
0,
0,
0,
0,
0,
0,
0,
0,
0,
0,
0,
0,
0,
0,
0,
0,
0,
0,
0,
0,
0,
0,
0,
0,
0,
0,
0,
0,
0,
0,
0,
0,
0,
0,
0,
0,
0,
0,
0,
0,
0,
0,
0,
0,
0,
0,
0,
0,
0,
0,
0,
0,
0,
0,
0,
0,
0,
0,
0,
0,
0,
0,
0,
0,
0,
0,
0,
0,
0,
0,
0,
0,
0,
0,
0,
0,
0,
0,
0,
0,
0,
0,
0,
0,
0,
0,
0,
0,
0,
0,
0,
0,
0,
0,
0,
0,
0,
0,
0,
0,
0,
0,
0,
0,
0,
0,
0,
0,
0,
0,
0,
0,
0,
0,
0,
0,
0,
0,
0,
0,
0,
0,
0,
0,
0,
0,
0,
0,
0,
0,
0,
0,
0,
0,
0,
0,
0,
0,
0,
#ENDOFDATA   :