File: N132962/Quantification/15 keV/Mengason MM2/MMM2 Willemite[0][4].msa
#FORMAT      : EMSA/MAS Spectral Data File
#VERSION     : 1.0
#TITLE       : MMM2 Willemite[0][all]
#DATE        : 28-SEP-2025
#TIME        : 23:42
#OWNER       : Unknown
#NPOINTS     : 4096
#NCOLUMNS    : 1
#XUNITS      : eV
#YUNITS      : counts
#DATATYPE    : Y
#XPERCHAN    : 9.99778
#OFFSET      : 1.69135
#BEAMKV      : 15
#SIGNALTYPE  : EDS
#ELEVANGLE   : 35
#AZIMANGLE   : 0
#LIVETIME    : 240.274
#REALTIME    : 257.962
#PROBECUR    : 1.21079
#TAUWIND     : 0
#TDEADLYR    : 0
#TACTLYR     : 0.045
#TALWIND     : 0.025
#CHOFFSET    : 0.0
#XLABEL      : Energy (eV)
#YLABEL      : Counts
#XPOSITION   : -11.59726
#YPOSITION   : 2.23171
#ZPOSITION   : 34.11879
#EDSDET      : SD
##SPECIMEN   : MMM2 Willemite[0][all]
##DET_HASH   : 12273538-fd48-a23f-0a19-f1e6fa85caef
##CALIB_HASH : 6abaa72c-aa41-8738-0be9-f592914732f3
##WORKING    : 15.0 mm
##DET_NAME   : EDAX All
##DET_MODE   : MediumLE
#SPECTRUM    :
20,
29,
14,
25,
121,
554,
1555,
4967,
13836,
17583,
9160,
4900,
5022,
5903,
9323,
26984,
92637,
171798,
125570,
35927,
10058,
9595,
8637,
6862,
6363,
6597,
6989,
8948,
14896,
22552,
24507,
29091,
83327,
207305,
257584,
147926,
44274,
10891,
5314,
4122,
4160,
4673,
5037,
4670,
4366,
4305,
4202,
4387,
4524,
5047,
5232,
5470,
5322,
5229,
5704,
9369,
26786,
64786,
86547,
61737,
26925,
11503,
6750,
5021,
4251,
4016,
4180,
4232,
4437,
4274,
3988,
3812,
4003,
4105,
4146,
4044,
4082,
4014,
3888,
3862,
4009,
3769,
3922,
3832,
3818,
3682,
3764,
3769,
3755,
3669,
3783,
3828,
3784,
3710,
3707,
3485,
3563,
3421,
3541,
3383,
3392,
3271,
3324,
3208,
3284,
3191,
3284,
3290,
3245,
3242,
3197,
3103,
3087,
3061,
2944,
3043,
2942,
3062,
2962,
2892,
2870,
2842,
2863,
2759,
2761,
2679,
2725,
2740,
2765,
2650,
2595,
2670,
2575,
2637,
2484,
2526,
2500,
2481,
2529,
2407,
2512,
2301,
2299,
2352,
2405,
2360,
2255,
2347,
2270,
2281,
2207,
2168,
2182,
2225,
2105,
2134,
2114,
2079,
2114,
2074,
2088,
2051,
2036,
2056,
1951,
1884,
2028,
1912,
1877,
1913,
1888,
1859,
1852,
1838,
1835,
1796,
1829,
1854,
1795,
1787,
1781,
1706,
1693,
1665,
1790,
1646,
1691,
1621,
1652,
1568,
1597,
1733,
1934,
2664,
4056,
6013,
7111,
7322,
5907,
3924,
2427,
1800,
1529,
1487,
1439,
1418,
1426,
1423,
1339,
1337,
1390,
1401,
1538,
1630,
1834,
2054,
2090,
1913,
1823,
1505,
1431,
1300,
1234,
1252,
1185,
1200,
1215,
1213,
1182,
1229,
1210,
1188,
1125,
1185,
1156,
1128,
1083,
1150,
1081,
1103,
1035,
1057,
1034,
1030,
1080,
997,
995,
1086,
1068,
1019,
1007,
997,
974,
952,
916,
957,
918,
918,
900,
975,
843,
913,
880,
916,
910,
901,
852,
874,
888,
892,
822,
850,
835,
823,
850,
849,
778,
829,
829,
813,
891,
1021,
1564,
2970,
5547,
9835,
14452,
17807,
17925,
14936,
10195,
5787,
2907,
1516,
921,
759,
679,
649,
673,
653,
669,
654,
669,
665,
688,
624,
658,
668,
706,
637,
599,
645,
633,
749,
854,
1177,
1655,
2253,
2740,
2930,
2624,
2008,
1408,
1015,
741,
569,
491,
477,
499,
471,
463,
500,
483,
488,
495,
480,
465,
433,
424,
451,
412,
399,
426,
415,
404,
409,
428,
421,
387,
399,
388,
360,
397,
382,
390,
384,
327,
363,
341,
365,
362,
332,
330,
328,
319,
334,
322,
342,
333,
316,
308,
289,
308,
316,
293,
297,
287,
277,
282,
301,
275,
270,
275,
275,
234,
243,
257,
229,
254,
238,
249,
251,
258,
239,
219,
233,
235,
241,
207,
229,
228,
199,
191,
179,
179,
203,
204,
215,
180,
190,
180,
178,
167,
188,
166,
173,
153,
172,
142,
155,
150,
153,
139,
149,
156,
141,
127,
141,
121,
136,
127,
133,
117,
107,
118,
125,
108,
107,
105,
98,
102,
90,
92,
94,
83,
83,
90,
75,
90,
90,
86,
80,
80,
68,
85,
76,
71,
65,
75,
63,
62,
59,
76,
64,
54,
60,
54,
48,
59,
35,
42,
48,
38,
41,
31,
37,
36,
44,
24,
36,
48,
30,
15,
22,
36,
16,
20,
23,
22,
20,
9,
21,
12,
11,
6,
10,
6,
5,
8,
4,
0,
1,
1,
0,
2,
1,
2,
0,
1,
1,
1,
2,
1,
1,
2,
1,
2,
1,
0,
0,
0,
0,
3,
0,
0,
0,
0,
0,
2,
0,
0,
2,
0,
1,
0,
2,
2,
0,
0,
0,
2,
0,
0,
0,
0,
0,
2,
1,
0,
3,
0,
0,
1,
1,
0,
2,
1,
0,
3,
0,
1,
1,
0,
0,
2,
0,
1,
0,
0,
1,
2,
2,
1,
1,
2,
2,
4,
0,
2,
1,
1,
0,
1,
1,
0,
0,
0,
0,
0,
0,
1,
0,
0,
2,
0,
0,
0,
0,
0,
0,
0,
1,
0,
0,
1,
1,
1,
0,
2,
0,
0,
0,
0,
0,
0,
0,
0,
0,
0,
0,
0,
0,
0,
0,
0,
0,
0,
0,
0,
1,
0,
0,
2,
0,
0,
1,
0,
1,
2,
0,
1,
0,
0,
0,
0,
0,
0,
0,
0,
0,
0,
0,
1,
1,
0,
2,
0,
0,
0,
0,
0,
0,
0,
0,
0,
0,
0,
0,
0,
0,
0,
0,
1,
0,
1,
0,
0,
0,
1,
0,
0,
0,
0,
0,
0,
0,
0,
0,
0,
0,
0,
0,
0,
0,
0,
0,
0,
0,
0,
0,
0,
0,
0,
1,
0,
0,
0,
0,
0,
0,
0,
0,
0,
0,
0,
0,
0,
0,
1,
0,
0,
0,
0,
0,
0,
0,
0,
0,
0,
0,
0,
0,
0,
0,
0,
1,
0,
0,
0,
0,
0,
0,
0,
0,
0,
0,
0,
0,
0,
0,
0,
0,
0,
1,
0,
0,
0,
0,
0,
0,
0,
0,
0,
0,
0,
1,
0,
0,
2,
0,
0,
0,
0,
0,
0,
0,
0,
0,
0,
0,
0,
0,
0,
0,
0,
0,
0,
0,
0,
0,
0,
0,
0,
0,
0,
0,
0,
0,
1,
0,
0,
0,
0,
0,
0,
0,
0,
0,
0,
0,
0,
0,
1,
0,
0,
0,
0,
0,
0,
0,
0,
0,
0,
0,
0,
0,
0,
0,
0,
0,
0,
0,
0,
0,
0,
0,
0,
0,
0,
0,
0,
0,
0,
0,
0,
0,
0,
0,
0,
0,
0,
0,
0,
0,
0,
0,
0,
0,
0,
0,
0,
0,
0,
0,
0,
0,
0,
0,
0,
0,
0,
0,
0,
0,
0,
0,
0,
0,
0,
0,
0,
0,
0,
0,
0,
0,
0,
0,
0,
0,
0,
0,
0,
0,
0,
0,
0,
0,
0,
0,
0,
0,
0,
0,
0,
0,
0,
0,
0,
0,
0,
0,
0,
0,
0,
0,
0,
0,
0,
0,
0,
0,
0,
0,
0,
0,
0,
0,
0,
0,
0,
0,
0,
0,
0,
0,
0,
0,
0,
0,
0,
0,
0,
0,
0,
0,
0,
0,
0,
0,
0,
0,
0,
0,
0,
0,
0,
0,
0,
0,
0,
0,
0,
0,
0,
0,
0,
0,
0,
0,
0,
0,
0,
0,
0,
0,
0,
0,
0,
0,
0,
0,
0,
0,
0,
0,
0,
0,
0,
0,
0,
0,
0,
0,
0,
0,
0,
0,
0,
0,
0,
0,
0,
0,
0,
0,
0,
0,
0,
0,
0,
0,
0,
0,
0,
0,
0,
0,
0,
0,
0,
0,
0,
0,
0,
0,
0,
0,
0,
0,
0,
0,
0,
0,
0,
0,
0,
0,
0,
0,
0,
0,
0,
0,
0,
0,
0,
0,
0,
0,
0,
0,
0,
0,
0,
0,
0,
0,
0,
0,
0,
0,
0,
0,
0,
0,
0,
0,
0,
0,
0,
0,
0,
0,
0,
0,
0,
0,
0,
0,
0,
0,
0,
0,
0,
0,
0,
0,
0,
0,
0,
0,
0,
0,
0,
0,
0,
0,
0,
0,
0,
0,
0,
0,
0,
0,
0,
0,
0,
0,
0,
0,
0,
0,
0,
0,
0,
0,
0,
0,
0,
0,
0,
0,
0,
0,
0,
0,
0,
0,
0,
0,
0,
0,
0,
0,
0,
0,
0,
0,
0,
0,
0,
0,
0,
0,
0,
0,
0,
0,
0,
0,
0,
0,
0,
0,
0,
0,
0,
0,
0,
0,
0,
0,
0,
0,
0,
0,
0,
0,
0,
0,
0,
0,
0,
0,
0,
0,
0,
0,
0,
0,
0,
0,
0,
0,
0,
0,
0,
0,
0,
0,
0,
0,
0,
0,
0,
0,
0,
0,
0,
0,
0,
0,
0,
0,
0,
0,
0,
0,
0,
0,
0,
0,
0,
0,
0,
0,
0,
0,
0,
0,
0,
0,
0,
0,
0,
0,
0,
0,
0,
0,
0,
0,
0,
0,
0,
0,
0,
0,
0,
0,
0,
0,
0,
0,
0,
0,
0,
0,
0,
0,
0,
0,
0,
0,
0,
0,
0,
0,
0,
0,
0,
0,
0,
0,
0,
0,
0,
0,
0,
0,
0,
0,
0,
0,
0,
0,
0,
0,
0,
0,
0,
0,
0,
0,
0,
0,
0,
0,
0,
0,
0,
0,
0,
0,
0,
0,
0,
0,
0,
0,
0,
0,
0,
0,
0,
0,
0,
0,
0,
0,
0,
0,
0,
0,
0,
0,
0,
0,
0,
0,
0,
0,
0,
0,
0,
0,
0,
0,
0,
0,
0,
0,
0,
0,
0,
0,
0,
0,
0,
0,
0,
0,
0,
0,
0,
0,
0,
0,
0,
0,
0,
0,
0,
0,
0,
0,
0,
0,
0,
0,
0,
0,
0,
0,
#ENDOFDATA   :