File: N132962/Quantification/15 keV/Mengason MM2/MMM2 SrTiO3[5][4].msa
#FORMAT      : EMSA/MAS Spectral Data File
#VERSION     : 1.0
#TITLE       : MMM2 SrTiO3[5][all]
#DATE        : 29-SEP-2025
#TIME        : 00:19
#OWNER       : Unknown
#NPOINTS     : 4096
#NCOLUMNS    : 1
#XUNITS      : eV
#YUNITS      : counts
#DATATYPE    : Y
#XPERCHAN    : 9.99778
#OFFSET      : 1.69135
#BEAMKV      : 15
#SIGNALTYPE  : EDS
#ELEVANGLE   : 35
#AZIMANGLE   : 0
#LIVETIME    : 240.2
#REALTIME    : 256.55
#PROBECUR    : 1.21151
#TAUWIND     : 0
#TDEADLYR    : 0
#TACTLYR     : 0.045
#TALWIND     : 0.025
#CHOFFSET    : 0.0
#XLABEL      : Energy (eV)
#YLABEL      : Counts
#XPOSITION   : -15.16214
#YPOSITION   : 4.51987
#ZPOSITION   : 34.11879
#EDSDET      : SD
##SPECIMEN   : MMM2 SrTiO3[5][all]
##D2STDCMP   : SrTiO3,(O:26.1592),(Ti:26.0877),(Sr:47.7532)
##DET_HASH   : 12273538-fd48-a23f-0a19-f1e6fa85caef
##CALIB_HASH : 6abaa72c-aa41-8738-0be9-f592914732f3
##WORKING    : 15.0 mm
##DET_NAME   : EDAX All
##DET_MODE   : MediumLE
#SPECTRUM    :
16,
32,
11,
59,
346,
835,
2011,
5815,
14624,
18236,
9616,
5933,
8878,
11860,
13453,
18438,
38083,
65755,
48221,
14417,
4206,
3401,
3792,
4160,
4304,
4500,
4723,
5005,
5421,
5528,
5699,
5761,
5919,
6023,
6446,
6466,
6685,
6724,
6784,
6980,
7045,
7102,
7302,
7308,
7400,
7559,
7678,
7443,
7958,
7983,
8684,
10620,
14060,
15847,
14545,
12413,
11595,
16846,
48013,
125465,
199091,
188950,
130167,
79208,
41109,
19923,
10742,
6507,
4876,
4305,
4285,
4282,
4535,
4717,
4606,
4334,
4064,
3966,
4104,
4014,
3932,
4050,
3859,
3954,
3841,
3751,
3949,
3727,
3859,
3856,
3952,
4105,
4301,
4184,
3917,
3843,
3662,
3722,
3633,
3671,
3620,
3689,
3461,
3600,
3597,
3515,
3554,
3576,
3535,
3486,
3418,
3414,
3444,
3413,
3337,
3349,
3349,
3275,
3340,
3377,
3380,
3472,
3421,
3377,
3241,
3272,
3149,
3131,
2957,
3021,
3042,
2997,
2918,
2980,
2878,
2836,
2861,
2942,
2833,
2785,
2869,
2855,
2841,
2932,
3165,
3535,
5415,
11862,
26497,
47775,
63329,
58987,
39272,
19409,
7970,
3835,
2803,
2656,
2635,
2631,
3020,
4012,
5703,
8207,
9915,
10032,
7537,
4863,
3083,
2486,
2120,
2017,
2032,
2093,
2042,
2087,
2021,
2010,
2039,
2042,
2005,
1904,
2009,
1927,
1910,
1892,
1875,
1851,
1921,
1833,
1769,
1792,
1790,
1797,
1754,
1816,
1806,
1711,
1728,
1698,
1730,
1729,
1784,
1722,
1681,
1555,
1624,
1679,
1700,
1841,
1755,
1778,
1725,
1792,
1665,
1463,
1562,
1518,
1474,
1499,
1402,
1528,
1476,
1473,
1421,
1391,
1445,
1401,
1382,
1389,
1418,
1367,
1356,
1392,
1302,
1305,
1370,
1307,
1283,
1246,
1251,
1309,
1298,
1161,
1195,
1177,
1224,
1195,
1220,
1190,
1290,
1179,
1194,
1153,
1119,
1201,
1149,
1130,
1049,
1135,
1068,
1100,
1018,
1058,
1162,
1078,
980,
1027,
996,
1039,
969,
1040,
966,
989,
1024,
954,
980,
920,
938,
913,
900,
911,
947,
872,
929,
909,
970,
850,
829,
858,
846,
847,
874,
803,
859,
776,
775,
797,
798,
804,
785,
810,
800,
781,
741,
743,
737,
734,
744,
652,
744,
724,
728,
699,
705,
677,
701,
698,
648,
704,
643,
618,
691,
627,
660,
622,
623,
627,
607,
627,
569,
638,
607,
582,
577,
613,
558,
563,
577,
562,
529,
543,
539,
487,
529,
540,
518,
500,
510,
540,
469,
459,
514,
458,
492,
492,
476,
457,
437,
416,
407,
428,
468,
388,
427,
401,
383,
440,
369,
402,
408,
415,
400,
346,
382,
343,
360,
338,
320,
379,
335,
325,
348,
322,
337,
321,
359,
305,
299,
316,
308,
332,
286,
296,
265,
287,
295,
261,
264,
276,
282,
281,
274,
271,
274,
245,
251,
218,
250,
240,
228,
221,
214,
196,
224,
201,
184,
220,
168,
213,
221,
178,
185,
178,
193,
180,
210,
186,
163,
158,
160,
177,
143,
163,
148,
141,
168,
141,
139,
159,
140,
151,
141,
119,
125,
98,
120,
98,
114,
104,
106,
94,
96,
94,
95,
87,
91,
99,
92,
75,
81,
77,
86,
66,
58,
63,
72,
76,
72,
61,
53,
56,
59,
50,
38,
53,
49,
48,
43,
43,
36,
32,
42,
41,
33,
23,
25,
25,
25,
18,
14,
20,
15,
7,
14,
7,
6,
7,
6,
6,
0,
3,
0,
3,
2,
0,
1,
0,
3,
2,
1,
1,
1,
2,
0,
2,
1,
1,
1,
0,
2,
1,
2,
1,
2,
1,
2,
2,
0,
1,
0,
1,
5,
1,
1,
0,
1,
0,
3,
0,
0,
1,
2,
2,
0,
0,
1,
0,
0,
1,
1,
1,
0,
0,
3,
2,
0,
2,
2,
1,
1,
2,
1,
1,
0,
0,
1,
0,
1,
0,
0,
1,
0,
2,
0,
0,
0,
1,
0,
0,
0,
0,
1,
0,
1,
1,
0,
1,
0,
0,
0,
0,
0,
0,
1,
2,
0,
0,
0,
0,
1,
0,
0,
1,
1,
0,
0,
0,
0,
0,
0,
0,
0,
0,
0,
0,
0,
0,
0,
0,
0,
0,
1,
0,
0,
0,
0,
0,
0,
0,
0,
0,
0,
0,
0,
0,
0,
0,
0,
0,
0,
0,
0,
1,
0,
1,
0,
0,
0,
0,
1,
0,
0,
0,
0,
1,
0,
0,
1,
0,
0,
0,
0,
0,
0,
0,
0,
0,
0,
0,
1,
0,
0,
0,
0,
0,
0,
0,
0,
0,
0,
0,
0,
0,
0,
0,
0,
0,
0,
0,
0,
0,
0,
0,
0,
0,
0,
0,
1,
0,
0,
0,
2,
0,
0,
0,
0,
0,
0,
0,
0,
0,
0,
0,
0,
0,
0,
0,
0,
0,
0,
0,
0,
0,
0,
0,
0,
0,
0,
0,
0,
0,
0,
0,
0,
0,
0,
0,
0,
0,
0,
0,
0,
0,
0,
0,
0,
0,
0,
0,
0,
0,
0,
0,
0,
0,
0,
0,
0,
0,
0,
0,
0,
0,
0,
0,
0,
0,
0,
0,
0,
0,
0,
0,
0,
0,
0,
0,
0,
0,
0,
0,
0,
0,
0,
0,
0,
0,
0,
0,
0,
0,
0,
0,
0,
0,
0,
0,
0,
0,
0,
0,
0,
0,
0,
0,
0,
0,
0,
0,
0,
0,
0,
0,
0,
0,
0,
0,
0,
0,
0,
0,
0,
0,
0,
0,
0,
0,
0,
0,
0,
0,
0,
0,
0,
0,
0,
0,
0,
0,
0,
0,
0,
0,
0,
0,
0,
0,
1,
0,
0,
0,
0,
0,
0,
0,
0,
0,
0,
0,
0,
0,
0,
0,
0,
0,
0,
0,
0,
0,
0,
0,
0,
0,
0,
0,
0,
0,
0,
0,
0,
0,
0,
0,
0,
0,
0,
0,
0,
0,
0,
0,
0,
0,
0,
0,
0,
0,
0,
0,
0,
0,
0,
0,
0,
0,
0,
0,
0,
0,
0,
0,
0,
0,
0,
0,
0,
0,
0,
0,
0,
0,
0,
0,
0,
0,
0,
0,
0,
0,
0,
0,
0,
0,
0,
0,
0,
0,
0,
0,
0,
0,
0,
0,
0,
0,
0,
0,
0,
0,
0,
0,
0,
0,
0,
0,
0,
0,
0,
0,
0,
0,
0,
0,
0,
0,
0,
0,
0,
0,
0,
0,
0,
0,
0,
0,
0,
0,
0,
0,
0,
0,
0,
0,
0,
0,
0,
0,
0,
0,
0,
0,
0,
0,
0,
0,
0,
0,
0,
0,
0,
0,
0,
0,
0,
0,
0,
0,
0,
0,
0,
0,
0,
0,
0,
0,
0,
0,
0,
0,
0,
0,
0,
0,
0,
0,
0,
0,
0,
0,
0,
0,
0,
0,
0,
0,
0,
0,
0,
0,
0,
0,
0,
0,
0,
0,
0,
0,
0,
0,
0,
0,
0,
0,
0,
0,
0,
0,
0,
0,
0,
0,
0,
0,
0,
0,
0,
0,
0,
0,
0,
0,
0,
0,
0,
0,
0,
0,
0,
0,
0,
0,
0,
0,
0,
0,
0,
0,
0,
0,
0,
0,
0,
0,
0,
0,
0,
0,
0,
0,
0,
0,
0,
0,
0,
0,
0,
0,
0,
0,
0,
0,
0,
0,
0,
0,
0,
0,
0,
0,
0,
0,
0,
0,
0,
0,
0,
0,
0,
0,
0,
0,
0,
0,
0,
0,
0,
0,
0,
0,
0,
0,
0,
0,
0,
0,
0,
0,
0,
0,
0,
0,
0,
0,
0,
0,
0,
0,
0,
0,
0,
0,
0,
0,
0,
0,
0,
0,
0,
0,
0,
0,
0,
0,
0,
0,
0,
0,
0,
0,
0,
0,
0,
0,
0,
0,
0,
0,
0,
0,
0,
0,
0,
0,
0,
0,
0,
0,
0,
0,
0,
0,
0,
0,
0,
0,
0,
0,
0,
0,
0,
0,
0,
0,
0,
0,
0,
0,
0,
0,
0,
0,
0,
0,
0,
0,
0,
0,
0,
0,
0,
0,
0,
0,
0,
0,
0,
0,
0,
0,
0,
0,
0,
0,
0,
0,
0,
0,
0,
0,
0,
0,
0,
0,
0,
0,
0,
0,
0,
0,
0,
0,
0,
0,
0,
0,
0,
0,
0,
0,
0,
0,
0,
0,
0,
0,
0,
0,
0,
0,
0,
0,
0,
0,
0,
0,
0,
0,
0,
0,
0,
0,
0,
0,
0,
0,
0,
0,
0,
0,
0,
0,
0,
0,
0,
0,
0,
0,
0,
0,
0,
0,
0,
0,
0,
0,
0,
0,
0,
0,
0,
0,
0,
0,
0,
0,
0,
0,
0,
0,
0,
0,
0,
0,
0,
0,
0,
0,
0,
0,
0,
0,
0,
0,
0,
0,
0,
0,
0,
0,
0,
0,
0,
0,
0,
0,
0,
0,
0,
0,
0,
0,
0,
0,
0,
0,
#ENDOFDATA   :