File: N132962/Quantification/15 keV/Mengason MM2/MMM2 Plagioclaise[6][4].msa
#FORMAT      : EMSA/MAS Spectral Data File
#VERSION     : 1.0
#TITLE       : MMM2 Plagioclaise[6][all]
#DATE        : 28-SEP-2025
#TIME        : 23:18
#OWNER       : Unknown
#NPOINTS     : 4096
#NCOLUMNS    : 1
#XUNITS      : eV
#YUNITS      : counts
#DATATYPE    : Y
#XPERCHAN    : 9.99778
#OFFSET      : 1.69135
#BEAMKV      : 15
#SIGNALTYPE  : EDS
#ELEVANGLE   : 35
#AZIMANGLE   : 0
#LIVETIME    : 240.252
#REALTIME    : 256.422
#PROBECUR    : 1.2132
#TAUWIND     : 0
#TDEADLYR    : 0
#TACTLYR     : 0.045
#TALWIND     : 0.025
#CHOFFSET    : 0.0
#XLABEL      : Energy (eV)
#YLABEL      : Counts
#XPOSITION   : -18.65928
#YPOSITION   : 2.05125
#ZPOSITION   : 34.11879
#EDSDET      : SD
##SPECIMEN   : MMM2 Plagioclaise[6][all]
##DET_HASH   : 12273538-fd48-a23f-0a19-f1e6fa85caef
##CALIB_HASH : 6abaa72c-aa41-8738-0be9-f592914732f3
##WORKING    : 15.0 mm
##DET_NAME   : EDAX All
##DET_MODE   : MediumLE
#SPECTRUM    :
32,
29,
8,
17,
91,
353,
1043,
3796,
10938,
14521,
8374,
4562,
3919,
4560,
7976,
29032,
110606,
209404,
151758,
40000,
5555,
2541,
2688,
3143,
3302,
3240,
3204,
3360,
3746,
3925,
4047,
4488,
5835,
12088,
23527,
25793,
14598,
6512,
4677,
4592,
4734,
5287,
5527,
5480,
5490,
5763,
7530,
19269,
63712,
128129,
129562,
67315,
22561,
8793,
6776,
14777,
54607,
140365,
189891,
134044,
53887,
18831,
8827,
4816,
3302,
3079,
3081,
2959,
2759,
2541,
2557,
2512,
2523,
2649,
2809,
3014,
2992,
2684,
2496,
2430,
2436,
2407,
2359,
2400,
2329,
2327,
2350,
2233,
2321,
2240,
2255,
2267,
2227,
2171,
2198,
2269,
2141,
2144,
2140,
2128,
2124,
2059,
2064,
2043,
1947,
2021,
2238,
2395,
2470,
2734,
2993,
2858,
2502,
2116,
2031,
2029,
2079,
2143,
2316,
3118,
5887,
13142,
23199,
28895,
24389,
14271,
6158,
2709,
1766,
1677,
1820,
2335,
3283,
4414,
4702,
3951,
2924,
1920,
1554,
1397,
1420,
1398,
1352,
1273,
1302,
1312,
1299,
1290,
1299,
1332,
1281,
1375,
1295,
1250,
1227,
1147,
1206,
1175,
1151,
1196,
1153,
1182,
1150,
1077,
1126,
1058,
1050,
1074,
1050,
1099,
1126,
1048,
1057,
958,
1039,
975,
979,
1005,
1033,
1047,
1042,
920,
987,
975,
985,
957,
882,
934,
868,
914,
894,
860,
843,
820,
877,
839,
870,
813,
811,
837,
772,
787,
743,
818,
751,
774,
787,
812,
749,
745,
780,
852,
992,
1032,
987,
858,
756,
752,
709,
708,
671,
653,
648,
619,
676,
595,
651,
610,
634,
630,
612,
640,
665,
590,
645,
677,
616,
641,
576,
575,
572,
527,
555,
585,
572,
556,
519,
532,
551,
486,
485,
529,
512,
517,
464,
502,
508,
508,
488,
440,
462,
463,
463,
477,
431,
422,
452,
386,
410,
421,
444,
408,
452,
485,
418,
399,
421,
392,
370,
402,
378,
356,
379,
391,
395,
383,
374,
361,
342,
365,
328,
353,
346,
296,
322,
353,
330,
346,
349,
349,
326,
311,
365,
327,
302,
315,
311,
289,
301,
301,
323,
287,
318,
281,
290,
265,
298,
300,
266,
256,
273,
264,
268,
273,
279,
240,
265,
257,
255,
238,
222,
226,
215,
237,
246,
218,
229,
254,
209,
218,
221,
206,
181,
208,
190,
203,
207,
193,
192,
172,
217,
210,
198,
189,
171,
167,
168,
177,
178,
170,
154,
173,
166,
141,
167,
155,
173,
165,
160,
148,
131,
155,
147,
132,
149,
152,
128,
145,
133,
157,
146,
129,
112,
146,
116,
136,
114,
104,
106,
119,
112,
131,
107,
120,
91,
124,
114,
108,
112,
101,
86,
87,
93,
93,
88,
85,
95,
75,
64,
84,
83,
75,
77,
73,
95,
92,
80,
77,
64,
66,
69,
71,
77,
75,
48,
59,
57,
56,
67,
51,
56,
54,
50,
44,
51,
61,
58,
50,
41,
54,
54,
41,
40,
39,
39,
45,
42,
38,
33,
35,
39,
34,
37,
24,
26,
30,
31,
49,
35,
22,
26,
19,
19,
28,
20,
19,
15,
23,
15,
18,
18,
21,
20,
19,
14,
18,
17,
17,
16,
17,
23,
10,
18,
8,
9,
9,
4,
7,
13,
8,
4,
4,
4,
4,
3,
4,
1,
3,
1,
0,
1,
1,
0,
0,
0,
0,
1,
0,
1,
0,
1,
0,
0,
1,
0,
0,
1,
0,
2,
0,
0,
0,
0,
0,
0,
0,
0,
0,
1,
0,
0,
0,
0,
0,
0,
1,
0,
0,
1,
0,
0,
0,
0,
0,
0,
0,
0,
0,
0,
0,
0,
0,
0,
0,
0,
0,
0,
0,
0,
0,
0,
0,
1,
0,
0,
0,
0,
0,
0,
0,
0,
0,
0,
0,
0,
0,
0,
0,
0,
0,
0,
0,
0,
1,
0,
0,
0,
0,
0,
0,
0,
0,
0,
1,
0,
0,
0,
0,
0,
0,
0,
0,
0,
0,
0,
0,
0,
0,
0,
0,
1,
0,
0,
0,
0,
0,
0,
0,
0,
0,
0,
0,
0,
0,
0,
0,
0,
0,
0,
0,
0,
0,
0,
0,
0,
0,
0,
0,
0,
0,
0,
0,
0,
0,
0,
0,
0,
0,
0,
0,
1,
0,
0,
0,
0,
0,
0,
0,
0,
0,
0,
0,
0,
0,
0,
0,
0,
0,
0,
0,
0,
0,
0,
0,
0,
0,
0,
0,
0,
0,
0,
0,
0,
0,
0,
0,
0,
0,
0,
0,
0,
0,
0,
0,
0,
0,
0,
0,
0,
0,
0,
0,
0,
0,
0,
0,
0,
0,
0,
0,
0,
0,
0,
0,
0,
0,
0,
0,
0,
0,
0,
0,
0,
0,
0,
0,
0,
0,
0,
0,
0,
0,
0,
0,
0,
0,
0,
0,
0,
0,
0,
0,
0,
0,
0,
0,
0,
0,
0,
0,
0,
0,
0,
0,
0,
0,
0,
0,
0,
0,
0,
0,
0,
0,
0,
0,
0,
0,
0,
0,
0,
0,
0,
0,
0,
0,
0,
0,
0,
0,
0,
0,
0,
0,
0,
0,
0,
0,
0,
0,
0,
0,
0,
0,
0,
0,
0,
0,
0,
0,
0,
0,
0,
0,
0,
0,
0,
0,
0,
0,
0,
0,
0,
0,
0,
0,
0,
0,
0,
0,
0,
0,
0,
0,
0,
0,
0,
0,
0,
0,
0,
0,
0,
0,
0,
0,
0,
0,
0,
0,
0,
0,
0,
0,
0,
0,
0,
0,
0,
0,
0,
0,
0,
0,
0,
0,
0,
0,
0,
0,
0,
0,
0,
0,
0,
0,
0,
0,
0,
0,
0,
0,
0,
0,
0,
0,
0,
0,
0,
0,
0,
0,
0,
0,
0,
0,
0,
0,
0,
0,
0,
0,
0,
0,
0,
0,
0,
0,
0,
0,
0,
0,
0,
0,
0,
0,
0,
0,
0,
0,
0,
0,
0,
0,
0,
0,
0,
0,
0,
0,
0,
0,
0,
0,
0,
0,
0,
0,
0,
0,
0,
0,
0,
0,
0,
0,
0,
0,
0,
0,
0,
0,
0,
0,
0,
0,
0,
0,
0,
0,
0,
0,
0,
0,
0,
0,
0,
0,
0,
0,
0,
0,
0,
0,
0,
0,
0,
0,
0,
0,
0,
0,
0,
0,
0,
0,
0,
0,
0,
0,
0,
0,
0,
0,
0,
0,
0,
0,
0,
0,
0,
0,
0,
0,
0,
0,
0,
0,
0,
0,
0,
0,
0,
0,
0,
0,
0,
0,
0,
0,
0,
0,
0,
0,
0,
0,
0,
0,
0,
0,
0,
0,
0,
0,
0,
0,
0,
0,
0,
0,
0,
0,
0,
0,
0,
0,
0,
0,
0,
0,
0,
0,
0,
0,
0,
0,
0,
0,
0,
0,
0,
0,
0,
0,
0,
0,
0,
0,
0,
0,
0,
0,
0,
0,
0,
0,
0,
0,
0,
0,
0,
0,
0,
0,
0,
0,
0,
0,
0,
0,
0,
0,
0,
0,
0,
0,
0,
0,
0,
0,
0,
0,
0,
0,
0,
0,
0,
0,
0,
0,
0,
0,
0,
0,
0,
0,
0,
0,
0,
0,
0,
0,
0,
0,
0,
0,
0,
0,
0,
0,
0,
0,
0,
0,
0,
0,
0,
0,
0,
0,
0,
0,
0,
0,
0,
0,
0,
0,
0,
0,
0,
0,
0,
0,
0,
0,
0,
0,
0,
0,
0,
0,
0,
0,
0,
0,
0,
0,
0,
0,
0,
0,
0,
0,
0,
0,
0,
0,
0,
0,
0,
0,
0,
0,
0,
0,
0,
0,
0,
0,
0,
0,
0,
0,
0,
0,
0,
0,
0,
0,
0,
0,
0,
0,
0,
0,
0,
0,
0,
0,
0,
0,
0,
0,
0,
0,
0,
0,
0,
0,
0,
0,
0,
0,
0,
0,
0,
0,
0,
0,
0,
0,
0,
0,
0,
0,
0,
0,
0,
0,
0,
0,
0,
0,
0,
0,
0,
0,
0,
0,
0,
0,
0,
0,
0,
0,
0,
0,
0,
0,
0,
0,
0,
0,
0,
0,
0,
0,
0,
0,
0,
0,
0,
0,
0,
0,
0,
0,
0,
0,
0,
0,
0,
0,
0,
0,
0,
0,
0,
0,
0,
0,
0,
0,
0,
0,
0,
0,
0,
0,
0,
0,
0,
0,
0,
0,
0,
0,
0,
0,
0,
0,
0,
0,
0,
0,
0,
0,
0,
0,
0,
0,
0,
0,
0,
0,
0,
0,
0,
0,
0,
0,
0,
0,
0,
0,
0,
0,
0,
0,
0,
0,
0,
0,
0,
0,
0,
0,
0,
0,
0,
0,
0,
0,
0,
0,
0,
0,
0,
0,
0,
0,
0,
0,
0,
0,
0,
0,
0,
0,
0,
0,
0,
0,
0,
0,
#ENDOFDATA   :