File: N132962/Quantification/15 keV/Mengason MM2/MMM2 Sphene[5][4].msa
#FORMAT      : EMSA/MAS Spectral Data File
#VERSION     : 1.0
#TITLE       : MMM2 Sphene[5][all]
#DATE        : 28-SEP-2025
#TIME        : 22:04
#OWNER       : Unknown
#NPOINTS     : 4096
#NCOLUMNS    : 1
#XUNITS      : eV
#YUNITS      : counts
#DATATYPE    : Y
#XPERCHAN    : 9.99778
#OFFSET      : 1.69135
#BEAMKV      : 15
#SIGNALTYPE  : EDS
#ELEVANGLE   : 35
#AZIMANGLE   : 0
#LIVETIME    : 240.113
#REALTIME    : 253.345
#PROBECUR    : 1.21223
#TAUWIND     : 0
#TDEADLYR    : 0
#TACTLYR     : 0.045
#TALWIND     : 0.025
#CHOFFSET    : 0.0
#XLABEL      : Energy (eV)
#YLABEL      : Counts
#XPOSITION   : -11.18059
#YPOSITION   : -1.87705
#ZPOSITION   : 34.11879
#EDSDET      : SD
##SPECIMEN   : MMM2 Sphene[5][all]
##DET_HASH   : 12273538-fd48-a23f-0a19-f1e6fa85caef
##CALIB_HASH : 6abaa72c-aa41-8738-0be9-f592914732f3
##WORKING    : 15.0 mm
##DET_NAME   : EDAX All
##DET_MODE   : MediumLE
#SPECTRUM    :
24,
27,
12,
20,
101,
445,
1397,
4779,
13870,
20596,
14349,
9030,
9345,
10766,
12287,
20201,
52995,
96233,
70063,
19203,
3637,
2451,
2945,
3404,
3159,
2895,
3031,
3066,
3320,
3402,
3462,
3685,
3871,
3917,
4191,
4305,
4236,
4521,
4503,
4748,
4690,
4804,
4836,
4970,
4957,
5032,
5257,
5700,
7779,
10305,
10535,
8056,
6229,
5628,
6275,
11682,
37207,
90149,
121729,
86741,
36539,
13953,
7811,
5430,
4623,
4452,
4162,
3846,
3611,
3543,
3391,
3717,
3754,
3618,
3710,
3724,
3706,
3433,
3365,
3238,
3196,
3155,
3069,
3091,
3095,
3097,
2935,
3035,
2992,
2945,
3024,
3174,
3277,
3177,
2945,
2842,
2704,
2762,
2645,
2669,
2656,
2696,
2649,
2681,
2594,
2696,
2602,
2527,
2494,
2381,
2454,
2409,
2385,
2332,
2376,
2504,
2559,
2885,
3296,
5259,
12653,
30806,
56749,
70928,
59682,
33987,
13669,
4968,
2719,
2451,
2822,
4238,
6469,
9256,
10058,
8438,
5228,
3137,
2019,
1897,
1739,
1752,
1749,
1716,
2000,
2236,
3828,
8315,
20114,
36252,
48349,
44919,
29620,
14355,
5783,
2474,
1624,
1578,
1603,
1691,
1900,
2587,
3971,
5911,
7506,
7085,
5492,
3528,
2123,
1510,
1290,
1237,
1187,
1173,
1156,
1152,
1179,
1173,
1206,
1205,
1307,
1274,
1254,
1076,
1117,
1119,
1104,
1071,
1060,
1066,
1101,
1100,
1046,
1051,
1096,
1034,
1079,
1078,
1036,
973,
1007,
964,
932,
896,
919,
929,
920,
946,
955,
1028,
1059,
1157,
1251,
1359,
1268,
1206,
1019,
913,
878,
782,
835,
893,
877,
775,
889,
790,
746,
842,
802,
804,
845,
754,
776,
784,
762,
748,
774,
742,
777,
738,
732,
721,
688,
725,
621,
760,
704,
666,
724,
707,
664,
667,
644,
663,
614,
607,
601,
607,
596,
646,
560,
625,
619,
616,
589,
565,
558,
568,
569,
595,
559,
549,
565,
546,
522,
519,
552,
536,
513,
517,
517,
492,
482,
466,
487,
493,
487,
494,
454,
502,
460,
450,
455,
440,
446,
420,
415,
439,
436,
435,
468,
404,
456,
422,
413,
394,
402,
384,
419,
382,
396,
394,
379,
369,
382,
339,
379,
390,
353,
362,
336,
346,
332,
329,
321,
334,
321,
324,
330,
296,
310,
291,
319,
301,
305,
319,
277,
277,
270,
293,
275,
271,
255,
267,
264,
257,
294,
236,
254,
252,
264,
242,
225,
221,
244,
246,
214,
232,
246,
241,
224,
227,
199,
224,
213,
235,
217,
219,
200,
205,
208,
208,
198,
201,
192,
176,
208,
193,
174,
172,
174,
190,
191,
151,
170,
164,
161,
160,
144,
151,
137,
134,
151,
141,
153,
155,
121,
121,
143,
157,
141,
129,
104,
139,
128,
132,
115,
98,
125,
114,
100,
98,
107,
101,
114,
105,
88,
96,
100,
65,
104,
86,
97,
96,
94,
89,
81,
79,
75,
81,
94,
74,
60,
80,
64,
66,
74,
62,
60,
84,
59,
65,
47,
53,
47,
58,
53,
58,
51,
75,
51,
36,
35,
60,
33,
33,
37,
45,
35,
47,
36,
40,
37,
35,
32,
24,
34,
32,
23,
35,
35,
44,
20,
22,
23,
19,
20,
19,
16,
18,
18,
19,
17,
13,
14,
9,
7,
6,
11,
11,
10,
13,
3,
4,
9,
1,
6,
4,
0,
4,
3,
1,
1,
2,
1,
0,
2,
0,
1,
0,
1,
0,
0,
0,
1,
2,
0,
0,
1,
0,
0,
0,
1,
0,
0,
0,
0,
1,
2,
0,
0,
0,
0,
0,
0,
1,
0,
1,
1,
0,
1,
0,
1,
0,
1,
1,
0,
0,
0,
1,
0,
0,
0,
0,
0,
0,
1,
0,
0,
0,
0,
1,
0,
0,
0,
0,
0,
0,
0,
1,
0,
1,
0,
0,
0,
0,
0,
1,
2,
0,
0,
2,
0,
1,
0,
0,
1,
0,
0,
0,
1,
0,
0,
0,
1,
1,
1,
0,
0,
0,
0,
0,
0,
0,
0,
1,
0,
0,
0,
0,
0,
0,
0,
1,
0,
0,
0,
1,
0,
0,
0,
0,
1,
0,
0,
0,
0,
0,
0,
0,
0,
0,
0,
0,
0,
0,
0,
0,
0,
0,
0,
0,
0,
0,
0,
0,
0,
0,
0,
1,
0,
0,
0,
1,
0,
0,
0,
0,
0,
0,
0,
0,
0,
0,
0,
0,
0,
0,
0,
0,
0,
0,
0,
0,
0,
0,
0,
0,
0,
0,
0,
0,
0,
0,
0,
0,
0,
0,
0,
0,
0,
0,
0,
0,
0,
0,
0,
0,
0,
0,
0,
0,
0,
0,
0,
0,
0,
0,
0,
0,
0,
0,
0,
0,
0,
1,
0,
0,
0,
0,
0,
0,
0,
0,
0,
0,
0,
0,
0,
0,
0,
0,
0,
0,
0,
0,
0,
0,
0,
0,
0,
0,
0,
0,
0,
0,
0,
0,
0,
0,
0,
0,
0,
0,
0,
0,
0,
0,
0,
0,
0,
0,
0,
0,
0,
0,
0,
0,
0,
0,
0,
0,
0,
0,
0,
0,
0,
0,
0,
0,
0,
0,
0,
0,
0,
0,
0,
0,
0,
0,
0,
0,
0,
0,
0,
0,
0,
0,
0,
0,
0,
0,
0,
0,
0,
0,
0,
0,
0,
0,
0,
0,
0,
0,
0,
0,
0,
0,
0,
0,
0,
0,
0,
0,
0,
0,
0,
0,
0,
0,
0,
0,
0,
0,
0,
0,
0,
0,
0,
0,
0,
0,
0,
0,
0,
0,
0,
0,
0,
0,
0,
0,
0,
0,
0,
0,
0,
0,
0,
0,
0,
0,
0,
0,
0,
0,
0,
0,
0,
0,
0,
0,
0,
0,
0,
0,
0,
0,
0,
0,
0,
0,
0,
0,
0,
0,
0,
0,
0,
0,
0,
0,
0,
0,
0,
0,
0,
0,
0,
0,
0,
0,
0,
0,
0,
0,
0,
0,
0,
0,
0,
0,
0,
0,
0,
0,
0,
0,
0,
0,
0,
0,
0,
0,
0,
0,
0,
0,
0,
0,
0,
0,
0,
0,
0,
0,
0,
0,
0,
0,
0,
0,
0,
0,
0,
0,
0,
0,
0,
0,
0,
0,
0,
0,
0,
0,
0,
0,
0,
0,
0,
0,
0,
0,
0,
0,
0,
0,
0,
0,
0,
0,
0,
0,
0,
0,
0,
0,
0,
0,
0,
0,
0,
0,
0,
0,
0,
0,
0,
0,
0,
0,
0,
0,
0,
0,
0,
0,
0,
0,
0,
0,
0,
0,
0,
0,
0,
0,
0,
0,
0,
0,
0,
0,
0,
0,
0,
0,
0,
0,
0,
0,
0,
0,
0,
0,
0,
0,
0,
0,
0,
0,
0,
0,
0,
0,
0,
0,
0,
0,
0,
0,
0,
0,
0,
0,
0,
0,
0,
0,
0,
0,
0,
0,
0,
0,
0,
0,
0,
0,
0,
0,
0,
0,
0,
0,
0,
0,
0,
0,
0,
0,
0,
0,
0,
0,
0,
0,
0,
0,
0,
0,
0,
0,
0,
0,
0,
0,
0,
0,
0,
0,
0,
0,
0,
0,
0,
0,
0,
0,
0,
0,
0,
0,
0,
0,
0,
0,
0,
0,
0,
0,
0,
0,
0,
0,
0,
0,
0,
0,
0,
0,
0,
0,
0,
0,
0,
0,
0,
0,
0,
0,
0,
0,
0,
0,
0,
0,
0,
0,
0,
0,
0,
0,
0,
0,
0,
0,
0,
0,
0,
0,
0,
0,
0,
0,
0,
0,
0,
0,
0,
0,
0,
0,
0,
0,
0,
0,
0,
0,
0,
0,
0,
0,
0,
0,
0,
0,
0,
0,
0,
0,
0,
0,
0,
0,
0,
0,
0,
0,
0,
0,
0,
0,
0,
0,
0,
0,
0,
0,
0,
0,
0,
0,
0,
0,
0,
0,
0,
0,
0,
0,
0,
0,
0,
0,
0,
0,
0,
0,
0,
0,
0,
0,
0,
0,
0,
0,
0,
0,
0,
0,
0,
0,
0,
0,
0,
0,
0,
0,
0,
0,
0,
0,
0,
0,
0,
0,
0,
0,
0,
0,
0,
0,
0,
0,
0,
0,
0,
0,
0,
0,
0,
0,
0,
0,
0,
0,
0,
0,
0,
0,
0,
0,
0,
0,
0,
0,
0,
0,
0,
0,
0,
0,
0,
0,
0,
0,
0,
0,
0,
0,
0,
0,
0,
0,
0,
0,
0,
0,
0,
0,
0,
0,
0,
0,
0,
0,
0,
0,
0,
0,
0,
0,
0,
0,
0,
0,
0,
0,
0,
0,
0,
0,
0,
0,
0,
0,
0,
0,
0,
0,
0,
0,
0,
0,
0,
0,
0,
0,
0,
0,
0,
0,
0,
0,
0,
0,
0,
0,
0,
0,
0,
0,
0,
0,
0,
0,
0,
0,
0,
0,
0,
0,
0,
0,
#ENDOFDATA   :