File: N132962/Quantification/15 keV/Mengason MM2/MMM2 Zircon-2[5][4].msa
#FORMAT      : EMSA/MAS Spectral Data File
#VERSION     : 1.0
#TITLE       : MMM2 Zircon-2[5][all]
#DATE        : 29-SEP-2025
#TIME        : 01:21
#OWNER       : Unknown
#NPOINTS     : 4096
#NCOLUMNS    : 1
#XUNITS      : eV
#YUNITS      : counts
#DATATYPE    : Y
#XPERCHAN    : 9.99778
#OFFSET      : 1.69135
#BEAMKV      : 15
#SIGNALTYPE  : EDS
#ELEVANGLE   : 35
#AZIMANGLE   : 0
#LIVETIME    : 240.254
#REALTIME    : 257.1287
#PROBECUR    : 1.21248
#TAUWIND     : 0
#TDEADLYR    : 0
#TACTLYR     : 0.045
#TALWIND     : 0.025
#CHOFFSET    : 0.0
#XLABEL      : Energy (eV)
#YLABEL      : Counts
#XPOSITION   : -14.66117
#YPOSITION   : 7.63321
#ZPOSITION   : 34.11879
#EDSDET      : SD
##SPECIMEN   : MMM2 Zircon-2[5][all]
##DET_HASH   : 12273538-fd48-a23f-0a19-f1e6fa85caef
##CALIB_HASH : 6abaa72c-aa41-8738-0be9-f592914732f3
##WORKING    : 15.0 mm
##DET_NAME   : EDAX All
##DET_MODE   : MediumLE
#SPECTRUM    :
28,
26,
18,
66,
476,
1336,
2217,
5331,
14286,
19753,
11985,
5465,
4785,
5189,
6541,
17238,
58290,
107273,
78726,
22337,
5232,
3783,
4002,
4513,
4596,
4598,
4928,
5164,
5602,
5725,
5730,
5890,
6176,
6366,
6455,
6653,
6678,
6800,
7128,
7036,
7110,
7275,
7476,
7508,
7465,
7491,
7728,
7735,
7841,
7921,
7982,
8127,
8280,
8748,
10724,
17774,
48222,
112709,
151294,
112165,
53240,
24241,
14500,
11015,
12297,
20379,
48223,
102389,
141938,
126801,
94307,
72587,
49382,
28801,
16450,
10050,
6508,
4931,
4179,
3664,
3409,
3531,
3918,
4350,
4304,
4166,
3544,
3400,
3346,
3318,
3305,
3199,
3184,
3091,
3045,
3176,
2962,
3164,
3039,
3162,
3169,
3156,
3165,
3120,
3074,
3081,
3146,
3077,
3005,
3029,
3068,
3066,
3001,
3055,
2951,
3018,
3087,
2978,
2951,
2916,
2892,
2861,
2773,
2833,
2842,
2904,
2911,
3010,
2945,
2915,
2866,
2780,
2622,
2670,
2689,
2648,
2770,
2701,
2731,
2612,
2490,
2475,
2535,
2489,
2451,
2514,
2463,
2455,
2362,
2340,
2322,
2278,
2234,
2292,
2180,
2321,
2286,
2227,
2243,
2162,
2195,
2115,
2111,
2095,
2109,
2051,
2026,
2085,
2117,
1970,
1997,
2068,
1984,
1958,
1991,
1918,
1949,
1934,
1957,
1879,
1935,
1923,
1885,
1894,
1862,
1793,
1828,
1850,
1785,
1733,
1780,
1693,
1689,
1667,
1657,
1727,
1700,
1724,
1740,
1579,
1607,
1624,
1583,
1509,
1496,
1625,
1549,
1538,
1524,
1665,
1540,
1553,
1488,
1536,
1632,
1568,
1426,
1461,
1340,
1319,
1388,
1386,
1422,
1335,
1352,
1332,
1264,
1350,
1369,
1277,
1287,
1202,
1272,
1294,
1279,
1215,
1199,
1211,
1283,
1258,
1197,
1213,
1192,
1210,
1157,
1125,
1223,
1162,
1188,
1161,
1130,
1033,
1083,
1061,
1101,
1093,
1081,
1083,
1038,
1091,
1043,
1125,
1079,
1079,
1070,
1066,
974,
994,
940,
938,
951,
908,
960,
946,
941,
930,
899,
869,
881,
916,
858,
843,
869,
879,
845,
791,
886,
830,
750,
827,
794,
721,
761,
746,
707,
747,
769,
775,
786,
798,
752,
753,
691,
729,
701,
695,
693,
673,
657,
657,
674,
661,
725,
671,
654,
627,
570,
666,
628,
606,
632,
603,
601,
610,
573,
582,
566,
569,
549,
555,
511,
506,
565,
571,
560,
547,
532,
516,
523,
496,
480,
469,
482,
488,
492,
494,
482,
471,
449,
487,
444,
434,
458,
456,
410,
466,
401,
432,
401,
395,
439,
413,
381,
411,
387,
375,
388,
368,
329,
370,
346,
362,
386,
344,
323,
323,
348,
337,
307,
333,
293,
322,
316,
326,
307,
302,
297,
294,
289,
286,
273,
277,
273,
268,
267,
245,
290,
245,
233,
269,
252,
237,
268,
242,
220,
227,
224,
225,
200,
215,
192,
238,
192,
194,
201,
183,
186,
200,
201,
167,
190,
184,
173,
161,
168,
154,
142,
169,
162,
161,
147,
139,
159,
141,
135,
134,
137,
122,
124,
124,
137,
116,
138,
117,
106,
112,
107,
97,
90,
105,
100,
106,
100,
81,
103,
91,
89,
93,
82,
81,
90,
65,
64,
78,
42,
76,
45,
56,
49,
58,
55,
56,
49,
49,
46,
31,
34,
43,
28,
37,
34,
38,
29,
27,
34,
21,
17,
21,
18,
20,
25,
18,
13,
12,
10,
10,
8,
1,
8,
3,
1,
2,
0,
0,
0,
0,
0,
1,
1,
2,
0,
0,
0,
1,
0,
1,
1,
1,
2,
2,
1,
2,
0,
1,
1,
0,
1,
1,
0,
2,
0,
0,
1,
0,
1,
1,
0,
0,
0,
1,
0,
3,
1,
2,
1,
0,
0,
0,
2,
0,
0,
1,
1,
0,
0,
0,
0,
0,
0,
0,
0,
0,
0,
1,
0,
0,
0,
0,
0,
0,
0,
0,
0,
0,
0,
0,
0,
0,
0,
1,
0,
0,
2,
0,
0,
0,
1,
1,
0,
0,
0,
0,
0,
0,
0,
0,
0,
0,
0,
0,
0,
1,
1,
1,
0,
0,
0,
1,
0,
0,
0,
0,
0,
1,
0,
0,
0,
0,
1,
1,
0,
0,
0,
0,
0,
0,
1,
0,
0,
0,
0,
0,
0,
0,
0,
0,
0,
0,
0,
0,
0,
0,
0,
0,
0,
0,
0,
1,
0,
1,
0,
0,
0,
0,
0,
0,
0,
0,
0,
0,
0,
0,
0,
0,
0,
0,
0,
0,
1,
0,
0,
0,
0,
0,
0,
0,
0,
0,
0,
0,
0,
0,
1,
0,
0,
0,
0,
0,
0,
0,
0,
0,
0,
0,
0,
0,
0,
0,
0,
1,
0,
0,
0,
0,
0,
0,
0,
0,
0,
0,
0,
0,
0,
0,
0,
0,
0,
0,
0,
0,
1,
0,
0,
0,
0,
0,
0,
0,
0,
0,
0,
0,
0,
0,
0,
1,
0,
0,
0,
0,
1,
0,
0,
0,
0,
0,
0,
0,
0,
0,
0,
0,
0,
1,
0,
0,
0,
1,
0,
0,
0,
0,
0,
0,
0,
0,
0,
0,
0,
0,
0,
0,
0,
0,
0,
0,
0,
0,
0,
0,
0,
0,
0,
0,
0,
0,
0,
0,
0,
0,
0,
0,
0,
0,
0,
0,
0,
0,
0,
0,
0,
0,
0,
0,
0,
0,
0,
0,
0,
0,
0,
0,
0,
0,
0,
0,
0,
0,
0,
0,
0,
0,
0,
0,
0,
0,
0,
0,
0,
0,
0,
0,
0,
0,
0,
0,
0,
0,
0,
0,
0,
0,
0,
0,
0,
0,
0,
0,
0,
0,
0,
0,
0,
0,
0,
0,
0,
0,
0,
0,
0,
0,
0,
0,
0,
0,
0,
0,
0,
0,
0,
0,
0,
0,
0,
0,
0,
0,
0,
0,
0,
0,
0,
0,
0,
0,
0,
0,
0,
0,
0,
0,
0,
0,
0,
0,
0,
0,
0,
0,
0,
0,
0,
0,
0,
0,
0,
0,
0,
0,
0,
0,
0,
0,
0,
0,
0,
0,
0,
0,
0,
0,
0,
0,
0,
0,
0,
0,
0,
0,
0,
0,
0,
0,
0,
0,
0,
0,
0,
0,
0,
0,
0,
0,
0,
0,
0,
0,
0,
0,
0,
0,
0,
0,
0,
0,
0,
0,
0,
0,
0,
0,
0,
0,
0,
0,
0,
0,
0,
0,
0,
0,
0,
0,
0,
0,
0,
0,
0,
0,
0,
0,
0,
0,
0,
0,
0,
0,
0,
0,
0,
0,
0,
0,
0,
0,
0,
0,
0,
0,
0,
0,
0,
0,
0,
0,
0,
0,
0,
0,
0,
0,
0,
0,
0,
0,
0,
0,
0,
0,
0,
0,
0,
0,
0,
0,
0,
0,
0,
0,
0,
0,
0,
0,
0,
0,
0,
0,
0,
0,
0,
0,
0,
0,
0,
0,
0,
0,
0,
0,
0,
0,
0,
0,
0,
0,
0,
0,
0,
0,
0,
0,
0,
0,
0,
0,
0,
0,
0,
0,
0,
0,
0,
0,
0,
0,
0,
0,
0,
0,
0,
0,
0,
0,
0,
0,
0,
0,
0,
0,
0,
0,
0,
0,
0,
0,
0,
0,
0,
0,
0,
0,
0,
0,
0,
0,
0,
0,
0,
0,
0,
0,
0,
0,
0,
0,
0,
0,
0,
0,
0,
0,
0,
0,
0,
0,
0,
0,
0,
0,
0,
0,
0,
0,
0,
0,
0,
0,
0,
0,
0,
0,
0,
0,
0,
0,
0,
0,
0,
0,
0,
0,
0,
0,
0,
0,
0,
0,
0,
0,
0,
0,
0,
0,
0,
0,
0,
0,
0,
0,
0,
0,
0,
0,
0,
0,
0,
0,
0,
0,
0,
0,
0,
0,
0,
0,
0,
0,
0,
0,
0,
0,
0,
0,
0,
0,
0,
0,
0,
0,
0,
0,
0,
0,
0,
0,
0,
0,
0,
0,
0,
0,
0,
0,
0,
0,
0,
0,
0,
0,
0,
0,
0,
0,
0,
0,
0,
0,
0,
0,
0,
0,
0,
0,
0,
0,
0,
0,
0,
0,
0,
0,
0,
0,
0,
0,
0,
0,
0,
0,
0,
0,
0,
0,
0,
0,
0,
0,
0,
0,
0,
0,
0,
0,
0,
0,
0,
0,
0,
0,
0,
0,
0,
0,
0,
0,
0,
0,
0,
0,
0,
0,
0,
0,
0,
0,
0,
0,
0,
0,
0,
0,
0,
0,
0,
0,
0,
0,
0,
0,
0,
0,
0,
0,
0,
0,
0,
0,
0,
0,
0,
0,
0,
0,
0,
0,
0,
0,
0,
0,
0,
0,
0,
0,
0,
0,
0,
0,
0,
0,
0,
0,
0,
0,
0,
0,
0,
0,
0,
0,
0,
0,
0,
0,
0,
0,
0,
0,
0,
0,
0,
0,
0,
0,
0,
0,
0,
0,
0,
0,
0,
0,
0,
0,
0,
0,
#ENDOFDATA   :