File: N132962/Quantification/15 keV/Mengason MM2/MMM2 Pollucite[4][4].msa
#FORMAT      : EMSA/MAS Spectral Data File
#VERSION     : 1.0
#TITLE       : MMM2 Pollucite[4][all]
#DATE        : 29-SEP-2025
#TIME        : 00:39
#OWNER       : Unknown
#NPOINTS     : 4096
#NCOLUMNS    : 1
#XUNITS      : eV
#YUNITS      : counts
#DATATYPE    : Y
#XPERCHAN    : 9.99778
#OFFSET      : 1.69135
#BEAMKV      : 15
#SIGNALTYPE  : EDS
#ELEVANGLE   : 35
#AZIMANGLE   : 0
#LIVETIME    : 240.199
#REALTIME    : 257.458
#PROBECUR    : 1.21186
#TAUWIND     : 0
#TDEADLYR    : 0
#TACTLYR     : 0.045
#TALWIND     : 0.025
#CHOFFSET    : 0.0
#XLABEL      : Energy (eV)
#YLABEL      : Counts
#XPOSITION   : -20.64475
#YPOSITION   : 3.77452
#ZPOSITION   : 34.11879
#EDSDET      : SD
##SPECIMEN   : MMM2 Pollucite[4][all]
##DET_HASH   : 12273538-fd48-a23f-0a19-f1e6fa85caef
##CALIB_HASH : 6abaa72c-aa41-8738-0be9-f592914732f3
##WORKING    : 15.0 mm
##DET_NAME   : EDAX All
##DET_MODE   : MediumLE
#SPECTRUM    :
24,
39,
9,
23,
123,
509,
1659,
5106,
13631,
17342,
9603,
5406,
5673,
6974,
11349,
36492,
130889,
247363,
182209,
51486,
9702,
4685,
4933,
6091,
7013,
6143,
4972,
4492,
4794,
4961,
5913,
6578,
6788,
8651,
11974,
12218,
8292,
5544,
5016,
5090,
5046,
5294,
5366,
5532,
5605,
5809,
6831,
12301,
32538,
61472,
62648,
34079,
14214,
7654,
7117,
14103,
46952,
116320,
157019,
111458,
46189,
17178,
9022,
5591,
4327,
4186,
4320,
4604,
4294,
4000,
3862,
3867,
3938,
4018,
4094,
4310,
4223,
4137,
3839,
3761,
3660,
3808,
3824,
3852,
3801,
3894,
3799,
3673,
3582,
3520,
3579,
3459,
3477,
3433,
3545,
3521,
3535,
3375,
3407,
3340,
3264,
3244,
3374,
3160,
3234,
3084,
3168,
3390,
3249,
3259,
3251,
3172,
3099,
3010,
2980,
2974,
3004,
3030,
2936,
2825,
2784,
2787,
2805,
2915,
3086,
3450,
3855,
3876,
3483,
3031,
2838,
2694,
2671,
2626,
2596,
2728,
2804,
3090,
3424,
4984,
9562,
19010,
29896,
34216,
27428,
16324,
7617,
3875,
2803,
2660,
3256,
5033,
8946,
13899,
16470,
15529,
11880,
8078,
5807,
4381,
3336,
3182,
3946,
5239,
6587,
6819,
5466,
3826,
2729,
2152,
2033,
1916,
2015,
2322,
2798,
3326,
3669,
3474,
2759,
2237,
1925,
1842,
1935,
2152,
2427,
2379,
2237,
1998,
1769,
1628,
1667,
1619,
1674,
1558,
1488,
1466,
1443,
1370,
1462,
1483,
1436,
1416,
1408,
1372,
1372,
1360,
1383,
1406,
1355,
1277,
1314,
1331,
1403,
1385,
1356,
1356,
1285,
1250,
1223,
1196,
1231,
1177,
1227,
1219,
1215,
1132,
1140,
1182,
1113,
1176,
1069,
1132,
1120,
1083,
1069,
1141,
1130,
1129,
1039,
1041,
1044,
1058,
1040,
1037,
1051,
1029,
1079,
1022,
1002,
978,
1029,
999,
1050,
983,
928,
867,
920,
907,
900,
938,
844,
897,
902,
886,
889,
881,
833,
837,
881,
829,
836,
862,
854,
764,
791,
809,
848,
742,
791,
774,
754,
760,
753,
742,
763,
770,
755,
775,
710,
692,
734,
731,
732,
706,
715,
674,
647,
682,
621,
654,
656,
605,
627,
632,
623,
657,
612,
609,
616,
641,
651,
575,
606,
574,
590,
566,
607,
581,
579,
570,
531,
522,
534,
580,
548,
547,
481,
544,
529,
492,
489,
525,
500,
477,
486,
524,
450,
489,
457,
499,
469,
474,
405,
428,
437,
441,
442,
423,
416,
402,
411,
398,
409,
405,
379,
419,
409,
397,
353,
398,
370,
334,
359,
420,
329,
341,
344,
343,
298,
330,
355,
282,
304,
337,
303,
313,
280,
290,
317,
294,
267,
260,
299,
264,
270,
268,
286,
272,
266,
216,
263,
235,
244,
267,
239,
242,
237,
227,
228,
232,
220,
232,
248,
219,
200,
193,
192,
210,
201,
166,
166,
183,
170,
196,
173,
160,
175,
171,
152,
166,
172,
164,
155,
156,
162,
135,
149,
152,
152,
127,
111,
145,
131,
126,
111,
120,
130,
113,
106,
106,
127,
117,
105,
118,
107,
92,
95,
93,
76,
87,
91,
90,
86,
91,
77,
78,
79,
69,
49,
86,
76,
75,
53,
63,
60,
61,
64,
52,
40,
56,
68,
45,
46,
44,
40,
31,
35,
26,
35,
29,
27,
34,
26,
21,
18,
20,
23,
19,
20,
23,
14,
15,
8,
15,
7,
6,
3,
8,
2,
4,
3,
3,
1,
0,
0,
1,
1,
0,
1,
0,
2,
1,
3,
0,
1,
1,
0,
1,
0,
1,
0,
1,
0,
0,
0,
1,
1,
0,
0,
1,
0,
0,
0,
1,
0,
1,
0,
1,
1,
1,
0,
0,
1,
0,
0,
1,
1,
2,
1,
1,
0,
0,
0,
0,
0,
0,
0,
1,
0,
0,
2,
1,
0,
0,
0,
0,
0,
0,
0,
0,
0,
0,
0,
1,
0,
1,
0,
0,
0,
0,
0,
1,
0,
1,
0,
1,
1,
1,
1,
0,
0,
0,
0,
1,
0,
1,
0,
1,
0,
0,
0,
0,
0,
0,
0,
1,
0,
0,
1,
0,
0,
0,
1,
0,
0,
0,
0,
0,
0,
0,
1,
0,
0,
1,
2,
0,
0,
0,
1,
0,
0,
0,
0,
0,
0,
0,
0,
1,
0,
0,
0,
0,
1,
1,
0,
0,
0,
0,
0,
0,
1,
0,
0,
0,
0,
1,
0,
0,
0,
0,
0,
0,
0,
1,
0,
0,
0,
0,
0,
0,
0,
0,
0,
0,
0,
0,
0,
0,
0,
0,
0,
0,
0,
0,
0,
0,
0,
0,
0,
0,
0,
0,
0,
1,
0,
0,
0,
0,
0,
0,
0,
0,
0,
0,
0,
0,
0,
0,
0,
0,
0,
0,
0,
0,
0,
0,
0,
0,
0,
0,
0,
0,
0,
0,
0,
0,
0,
0,
0,
0,
0,
0,
0,
0,
0,
0,
0,
0,
0,
0,
0,
0,
0,
0,
0,
0,
0,
0,
0,
0,
0,
0,
0,
0,
0,
0,
0,
0,
0,
0,
0,
0,
0,
0,
0,
0,
0,
0,
0,
0,
0,
0,
0,
0,
0,
0,
0,
0,
0,
0,
0,
0,
0,
0,
0,
0,
0,
0,
1,
0,
0,
0,
0,
0,
0,
0,
0,
0,
0,
0,
0,
0,
0,
0,
0,
0,
0,
0,
0,
0,
0,
0,
0,
0,
0,
0,
0,
0,
0,
0,
0,
0,
0,
0,
0,
0,
0,
0,
0,
0,
0,
0,
0,
0,
0,
0,
0,
0,
0,
0,
0,
0,
0,
0,
0,
0,
0,
0,
0,
0,
0,
0,
0,
0,
0,
0,
0,
0,
0,
0,
0,
0,
0,
0,
0,
0,
0,
0,
0,
0,
0,
0,
0,
0,
0,
0,
0,
0,
0,
0,
0,
0,
0,
0,
0,
0,
0,
0,
0,
0,
0,
0,
0,
0,
0,
0,
0,
0,
0,
0,
0,
0,
0,
0,
0,
0,
0,
0,
0,
0,
0,
0,
0,
0,
0,
0,
0,
0,
0,
0,
0,
0,
0,
0,
0,
0,
0,
0,
0,
0,
0,
0,
0,
0,
0,
0,
0,
0,
0,
0,
0,
0,
0,
0,
0,
0,
0,
0,
0,
0,
0,
0,
0,
0,
0,
0,
0,
0,
0,
0,
0,
0,
0,
0,
0,
0,
0,
0,
0,
0,
0,
0,
0,
0,
0,
0,
0,
0,
0,
0,
0,
0,
0,
0,
0,
0,
0,
0,
0,
0,
0,
0,
0,
0,
0,
0,
0,
0,
0,
0,
0,
0,
0,
0,
0,
0,
0,
0,
0,
0,
0,
0,
0,
0,
0,
0,
0,
0,
0,
0,
0,
0,
0,
0,
0,
0,
0,
0,
0,
0,
0,
0,
0,
0,
0,
0,
0,
0,
0,
0,
0,
0,
0,
0,
0,
0,
0,
0,
0,
0,
0,
0,
0,
0,
0,
0,
0,
0,
0,
0,
0,
0,
0,
0,
0,
0,
0,
0,
0,
0,
0,
0,
0,
0,
0,
0,
0,
0,
0,
0,
0,
0,
0,
0,
0,
0,
0,
0,
0,
0,
0,
0,
0,
0,
0,
0,
0,
0,
0,
0,
0,
0,
0,
0,
0,
0,
0,
0,
0,
0,
0,
0,
0,
0,
0,
0,
0,
0,
0,
0,
0,
0,
0,
0,
0,
0,
0,
0,
0,
0,
0,
0,
0,
0,
0,
0,
0,
0,
0,
0,
0,
0,
0,
0,
0,
0,
0,
0,
0,
0,
0,
0,
0,
0,
0,
0,
0,
0,
0,
0,
0,
0,
0,
0,
0,
0,
0,
0,
0,
0,
0,
0,
0,
0,
0,
0,
0,
0,
0,
0,
0,
0,
0,
0,
0,
0,
0,
0,
0,
0,
0,
0,
0,
0,
0,
0,
0,
0,
0,
0,
0,
0,
0,
0,
0,
0,
0,
0,
0,
0,
0,
0,
0,
0,
0,
0,
0,
0,
0,
0,
0,
0,
0,
0,
0,
0,
0,
0,
0,
0,
0,
0,
0,
0,
0,
0,
0,
0,
0,
0,
0,
0,
0,
0,
0,
0,
0,
0,
0,
0,
0,
0,
0,
0,
0,
0,
0,
0,
0,
0,
0,
0,
0,
0,
0,
0,
0,
0,
0,
0,
0,
0,
0,
0,
0,
0,
0,
0,
0,
0,
0,
0,
0,
0,
0,
0,
0,
0,
0,
0,
0,
0,
0,
0,
0,
0,
0,
0,
0,
0,
0,
0,
0,
0,
0,
0,
0,
0,
0,
0,
0,
0,
0,
0,
0,
0,
0,
0,
0,
0,
0,
0,
0,
0,
0,
0,
0,
0,
0,
0,
0,
0,
0,
0,
0,
0,
0,
0,
0,
0,
0,
0,
0,
0,
0,
0,
0,
0,
0,
0,
0,
0,
0,
0,
0,
0,
0,
0,
0,
0,
0,
0,
0,
0,
0,
0,
#ENDOFDATA   :