File: N132962/Quantification/15 keV/Mengason MM2/MMM2 Orthoclaise[5][4].msa
#FORMAT      : EMSA/MAS Spectral Data File
#VERSION     : 1.0
#TITLE       : MMM2 Orthoclaise[5][all]
#DATE        : 28-SEP-2025
#TIME        : 21:02
#OWNER       : Unknown
#NPOINTS     : 4096
#NCOLUMNS    : 1
#XUNITS      : eV
#YUNITS      : counts
#DATATYPE    : Y
#XPERCHAN    : 9.99778
#OFFSET      : 1.69135
#BEAMKV      : 15
#SIGNALTYPE  : EDS
#ELEVANGLE   : 35
#AZIMANGLE   : 0
#LIVETIME    : 240.2512
#REALTIME    : 256.289
#PROBECUR    : 1.21333
#TAUWIND     : 0
#TDEADLYR    : 0
#TACTLYR     : 0.045
#TALWIND     : 0.025
#CHOFFSET    : 0.0
#XLABEL      : Energy (eV)
#YLABEL      : Counts
#XPOSITION   : -14.17993
#YPOSITION   : -3.89545
#ZPOSITION   : 34.11879
#EDSDET      : SD
##SPECIMEN   : MMM2 Orthoclaise[5][all]
##DET_HASH   : 12273538-fd48-a23f-0a19-f1e6fa85caef
##CALIB_HASH : 6abaa72c-aa41-8738-0be9-f592914732f3
##WORKING    : 15.0 mm
##DET_NAME   : EDAX All
##DET_MODE   : MediumLE
#SPECTRUM    :
22,
26,
8,
24,
93,
375,
1322,
4719,
12819,
14830,
7287,
3253,
3164,
3874,
7027,
26218,
98175,
185644,
134372,
35748,
5646,
3035,
3542,
4929,
5077,
3792,
3440,
3398,
3588,
3782,
3870,
3956,
4167,
4846,
5610,
5836,
5190,
4816,
4779,
4791,
4931,
4999,
5060,
5290,
5355,
5637,
6598,
13142,
38118,
73208,
74231,
40396,
15552,
8219,
7557,
18427,
70693,
181496,
245268,
173167,
69533,
23304,
10492,
5336,
3259,
2756,
2766,
2781,
2793,
2585,
2528,
2529,
2601,
2692,
3005,
3139,
3097,
2824,
2592,
2507,
2477,
2456,
2393,
2366,
2388,
2327,
2336,
2416,
2309,
2259,
2283,
2282,
2243,
2275,
2282,
2297,
2297,
2195,
2212,
2230,
2212,
2218,
2143,
2194,
2437,
2683,
3283,
6028,
14297,
30953,
46874,
46835,
31014,
13852,
5162,
2948,
2765,
3438,
4963,
6566,
7130,
5453,
3545,
2201,
1773,
1608,
1653,
1646,
1528,
1584,
1565,
1531,
1457,
1530,
1499,
1401,
1444,
1405,
1439,
1435,
1379,
1354,
1340,
1382,
1357,
1301,
1372,
1324,
1346,
1400,
1399,
1321,
1301,
1306,
1223,
1238,
1161,
1240,
1268,
1239,
1219,
1244,
1197,
1166,
1139,
1169,
1108,
1178,
1184,
1236,
1187,
1132,
1105,
1038,
1071,
1093,
1033,
969,
1025,
973,
979,
987,
983,
1012,
958,
976,
977,
881,
928,
901,
936,
912,
880,
920,
880,
873,
817,
808,
889,
829,
814,
800,
803,
851,
818,
812,
780,
781,
845,
897,
1202,
1713,
2275,
2635,
2399,
1946,
1410,
1003,
835,
742,
728,
722,
699,
662,
704,
635,
605,
689,
637,
700,
657,
638,
722,
749,
776,
874,
816,
724,
694,
658,
601,
560,
572,
589,
573,
599,
538,
582,
538,
541,
481,
598,
509,
538,
518,
515,
471,
483,
502,
490,
513,
504,
478,
502,
479,
479,
457,
454,
442,
444,
427,
442,
428,
422,
438,
404,
439,
456,
405,
397,
401,
392,
429,
399,
372,
380,
356,
376,
392,
394,
350,
339,
356,
362,
352,
346,
369,
358,
357,
341,
323,
333,
341,
315,
338,
307,
268,
305,
284,
293,
291,
318,
296,
264,
308,
290,
303,
283,
304,
285,
250,
285,
270,
284,
281,
260,
263,
251,
265,
263,
273,
242,
281,
233,
226,
216,
244,
208,
226,
232,
228,
220,
221,
204,
200,
208,
176,
222,
184,
213,
216,
193,
199,
184,
187,
192,
192,
186,
203,
169,
184,
181,
190,
175,
168,
165,
178,
178,
159,
175,
126,
175,
168,
155,
146,
136,
151,
140,
124,
147,
132,
118,
142,
133,
134,
124,
134,
115,
135,
127,
121,
96,
109,
95,
142,
124,
109,
93,
111,
115,
109,
98,
100,
95,
104,
95,
115,
98,
88,
85,
84,
100,
88,
73,
84,
74,
81,
72,
90,
72,
65,
86,
76,
60,
62,
65,
54,
76,
72,
61,
56,
57,
54,
47,
58,
42,
63,
56,
55,
51,
55,
51,
57,
41,
47,
48,
39,
38,
37,
42,
43,
29,
37,
34,
31,
38,
32,
39,
38,
33,
33,
30,
25,
27,
30,
24,
26,
20,
23,
23,
25,
21,
16,
19,
16,
16,
16,
13,
12,
9,
9,
11,
11,
8,
6,
11,
10,
10,
10,
3,
4,
8,
5,
0,
2,
3,
3,
1,
1,
2,
2,
0,
0,
1,
0,
0,
1,
0,
0,
0,
0,
0,
2,
0,
0,
0,
2,
1,
0,
0,
0,
1,
1,
0,
0,
0,
0,
0,
0,
0,
0,
0,
1,
0,
0,
0,
0,
0,
0,
0,
0,
0,
0,
0,
0,
0,
0,
0,
0,
0,
0,
0,
0,
0,
0,
0,
0,
0,
0,
0,
0,
0,
0,
0,
1,
0,
0,
0,
0,
0,
0,
0,
0,
0,
1,
0,
0,
0,
0,
0,
0,
1,
0,
0,
0,
0,
0,
0,
1,
0,
0,
0,
0,
0,
0,
1,
0,
0,
0,
1,
0,
0,
0,
0,
0,
0,
0,
0,
0,
0,
0,
0,
0,
0,
0,
0,
0,
0,
0,
0,
0,
0,
0,
0,
0,
0,
0,
0,
0,
0,
0,
0,
0,
0,
0,
0,
0,
0,
0,
0,
0,
0,
0,
0,
0,
0,
0,
0,
0,
0,
1,
0,
0,
0,
0,
0,
0,
0,
0,
0,
0,
0,
0,
0,
0,
0,
0,
0,
0,
0,
0,
0,
0,
0,
0,
0,
0,
0,
0,
0,
0,
0,
0,
0,
0,
0,
0,
0,
0,
0,
0,
0,
0,
0,
0,
0,
0,
0,
0,
0,
0,
0,
0,
0,
0,
0,
0,
0,
0,
0,
0,
0,
0,
0,
0,
0,
0,
0,
0,
0,
0,
0,
0,
0,
0,
0,
0,
0,
0,
0,
0,
0,
0,
0,
0,
0,
0,
0,
0,
0,
0,
0,
0,
0,
0,
0,
0,
0,
0,
0,
0,
0,
0,
0,
0,
0,
0,
0,
0,
0,
0,
0,
0,
0,
0,
0,
0,
0,
0,
0,
0,
0,
0,
0,
0,
0,
0,
0,
0,
0,
0,
0,
0,
0,
0,
0,
0,
0,
0,
0,
0,
0,
0,
0,
0,
0,
0,
0,
0,
0,
0,
0,
0,
0,
0,
0,
0,
0,
0,
0,
0,
0,
0,
0,
0,
0,
0,
0,
0,
0,
0,
0,
0,
0,
0,
0,
0,
0,
0,
0,
0,
0,
0,
0,
0,
0,
0,
0,
0,
0,
0,
0,
0,
0,
0,
0,
0,
0,
0,
0,
0,
0,
0,
0,
0,
0,
0,
0,
0,
0,
0,
0,
0,
0,
0,
0,
0,
0,
0,
0,
0,
0,
0,
0,
0,
0,
0,
0,
0,
0,
0,
0,
0,
0,
0,
0,
0,
0,
0,
0,
0,
0,
0,
0,
0,
0,
0,
0,
0,
0,
0,
0,
0,
0,
0,
0,
0,
0,
0,
0,
0,
0,
0,
0,
0,
0,
0,
0,
0,
0,
0,
0,
0,
0,
0,
0,
0,
0,
0,
0,
0,
0,
0,
0,
0,
0,
0,
0,
0,
0,
0,
0,
0,
0,
0,
0,
0,
0,
0,
0,
0,
0,
0,
0,
0,
0,
0,
0,
0,
0,
0,
0,
0,
0,
0,
0,
0,
0,
0,
0,
0,
0,
0,
0,
0,
0,
0,
0,
0,
0,
0,
0,
0,
0,
0,
0,
0,
0,
0,
0,
0,
0,
0,
0,
0,
0,
0,
0,
0,
0,
0,
0,
0,
0,
0,
0,
0,
0,
0,
0,
0,
0,
0,
0,
0,
0,
0,
0,
0,
0,
0,
0,
0,
0,
0,
0,
0,
0,
0,
0,
0,
0,
0,
0,
0,
0,
0,
0,
0,
0,
0,
0,
0,
0,
0,
0,
0,
0,
0,
0,
0,
0,
0,
0,
0,
0,
0,
0,
0,
0,
0,
0,
0,
0,
0,
0,
0,
0,
0,
0,
0,
0,
0,
0,
0,
0,
0,
0,
0,
0,
0,
0,
0,
0,
0,
0,
0,
0,
0,
0,
0,
0,
0,
0,
0,
0,
0,
0,
0,
0,
0,
0,
0,
0,
0,
0,
0,
0,
0,
0,
0,
0,
0,
0,
0,
0,
0,
0,
0,
0,
0,
0,
0,
0,
0,
0,
0,
0,
0,
0,
0,
0,
0,
0,
0,
0,
0,
0,
0,
0,
0,
0,
0,
0,
0,
0,
0,
0,
0,
0,
0,
0,
0,
0,
0,
0,
0,
0,
0,
0,
0,
0,
0,
0,
0,
0,
0,
0,
0,
0,
0,
0,
0,
0,
0,
0,
0,
0,
0,
0,
0,
0,
0,
0,
0,
0,
0,
0,
0,
0,
0,
0,
0,
0,
0,
0,
0,
0,
0,
0,
0,
0,
0,
0,
0,
0,
0,
0,
0,
0,
0,
0,
0,
0,
0,
0,
0,
0,
0,
0,
0,
0,
0,
0,
0,
0,
0,
0,
0,
0,
0,
0,
0,
0,
0,
0,
0,
0,
0,
0,
0,
0,
0,
0,
0,
0,
0,
0,
0,
0,
0,
0,
0,
0,
0,
0,
0,
0,
0,
0,
0,
0,
0,
0,
0,
0,
0,
0,
0,
0,
0,
0,
0,
0,
0,
0,
0,
0,
0,
0,
0,
0,
0,
0,
0,
0,
0,
0,
0,
0,
0,
0,
0,
0,
0,
0,
0,
0,
0,
0,
0,
0,
0,
0,
0,
0,
0,
0,
0,
0,
0,
0,
0,
0,
0,
0,
0,
0,
0,
0,
0,
0,
0,
0,
0,
0,
0,
0,
0,
0,
0,
0,
0,
0,
0,
0,
0,
0,
0,
0,
0,
0,
0,
0,
0,
0,
0,
0,
0,
0,
0,
0,
0,
0,
0,
0,
0,
0,
0,
0,
0,
0,
0,
0,
0,
0,
#ENDOFDATA   :