File: N132962/Quantification/15 keV/Mengason MM2/MMM2 Uvarovite[2][4].msa
#FORMAT      : EMSA/MAS Spectral Data File
#VERSION     : 1.0
#TITLE       : MMM2 Uvarovite[2][all]
#DATE        : 28-SEP-2025
#TIME        : 22:11
#OWNER       : Unknown
#NPOINTS     : 4096
#NCOLUMNS    : 1
#XUNITS      : eV
#YUNITS      : counts
#DATATYPE    : Y
#XPERCHAN    : 9.99778
#OFFSET      : 1.69135
#BEAMKV      : 15
#SIGNALTYPE  : EDS
#ELEVANGLE   : 35
#AZIMANGLE   : 0
#LIVETIME    : 240.189
#REALTIME    : 254.372
#PROBECUR    : 1.21223
#TAUWIND     : 0
#TDEADLYR    : 0
#TACTLYR     : 0.045
#TALWIND     : 0.025
#CHOFFSET    : 0.0
#XLABEL      : Energy (eV)
#YLABEL      : Counts
#XPOSITION   : -9.28425
#YPOSITION   : -0.12136
#ZPOSITION   : 34.11879
#EDSDET      : SD
##SPECIMEN   : MMM2 Uvarovite[2][all]
##DET_HASH   : 12273538-fd48-a23f-0a19-f1e6fa85caef
##CALIB_HASH : 6abaa72c-aa41-8738-0be9-f592914732f3
##WORKING    : 15.0 mm
##DET_NAME   : EDAX All
##DET_MODE   : MediumLE
#SPECTRUM    :
29,
39,
12,
16,
113,
419,
1367,
4749,
14147,
20727,
14033,
7576,
4809,
4386,
6538,
20304,
71948,
133664,
97767,
29745,
6815,
3209,
3047,
3563,
3660,
3272,
3138,
3271,
3492,
3622,
3631,
3806,
3976,
3991,
4484,
4373,
4400,
4465,
4503,
4766,
4940,
5023,
5120,
5231,
5329,
5295,
5721,
8220,
16705,
29273,
29914,
17566,
8876,
6184,
6495,
12463,
42399,
104555,
140638,
100345,
40982,
15531,
8255,
5446,
4494,
4442,
4097,
3713,
3523,
3427,
3426,
3336,
3402,
3368,
3504,
3627,
3583,
3280,
3192,
3271,
3189,
3051,
3043,
3024,
3060,
3049,
2956,
2983,
2866,
2824,
2912,
2814,
2856,
2869,
2745,
2781,
2696,
2649,
2697,
2709,
2604,
2603,
2558,
2526,
2529,
2546,
2446,
2524,
2492,
2463,
2432,
2309,
2423,
2335,
2373,
2523,
2627,
3001,
3643,
5788,
14574,
35599,
66232,
83104,
69284,
39593,
15614,
5500,
2729,
2419,
2874,
4379,
7393,
10750,
11538,
9477,
5760,
3171,
2042,
1730,
1873,
1744,
1751,
1585,
1588,
1551,
1656,
1792,
2246,
2954,
3289,
3180,
2596,
1987,
1550,
1491,
1384,
1400,
1452,
1471,
1448,
1482,
1551,
1658,
1874,
1902,
1765,
1683,
1379,
1321,
1297,
1374,
1358,
1333,
1361,
1622,
2294,
4577,
9147,
15227,
19513,
18912,
13888,
7699,
3650,
1889,
1276,
1219,
1186,
1157,
1062,
1147,
1167,
1239,
1346,
1739,
2352,
3109,
3386,
3116,
2389,
1823,
1247,
1012,
992,
923,
915,
934,
986,
996,
1137,
1369,
1557,
1687,
1602,
1457,
1130,
988,
865,
835,
806,
885,
787,
846,
780,
793,
787,
827,
769,
783,
769,
780,
781,
834,
834,
853,
865,
809,
757,
760,
688,
714,
661,
723,
718,
635,
677,
751,
689,
648,
644,
656,
616,
559,
597,
639,
615,
629,
601,
647,
605,
577,
618,
548,
586,
541,
544,
568,
546,
562,
530,
537,
520,
581,
537,
545,
496,
506,
479,
511,
502,
504,
524,
503,
470,
500,
465,
492,
479,
466,
479,
459,
441,
459,
445,
490,
444,
401,
413,
375,
433,
378,
419,
411,
422,
413,
385,
409,
373,
386,
399,
355,
382,
340,
334,
375,
340,
374,
366,
337,
347,
313,
287,
303,
314,
330,
296,
351,
308,
332,
312,
310,
298,
307,
299,
298,
255,
290,
278,
300,
273,
292,
251,
238,
268,
264,
262,
265,
250,
242,
234,
227,
257,
238,
231,
243,
271,
226,
221,
215,
268,
213,
228,
237,
232,
231,
206,
208,
192,
189,
211,
224,
195,
188,
192,
184,
192,
186,
164,
162,
171,
188,
153,
167,
152,
151,
182,
156,
127,
155,
157,
147,
138,
121,
161,
124,
135,
127,
143,
120,
121,
130,
120,
136,
121,
111,
119,
108,
101,
110,
99,
110,
94,
103,
94,
88,
81,
95,
81,
98,
105,
103,
89,
86,
85,
82,
90,
76,
78,
81,
85,
63,
72,
72,
66,
74,
67,
80,
76,
59,
61,
71,
48,
75,
60,
58,
42,
57,
62,
42,
43,
46,
29,
37,
44,
42,
39,
40,
40,
45,
47,
35,
38,
28,
43,
26,
25,
37,
33,
19,
26,
23,
23,
22,
24,
14,
24,
24,
13,
15,
12,
14,
11,
11,
6,
13,
12,
6,
7,
8,
11,
6,
6,
4,
6,
2,
5,
3,
4,
0,
1,
0,
0,
0,
0,
0,
0,
0,
0,
0,
0,
1,
1,
4,
2,
0,
1,
0,
0,
1,
0,
1,
1,
1,
0,
0,
0,
1,
1,
1,
0,
0,
1,
1,
0,
1,
0,
0,
0,
0,
0,
0,
0,
0,
1,
0,
0,
0,
0,
1,
0,
0,
0,
0,
0,
0,
0,
0,
0,
0,
0,
0,
0,
0,
0,
0,
0,
0,
1,
1,
0,
0,
0,
0,
0,
0,
0,
0,
0,
0,
0,
0,
0,
0,
0,
1,
0,
0,
0,
0,
0,
0,
0,
0,
0,
0,
0,
1,
0,
0,
0,
0,
0,
0,
1,
1,
1,
1,
0,
1,
0,
0,
0,
0,
0,
0,
0,
0,
0,
0,
0,
1,
0,
0,
1,
0,
0,
0,
0,
0,
0,
0,
0,
0,
0,
0,
0,
0,
0,
0,
0,
0,
0,
0,
0,
0,
0,
0,
0,
0,
0,
0,
0,
0,
0,
0,
0,
0,
0,
0,
0,
0,
0,
0,
0,
0,
0,
0,
0,
0,
0,
0,
0,
0,
0,
0,
0,
0,
0,
0,
0,
0,
0,
0,
0,
0,
0,
0,
0,
0,
0,
0,
0,
0,
0,
0,
0,
0,
0,
0,
0,
0,
0,
0,
0,
0,
0,
0,
0,
0,
0,
0,
0,
0,
0,
0,
0,
0,
0,
0,
0,
0,
0,
0,
0,
0,
0,
0,
0,
0,
0,
0,
0,
0,
0,
0,
0,
0,
0,
0,
0,
0,
0,
0,
0,
0,
0,
0,
0,
0,
1,
0,
0,
0,
0,
0,
0,
0,
0,
0,
0,
0,
0,
0,
0,
0,
0,
0,
0,
0,
0,
0,
0,
0,
0,
0,
0,
0,
0,
0,
0,
0,
0,
0,
0,
0,
0,
0,
0,
0,
0,
0,
0,
0,
0,
0,
0,
0,
0,
0,
0,
0,
0,
0,
0,
0,
0,
0,
0,
0,
0,
0,
0,
0,
0,
0,
0,
0,
0,
0,
0,
0,
0,
0,
0,
0,
0,
0,
0,
0,
0,
0,
0,
0,
0,
0,
0,
0,
0,
0,
0,
0,
0,
0,
0,
0,
0,
0,
0,
0,
0,
0,
0,
0,
0,
0,
0,
0,
0,
0,
0,
0,
0,
0,
0,
0,
0,
0,
0,
0,
0,
0,
0,
0,
0,
0,
0,
0,
0,
0,
0,
0,
0,
0,
0,
0,
0,
0,
0,
0,
0,
0,
0,
0,
0,
0,
0,
0,
0,
0,
0,
0,
0,
0,
0,
0,
0,
0,
0,
0,
0,
0,
0,
0,
0,
0,
0,
0,
0,
0,
0,
0,
0,
0,
0,
0,
0,
0,
0,
0,
0,
0,
0,
0,
0,
0,
0,
0,
0,
0,
0,
0,
0,
0,
0,
0,
0,
0,
0,
0,
0,
0,
0,
0,
0,
0,
0,
0,
0,
0,
0,
0,
0,
0,
0,
0,
0,
0,
0,
0,
0,
0,
0,
0,
0,
0,
0,
0,
0,
0,
0,
0,
0,
0,
0,
0,
0,
0,
0,
0,
0,
0,
0,
0,
0,
0,
0,
0,
0,
0,
0,
0,
0,
0,
0,
0,
0,
0,
0,
0,
0,
0,
0,
0,
0,
0,
0,
0,
0,
0,
0,
0,
0,
0,
0,
0,
0,
0,
0,
0,
0,
0,
0,
0,
0,
0,
0,
0,
0,
0,
0,
0,
0,
0,
0,
0,
0,
0,
0,
0,
0,
0,
0,
0,
0,
0,
0,
0,
0,
0,
0,
0,
0,
0,
0,
0,
0,
0,
0,
0,
0,
0,
0,
0,
0,
0,
0,
0,
0,
0,
0,
0,
0,
0,
0,
0,
0,
0,
0,
0,
0,
0,
0,
0,
0,
0,
0,
0,
0,
0,
0,
0,
0,
0,
0,
0,
0,
0,
0,
0,
0,
0,
0,
0,
0,
0,
0,
0,
0,
0,
0,
0,
0,
0,
0,
0,
0,
0,
0,
0,
0,
0,
0,
0,
0,
0,
0,
0,
0,
0,
0,
0,
0,
0,
0,
0,
0,
0,
0,
0,
0,
0,
0,
0,
0,
0,
0,
0,
0,
0,
0,
0,
0,
0,
0,
0,
0,
0,
0,
0,
0,
0,
0,
0,
0,
0,
0,
0,
0,
0,
0,
0,
0,
0,
0,
0,
0,
0,
0,
0,
0,
0,
0,
0,
0,
0,
0,
0,
0,
0,
0,
0,
0,
0,
0,
0,
0,
0,
0,
0,
0,
0,
0,
0,
0,
0,
0,
0,
0,
0,
0,
0,
0,
0,
0,
0,
0,
0,
0,
0,
0,
0,
0,
0,
0,
0,
0,
0,
0,
0,
0,
0,
0,
0,
0,
0,
0,
0,
0,
0,
0,
0,
0,
0,
0,
0,
0,
0,
0,
0,
0,
0,
0,
0,
0,
0,
0,
0,
0,
0,
0,
0,
0,
0,
0,
0,
0,
0,
0,
0,
0,
0,
0,
0,
0,
0,
0,
0,
0,
0,
0,
0,
0,
0,
0,
0,
0,
0,
0,
0,
0,
0,
0,
0,
0,
0,
0,
0,
0,
0,
0,
0,
0,
0,
0,
0,
0,
0,
0,
0,
0,
0,
0,
0,
0,
0,
0,
0,
0,
0,
0,
0,
0,
0,
0,
0,
0,
0,
0,
0,
0,
0,
0,
0,
0,
0,
0,
0,
0,
0,
0,
0,
0,
0,
0,
0,
0,
0,
0,
0,
0,
0,
0,
0,
0,
0,
#ENDOFDATA   :