File: N132962/Quantification/15 keV/Mengason MM2/MMM2 Pyrope[7][4].msa
#FORMAT      : EMSA/MAS Spectral Data File
#VERSION     : 1.0
#TITLE       : MMM2 Pyrope[7][all]
#DATE        : 28-SEP-2025
#TIME        : 21:56
#OWNER       : Unknown
#NPOINTS     : 4096
#NCOLUMNS    : 1
#XUNITS      : eV
#YUNITS      : counts
#DATATYPE    : Y
#XPERCHAN    : 9.99778
#OFFSET      : 1.69135
#BEAMKV      : 15
#SIGNALTYPE  : EDS
#ELEVANGLE   : 35
#AZIMANGLE   : 0
#LIVETIME    : 240.284
#REALTIME    : 256.744
#PROBECUR    : 1.21223
#TAUWIND     : 0
#TDEADLYR    : 0
#TACTLYR     : 0.045
#TALWIND     : 0.025
#CHOFFSET    : 0.0
#XLABEL      : Energy (eV)
#YLABEL      : Counts
#XPOSITION   : -13.91385
#YPOSITION   : -1.86823
#ZPOSITION   : 34.11879
#EDSDET      : SD
##SPECIMEN   : MMM2 Pyrope[7][all]
##D2STDCMP   : Pyrope,(O:47.6258),(Mg:18.0873),(Al:13.3861),(Si:20.9007),5.0
##DET_HASH   : 12273538-fd48-a23f-0a19-f1e6fa85caef
##CALIB_HASH : 6abaa72c-aa41-8738-0be9-f592914732f3
##WORKING    : 15.0 mm
##DET_NAME   : EDAX All
##DET_MODE   : MediumLE
#SPECTRUM    :
21,
20,
6,
14,
98,
352,
1123,
3913,
11067,
14668,
8060,
4161,
4137,
5331,
9785,
35235,
132112,
249566,
180667,
47970,
7845,
4429,
6205,
10060,
10044,
5909,
3864,
3522,
3589,
3693,
3819,
3800,
4165,
4555,
5164,
5245,
5260,
5283,
6110,
11124,
36067,
87602,
105311,
59831,
18947,
7043,
6227,
13711,
42626,
85560,
86029,
45323,
15434,
6750,
5714,
11777,
42138,
106164,
143626,
100959,
41289,
14739,
7317,
4353,
3226,
2927,
2988,
2984,
2894,
2671,
2550,
2600,
2658,
2662,
2880,
3137,
2925,
2802,
2536,
2510,
2503,
2461,
2464,
2593,
2439,
2439,
2387,
2351,
2305,
2300,
2392,
2339,
2268,
2390,
2178,
2197,
2199,
2200,
2285,
2285,
2341,
2194,
2165,
2126,
1979,
2095,
2067,
2162,
2132,
2050,
1981,
1886,
1860,
1952,
1871,
1894,
1971,
1987,
1919,
2173,
3167,
5765,
9495,
11239,
9658,
6198,
3208,
1983,
1682,
1679,
1714,
1889,
2232,
2652,
2670,
2447,
2055,
1652,
1439,
1495,
1512,
1459,
1404,
1380,
1382,
1379,
1325,
1386,
1558,
1815,
1950,
1865,
1681,
1489,
1246,
1347,
1252,
1265,
1189,
1187,
1187,
1212,
1260,
1300,
1212,
1302,
1176,
1181,
1112,
1114,
1081,
1101,
1078,
1035,
1028,
1112,
1072,
1206,
1466,
1858,
2095,
2038,
1768,
1403,
1096,
981,
969,
980,
960,
932,
859,
899,
949,
944,
1025,
1122,
1260,
1300,
1249,
1117,
956,
866,
888,
860,
815,
797,
822,
909,
944,
1378,
2262,
3928,
6087,
7096,
6709,
5045,
3081,
1726,
1050,
790,
681,
684,
685,
647,
728,
639,
667,
718,
681,
682,
673,
790,
905,
1150,
1372,
1494,
1315,
1183,
894,
707,
633,
606,
566,
542,
569,
549,
569,
583,
539,
556,
569,
539,
523,
498,
525,
494,
466,
495,
455,
505,
482,
488,
485,
477,
449,
491,
454,
449,
479,
468,
455,
442,
420,
468,
424,
444,
432,
395,
432,
418,
386,
386,
385,
408,
376,
385,
354,
398,
377,
346,
343,
390,
355,
359,
379,
312,
319,
352,
346,
330,
345,
320,
335,
323,
334,
343,
300,
273,
306,
297,
291,
344,
277,
287,
302,
276,
264,
303,
309,
265,
277,
270,
280,
271,
291,
272,
275,
286,
263,
275,
261,
241,
249,
245,
214,
235,
228,
246,
242,
211,
230,
228,
225,
205,
235,
214,
195,
179,
187,
204,
200,
186,
206,
211,
214,
196,
171,
186,
160,
207,
190,
176,
153,
164,
165,
157,
200,
157,
169,
151,
152,
176,
166,
175,
132,
145,
131,
131,
126,
163,
134,
147,
147,
122,
114,
145,
106,
121,
125,
120,
99,
124,
101,
98,
120,
107,
111,
105,
109,
104,
112,
109,
93,
114,
111,
98,
90,
75,
77,
107,
78,
83,
81,
91,
80,
74,
73,
87,
84,
85,
75,
68,
75,
74,
84,
81,
64,
74,
49,
62,
58,
59,
63,
60,
49,
68,
54,
44,
47,
61,
52,
44,
46,
38,
44,
43,
38,
45,
33,
40,
39,
30,
34,
37,
29,
37,
30,
31,
36,
35,
30,
26,
30,
24,
31,
22,
24,
21,
23,
16,
24,
20,
18,
21,
21,
20,
22,
16,
13,
10,
10,
12,
7,
13,
9,
10,
8,
8,
11,
3,
3,
4,
7,
5,
2,
3,
4,
2,
0,
0,
0,
1,
0,
0,
1,
0,
0,
0,
0,
2,
0,
0,
1,
1,
0,
0,
0,
0,
0,
0,
0,
1,
0,
0,
0,
0,
0,
0,
0,
0,
0,
0,
0,
0,
0,
0,
0,
0,
0,
0,
0,
0,
0,
0,
0,
0,
0,
0,
0,
0,
0,
0,
0,
0,
0,
0,
0,
1,
0,
0,
0,
0,
0,
0,
0,
0,
0,
0,
0,
0,
0,
0,
0,
0,
0,
0,
0,
0,
0,
0,
0,
0,
0,
0,
0,
0,
0,
0,
0,
0,
1,
0,
0,
0,
0,
0,
0,
0,
0,
0,
0,
0,
0,
0,
0,
0,
0,
0,
0,
1,
0,
0,
0,
0,
0,
0,
0,
0,
0,
0,
0,
0,
0,
0,
0,
0,
0,
0,
0,
0,
0,
0,
0,
0,
0,
0,
0,
0,
0,
0,
0,
0,
0,
0,
0,
0,
0,
0,
0,
0,
0,
0,
0,
0,
0,
0,
0,
0,
0,
0,
0,
0,
0,
0,
0,
0,
0,
0,
0,
0,
0,
0,
1,
0,
0,
0,
0,
0,
0,
0,
0,
0,
0,
0,
0,
1,
0,
0,
0,
0,
0,
0,
0,
0,
0,
0,
0,
0,
0,
0,
0,
0,
0,
0,
0,
0,
0,
0,
0,
0,
0,
0,
0,
0,
0,
0,
0,
0,
0,
0,
0,
0,
0,
0,
0,
0,
0,
1,
0,
0,
0,
0,
0,
0,
0,
0,
0,
0,
0,
0,
0,
0,
0,
0,
0,
0,
0,
0,
0,
0,
0,
0,
0,
0,
0,
0,
0,
0,
0,
0,
0,
0,
0,
0,
0,
0,
0,
0,
0,
0,
0,
0,
0,
0,
0,
0,
0,
0,
0,
0,
0,
0,
0,
0,
0,
0,
0,
0,
0,
0,
0,
0,
0,
0,
0,
0,
0,
0,
0,
0,
0,
0,
0,
0,
0,
0,
0,
0,
0,
0,
0,
0,
0,
0,
0,
0,
0,
0,
0,
0,
0,
0,
0,
0,
0,
0,
0,
0,
0,
0,
0,
0,
0,
0,
0,
0,
0,
0,
0,
0,
0,
0,
0,
0,
0,
0,
0,
0,
0,
0,
0,
0,
0,
0,
0,
0,
0,
0,
0,
0,
0,
0,
0,
0,
0,
0,
0,
0,
0,
0,
0,
0,
0,
0,
0,
0,
0,
0,
0,
0,
0,
0,
0,
0,
0,
0,
0,
0,
0,
0,
0,
0,
0,
0,
0,
0,
0,
0,
0,
0,
0,
0,
0,
0,
0,
0,
0,
0,
0,
0,
0,
0,
0,
0,
0,
0,
0,
0,
0,
0,
0,
0,
0,
0,
0,
0,
0,
0,
0,
0,
0,
0,
0,
0,
0,
0,
0,
0,
0,
0,
0,
0,
0,
0,
0,
0,
0,
0,
0,
0,
0,
0,
0,
0,
0,
0,
0,
0,
0,
0,
0,
0,
0,
0,
0,
0,
0,
0,
0,
0,
0,
0,
0,
0,
0,
0,
0,
0,
0,
0,
0,
0,
0,
0,
0,
0,
0,
0,
0,
0,
0,
0,
0,
0,
0,
0,
0,
0,
0,
0,
0,
0,
0,
0,
0,
0,
0,
0,
0,
0,
0,
0,
0,
0,
0,
0,
0,
0,
0,
0,
0,
0,
0,
0,
0,
0,
0,
0,
0,
0,
0,
0,
0,
0,
0,
0,
0,
0,
0,
0,
0,
0,
0,
0,
0,
0,
0,
0,
0,
0,
0,
0,
0,
0,
0,
0,
0,
0,
0,
0,
0,
0,
0,
0,
0,
0,
0,
0,
0,
0,
0,
0,
0,
0,
0,
0,
0,
0,
0,
0,
0,
0,
0,
0,
0,
0,
0,
0,
0,
0,
0,
0,
0,
0,
0,
0,
0,
0,
0,
0,
0,
0,
0,
0,
0,
0,
0,
0,
0,
0,
0,
0,
0,
0,
0,
0,
0,
0,
0,
0,
0,
0,
0,
0,
0,
0,
0,
0,
0,
0,
0,
0,
0,
0,
0,
0,
0,
0,
0,
0,
0,
0,
0,
0,
0,
0,
0,
0,
0,
0,
0,
0,
0,
0,
0,
0,
0,
0,
0,
0,
0,
0,
0,
0,
0,
0,
0,
0,
0,
0,
0,
0,
0,
0,
0,
0,
0,
0,
0,
0,
0,
0,
0,
0,
0,
0,
0,
0,
0,
0,
0,
0,
0,
0,
0,
0,
0,
0,
0,
0,
0,
0,
0,
0,
0,
0,
0,
0,
0,
0,
0,
0,
0,
0,
0,
0,
0,
0,
0,
0,
0,
0,
0,
0,
0,
0,
0,
0,
0,
0,
0,
0,
0,
0,
0,
0,
0,
0,
0,
0,
0,
0,
0,
0,
0,
0,
0,
0,
0,
0,
0,
0,
0,
0,
0,
0,
0,
0,
0,
0,
0,
0,
0,
0,
0,
0,
0,
0,
0,
0,
0,
0,
0,
0,
0,
0,
0,
0,
0,
0,
0,
0,
0,
0,
0,
0,
0,
0,
0,
0,
0,
0,
0,
0,
0,
0,
0,
0,
0,
0,
0,
0,
0,
0,
0,
0,
0,
0,
0,
0,
0,
0,
0,
0,
0,
0,
0,
0,
0,
0,
0,
0,
0,
0,
0,
0,
0,
0,
0,
0,
0,
0,
0,
0,
0,
0,
0,
0,
0,
0,
0,
0,
0,
0,
0,
0,
0,
0,
0,
0,
0,
0,
0,
0,
0,
0,
0,
0,
0,
0,
0,
0,
0,
0,
0,
0,
#ENDOFDATA   :