File: N132962/Quantification/15 keV/Mengason MM2/MMM2 Olivine[5][4].msa
#FORMAT      : EMSA/MAS Spectral Data File
#VERSION     : 1.0
#TITLE       : MMM2 Olivine[5][all]
#DATE        : 28-SEP-2025
#TIME        : 23:06
#OWNER       : Unknown
#NPOINTS     : 4096
#NCOLUMNS    : 1
#XUNITS      : eV
#YUNITS      : counts
#DATATYPE    : Y
#XPERCHAN    : 9.99778
#OFFSET      : 1.69135
#BEAMKV      : 15
#SIGNALTYPE  : EDS
#ELEVANGLE   : 35
#AZIMANGLE   : 0
#LIVETIME    : 240.471
#REALTIME    : 258.347
#PROBECUR    : 1.2132
#TAUWIND     : 0
#TDEADLYR    : 0
#TACTLYR     : 0.045
#TALWIND     : 0.025
#CHOFFSET    : 0.0
#XLABEL      : Energy (eV)
#YLABEL      : Counts
#XPOSITION   : -21.24651
#YPOSITION   : 2.44463
#ZPOSITION   : 34.11879
#EDSDET      : SD
##SPECIMEN   : MMM2 Olivine[5][all]
##DET_HASH   : 12273538-fd48-a23f-0a19-f1e6fa85caef
##CALIB_HASH : 6abaa72c-aa41-8738-0be9-f592914732f3
##WORKING    : 15.0 mm
##DET_NAME   : EDAX All
##DET_MODE   : MediumLE
#SPECTRUM    :
31,
42,
13,
17,
112,
378,
1216,
3829,
10390,
13466,
7223,
3815,
4206,
5488,
10676,
39049,
148456,
282625,
204643,
53863,
8389,
4494,
6341,
10030,
10102,
6133,
4211,
4069,
4615,
4730,
4316,
4313,
4496,
4908,
5347,
5797,
6113,
6739,
8906,
22031,
86457,
217091,
261800,
146320,
41184,
8842,
4010,
3512,
3424,
3800,
3911,
3999,
3937,
4039,
4758,
11394,
41332,
103025,
139356,
99117,
40589,
14593,
7201,
4197,
2862,
2546,
2450,
2503,
2479,
2569,
2479,
2468,
2519,
2583,
2859,
3001,
2898,
2692,
2471,
2429,
2473,
2434,
2536,
2753,
2766,
2514,
2391,
2324,
2211,
2306,
2277,
2247,
2233,
2177,
2185,
2055,
2220,
2147,
2316,
2466,
2520,
2398,
2133,
2063,
1944,
1996,
1903,
1887,
1884,
1844,
1826,
1846,
1864,
1814,
1788,
1733,
1919,
1925,
1770,
1791,
1627,
1709,
1643,
1621,
1638,
1614,
1600,
1536,
1554,
1496,
1503,
1524,
1473,
1476,
1426,
1448,
1470,
1411,
1408,
1409,
1419,
1358,
1398,
1368,
1330,
1309,
1262,
1362,
1368,
1236,
1260,
1264,
1269,
1252,
1282,
1203,
1248,
1308,
1130,
1182,
1091,
1152,
1144,
1116,
1087,
1103,
1089,
1060,
1155,
1081,
1046,
1037,
1090,
1004,
1032,
1040,
945,
983,
1019,
977,
1018,
908,
943,
919,
899,
920,
939,
860,
900,
897,
854,
891,
847,
845,
931,
944,
908,
907,
946,
843,
859,
812,
757,
812,
845,
797,
800,
809,
954,
1273,
2150,
3796,
5454,
6540,
6062,
4539,
2816,
1576,
1011,
796,
704,
638,
647,
676,
671,
644,
645,
696,
666,
649,
737,
738,
832,
1034,
1273,
1341,
1226,
1007,
882,
727,
608,
550,
563,
566,
555,
536,
577,
598,
697,
707,
695,
573,
589,
587,
526,
506,
528,
446,
494,
442,
438,
465,
449,
474,
417,
441,
471,
438,
406,
400,
441,
410,
442,
411,
416,
426,
407,
411,
421,
392,
398,
393,
400,
395,
354,
361,
361,
367,
364,
361,
366,
366,
341,
335,
334,
367,
346,
342,
352,
332,
322,
318,
310,
314,
308,
330,
299,
289,
299,
287,
309,
287,
266,
291,
286,
296,
272,
266,
268,
270,
244,
259,
274,
274,
276,
283,
238,
232,
252,
260,
216,
243,
237,
252,
212,
194,
235,
248,
224,
218,
238,
218,
210,
223,
202,
195,
181,
212,
210,
184,
222,
201,
198,
222,
188,
157,
165,
170,
152,
185,
173,
165,
162,
164,
154,
149,
177,
149,
152,
165,
147,
143,
126,
142,
152,
151,
143,
142,
155,
125,
125,
112,
144,
106,
120,
119,
112,
138,
126,
111,
95,
121,
113,
100,
106,
115,
112,
100,
98,
85,
104,
94,
84,
83,
93,
87,
84,
83,
87,
88,
92,
86,
91,
72,
75,
72,
78,
85,
59,
68,
77,
56,
62,
68,
68,
69,
72,
62,
62,
56,
54,
63,
54,
54,
61,
49,
48,
42,
59,
47,
48,
54,
33,
43,
45,
59,
45,
32,
43,
38,
35,
32,
34,
34,
35,
25,
25,
22,
32,
33,
33,
27,
21,
22,
29,
16,
16,
25,
18,
16,
15,
18,
16,
10,
16,
11,
17,
12,
17,
13,
12,
9,
11,
15,
9,
13,
8,
8,
6,
5,
7,
8,
3,
2,
3,
5,
3,
1,
0,
2,
0,
1,
0,
0,
1,
1,
1,
0,
0,
0,
1,
0,
0,
0,
0,
0,
0,
1,
0,
0,
0,
0,
1,
0,
0,
0,
0,
0,
0,
0,
0,
0,
0,
0,
0,
0,
0,
0,
0,
0,
0,
0,
0,
0,
0,
0,
0,
0,
0,
0,
0,
0,
0,
0,
0,
0,
0,
0,
1,
0,
0,
0,
0,
1,
0,
0,
0,
0,
0,
0,
0,
0,
0,
0,
0,
0,
0,
0,
0,
0,
0,
0,
0,
0,
0,
0,
1,
0,
0,
0,
0,
0,
0,
0,
2,
0,
0,
0,
0,
0,
0,
0,
0,
1,
0,
0,
0,
0,
1,
0,
0,
0,
0,
0,
0,
0,
0,
0,
0,
0,
0,
0,
0,
0,
0,
0,
0,
0,
0,
0,
0,
0,
0,
0,
0,
0,
0,
0,
0,
0,
0,
0,
0,
0,
0,
0,
0,
0,
0,
0,
0,
0,
0,
0,
0,
0,
0,
0,
0,
1,
0,
0,
0,
0,
0,
0,
0,
0,
0,
0,
0,
0,
1,
0,
0,
0,
0,
0,
0,
0,
0,
0,
0,
0,
0,
0,
0,
0,
0,
0,
0,
0,
0,
0,
0,
0,
0,
0,
0,
0,
0,
0,
0,
0,
0,
0,
0,
0,
0,
0,
0,
0,
0,
0,
0,
0,
0,
0,
0,
0,
0,
0,
0,
0,
0,
0,
0,
0,
0,
0,
0,
0,
0,
0,
0,
0,
0,
0,
0,
0,
0,
0,
0,
0,
0,
0,
0,
0,
0,
0,
0,
0,
0,
0,
0,
0,
0,
0,
0,
0,
0,
0,
0,
0,
0,
0,
0,
0,
0,
0,
0,
0,
0,
0,
0,
0,
0,
0,
0,
0,
0,
0,
0,
0,
0,
0,
0,
0,
0,
0,
0,
0,
0,
0,
0,
0,
0,
0,
0,
0,
0,
0,
0,
0,
0,
0,
0,
0,
0,
0,
0,
0,
0,
0,
0,
0,
0,
0,
0,
0,
0,
0,
0,
0,
0,
0,
0,
0,
0,
0,
0,
0,
0,
0,
0,
0,
0,
0,
0,
0,
0,
0,
0,
0,
0,
0,
0,
0,
0,
0,
0,
0,
0,
0,
0,
0,
0,
0,
0,
0,
0,
0,
0,
0,
0,
0,
0,
0,
0,
0,
0,
0,
0,
0,
0,
0,
0,
0,
0,
0,
0,
0,
0,
0,
0,
0,
0,
0,
0,
0,
0,
0,
0,
0,
0,
0,
0,
0,
0,
0,
0,
0,
0,
0,
0,
0,
0,
0,
0,
0,
0,
0,
0,
0,
0,
0,
0,
0,
0,
0,
0,
0,
0,
0,
0,
0,
0,
0,
0,
0,
0,
0,
0,
0,
0,
0,
0,
0,
0,
0,
0,
0,
0,
0,
0,
0,
0,
0,
0,
0,
0,
0,
0,
0,
0,
0,
0,
0,
0,
0,
0,
0,
0,
0,
0,
0,
0,
0,
0,
0,
0,
0,
0,
0,
0,
0,
0,
0,
0,
0,
0,
0,
0,
0,
0,
0,
0,
0,
0,
0,
0,
0,
0,
0,
0,
0,
0,
0,
0,
0,
0,
0,
0,
0,
0,
0,
0,
0,
0,
0,
0,
0,
0,
0,
0,
0,
0,
0,
0,
0,
0,
0,
0,
0,
0,
0,
0,
0,
0,
0,
0,
0,
0,
0,
0,
0,
0,
0,
0,
0,
0,
0,
0,
0,
0,
0,
0,
0,
0,
0,
0,
0,
0,
0,
0,
0,
0,
0,
0,
0,
0,
0,
0,
0,
0,
0,
0,
0,
0,
0,
0,
0,
0,
0,
0,
0,
0,
0,
0,
0,
0,
0,
0,
0,
0,
0,
0,
0,
0,
0,
0,
0,
0,
0,
0,
0,
0,
0,
0,
0,
0,
0,
0,
0,
0,
0,
0,
0,
0,
0,
0,
0,
0,
0,
0,
0,
0,
0,
0,
0,
0,
0,
0,
0,
0,
0,
0,
0,
0,
0,
0,
0,
0,
0,
0,
0,
0,
0,
0,
0,
0,
0,
0,
0,
0,
0,
0,
0,
0,
0,
0,
0,
0,
0,
0,
0,
0,
0,
0,
0,
0,
0,
0,
0,
0,
0,
0,
0,
0,
0,
0,
0,
0,
0,
0,
0,
0,
0,
0,
0,
0,
0,
0,
0,
0,
0,
0,
0,
0,
0,
0,
0,
0,
0,
0,
0,
0,
0,
0,
0,
0,
0,
0,
0,
0,
0,
0,
0,
0,
0,
0,
0,
0,
0,
0,
0,
0,
0,
0,
0,
0,
0,
0,
0,
0,
0,
0,
0,
0,
0,
0,
0,
0,
0,
0,
0,
0,
0,
0,
0,
0,
0,
0,
0,
0,
0,
0,
0,
0,
0,
0,
0,
0,
0,
0,
0,
0,
0,
0,
0,
0,
0,
0,
0,
0,
0,
0,
0,
0,
0,
0,
0,
0,
0,
0,
0,
0,
0,
0,
0,
0,
0,
0,
0,
0,
0,
0,
0,
0,
0,
0,
0,
0,
0,
0,
0,
0,
0,
0,
0,
0,
0,
0,
0,
0,
0,
0,
0,
0,
0,
0,
0,
0,
0,
0,
0,
0,
0,
0,
0,
0,
0,
0,
0,
0,
0,
0,
0,
0,
0,
0,
0,
0,
0,
0,
0,
0,
0,
0,
0,
0,
0,
0,
0,
0,
0,
0,
0,
0,
0,
0,
0,
0,
0,
0,
0,
0,
0,
0,
0,
0,
0,
0,
0,
0,
0,
#ENDOFDATA   :