File: N132962/Quantification/15 keV/Mengason MM2/MMM2 SrTiO3[0][4].msa
#FORMAT      : EMSA/MAS Spectral Data File
#VERSION     : 1.0
#TITLE       : MMM2 SrTiO3[0][all]
#DATE        : 29-SEP-2025
#TIME        : 00:13
#OWNER       : Unknown
#NPOINTS     : 4096
#NCOLUMNS    : 1
#XUNITS      : eV
#YUNITS      : counts
#DATATYPE    : Y
#XPERCHAN    : 9.99778
#OFFSET      : 1.69135
#BEAMKV      : 15
#SIGNALTYPE  : EDS
#ELEVANGLE   : 35
#AZIMANGLE   : 0
#LIVETIME    : 240.313
#REALTIME    : 256.6884
#PROBECUR    : 1.21151
#TAUWIND     : 0
#TDEADLYR    : 0
#TACTLYR     : 0.045
#TALWIND     : 0.025
#CHOFFSET    : 0.0
#XLABEL      : Energy (eV)
#YLABEL      : Counts
#XPOSITION   : -15.19638
#YPOSITION   : 4.54696
#ZPOSITION   : 34.11879
#EDSDET      : SD
##SPECIMEN   : MMM2 SrTiO3[0][all]
##D2STDCMP   : SrTiO3,(O:26.1592),(Ti:26.0877),(Sr:47.7532)
##DET_HASH   : 12273538-fd48-a23f-0a19-f1e6fa85caef
##CALIB_HASH : 6abaa72c-aa41-8738-0be9-f592914732f3
##WORKING    : 15.0 mm
##DET_NAME   : EDAX All
##DET_MODE   : MediumLE
#SPECTRUM    :
25,
23,
17,
74,
344,
871,
2037,
5760,
15007,
18473,
9810,
5815,
9009,
11920,
13544,
18028,
38317,
66142,
48671,
14420,
4287,
3489,
3891,
4152,
4398,
4541,
4722,
5117,
5556,
5708,
5633,
5849,
5817,
6082,
6411,
6465,
6658,
6647,
6819,
6885,
7018,
7140,
7319,
7296,
7789,
7662,
7672,
7922,
7880,
8057,
8681,
10550,
14265,
15863,
14639,
12360,
11711,
16840,
48102,
125489,
199537,
189184,
130180,
79159,
40506,
20176,
10770,
6631,
4779,
4533,
4325,
4415,
4529,
4898,
4673,
4341,
4152,
4125,
3978,
4058,
3919,
3874,
3814,
3815,
3755,
3821,
3836,
3830,
3785,
3830,
3896,
4201,
4271,
4223,
3955,
3776,
3626,
3736,
3670,
3669,
3647,
3549,
3626,
3681,
3532,
3524,
3555,
3552,
3443,
3574,
3450,
3522,
3477,
3338,
3397,
3364,
3278,
3315,
3285,
3404,
3340,
3462,
3504,
3356,
3286,
3206,
3149,
3052,
3035,
2985,
3002,
2920,
2964,
2834,
2957,
2920,
2807,
2835,
2897,
2935,
2820,
2860,
2846,
2912,
3008,
3558,
5314,
11578,
26228,
48059,
62935,
58780,
39181,
19417,
7850,
3807,
2852,
2568,
2603,
2696,
3013,
3814,
5615,
8258,
10140,
9871,
7472,
4992,
3249,
2381,
2230,
2083,
2048,
2038,
1923,
2054,
1982,
2027,
1914,
1890,
1996,
1954,
2007,
2023,
1909,
1969,
1949,
1886,
1911,
1891,
1857,
1791,
1812,
1852,
1812,
1793,
1737,
1678,
1784,
1758,
1721,
1706,
1716,
1587,
1680,
1631,
1683,
1702,
1673,
1767,
1702,
1678,
1804,
1724,
1674,
1549,
1569,
1548,
1449,
1483,
1422,
1531,
1415,
1418,
1522,
1488,
1440,
1397,
1435,
1391,
1379,
1368,
1393,
1339,
1350,
1326,
1316,
1313,
1278,
1255,
1221,
1236,
1288,
1337,
1174,
1153,
1238,
1238,
1303,
1166,
1179,
1148,
1143,
1133,
1145,
1064,
1115,
1128,
1096,
1116,
1078,
1132,
1052,
1047,
1081,
1082,
1007,
1035,
1075,
1022,
988,
959,
1042,
1011,
986,
946,
977,
977,
988,
934,
909,
903,
932,
898,
882,
877,
883,
861,
826,
911,
859,
925,
842,
818,
797,
812,
799,
832,
772,
833,
810,
799,
749,
733,
757,
715,
764,
742,
743,
679,
741,
737,
694,
711,
702,
695,
650,
676,
664,
590,
647,
627,
651,
659,
602,
622,
583,
624,
599,
640,
591,
594,
644,
588,
590,
537,
582,
561,
565,
547,
511,
535,
504,
539,
527,
534,
503,
517,
497,
476,
491,
473,
497,
519,
468,
498,
455,
417,
439,
450,
452,
428,
447,
404,
447,
391,
389,
423,
428,
404,
403,
412,
380,
408,
367,
348,
369,
389,
360,
372,
324,
340,
345,
326,
311,
324,
316,
310,
326,
307,
313,
288,
338,
302,
307,
287,
267,
258,
256,
262,
258,
290,
244,
245,
256,
229,
251,
244,
255,
237,
228,
200,
185,
226,
235,
222,
207,
199,
192,
187,
172,
187,
190,
180,
164,
159,
164,
161,
177,
180,
146,
159,
147,
158,
157,
143,
151,
162,
146,
132,
121,
144,
142,
114,
115,
113,
109,
117,
95,
101,
106,
112,
87,
114,
119,
106,
76,
84,
82,
88,
93,
66,
61,
68,
79,
65,
77,
68,
71,
59,
58,
73,
53,
48,
55,
46,
47,
34,
44,
35,
24,
21,
29,
40,
33,
21,
21,
22,
35,
19,
21,
19,
16,
12,
14,
8,
10,
11,
7,
7,
4,
1,
1,
2,
1,
2,
1,
1,
2,
5,
1,
0,
0,
2,
1,
0,
1,
3,
2,
0,
1,
1,
1,
1,
2,
0,
3,
1,
3,
1,
2,
0,
1,
0,
0,
1,
1,
0,
2,
0,
1,
1,
1,
1,
0,
0,
0,
1,
0,
0,
1,
0,
0,
1,
0,
0,
0,
1,
0,
1,
0,
2,
0,
0,
0,
1,
0,
0,
2,
1,
0,
0,
1,
0,
1,
0,
0,
0,
1,
0,
0,
2,
0,
0,
0,
0,
0,
0,
0,
0,
0,
0,
0,
1,
0,
0,
0,
0,
1,
0,
0,
0,
1,
0,
2,
0,
0,
2,
0,
0,
0,
0,
0,
1,
0,
1,
0,
1,
0,
0,
0,
0,
2,
1,
0,
0,
1,
1,
0,
0,
1,
0,
0,
0,
0,
1,
0,
0,
0,
0,
1,
0,
0,
0,
0,
0,
1,
0,
0,
0,
0,
0,
0,
0,
0,
0,
0,
0,
0,
0,
0,
0,
0,
0,
0,
0,
0,
0,
0,
0,
0,
1,
0,
0,
0,
1,
0,
0,
0,
0,
0,
0,
0,
0,
0,
0,
1,
0,
0,
0,
0,
0,
1,
0,
1,
0,
0,
0,
0,
0,
0,
0,
0,
1,
0,
1,
0,
0,
0,
0,
0,
1,
0,
0,
1,
0,
0,
0,
0,
0,
0,
0,
0,
0,
0,
0,
0,
0,
0,
0,
0,
0,
0,
0,
0,
0,
0,
0,
0,
1,
0,
0,
0,
0,
0,
0,
0,
0,
1,
0,
0,
0,
0,
0,
0,
0,
0,
0,
0,
1,
0,
0,
0,
0,
0,
0,
0,
0,
0,
0,
0,
0,
0,
0,
0,
0,
0,
0,
0,
0,
0,
0,
0,
0,
0,
0,
0,
0,
0,
0,
0,
0,
0,
0,
0,
0,
0,
0,
0,
0,
0,
0,
0,
0,
0,
0,
0,
0,
0,
0,
0,
0,
0,
0,
0,
0,
0,
0,
0,
0,
0,
0,
0,
0,
0,
0,
0,
0,
0,
0,
0,
0,
0,
0,
0,
0,
0,
0,
0,
0,
0,
0,
0,
0,
0,
0,
0,
0,
0,
0,
0,
0,
0,
0,
0,
0,
0,
0,
0,
0,
0,
0,
0,
0,
0,
0,
0,
0,
0,
0,
0,
0,
0,
0,
0,
0,
0,
0,
0,
0,
0,
0,
0,
0,
0,
0,
0,
0,
0,
0,
0,
0,
0,
0,
0,
0,
0,
0,
0,
0,
0,
0,
0,
0,
0,
0,
0,
0,
0,
0,
0,
0,
0,
0,
0,
0,
0,
0,
0,
0,
0,
0,
0,
0,
0,
0,
0,
0,
0,
0,
0,
0,
0,
0,
0,
0,
0,
0,
0,
0,
0,
0,
0,
0,
0,
0,
0,
0,
0,
0,
0,
0,
0,
0,
0,
0,
0,
0,
0,
0,
0,
0,
0,
0,
0,
0,
0,
0,
0,
0,
0,
0,
0,
0,
0,
0,
0,
0,
0,
0,
0,
0,
0,
0,
0,
0,
0,
0,
0,
0,
0,
0,
0,
0,
0,
0,
0,
0,
0,
0,
0,
0,
0,
0,
0,
0,
0,
0,
0,
0,
0,
0,
0,
0,
0,
0,
0,
0,
0,
0,
0,
0,
0,
0,
0,
0,
0,
0,
0,
0,
0,
0,
0,
0,
0,
0,
0,
0,
0,
0,
0,
0,
0,
0,
0,
0,
0,
0,
0,
0,
0,
0,
0,
0,
0,
0,
0,
0,
0,
0,
0,
0,
0,
0,
0,
0,
0,
0,
0,
0,
0,
0,
0,
0,
0,
0,
0,
0,
0,
0,
0,
0,
0,
0,
0,
0,
0,
0,
0,
0,
0,
0,
0,
0,
0,
0,
0,
0,
0,
0,
0,
0,
0,
0,
0,
0,
0,
0,
0,
0,
0,
0,
0,
0,
0,
0,
0,
0,
0,
0,
0,
0,
0,
0,
0,
0,
0,
0,
0,
0,
0,
0,
0,
0,
0,
0,
0,
0,
0,
0,
0,
0,
0,
0,
0,
0,
0,
0,
0,
0,
0,
0,
0,
0,
0,
0,
0,
0,
0,
0,
0,
0,
0,
0,
0,
0,
0,
0,
0,
0,
0,
0,
0,
0,
0,
0,
0,
0,
0,
0,
0,
0,
0,
0,
0,
0,
0,
0,
0,
0,
0,
0,
0,
0,
0,
0,
0,
0,
0,
0,
0,
0,
0,
0,
0,
0,
0,
0,
0,
0,
0,
0,
0,
0,
0,
0,
0,
0,
0,
0,
0,
0,
0,
0,
0,
0,
0,
0,
0,
0,
0,
0,
0,
0,
0,
0,
0,
0,
0,
0,
0,
0,
0,
0,
0,
0,
0,
0,
0,
0,
0,
0,
0,
0,
0,
0,
0,
0,
0,
0,
0,
0,
0,
0,
0,
0,
0,
0,
0,
0,
0,
0,
0,
0,
0,
0,
0,
0,
0,
0,
0,
0,
0,
0,
0,
0,
0,
0,
0,
0,
0,
0,
0,
0,
0,
0,
0,
0,
0,
0,
0,
0,
0,
0,
0,
0,
0,
0,
0,
0,
0,
0,
0,
0,
0,
0,
0,
0,
0,
0,
0,
0,
0,
0,
0,
0,
0,
0,
0,
0,
0,
0,
0,
0,
0,
0,
0,
0,
0,
0,
0,
0,
0,
0,
0,
0,
0,
0,
0,
0,
0,
0,
0,
0,
0,
0,
0,
0,
0,
0,
0,
0,
0,
0,
0,
0,
#ENDOFDATA   :