File: N132962/Quantification/15 keV/Mengason MM2/MMM2 Stibnite[2][4].msa
#FORMAT      : EMSA/MAS Spectral Data File
#VERSION     : 1.0
#TITLE       : MMM2 Stibnite[2][all]
#DATE        : 28-SEP-2025
#TIME        : 23:34
#OWNER       : Unknown
#NPOINTS     : 4096
#NCOLUMNS    : 1
#XUNITS      : eV
#YUNITS      : counts
#DATATYPE    : Y
#XPERCHAN    : 9.99778
#OFFSET      : 1.69135
#BEAMKV      : 15
#SIGNALTYPE  : EDS
#ELEVANGLE   : 35
#AZIMANGLE   : 0
#LIVETIME    : 240.142
#REALTIME    : 260.322
#PROBECUR    : 1.21079
#TAUWIND     : 0
#TDEADLYR    : 0
#TACTLYR     : 0.045
#TALWIND     : 0.025
#CHOFFSET    : 0.0
#XLABEL      : Energy (eV)
#YLABEL      : Counts
#XPOSITION   : -14.48491
#YPOSITION   : 2.25999
#ZPOSITION   : 34.11879
#EDSDET      : SD
##SPECIMEN   : MMM2 Stibnite[2][all]
##DET_HASH   : 12273538-fd48-a23f-0a19-f1e6fa85caef
##CALIB_HASH : 6abaa72c-aa41-8738-0be9-f592914732f3
##WORKING    : 15.0 mm
##DET_NAME   : EDAX All
##DET_MODE   : MediumLE
#SPECTRUM    :
25,
27,
20,
228,
1557,
3068,
3366,
6927,
17901,
22340,
11726,
6275,
9120,
17927,
23627,
16896,
11499,
11691,
11929,
9728,
6926,
5677,
5762,
6699,
8057,
8191,
7282,
6428,
6339,
6076,
5758,
5789,
5933,
6205,
6278,
6349,
6523,
6769,
6763,
7078,
7189,
7543,
7471,
7506,
7661,
7816,
7893,
8123,
8408,
8411,
8373,
8514,
8224,
8349,
8374,
8531,
8565,
9147,
9586,
9615,
9504,
9385,
9143,
8627,
7781,
7765,
7756,
7825,
8123,
8152,
8254,
8849,
10426,
15148,
29520,
74165,
148175,
183000,
133450,
59791,
22919,
17596,
19330,
16749,
11226,
7482,
6027,
5584,
5729,
5585,
5557,
5535,
5482,
5547,
5408,
5401,
5443,
5317,
5333,
5328,
5278,
5225,
5353,
5559,
6226,
7744,
8730,
8583,
7350,
6131,
5313,
5203,
5400,
5969,
6819,
7529,
9595,
18621,
42826,
79455,
104845,
92209,
55356,
25021,
11655,
11907,
21953,
38074,
51130,
49615,
38078,
25702,
17025,
11651,
10273,
12489,
16340,
17523,
14306,
9277,
6080,
4657,
4703,
6027,
7897,
8497,
7590,
5804,
4320,
3706,
3763,
4379,
5068,
5590,
5388,
4539,
3903,
3281,
3039,
3137,
2910,
2873,
3003,
2905,
2840,
2903,
2835,
2899,
2942,
2836,
2855,
2804,
2775,
2769,
2695,
2809,
2763,
2821,
2774,
2765,
2757,
2647,
2760,
2650,
2704,
2658,
2649,
2552,
2624,
2606,
2583,
2573,
2708,
2659,
2599,
2667,
2663,
2755,
2648,
2550,
2487,
2567,
2445,
2451,
2532,
2483,
2408,
2483,
2403,
2446,
2364,
2374,
2463,
2432,
2352,
2386,
2313,
2255,
2182,
2226,
2183,
2083,
2084,
2170,
2193,
2077,
2118,
2016,
2088,
2004,
1971,
2017,
1982,
2012,
2047,
1955,
2054,
2054,
1960,
1938,
1942,
1932,
1976,
1801,
1825,
1838,
1884,
1869,
1932,
1855,
1883,
1833,
1817,
1804,
1746,
1667,
1700,
1775,
1687,
1661,
1752,
1635,
1591,
1616,
1631,
1560,
1609,
1579,
1577,
1640,
1514,
1534,
1625,
1545,
1506,
1513,
1519,
1530,
1491,
1407,
1429,
1458,
1412,
1378,
1429,
1410,
1416,
1401,
1377,
1378,
1316,
1316,
1333,
1329,
1298,
1319,
1249,
1238,
1271,
1191,
1203,
1254,
1207,
1194,
1229,
1221,
1166,
1217,
1159,
1134,
1155,
1132,
1159,
1139,
1078,
1045,
1116,
1068,
1074,
1054,
1035,
1087,
1016,
1000,
1042,
1041,
1004,
989,
937,
976,
945,
986,
954,
966,
908,
858,
938,
908,
951,
889,
906,
914,
868,
821,
853,
885,
793,
868,
811,
788,
819,
788,
833,
772,
784,
785,
820,
783,
739,
760,
746,
787,
754,
654,
755,
684,
705,
683,
700,
728,
653,
657,
640,
577,
645,
636,
631,
597,
578,
540,
600,
552,
586,
573,
578,
568,
556,
565,
530,
549,
469,
493,
495,
499,
508,
465,
485,
442,
454,
457,
416,
433,
443,
442,
438,
453,
378,
392,
390,
404,
405,
383,
383,
401,
410,
380,
345,
363,
363,
366,
336,
321,
301,
327,
295,
337,
309,
308,
283,
262,
305,
264,
298,
290,
277,
227,
274,
265,
226,
243,
235,
221,
232,
193,
221,
210,
212,
200,
213,
197,
202,
175,
183,
191,
196,
157,
188,
162,
151,
152,
154,
146,
139,
121,
133,
113,
120,
130,
113,
99,
123,
109,
107,
103,
74,
80,
68,
77,
64,
56,
70,
84,
67,
62,
41,
59,
61,
52,
48,
40,
40,
46,
30,
27,
23,
16,
16,
13,
11,
15,
8,
6,
2,
2,
4,
3,
3,
7,
2,
6,
6,
1,
3,
2,
4,
2,
1,
1,
2,
2,
4,
2,
3,
5,
3,
2,
4,
2,
3,
2,
1,
2,
3,
3,
2,
1,
1,
2,
1,
2,
2,
1,
0,
4,
2,
1,
2,
3,
1,
2,
4,
3,
4,
1,
1,
0,
0,
2,
0,
2,
0,
0,
3,
0,
2,
1,
2,
2,
3,
1,
1,
2,
0,
0,
4,
2,
6,
0,
3,
4,
1,
1,
0,
0,
1,
3,
1,
1,
2,
3,
2,
1,
0,
0,
1,
2,
2,
1,
3,
1,
0,
0,
2,
0,
2,
1,
0,
0,
0,
2,
0,
1,
0,
1,
1,
0,
0,
1,
0,
0,
1,
0,
0,
1,
0,
0,
2,
1,
1,
0,
0,
0,
0,
0,
0,
0,
1,
0,
1,
0,
0,
1,
2,
1,
1,
0,
1,
1,
0,
1,
1,
1,
0,
1,
0,
0,
1,
0,
0,
1,
1,
0,
0,
1,
0,
1,
0,
0,
0,
0,
0,
1,
0,
0,
1,
0,
0,
0,
0,
0,
0,
0,
0,
0,
0,
0,
0,
0,
0,
0,
0,
1,
0,
0,
0,
0,
1,
0,
0,
1,
0,
0,
0,
0,
0,
0,
0,
0,
0,
0,
0,
0,
0,
0,
0,
0,
0,
0,
0,
0,
0,
0,
0,
0,
0,
0,
1,
0,
1,
0,
0,
0,
0,
0,
0,
0,
0,
0,
0,
1,
0,
0,
0,
0,
0,
0,
0,
0,
0,
0,
0,
0,
0,
0,
0,
0,
0,
0,
0,
0,
0,
0,
0,
1,
0,
0,
0,
0,
0,
0,
0,
0,
0,
0,
0,
0,
0,
0,
0,
0,
0,
0,
0,
0,
0,
0,
0,
0,
0,
0,
0,
0,
0,
0,
0,
0,
0,
0,
0,
0,
0,
0,
0,
0,
0,
0,
1,
0,
0,
0,
0,
0,
0,
0,
0,
0,
0,
0,
0,
0,
0,
0,
0,
0,
0,
0,
0,
0,
0,
0,
0,
0,
0,
0,
0,
0,
0,
0,
0,
0,
0,
0,
0,
0,
0,
0,
0,
0,
0,
0,
0,
0,
0,
0,
0,
0,
0,
0,
0,
1,
0,
0,
0,
0,
0,
0,
0,
0,
0,
0,
0,
0,
0,
0,
0,
0,
0,
0,
0,
0,
0,
0,
0,
0,
0,
0,
0,
0,
0,
0,
0,
0,
0,
0,
0,
0,
0,
0,
0,
0,
0,
0,
0,
0,
0,
0,
0,
0,
0,
0,
0,
0,
0,
0,
0,
0,
0,
0,
0,
0,
0,
0,
0,
0,
0,
0,
0,
0,
0,
0,
0,
0,
0,
0,
0,
0,
0,
0,
0,
0,
0,
0,
0,
0,
0,
0,
0,
0,
0,
0,
0,
0,
0,
0,
0,
0,
0,
0,
0,
0,
0,
0,
0,
0,
0,
0,
0,
0,
0,
0,
0,
0,
0,
0,
0,
0,
0,
0,
0,
0,
0,
0,
0,
0,
0,
0,
0,
0,
0,
0,
0,
0,
0,
0,
0,
0,
0,
0,
0,
0,
0,
0,
0,
0,
0,
0,
0,
0,
0,
0,
0,
0,
0,
0,
0,
0,
0,
0,
0,
0,
0,
0,
0,
0,
0,
0,
0,
0,
0,
0,
0,
0,
0,
0,
0,
0,
0,
0,
0,
0,
0,
0,
0,
0,
0,
0,
0,
0,
0,
0,
0,
0,
0,
0,
0,
0,
0,
0,
0,
0,
0,
0,
0,
0,
0,
0,
0,
0,
0,
0,
0,
0,
0,
0,
0,
0,
0,
0,
0,
0,
0,
0,
0,
0,
0,
0,
0,
0,
0,
0,
0,
0,
0,
0,
0,
0,
0,
0,
0,
0,
0,
0,
0,
0,
0,
0,
0,
0,
0,
0,
0,
0,
0,
0,
0,
0,
0,
0,
0,
0,
0,
0,
0,
0,
0,
0,
0,
0,
0,
0,
0,
0,
0,
0,
0,
0,
0,
0,
0,
0,
0,
0,
0,
0,
0,
0,
0,
0,
0,
0,
0,
0,
0,
0,
0,
0,
0,
0,
0,
0,
0,
0,
0,
0,
0,
0,
0,
0,
0,
0,
0,
0,
0,
0,
0,
0,
0,
0,
0,
0,
0,
0,
0,
0,
0,
0,
0,
0,
0,
0,
0,
0,
0,
0,
0,
0,
0,
0,
0,
0,
0,
0,
0,
0,
0,
0,
0,
0,
0,
0,
0,
0,
0,
0,
0,
0,
0,
0,
0,
0,
0,
0,
0,
0,
0,
0,
0,
0,
0,
0,
0,
0,
0,
0,
0,
0,
0,
0,
0,
0,
0,
0,
0,
0,
0,
0,
0,
0,
0,
0,
0,
0,
0,
0,
0,
0,
0,
0,
0,
0,
0,
0,
0,
0,
0,
0,
0,
0,
0,
0,
0,
0,
0,
0,
0,
0,
0,
0,
0,
0,
0,
0,
0,
0,
0,
0,
0,
0,
0,
0,
0,
0,
0,
0,
0,
0,
0,
0,
0,
0,
0,
0,
0,
0,
0,
0,
0,
0,
0,
0,
0,
0,
0,
0,
0,
0,
0,
0,
0,
0,
0,
0,
0,
0,
0,
0,
0,
0,
0,
0,
0,
0,
0,
0,
0,
0,
0,
0,
0,
0,
0,
0,
0,
0,
0,
0,
0,
0,
0,
0,
0,
0,
0,
0,
0,
0,
0,
0,
0,
0,
0,
0,
0,
0,
0,
0,
#ENDOFDATA   :