File: N132962/Quantification/15 keV/Mengason MM2/MMM2 Stibnite[4][4].msa
#FORMAT      : EMSA/MAS Spectral Data File
#VERSION     : 1.0
#TITLE       : MMM2 Stibnite[4][all]
#DATE        : 28-SEP-2025
#TIME        : 23:36
#OWNER       : Unknown
#NPOINTS     : 4096
#NCOLUMNS    : 1
#XUNITS      : eV
#YUNITS      : counts
#DATATYPE    : Y
#XPERCHAN    : 9.99778
#OFFSET      : 1.69135
#BEAMKV      : 15
#SIGNALTYPE  : EDS
#ELEVANGLE   : 35
#AZIMANGLE   : 0
#LIVETIME    : 240.1969
#REALTIME    : 260.394
#PROBECUR    : 1.21079
#TAUWIND     : 0
#TDEADLYR    : 0
#TACTLYR     : 0.045
#TALWIND     : 0.025
#CHOFFSET    : 0.0
#XLABEL      : Energy (eV)
#YLABEL      : Counts
#XPOSITION   : -14.44673
#YPOSITION   : 2.20352
#ZPOSITION   : 34.11879
#EDSDET      : SD
##SPECIMEN   : MMM2 Stibnite[4][all]
##DET_HASH   : 12273538-fd48-a23f-0a19-f1e6fa85caef
##CALIB_HASH : 6abaa72c-aa41-8738-0be9-f592914732f3
##WORKING    : 15.0 mm
##DET_NAME   : EDAX All
##DET_MODE   : MediumLE
#SPECTRUM    :
26,
23,
14,
220,
1567,
3021,
3264,
7033,
17969,
22570,
11717,
6151,
9205,
18065,
23925,
16842,
11406,
11719,
11977,
9880,
7015,
5703,
5783,
6865,
8131,
8155,
7270,
6457,
6320,
6042,
5920,
5756,
5845,
6061,
6350,
6465,
6656,
6692,
6867,
7088,
7162,
7379,
7552,
7643,
7771,
7773,
7988,
7980,
8199,
8442,
8212,
8398,
8334,
8158,
8276,
8387,
8655,
8991,
9621,
9602,
9457,
9246,
9257,
8539,
7903,
7631,
7710,
7772,
8043,
8183,
8187,
8993,
10435,
14891,
29749,
74542,
148039,
183639,
133295,
60235,
23185,
17387,
19207,
16729,
11413,
7432,
6069,
5764,
5592,
5641,
5510,
5568,
5417,
5488,
5415,
5302,
5315,
5406,
5081,
5213,
5311,
5183,
5222,
5604,
6435,
7485,
8846,
8539,
7294,
5929,
5458,
5265,
5423,
6044,
6843,
7489,
9683,
18339,
42741,
79671,
104209,
91741,
55407,
24745,
11823,
12132,
21761,
38305,
50655,
49279,
38190,
25867,
17275,
11859,
10140,
12572,
16413,
17542,
14419,
9583,
6212,
4704,
4919,
6046,
7672,
8575,
7792,
5768,
4243,
3692,
3778,
4308,
5240,
5683,
5544,
4500,
3847,
3386,
3166,
3017,
3000,
2880,
2930,
2946,
2834,
2802,
2861,
2843,
2915,
2876,
2796,
2869,
2776,
2781,
2754,
2820,
2803,
2749,
2804,
2799,
2781,
2758,
2702,
2691,
2680,
2690,
2639,
2663,
2553,
2671,
2605,
2594,
2578,
2559,
2506,
2592,
2635,
2588,
2648,
2551,
2470,
2462,
2507,
2464,
2472,
2468,
2460,
2399,
2454,
2370,
2433,
2396,
2385,
2487,
2369,
2438,
2344,
2235,
2312,
2187,
2133,
2204,
2108,
2117,
2178,
2039,
2011,
2141,
2090,
2028,
2031,
2078,
1995,
1986,
2049,
1946,
2026,
2021,
1942,
1973,
1887,
1979,
1918,
1942,
1863,
1827,
1884,
1866,
1938,
1950,
1924,
1804,
1788,
1715,
1702,
1849,
1733,
1699,
1704,
1711,
1661,
1646,
1642,
1657,
1618,
1688,
1647,
1621,
1526,
1555,
1509,
1559,
1516,
1496,
1509,
1488,
1521,
1532,
1453,
1432,
1462,
1443,
1452,
1422,
1432,
1421,
1364,
1392,
1409,
1345,
1348,
1296,
1316,
1311,
1303,
1300,
1244,
1283,
1284,
1187,
1246,
1224,
1197,
1208,
1216,
1200,
1129,
1216,
1199,
1192,
1177,
1108,
1069,
1124,
1105,
1123,
1124,
1093,
1049,
1061,
1001,
1064,
1085,
1005,
1030,
1043,
1004,
977,
990,
958,
985,
946,
959,
936,
975,
916,
900,
910,
843,
919,
904,
835,
841,
875,
841,
798,
867,
886,
870,
807,
849,
757,
784,
763,
743,
741,
791,
807,
779,
747,
726,
691,
711,
739,
712,
688,
680,
675,
647,
641,
618,
684,
662,
664,
625,
617,
664,
623,
586,
577,
606,
626,
628,
597,
596,
552,
545,
547,
595,
528,
539,
510,
533,
503,
467,
458,
505,
461,
482,
472,
429,
487,
411,
415,
406,
421,
397,
383,
422,
402,
377,
379,
383,
391,
358,
341,
344,
343,
297,
358,
331,
345,
362,
326,
327,
303,
303,
298,
285,
292,
291,
313,
282,
242,
286,
240,
244,
239,
265,
255,
254,
259,
217,
237,
222,
193,
185,
209,
213,
211,
178,
190,
174,
161,
178,
178,
156,
162,
196,
166,
170,
150,
133,
138,
141,
150,
125,
115,
114,
117,
119,
99,
93,
97,
90,
92,
84,
89,
72,
71,
60,
63,
71,
61,
53,
56,
55,
52,
39,
44,
27,
32,
40,
32,
25,
22,
12,
10,
19,
4,
10,
11,
4,
3,
2,
1,
5,
2,
0,
5,
2,
1,
5,
0,
3,
4,
2,
5,
2,
0,
3,
2,
3,
7,
3,
1,
3,
1,
5,
4,
0,
2,
3,
5,
1,
5,
4,
1,
1,
1,
2,
3,
2,
1,
1,
2,
1,
2,
4,
2,
1,
0,
0,
3,
4,
0,
1,
3,
4,
1,
3,
0,
2,
1,
3,
1,
2,
2,
2,
2,
3,
1,
3,
3,
1,
1,
0,
0,
0,
1,
0,
1,
0,
1,
1,
1,
3,
2,
2,
1,
2,
1,
2,
0,
2,
1,
1,
1,
1,
1,
0,
0,
0,
0,
1,
0,
2,
1,
0,
0,
2,
0,
1,
1,
0,
1,
1,
2,
1,
0,
1,
0,
1,
1,
1,
0,
0,
0,
0,
0,
0,
0,
0,
0,
0,
0,
0,
2,
0,
1,
3,
0,
1,
0,
0,
0,
0,
0,
0,
1,
0,
0,
0,
0,
0,
0,
0,
0,
1,
1,
0,
0,
2,
1,
0,
0,
0,
0,
0,
0,
1,
0,
0,
0,
1,
0,
0,
0,
0,
0,
0,
1,
0,
0,
0,
0,
2,
0,
1,
1,
0,
0,
1,
0,
0,
0,
0,
0,
0,
0,
0,
1,
2,
0,
0,
0,
1,
0,
0,
0,
0,
0,
0,
1,
0,
0,
0,
0,
1,
0,
0,
0,
0,
0,
0,
0,
0,
0,
0,
0,
0,
0,
0,
0,
1,
1,
0,
0,
0,
0,
0,
0,
0,
1,
0,
0,
0,
0,
0,
0,
0,
0,
0,
0,
0,
0,
0,
0,
0,
0,
0,
0,
0,
0,
0,
0,
0,
0,
0,
0,
0,
0,
1,
1,
0,
0,
0,
0,
0,
0,
0,
0,
0,
0,
0,
0,
0,
0,
0,
0,
0,
0,
0,
0,
0,
0,
0,
0,
0,
0,
0,
0,
0,
0,
0,
0,
1,
0,
0,
0,
1,
0,
0,
0,
0,
0,
0,
0,
0,
0,
0,
0,
0,
0,
0,
0,
0,
0,
0,
0,
0,
0,
0,
0,
0,
0,
0,
0,
0,
0,
0,
0,
0,
0,
0,
0,
0,
0,
0,
0,
0,
0,
0,
0,
0,
0,
0,
0,
0,
0,
1,
0,
0,
0,
0,
1,
0,
0,
0,
0,
0,
0,
0,
0,
0,
0,
0,
0,
0,
0,
0,
0,
0,
0,
0,
0,
0,
0,
0,
0,
0,
0,
0,
0,
0,
0,
0,
0,
0,
0,
0,
0,
0,
0,
0,
0,
0,
0,
0,
0,
0,
0,
0,
0,
0,
0,
0,
0,
0,
0,
0,
0,
0,
0,
0,
0,
0,
0,
0,
0,
0,
0,
0,
0,
0,
0,
0,
0,
0,
0,
0,
0,
0,
0,
0,
0,
0,
0,
0,
0,
0,
0,
0,
0,
0,
0,
0,
0,
0,
0,
0,
0,
0,
0,
0,
0,
0,
0,
0,
0,
0,
0,
0,
0,
0,
0,
0,
0,
0,
0,
0,
0,
0,
0,
0,
0,
0,
0,
0,
0,
0,
0,
0,
0,
0,
0,
0,
0,
0,
0,
0,
0,
0,
0,
0,
0,
0,
0,
0,
0,
0,
0,
0,
0,
0,
0,
0,
0,
0,
0,
0,
0,
0,
0,
0,
0,
0,
0,
0,
0,
0,
0,
0,
0,
0,
0,
0,
0,
0,
0,
0,
0,
0,
0,
0,
0,
0,
0,
0,
0,
0,
0,
0,
0,
0,
0,
0,
0,
0,
0,
0,
0,
0,
0,
0,
0,
0,
0,
0,
0,
0,
0,
0,
0,
0,
0,
0,
0,
0,
0,
0,
0,
0,
0,
0,
0,
0,
0,
0,
0,
0,
0,
0,
0,
0,
0,
0,
0,
0,
0,
0,
0,
0,
0,
0,
0,
0,
0,
0,
0,
0,
0,
0,
0,
0,
0,
0,
0,
0,
0,
0,
0,
0,
0,
0,
0,
0,
0,
0,
0,
0,
0,
0,
0,
0,
0,
0,
0,
0,
0,
0,
0,
0,
0,
0,
0,
0,
0,
0,
0,
0,
0,
0,
0,
0,
0,
0,
0,
0,
0,
0,
0,
0,
0,
0,
0,
0,
0,
0,
0,
0,
0,
0,
0,
0,
0,
0,
0,
0,
0,
0,
0,
0,
0,
0,
0,
0,
0,
0,
0,
0,
0,
0,
0,
0,
0,
0,
0,
0,
0,
0,
0,
0,
0,
0,
0,
0,
0,
0,
0,
0,
0,
0,
0,
0,
0,
0,
0,
0,
0,
0,
0,
0,
0,
0,
0,
0,
0,
0,
0,
0,
0,
0,
0,
0,
0,
0,
0,
0,
0,
0,
0,
0,
0,
0,
0,
0,
0,
0,
0,
0,
0,
0,
0,
0,
0,
0,
0,
0,
0,
0,
0,
0,
0,
0,
0,
0,
0,
0,
0,
0,
0,
0,
0,
0,
0,
0,
0,
0,
0,
0,
0,
0,
0,
0,
0,
0,
0,
0,
0,
0,
0,
0,
0,
0,
0,
0,
0,
0,
0,
0,
0,
0,
0,
0,
0,
0,
0,
0,
0,
0,
0,
0,
0,
0,
0,
0,
0,
0,
0,
0,
0,
0,
0,
0,
0,
0,
0,
0,
0,
0,
0,
0,
0,
0,
0,
0,
0,
0,
0,
0,
0,
0,
0,
0,
0,
0,
0,
0,
0,
0,
0,
0,
0,
0,
0,
0,
0,
0,
0,
0,
0,
0,
0,
0,
0,
#ENDOFDATA   :