File: N132962/Quantification/15 keV/Mengason MM2/MMM2 Olivine[2][4].msa
#FORMAT      : EMSA/MAS Spectral Data File
#VERSION     : 1.0
#TITLE       : MMM2 Olivine[2][all]
#DATE        : 28-SEP-2025
#TIME        : 23:03
#OWNER       : Unknown
#NPOINTS     : 4096
#NCOLUMNS    : 1
#XUNITS      : eV
#YUNITS      : counts
#DATATYPE    : Y
#XPERCHAN    : 9.99778
#OFFSET      : 1.69135
#BEAMKV      : 15
#SIGNALTYPE  : EDS
#ELEVANGLE   : 35
#AZIMANGLE   : 0
#LIVETIME    : 240.23
#REALTIME    : 258.025
#PROBECUR    : 1.2132
#TAUWIND     : 0
#TDEADLYR    : 0
#TACTLYR     : 0.045
#TALWIND     : 0.025
#CHOFFSET    : 0.0
#XLABEL      : Energy (eV)
#YLABEL      : Counts
#XPOSITION   : -21.32886
#YPOSITION   : 2.47654
#ZPOSITION   : 34.11879
#EDSDET      : SD
##SPECIMEN   : MMM2 Olivine[2][all]
##DET_HASH   : 12273538-fd48-a23f-0a19-f1e6fa85caef
##CALIB_HASH : 6abaa72c-aa41-8738-0be9-f592914732f3
##WORKING    : 15.0 mm
##DET_NAME   : EDAX All
##DET_MODE   : MediumLE
#SPECTRUM    :
31,
25,
10,
21,
94,
421,
1170,
3709,
10113,
13272,
7123,
3869,
4172,
5458,
10608,
38727,
147684,
280981,
203486,
53043,
8363,
4597,
6203,
9849,
9993,
6184,
4107,
4100,
4532,
4585,
4174,
4318,
4510,
4861,
5528,
5836,
6083,
6718,
8780,
22084,
86103,
216451,
260492,
145092,
40988,
8793,
4092,
3548,
3595,
3627,
3801,
3952,
4074,
4012,
4872,
11290,
40428,
102635,
139304,
99120,
40501,
14489,
7379,
4064,
2979,
2526,
2605,
2548,
2511,
2479,
2437,
2497,
2457,
2618,
2760,
2992,
2866,
2655,
2534,
2447,
2412,
2511,
2669,
2774,
2795,
2514,
2397,
2335,
2297,
2143,
2166,
2238,
2201,
2189,
2203,
2097,
2169,
2191,
2367,
2475,
2457,
2263,
2106,
2002,
1996,
1960,
1935,
1883,
1839,
1846,
1800,
1910,
1759,
1818,
1797,
1825,
1854,
1801,
1719,
1686,
1632,
1690,
1630,
1646,
1634,
1581,
1520,
1632,
1500,
1564,
1566,
1527,
1532,
1506,
1448,
1468,
1458,
1421,
1428,
1407,
1311,
1313,
1398,
1316,
1372,
1339,
1346,
1381,
1300,
1297,
1268,
1205,
1256,
1269,
1298,
1236,
1220,
1150,
1225,
1130,
1178,
1163,
1099,
1082,
1092,
1137,
1123,
1134,
1068,
1086,
1051,
988,
1057,
1027,
1012,
990,
1014,
1037,
980,
956,
892,
945,
946,
894,
926,
915,
934,
853,
905,
920,
887,
883,
873,
874,
877,
965,
962,
953,
872,
842,
869,
843,
819,
809,
818,
772,
763,
842,
927,
1328,
2191,
3707,
5435,
6398,
6052,
4797,
2768,
1519,
966,
709,
705,
694,
665,
610,
658,
637,
620,
644,
690,
680,
696,
758,
918,
1135,
1280,
1351,
1307,
1084,
914,
730,
601,
608,
527,
527,
499,
542,
578,
682,
666,
705,
670,
571,
605,
494,
504,
456,
486,
492,
456,
464,
446,
452,
459,
458,
433,
426,
436,
447,
455,
448,
408,
448,
427,
433,
477,
424,
407,
433,
403,
442,
370,
401,
385,
374,
357,
364,
345,
386,
358,
364,
363,
350,
351,
320,
364,
335,
324,
352,
287,
298,
297,
332,
308,
316,
316,
291,
309,
286,
318,
302,
291,
272,
305,
285,
283,
268,
266,
260,
267,
265,
251,
278,
263,
278,
271,
268,
253,
244,
249,
252,
273,
252,
233,
207,
240,
207,
212,
246,
194,
219,
198,
233,
178,
230,
209,
223,
220,
163,
165,
216,
200,
180,
208,
167,
169,
194,
184,
175,
174,
186,
185,
149,
207,
133,
171,
170,
135,
141,
151,
164,
135,
162,
162,
170,
139,
135,
122,
136,
137,
123,
125,
119,
107,
130,
110,
142,
110,
116,
130,
114,
113,
112,
100,
110,
81,
98,
103,
97,
102,
105,
91,
107,
101,
100,
85,
92,
100,
106,
79,
81,
81,
76,
71,
75,
65,
84,
83,
78,
63,
68,
61,
83,
63,
69,
61,
58,
56,
61,
57,
51,
79,
47,
53,
38,
40,
60,
59,
54,
48,
41,
62,
44,
35,
35,
43,
43,
41,
33,
46,
34,
37,
36,
31,
40,
30,
32,
18,
32,
24,
40,
25,
32,
19,
17,
19,
24,
33,
22,
27,
15,
24,
15,
17,
19,
14,
16,
16,
22,
15,
20,
16,
10,
5,
8,
9,
6,
6,
7,
5,
9,
9,
7,
4,
4,
6,
4,
1,
1,
1,
2,
2,
0,
0,
2,
1,
2,
1,
0,
1,
0,
0,
0,
1,
0,
0,
0,
0,
0,
0,
0,
0,
0,
0,
0,
0,
0,
0,
1,
0,
0,
0,
0,
0,
0,
0,
0,
0,
1,
1,
0,
0,
0,
0,
0,
0,
0,
0,
0,
0,
0,
0,
0,
0,
0,
0,
0,
0,
0,
0,
0,
0,
0,
0,
1,
0,
0,
0,
0,
0,
0,
0,
0,
0,
0,
0,
0,
0,
0,
0,
0,
0,
0,
0,
0,
0,
0,
0,
0,
0,
0,
0,
0,
0,
0,
0,
0,
0,
0,
0,
0,
1,
1,
0,
0,
0,
0,
0,
0,
0,
0,
0,
0,
0,
0,
0,
0,
0,
0,
1,
0,
0,
0,
0,
0,
0,
0,
0,
0,
0,
0,
0,
0,
0,
0,
0,
0,
0,
0,
0,
0,
0,
0,
0,
0,
0,
0,
0,
0,
0,
0,
0,
0,
0,
0,
0,
0,
0,
0,
0,
0,
0,
0,
0,
0,
0,
0,
0,
0,
0,
1,
0,
0,
0,
0,
0,
0,
0,
0,
0,
0,
0,
0,
0,
1,
0,
0,
0,
0,
0,
0,
0,
0,
0,
0,
0,
0,
0,
0,
0,
0,
0,
0,
0,
0,
0,
0,
0,
0,
0,
0,
0,
0,
0,
0,
0,
0,
0,
0,
0,
0,
0,
1,
0,
0,
0,
0,
0,
0,
0,
0,
0,
0,
0,
0,
0,
0,
0,
0,
0,
0,
0,
0,
0,
0,
0,
0,
0,
0,
0,
0,
0,
0,
0,
0,
0,
0,
0,
0,
0,
0,
0,
0,
0,
0,
0,
0,
0,
0,
0,
0,
0,
0,
0,
0,
0,
0,
0,
0,
0,
0,
0,
0,
0,
0,
0,
0,
0,
0,
0,
0,
0,
0,
0,
0,
0,
0,
0,
0,
0,
0,
0,
0,
0,
0,
0,
0,
0,
0,
1,
0,
0,
0,
0,
0,
0,
0,
0,
0,
0,
0,
0,
0,
0,
0,
0,
0,
0,
0,
0,
0,
0,
0,
0,
0,
0,
0,
0,
0,
0,
0,
0,
0,
0,
0,
0,
0,
0,
0,
0,
0,
0,
0,
0,
0,
0,
0,
0,
0,
0,
0,
0,
0,
0,
0,
0,
0,
0,
0,
0,
0,
0,
0,
0,
0,
0,
0,
0,
0,
0,
0,
0,
0,
0,
0,
0,
0,
0,
0,
0,
0,
0,
0,
0,
0,
0,
0,
0,
0,
0,
0,
0,
0,
0,
0,
0,
0,
0,
0,
0,
0,
0,
0,
0,
0,
0,
0,
0,
0,
0,
0,
0,
0,
0,
0,
0,
0,
0,
0,
0,
0,
0,
0,
0,
0,
0,
0,
0,
0,
0,
0,
0,
0,
0,
0,
0,
0,
0,
0,
0,
0,
0,
0,
0,
0,
0,
0,
0,
0,
0,
0,
0,
0,
0,
0,
0,
0,
0,
0,
0,
0,
0,
0,
0,
0,
0,
0,
0,
0,
0,
0,
0,
0,
0,
0,
0,
0,
0,
0,
0,
0,
0,
0,
0,
0,
0,
0,
0,
0,
0,
0,
0,
0,
0,
0,
0,
0,
0,
0,
0,
0,
0,
0,
0,
0,
0,
0,
0,
0,
0,
0,
0,
0,
0,
0,
0,
0,
0,
0,
0,
0,
0,
0,
0,
0,
0,
0,
0,
0,
0,
0,
0,
0,
0,
0,
0,
0,
0,
0,
0,
0,
0,
0,
0,
0,
0,
0,
0,
0,
0,
0,
0,
0,
0,
0,
0,
0,
0,
0,
0,
0,
0,
0,
0,
0,
0,
0,
0,
0,
0,
0,
0,
0,
0,
0,
0,
0,
0,
0,
0,
0,
0,
0,
0,
0,
0,
0,
0,
0,
0,
0,
0,
0,
0,
0,
0,
0,
0,
0,
0,
0,
0,
0,
0,
0,
0,
0,
0,
0,
0,
0,
0,
0,
0,
0,
0,
0,
0,
0,
0,
0,
0,
0,
0,
0,
0,
0,
0,
0,
0,
0,
0,
0,
0,
0,
0,
0,
0,
0,
0,
0,
0,
0,
0,
0,
0,
0,
0,
0,
0,
0,
0,
0,
0,
0,
0,
0,
0,
0,
0,
0,
0,
0,
0,
0,
0,
0,
0,
0,
0,
0,
0,
0,
0,
0,
0,
0,
0,
0,
0,
0,
0,
0,
0,
0,
0,
0,
0,
0,
0,
0,
0,
0,
0,
0,
0,
0,
0,
0,
0,
0,
0,
0,
0,
0,
0,
0,
0,
0,
0,
0,
0,
0,
0,
0,
0,
0,
0,
0,
0,
0,
0,
0,
0,
0,
0,
0,
0,
0,
0,
0,
0,
0,
0,
0,
0,
0,
0,
0,
0,
0,
0,
0,
0,
0,
0,
0,
0,
0,
0,
0,
0,
0,
0,
0,
0,
0,
0,
0,
0,
0,
0,
0,
0,
0,
0,
0,
0,
0,
0,
0,
0,
0,
0,
0,
0,
0,
0,
0,
0,
0,
0,
0,
0,
0,
0,
0,
0,
0,
0,
0,
0,
0,
0,
0,
0,
0,
0,
0,
0,
0,
0,
0,
0,
0,
0,
0,
0,
0,
0,
0,
0,
0,
0,
0,
0,
0,
0,
0,
0,
0,
0,
0,
0,
0,
0,
0,
0,
0,
0,
0,
0,
0,
0,
0,
0,
0,
0,
0,
0,
0,
0,
0,
0,
0,
0,
0,
0,
0,
0,
0,
0,
0,
0,
0,
0,
0,
#ENDOFDATA   :