File: N132962/Quantification/15 keV/Mengason MM2/MMM2 Orthoclaise[1][4].msa
#FORMAT      : EMSA/MAS Spectral Data File
#VERSION     : 1.0
#TITLE       : MMM2 Orthoclaise[1][all]
#DATE        : 28-SEP-2025
#TIME        : 20:57
#OWNER       : Unknown
#NPOINTS     : 4096
#NCOLUMNS    : 1
#XUNITS      : eV
#YUNITS      : counts
#DATATYPE    : Y
#XPERCHAN    : 9.99778
#OFFSET      : 1.69135
#BEAMKV      : 15
#SIGNALTYPE  : EDS
#ELEVANGLE   : 35
#AZIMANGLE   : 0
#LIVETIME    : 240.189
#REALTIME    : 256.234
#PROBECUR    : 1.21333
#TAUWIND     : 0
#TDEADLYR    : 0
#TACTLYR     : 0.045
#TALWIND     : 0.025
#CHOFFSET    : 0.0
#XLABEL      : Energy (eV)
#YLABEL      : Counts
#XPOSITION   : -14.11569
#YPOSITION   : -3.87206
#ZPOSITION   : 34.11879
#EDSDET      : SD
##SPECIMEN   : MMM2 Orthoclaise[1][all]
##DET_HASH   : 12273538-fd48-a23f-0a19-f1e6fa85caef
##CALIB_HASH : 6abaa72c-aa41-8738-0be9-f592914732f3
##WORKING    : 15.0 mm
##DET_NAME   : EDAX All
##DET_MODE   : MediumLE
#SPECTRUM    :
23,
25,
10,
18,
104,
373,
1301,
4678,
12401,
15007,
7159,
3346,
3092,
3835,
7023,
26071,
98273,
186878,
135393,
35786,
5667,
2914,
3647,
4783,
4863,
3857,
3297,
3408,
3579,
3719,
3901,
3921,
4182,
4736,
5650,
5931,
5177,
4761,
4677,
4812,
4885,
4929,
5212,
5245,
5364,
5693,
6693,
13383,
37832,
73679,
74931,
40464,
15987,
8135,
7632,
18325,
70768,
180524,
245034,
173040,
69338,
23498,
10699,
5351,
3132,
2825,
2862,
2777,
2760,
2678,
2666,
2609,
2679,
2834,
3084,
3135,
3128,
2706,
2694,
2596,
2456,
2419,
2414,
2376,
2337,
2486,
2522,
2462,
2410,
2364,
2296,
2413,
2353,
2241,
2308,
2277,
2297,
2172,
2220,
2128,
2158,
2158,
2127,
2227,
2262,
2551,
3403,
5886,
14253,
30898,
47046,
46632,
30444,
13673,
5298,
2915,
2760,
3454,
4923,
6707,
7164,
5661,
3543,
2249,
1738,
1685,
1583,
1636,
1630,
1546,
1577,
1607,
1574,
1480,
1461,
1415,
1399,
1456,
1409,
1458,
1423,
1381,
1402,
1402,
1430,
1311,
1348,
1350,
1339,
1339,
1270,
1293,
1307,
1252,
1257,
1228,
1219,
1117,
1244,
1232,
1186,
1232,
1144,
1146,
1135,
1076,
1154,
1208,
1193,
1137,
1125,
1171,
1032,
1053,
987,
1092,
977,
992,
966,
1022,
1059,
922,
1010,
987,
934,
945,
907,
890,
930,
923,
969,
914,
922,
853,
924,
887,
839,
858,
863,
820,
837,
793,
839,
849,
815,
868,
808,
786,
818,
935,
1239,
1674,
2307,
2487,
2449,
1901,
1380,
1015,
848,
691,
667,
725,
692,
705,
718,
661,
695,
662,
639,
664,
654,
654,
711,
782,
833,
826,
817,
716,
702,
598,
599,
566,
579,
537,
572,
547,
543,
535,
549,
567,
536,
572,
493,
516,
519,
529,
506,
473,
513,
462,
484,
483,
482,
443,
469,
423,
442,
473,
427,
436,
457,
432,
477,
435,
426,
396,
405,
436,
392,
389,
407,
375,
399,
395,
391,
405,
399,
391,
388,
357,
364,
369,
368,
354,
364,
343,
365,
300,
331,
334,
369,
359,
374,
321,
310,
312,
305,
302,
304,
343,
320,
295,
301,
290,
294,
302,
306,
296,
291,
268,
307,
283,
272,
251,
296,
260,
253,
249,
267,
262,
249,
247,
237,
240,
259,
227,
239,
243,
234,
236,
223,
227,
223,
215,
204,
216,
225,
180,
216,
195,
203,
204,
175,
173,
200,
218,
175,
184,
174,
170,
190,
181,
176,
189,
176,
175,
150,
166,
191,
145,
142,
145,
134,
145,
153,
144,
134,
154,
175,
146,
127,
121,
144,
148,
114,
104,
154,
125,
132,
108,
115,
112,
120,
123,
107,
118,
113,
114,
98,
89,
96,
112,
108,
90,
93,
96,
92,
87,
98,
78,
70,
79,
92,
73,
83,
77,
83,
82,
80,
62,
80,
66,
60,
57,
85,
70,
71,
70,
77,
73,
54,
55,
52,
57,
63,
64,
56,
42,
41,
50,
47,
48,
49,
56,
51,
34,
56,
36,
47,
27,
46,
29,
37,
27,
36,
39,
27,
32,
28,
22,
35,
21,
18,
19,
24,
19,
16,
27,
25,
29,
18,
23,
25,
14,
14,
14,
24,
16,
16,
18,
12,
17,
8,
8,
16,
14,
8,
10,
8,
6,
11,
3,
5,
5,
6,
3,
4,
8,
1,
1,
0,
0,
0,
0,
1,
0,
0,
0,
0,
1,
0,
0,
1,
0,
0,
1,
0,
0,
1,
0,
0,
1,
0,
2,
1,
0,
2,
0,
1,
0,
0,
0,
0,
0,
0,
0,
0,
0,
0,
0,
0,
1,
0,
0,
0,
0,
1,
0,
0,
0,
0,
0,
0,
0,
0,
0,
0,
0,
1,
0,
0,
0,
0,
2,
0,
0,
0,
0,
1,
0,
0,
0,
0,
1,
0,
0,
0,
0,
0,
0,
0,
0,
0,
0,
0,
0,
0,
0,
0,
0,
0,
0,
0,
0,
0,
0,
1,
0,
0,
0,
0,
0,
0,
0,
0,
0,
0,
0,
0,
0,
0,
0,
0,
0,
0,
0,
0,
0,
0,
0,
0,
0,
0,
0,
0,
0,
0,
0,
0,
0,
0,
0,
0,
0,
0,
0,
0,
0,
0,
0,
0,
0,
0,
0,
0,
0,
0,
0,
0,
0,
0,
0,
0,
0,
0,
0,
0,
0,
0,
0,
0,
0,
0,
0,
0,
0,
0,
0,
0,
0,
0,
0,
0,
0,
0,
0,
0,
0,
0,
0,
0,
0,
0,
0,
0,
0,
0,
0,
0,
0,
0,
0,
0,
0,
0,
0,
0,
0,
0,
0,
1,
0,
0,
0,
0,
0,
0,
0,
0,
0,
0,
0,
0,
0,
0,
0,
0,
0,
0,
0,
0,
0,
0,
0,
0,
0,
0,
0,
0,
0,
0,
0,
0,
0,
0,
0,
0,
0,
0,
0,
0,
0,
0,
0,
0,
0,
0,
0,
0,
0,
0,
0,
0,
0,
0,
0,
0,
0,
0,
0,
0,
0,
0,
0,
0,
0,
0,
0,
0,
0,
0,
0,
0,
0,
0,
0,
0,
0,
0,
0,
0,
0,
0,
0,
0,
0,
0,
0,
0,
0,
0,
0,
0,
0,
0,
0,
0,
0,
0,
0,
0,
0,
0,
0,
0,
0,
0,
0,
0,
0,
0,
0,
0,
0,
0,
0,
0,
0,
0,
0,
0,
0,
0,
0,
0,
0,
0,
0,
0,
0,
0,
0,
0,
0,
0,
0,
0,
0,
0,
0,
0,
0,
0,
0,
0,
0,
0,
0,
0,
0,
0,
0,
0,
0,
0,
0,
0,
0,
0,
0,
0,
0,
0,
0,
0,
0,
0,
0,
0,
0,
0,
0,
0,
0,
0,
0,
0,
0,
0,
0,
0,
0,
0,
0,
0,
0,
0,
0,
0,
0,
0,
0,
0,
0,
0,
0,
0,
0,
0,
0,
0,
0,
0,
0,
0,
0,
0,
0,
0,
0,
0,
0,
0,
0,
0,
0,
0,
0,
0,
0,
0,
0,
0,
0,
0,
0,
0,
0,
0,
0,
0,
0,
0,
0,
0,
0,
0,
0,
0,
0,
0,
0,
0,
0,
0,
0,
0,
0,
0,
0,
0,
0,
0,
0,
0,
0,
0,
0,
0,
0,
0,
0,
0,
0,
0,
0,
0,
0,
0,
0,
0,
0,
0,
0,
0,
0,
0,
0,
0,
0,
0,
0,
0,
0,
0,
0,
0,
0,
0,
0,
0,
0,
0,
0,
0,
0,
0,
0,
0,
0,
0,
0,
0,
0,
0,
0,
0,
0,
0,
0,
0,
0,
0,
0,
0,
0,
0,
0,
0,
0,
0,
0,
0,
0,
0,
0,
0,
0,
0,
0,
0,
0,
0,
0,
0,
0,
0,
0,
0,
0,
0,
0,
0,
0,
0,
0,
0,
0,
0,
0,
0,
0,
0,
0,
0,
0,
0,
0,
0,
0,
0,
0,
0,
0,
0,
0,
0,
0,
0,
0,
0,
0,
0,
0,
0,
0,
0,
0,
0,
0,
0,
0,
0,
0,
0,
0,
0,
0,
0,
0,
0,
0,
0,
0,
0,
0,
0,
0,
0,
0,
0,
0,
0,
0,
0,
0,
0,
0,
0,
0,
0,
0,
0,
0,
0,
0,
0,
0,
0,
0,
0,
0,
0,
0,
0,
0,
0,
0,
0,
0,
0,
0,
0,
0,
0,
0,
0,
0,
0,
0,
0,
0,
0,
0,
0,
0,
0,
0,
0,
0,
0,
0,
0,
0,
0,
0,
0,
0,
0,
0,
0,
0,
0,
0,
0,
0,
0,
0,
0,
0,
0,
0,
0,
0,
0,
0,
0,
0,
0,
0,
0,
0,
0,
0,
0,
0,
0,
0,
0,
0,
0,
0,
0,
0,
0,
0,
0,
0,
0,
0,
0,
0,
0,
0,
0,
0,
0,
0,
0,
0,
0,
0,
0,
0,
0,
0,
0,
0,
0,
0,
0,
0,
0,
0,
0,
0,
0,
0,
0,
0,
0,
0,
0,
0,
0,
0,
0,
0,
0,
0,
0,
0,
0,
0,
0,
0,
0,
0,
0,
0,
0,
0,
0,
0,
0,
0,
0,
0,
0,
0,
0,
0,
0,
0,
0,
0,
0,
0,
0,
0,
0,
0,
0,
0,
0,
0,
0,
0,
0,
0,
0,
0,
0,
0,
0,
0,
0,
0,
0,
0,
0,
0,
0,
0,
0,
0,
0,
0,
0,
0,
0,
0,
0,
0,
0,
0,
0,
0,
0,
0,
0,
0,
0,
0,
0,
0,
0,
0,
0,
0,
0,
0,
0,
0,
0,
0,
0,
0,
0,
0,
0,
0,
0,
0,
0,
0,
0,
0,
0,
0,
0,
0,
0,
0,
0,
0,
0,
0,
0,
0,
0,
0,
0,
0,
0,
0,
0,
0,
0,
0,
0,
0,
0,
0,
0,
0,
#ENDOFDATA   :