File: N132962/Quantification/15 keV/Mengason MM2/MMM2 SrTiO3[7][4].msa
#FORMAT      : EMSA/MAS Spectral Data File
#VERSION     : 1.0
#TITLE       : MMM2 SrTiO3[7][all]
#DATE        : 29-SEP-2025
#TIME        : 00:21
#OWNER       : Unknown
#NPOINTS     : 4096
#NCOLUMNS    : 1
#XUNITS      : eV
#YUNITS      : counts
#DATATYPE    : Y
#XPERCHAN    : 9.99778
#OFFSET      : 1.69135
#BEAMKV      : 15
#SIGNALTYPE  : EDS
#ELEVANGLE   : 35
#AZIMANGLE   : 0
#LIVETIME    : 240.255
#REALTIME    : 256.618
#PROBECUR    : 1.21151
#TAUWIND     : 0
#TDEADLYR    : 0
#TACTLYR     : 0.045
#TALWIND     : 0.025
#CHOFFSET    : 0.0
#XLABEL      : Energy (eV)
#YLABEL      : Counts
#XPOSITION   : -15.22907
#YPOSITION   : 4.54523
#ZPOSITION   : 34.11879
#EDSDET      : SD
##SPECIMEN   : MMM2 SrTiO3[7][all]
##D2STDCMP   : SrTiO3,(O:26.1592),(Ti:26.0877),(Sr:47.7532)
##DET_HASH   : 12273538-fd48-a23f-0a19-f1e6fa85caef
##CALIB_HASH : 6abaa72c-aa41-8738-0be9-f592914732f3
##WORKING    : 15.0 mm
##DET_NAME   : EDAX All
##DET_MODE   : MediumLE
#SPECTRUM    :
28,
22,
15,
88,
347,
877,
2079,
5702,
14511,
18289,
9672,
5800,
9113,
12045,
13333,
18378,
38227,
66127,
48551,
14679,
4205,
3597,
3772,
4270,
4445,
4555,
4779,
5102,
5412,
5491,
5610,
5825,
6169,
6353,
6319,
6426,
6704,
6697,
6800,
6959,
7099,
7199,
7270,
7469,
7310,
7552,
7582,
7687,
7853,
8014,
8619,
10673,
14085,
15833,
14502,
12630,
11611,
16850,
47861,
125531,
198803,
188791,
129845,
78640,
41098,
19910,
10634,
6440,
4827,
4333,
4252,
4444,
4610,
4833,
4689,
4301,
4161,
4013,
4109,
3852,
4021,
3932,
3902,
3890,
3895,
3924,
3836,
3941,
3787,
3998,
4105,
4140,
4264,
4286,
3982,
3681,
3710,
3693,
3606,
3721,
3606,
3648,
3627,
3574,
3532,
3581,
3600,
3427,
3451,
3452,
3475,
3426,
3428,
3321,
3339,
3396,
3327,
3356,
3285,
3382,
3436,
3537,
3344,
3364,
3250,
3276,
3131,
3120,
3054,
3114,
2951,
2980,
2933,
2933,
2958,
2906,
2882,
2813,
2887,
2865,
2847,
2879,
2852,
3000,
3124,
3482,
5517,
11732,
26375,
47654,
63312,
58989,
39396,
19051,
8013,
3786,
2742,
2573,
2616,
2693,
2973,
3794,
5635,
8200,
10121,
10032,
7632,
4907,
3138,
2420,
2228,
2061,
2123,
2035,
2039,
2022,
2028,
2009,
1990,
2041,
2019,
1924,
1954,
1938,
1915,
1802,
1837,
1864,
1838,
1883,
1839,
1852,
1819,
1814,
1755,
1685,
1765,
1799,
1693,
1716,
1720,
1720,
1703,
1678,
1682,
1689,
1585,
1706,
1709,
1709,
1640,
1794,
1770,
1693,
1748,
1636,
1534,
1551,
1443,
1470,
1489,
1421,
1409,
1450,
1399,
1456,
1493,
1454,
1429,
1391,
1333,
1315,
1378,
1350,
1351,
1330,
1283,
1322,
1261,
1264,
1260,
1279,
1303,
1239,
1226,
1235,
1255,
1245,
1187,
1178,
1204,
1191,
1202,
1089,
1117,
1160,
1086,
1086,
1056,
1096,
1057,
1002,
1071,
1091,
1021,
1083,
1016,
1014,
1015,
1077,
1018,
1034,
1023,
1023,
1012,
948,
971,
981,
939,
910,
887,
909,
885,
924,
900,
876,
871,
863,
914,
903,
869,
850,
828,
832,
839,
841,
808,
758,
773,
803,
815,
739,
765,
818,
735,
765,
744,
762,
752,
659,
778,
727,
736,
738,
646,
728,
628,
712,
687,
633,
654,
640,
690,
658,
620,
582,
595,
650,
628,
551,
640,
584,
581,
575,
590,
599,
584,
602,
515,
589,
551,
544,
565,
552,
477,
530,
522,
489,
509,
531,
507,
491,
459,
504,
445,
426,
459,
467,
435,
417,
436,
466,
451,
424,
445,
404,
404,
357,
408,
425,
421,
361,
370,
351,
347,
350,
388,
343,
380,
322,
352,
332,
329,
358,
354,
320,
336,
293,
294,
294,
310,
325,
284,
303,
265,
287,
284,
241,
274,
256,
251,
288,
269,
262,
245,
232,
256,
231,
284,
221,
194,
222,
244,
208,
206,
198,
217,
226,
204,
187,
181,
175,
204,
170,
196,
182,
173,
191,
164,
171,
180,
152,
151,
164,
158,
130,
144,
160,
149,
136,
138,
119,
121,
121,
131,
124,
111,
118,
92,
98,
90,
112,
97,
88,
110,
96,
98,
69,
83,
88,
62,
83,
89,
69,
63,
79,
78,
71,
61,
53,
70,
47,
80,
49,
42,
40,
38,
51,
48,
39,
18,
34,
39,
28,
37,
25,
29,
23,
22,
25,
21,
15,
25,
9,
14,
13,
11,
5,
3,
7,
3,
4,
3,
2,
2,
2,
1,
0,
0,
0,
1,
0,
1,
1,
1,
0,
0,
0,
2,
4,
1,
3,
3,
0,
0,
0,
2,
2,
2,
1,
0,
1,
0,
3,
1,
3,
0,
3,
0,
1,
1,
0,
0,
0,
1,
0,
1,
0,
0,
0,
0,
0,
1,
1,
1,
1,
0,
1,
0,
2,
1,
1,
2,
2,
1,
0,
0,
1,
1,
2,
1,
1,
0,
0,
0,
0,
2,
1,
0,
1,
1,
1,
0,
0,
0,
1,
0,
2,
0,
1,
0,
2,
1,
0,
1,
3,
0,
1,
1,
1,
0,
0,
0,
0,
0,
0,
0,
0,
0,
0,
0,
0,
0,
0,
0,
0,
0,
0,
0,
0,
0,
1,
0,
0,
0,
2,
0,
1,
0,
0,
0,
0,
1,
0,
0,
0,
0,
0,
0,
0,
0,
1,
0,
0,
0,
0,
0,
1,
1,
0,
0,
0,
0,
0,
0,
0,
1,
0,
0,
0,
0,
0,
0,
0,
1,
0,
0,
1,
1,
0,
0,
0,
0,
0,
1,
0,
0,
0,
0,
0,
0,
0,
1,
0,
0,
0,
0,
0,
0,
0,
0,
0,
0,
0,
0,
0,
0,
0,
0,
0,
1,
0,
0,
0,
0,
0,
0,
0,
0,
0,
0,
0,
0,
0,
0,
0,
0,
0,
0,
0,
0,
0,
0,
0,
0,
0,
0,
0,
0,
0,
0,
0,
0,
0,
0,
0,
0,
0,
0,
0,
0,
0,
0,
0,
0,
0,
0,
0,
0,
0,
0,
0,
0,
0,
0,
0,
0,
0,
0,
0,
0,
0,
0,
0,
0,
0,
0,
1,
0,
0,
0,
0,
0,
0,
0,
0,
0,
0,
0,
0,
0,
0,
0,
0,
0,
0,
0,
0,
0,
0,
0,
0,
0,
0,
0,
0,
0,
0,
0,
0,
0,
0,
0,
0,
1,
0,
0,
0,
0,
0,
0,
0,
0,
0,
0,
0,
0,
0,
0,
0,
0,
0,
0,
0,
0,
0,
0,
0,
0,
0,
0,
0,
0,
0,
0,
0,
0,
0,
0,
0,
0,
0,
0,
0,
0,
0,
0,
0,
0,
0,
0,
0,
0,
0,
0,
0,
0,
0,
0,
0,
0,
0,
0,
0,
0,
0,
0,
0,
0,
0,
0,
0,
0,
0,
0,
0,
0,
0,
0,
0,
0,
0,
0,
0,
0,
0,
0,
0,
0,
0,
0,
0,
0,
0,
0,
0,
0,
0,
0,
0,
0,
0,
0,
0,
0,
0,
0,
0,
0,
0,
0,
0,
0,
0,
0,
0,
0,
0,
0,
0,
0,
0,
0,
0,
0,
0,
0,
0,
0,
0,
0,
0,
0,
0,
0,
0,
0,
0,
0,
0,
0,
0,
0,
0,
0,
0,
0,
0,
0,
0,
0,
0,
0,
0,
0,
0,
0,
0,
0,
0,
0,
0,
0,
0,
0,
0,
0,
0,
0,
0,
0,
0,
0,
0,
0,
0,
0,
0,
0,
0,
0,
0,
0,
0,
0,
0,
0,
0,
0,
0,
0,
0,
0,
0,
0,
0,
0,
0,
0,
0,
0,
0,
0,
0,
0,
0,
0,
0,
0,
0,
0,
0,
0,
0,
0,
0,
0,
0,
0,
0,
0,
0,
0,
0,
0,
0,
0,
0,
0,
0,
0,
0,
0,
0,
0,
0,
0,
0,
0,
0,
0,
0,
0,
0,
0,
0,
0,
0,
0,
0,
0,
0,
0,
0,
0,
0,
0,
0,
0,
0,
0,
0,
0,
0,
0,
0,
0,
0,
0,
0,
0,
0,
0,
0,
0,
0,
0,
0,
0,
0,
0,
0,
0,
0,
0,
0,
0,
0,
0,
0,
0,
0,
0,
0,
0,
0,
0,
0,
0,
0,
0,
0,
0,
0,
0,
0,
0,
0,
0,
0,
0,
0,
0,
0,
0,
0,
0,
0,
0,
0,
0,
0,
0,
0,
0,
0,
0,
0,
0,
0,
0,
0,
0,
0,
0,
0,
0,
0,
0,
0,
0,
0,
0,
0,
0,
0,
0,
0,
0,
0,
0,
0,
0,
0,
0,
0,
0,
0,
0,
0,
0,
0,
0,
0,
0,
0,
0,
0,
0,
0,
0,
0,
0,
0,
0,
0,
0,
0,
0,
0,
0,
0,
0,
0,
0,
0,
0,
0,
0,
0,
0,
0,
0,
0,
0,
0,
0,
0,
0,
0,
0,
0,
0,
0,
0,
0,
0,
0,
0,
0,
0,
0,
0,
0,
0,
0,
0,
0,
0,
0,
0,
0,
0,
0,
0,
0,
0,
0,
0,
0,
0,
0,
0,
0,
0,
0,
0,
0,
0,
0,
0,
0,
0,
0,
0,
0,
0,
0,
0,
0,
0,
0,
0,
0,
0,
0,
0,
0,
0,
0,
0,
0,
0,
0,
0,
0,
0,
0,
0,
0,
0,
0,
0,
0,
0,
0,
0,
0,
0,
0,
0,
0,
0,
0,
0,
0,
0,
0,
0,
0,
0,
0,
0,
0,
0,
0,
0,
0,
0,
0,
0,
0,
0,
0,
0,
0,
0,
0,
0,
0,
0,
0,
0,
0,
0,
0,
0,
0,
0,
0,
0,
0,
0,
0,
0,
0,
0,
0,
0,
0,
0,
0,
0,
0,
0,
0,
0,
0,
0,
0,
0,
0,
0,
0,
0,
0,
0,
0,
0,
0,
0,
0,
0,
0,
0,
0,
0,
0,
0,
0,
0,
0,
0,
0,
0,
0,
#ENDOFDATA   :