File: N132962/Quantification/15 keV/Mengason MM2/MMM2 Zircon[7][4].msa
#FORMAT      : EMSA/MAS Spectral Data File
#VERSION     : 1.0
#TITLE       : MMM2 Zircon[7][all]
#DATE        : 29-SEP-2025
#TIME        : 01:13
#OWNER       : Unknown
#NPOINTS     : 4096
#NCOLUMNS    : 1
#XUNITS      : eV
#YUNITS      : counts
#DATATYPE    : Y
#XPERCHAN    : 9.99778
#OFFSET      : 1.69135
#BEAMKV      : 15
#SIGNALTYPE  : EDS
#ELEVANGLE   : 35
#AZIMANGLE   : 0
#LIVETIME    : 240.245
#REALTIME    : 257.0704
#PROBECUR    : 1.21248
#TAUWIND     : 0
#TDEADLYR    : 0
#TACTLYR     : 0.045
#TALWIND     : 0.025
#CHOFFSET    : 0.0
#XLABEL      : Energy (eV)
#YLABEL      : Counts
#XPOSITION   : -13.63907
#YPOSITION   : 7.01785
#ZPOSITION   : 34.11879
#EDSDET      : SD
##SPECIMEN   : MMM2 Zircon[7][all]
##D2STDCMP   : Zircon,(O:34.9128),(Si:15.3216),(Zr:49.7657),8.0
##DET_HASH   : 12273538-fd48-a23f-0a19-f1e6fa85caef
##CALIB_HASH : 6abaa72c-aa41-8738-0be9-f592914732f3
##WORKING    : 15.0 mm
##DET_NAME   : EDAX All
##DET_MODE   : MediumLE
#SPECTRUM    :
27,
21,
20,
67,
455,
1337,
2311,
5400,
14737,
19838,
12035,
5544,
4654,
5191,
6414,
16737,
57844,
106745,
77962,
22138,
5274,
3800,
4033,
4496,
4765,
4800,
4949,
5192,
5439,
5618,
5797,
5884,
6117,
6375,
6460,
6719,
6793,
6838,
6884,
6946,
7184,
7330,
7145,
7533,
7546,
7598,
7747,
7515,
7822,
8120,
8068,
8119,
8112,
8833,
10533,
17931,
48208,
112539,
150855,
111886,
52717,
23722,
14471,
11308,
12466,
20717,
48469,
102398,
141940,
126514,
93618,
72571,
49112,
28258,
16326,
10147,
6436,
4826,
4044,
3633,
3478,
3549,
3871,
4300,
4445,
3933,
3560,
3408,
3250,
3275,
3206,
3244,
3149,
3106,
3193,
3191,
3117,
3169,
3094,
3218,
3184,
3215,
3133,
3101,
3081,
3125,
3151,
3039,
2955,
3040,
3018,
2918,
2995,
2945,
2957,
3079,
3104,
3056,
2968,
2985,
2867,
2929,
2835,
2830,
2877,
2981,
2941,
2958,
2922,
2784,
2743,
2656,
2631,
2676,
2647,
2703,
2641,
2667,
2623,
2585,
2605,
2554,
2468,
2422,
2397,
2451,
2351,
2341,
2298,
2311,
2397,
2316,
2337,
2299,
2312,
2312,
2171,
2211,
2166,
2231,
2211,
2189,
2133,
2145,
2195,
2061,
2162,
2051,
2063,
2004,
1995,
2006,
1958,
2025,
1945,
1887,
1967,
1972,
1955,
1892,
1929,
1883,
1900,
1857,
1797,
1852,
1816,
1804,
1777,
1805,
1856,
1701,
1658,
1727,
1691,
1651,
1634,
1678,
1665,
1651,
1575,
1645,
1547,
1605,
1581,
1493,
1606,
1543,
1562,
1561,
1537,
1530,
1516,
1542,
1509,
1508,
1451,
1414,
1404,
1466,
1421,
1408,
1407,
1422,
1337,
1306,
1361,
1300,
1307,
1324,
1251,
1288,
1313,
1262,
1234,
1226,
1255,
1251,
1217,
1180,
1195,
1122,
1141,
1151,
1101,
1203,
1105,
1139,
1085,
1101,
1163,
1172,
1066,
1016,
1099,
1008,
1054,
1062,
1054,
1015,
1078,
1110,
1104,
1153,
1092,
1032,
1019,
970,
985,
958,
922,
916,
952,
920,
909,
878,
962,
883,
946,
877,
840,
867,
891,
846,
859,
817,
822,
811,
816,
806,
759,
805,
732,
842,
794,
722,
755,
778,
754,
773,
779,
798,
743,
716,
722,
735,
713,
653,
684,
647,
664,
713,
696,
642,
662,
700,
643,
630,
613,
643,
573,
570,
588,
581,
581,
617,
611,
604,
567,
574,
550,
608,
561,
497,
541,
530,
512,
507,
523,
538,
490,
492,
535,
487,
471,
468,
468,
471,
453,
437,
471,
449,
461,
458,
428,
477,
395,
422,
461,
448,
405,
404,
372,
407,
405,
400,
385,
396,
350,
396,
415,
330,
360,
363,
369,
355,
372,
335,
311,
316,
323,
323,
316,
298,
289,
313,
283,
289,
267,
287,
295,
277,
294,
258,
262,
276,
287,
257,
216,
239,
246,
235,
226,
230,
232,
223,
232,
206,
205,
244,
178,
197,
180,
222,
206,
181,
188,
179,
195,
171,
165,
153,
160,
160,
150,
151,
171,
153,
159,
129,
141,
150,
143,
140,
141,
129,
140,
115,
131,
118,
111,
128,
117,
113,
115,
98,
94,
92,
101,
94,
84,
99,
90,
105,
98,
81,
75,
74,
69,
78,
65,
63,
67,
67,
59,
79,
63,
52,
41,
65,
58,
46,
45,
51,
50,
36,
35,
29,
29,
34,
27,
29,
26,
25,
33,
31,
28,
20,
21,
15,
22,
12,
16,
11,
8,
12,
3,
5,
5,
5,
2,
1,
3,
3,
3,
1,
0,
2,
0,
0,
4,
0,
0,
1,
0,
1,
1,
1,
0,
2,
1,
0,
3,
1,
0,
1,
0,
1,
0,
2,
0,
0,
1,
1,
0,
1,
0,
1,
1,
0,
0,
0,
1,
1,
0,
0,
0,
0,
0,
0,
0,
1,
1,
0,
1,
1,
2,
1,
0,
0,
1,
0,
0,
0,
0,
0,
0,
0,
0,
1,
0,
0,
0,
0,
0,
0,
1,
0,
0,
0,
0,
1,
1,
1,
1,
3,
0,
1,
0,
0,
1,
0,
0,
0,
0,
0,
0,
0,
0,
1,
0,
0,
1,
0,
0,
0,
0,
0,
0,
0,
0,
0,
0,
0,
3,
0,
0,
2,
0,
0,
0,
0,
0,
0,
0,
2,
0,
1,
0,
0,
0,
0,
0,
0,
0,
0,
0,
0,
1,
0,
1,
0,
1,
0,
0,
1,
0,
0,
0,
1,
1,
0,
0,
0,
1,
0,
0,
0,
0,
0,
1,
0,
0,
0,
0,
0,
0,
0,
0,
0,
0,
0,
0,
0,
0,
0,
0,
0,
0,
0,
0,
0,
0,
0,
0,
0,
0,
0,
0,
0,
0,
0,
0,
0,
0,
0,
0,
0,
0,
0,
0,
0,
0,
0,
0,
0,
0,
0,
0,
0,
0,
0,
0,
0,
1,
0,
0,
0,
0,
0,
0,
0,
0,
0,
0,
1,
0,
0,
0,
0,
0,
0,
0,
0,
0,
0,
0,
0,
0,
0,
0,
0,
0,
0,
0,
0,
0,
0,
0,
0,
0,
0,
0,
0,
0,
0,
0,
0,
0,
0,
0,
0,
0,
0,
0,
0,
0,
0,
0,
0,
0,
0,
0,
0,
0,
0,
0,
0,
0,
0,
0,
0,
0,
0,
0,
0,
0,
0,
0,
0,
0,
0,
0,
0,
0,
0,
0,
0,
0,
0,
0,
0,
0,
0,
0,
0,
0,
0,
0,
0,
0,
0,
0,
0,
0,
0,
0,
0,
0,
0,
0,
0,
0,
0,
0,
0,
0,
0,
0,
0,
0,
0,
0,
0,
0,
0,
0,
0,
0,
0,
0,
0,
0,
0,
0,
0,
0,
0,
0,
0,
0,
0,
0,
0,
0,
0,
0,
0,
0,
0,
0,
0,
0,
0,
1,
0,
0,
0,
0,
0,
0,
0,
0,
0,
0,
0,
0,
0,
0,
0,
0,
0,
0,
0,
0,
0,
0,
0,
0,
0,
0,
0,
0,
0,
0,
0,
0,
0,
0,
0,
0,
0,
0,
0,
0,
0,
0,
0,
0,
0,
0,
0,
0,
0,
0,
0,
0,
0,
0,
0,
0,
0,
0,
0,
0,
0,
0,
0,
0,
0,
0,
0,
0,
0,
0,
0,
0,
0,
0,
0,
0,
0,
0,
0,
0,
0,
0,
0,
0,
0,
0,
0,
0,
0,
0,
0,
0,
0,
0,
0,
0,
0,
0,
0,
0,
0,
0,
0,
0,
0,
0,
0,
0,
0,
0,
0,
0,
0,
0,
0,
0,
0,
0,
0,
0,
0,
0,
0,
0,
0,
0,
0,
0,
0,
0,
0,
0,
0,
0,
0,
0,
0,
0,
0,
0,
0,
0,
0,
0,
0,
0,
0,
0,
0,
0,
0,
0,
0,
0,
0,
0,
0,
0,
0,
0,
0,
0,
0,
0,
0,
0,
0,
0,
0,
0,
0,
0,
0,
0,
0,
0,
0,
0,
0,
0,
0,
0,
0,
0,
0,
0,
0,
0,
0,
0,
0,
0,
0,
0,
0,
0,
0,
0,
0,
0,
0,
0,
0,
0,
0,
0,
0,
0,
0,
0,
0,
0,
0,
0,
0,
0,
0,
0,
0,
0,
0,
0,
0,
0,
0,
0,
0,
0,
0,
0,
0,
0,
0,
0,
0,
0,
0,
0,
0,
0,
0,
0,
0,
0,
0,
0,
0,
0,
0,
0,
0,
0,
0,
0,
0,
0,
0,
0,
0,
0,
0,
0,
0,
0,
0,
0,
0,
0,
0,
0,
0,
0,
0,
0,
0,
0,
0,
0,
0,
0,
0,
0,
0,
0,
0,
0,
0,
0,
0,
0,
0,
0,
0,
0,
0,
0,
0,
0,
0,
0,
0,
0,
0,
0,
0,
0,
0,
0,
0,
0,
0,
0,
0,
0,
0,
0,
0,
0,
0,
0,
0,
0,
0,
0,
0,
0,
0,
0,
0,
0,
0,
0,
0,
0,
0,
0,
0,
0,
0,
0,
0,
0,
0,
0,
0,
0,
0,
0,
0,
0,
0,
0,
0,
0,
0,
0,
0,
0,
0,
0,
0,
0,
0,
0,
0,
0,
0,
0,
0,
0,
0,
0,
0,
0,
0,
0,
0,
0,
0,
0,
0,
0,
0,
0,
0,
0,
0,
0,
0,
0,
0,
0,
0,
0,
0,
0,
0,
0,
0,
0,
0,
0,
0,
0,
0,
0,
0,
0,
0,
0,
0,
0,
0,
0,
0,
0,
0,
0,
0,
0,
0,
0,
0,
0,
0,
0,
0,
0,
0,
0,
0,
0,
0,
0,
0,
0,
0,
0,
0,
0,
0,
0,
0,
0,
0,
0,
0,
0,
0,
0,
0,
0,
0,
0,
0,
0,
0,
0,
0,
0,
0,
0,
0,
0,
0,
0,
0,
0,
0,
0,
0,
0,
0,
0,
0,
0,
0,
0,
0,
0,
0,
0,
0,
0,
0,
0,
0,
0,
0,
0,
0,
0,
0,
0,
0,
0,
0,
0,
0,
0,
0,
#ENDOFDATA   :