File: N132962/Quantification/15 keV/Mengason MM2/MMM2 Olivine[0][4].msa
#FORMAT      : EMSA/MAS Spectral Data File
#VERSION     : 1.0
#TITLE       : MMM2 Olivine[0][all]
#DATE        : 28-SEP-2025
#TIME        : 23:01
#OWNER       : Unknown
#NPOINTS     : 4096
#NCOLUMNS    : 1
#XUNITS      : eV
#YUNITS      : counts
#DATATYPE    : Y
#XPERCHAN    : 9.99778
#OFFSET      : 1.69135
#BEAMKV      : 15
#SIGNALTYPE  : EDS
#ELEVANGLE   : 35
#AZIMANGLE   : 0
#LIVETIME    : 240.319
#REALTIME    : 258.15
#PROBECUR    : 1.2132
#TAUWIND     : 0
#TDEADLYR    : 0
#TACTLYR     : 0.045
#TALWIND     : 0.025
#CHOFFSET    : 0.0
#XLABEL      : Energy (eV)
#YLABEL      : Counts
#XPOSITION   : -21.30641
#YPOSITION   : 2.48524
#ZPOSITION   : 34.11879
#EDSDET      : SD
##SPECIMEN   : MMM2 Olivine[0][all]
##DET_HASH   : 12273538-fd48-a23f-0a19-f1e6fa85caef
##CALIB_HASH : 6abaa72c-aa41-8738-0be9-f592914732f3
##WORKING    : 15.0 mm
##DET_NAME   : EDAX All
##DET_MODE   : MediumLE
#SPECTRUM    :
30,
38,
8,
19,
105,
399,
1180,
3775,
10735,
13282,
7059,
3902,
4085,
5473,
10462,
38878,
147039,
281395,
204006,
54107,
8243,
4399,
6128,
9980,
10017,
6087,
4226,
4127,
4674,
4697,
4404,
4344,
4551,
4998,
5467,
5787,
6035,
6558,
8821,
21970,
85920,
217114,
261425,
145197,
40703,
8733,
3999,
3591,
3427,
3639,
3796,
3819,
3983,
4019,
4842,
11175,
40742,
103155,
138871,
99226,
40663,
14524,
7266,
4203,
2882,
2569,
2544,
2461,
2455,
2526,
2479,
2506,
2530,
2678,
2769,
2988,
2924,
2708,
2521,
2415,
2416,
2459,
2603,
2783,
2698,
2492,
2346,
2312,
2320,
2206,
2225,
2219,
2232,
2174,
2185,
2124,
2146,
2127,
2244,
2429,
2588,
2367,
2166,
1997,
1988,
1940,
1864,
1903,
1854,
1879,
1907,
1823,
1832,
1785,
1753,
1888,
1804,
1851,
1755,
1623,
1782,
1632,
1679,
1559,
1675,
1600,
1614,
1623,
1577,
1510,
1537,
1505,
1489,
1552,
1522,
1511,
1444,
1412,
1366,
1473,
1403,
1346,
1418,
1413,
1277,
1334,
1319,
1251,
1268,
1277,
1269,
1289,
1221,
1254,
1236,
1209,
1248,
1243,
1203,
1165,
1154,
1161,
1125,
1145,
1149,
1160,
1100,
1098,
1125,
1097,
1044,
1055,
1021,
1016,
999,
1039,
1008,
1032,
979,
946,
937,
945,
942,
915,
958,
918,
903,
888,
896,
847,
825,
865,
861,
897,
874,
974,
961,
960,
912,
879,
886,
866,
850,
775,
813,
741,
846,
861,
921,
1288,
2219,
3758,
5513,
6510,
6090,
4507,
2834,
1653,
971,
762,
737,
665,
705,
676,
661,
628,
660,
692,
679,
650,
733,
772,
884,
1061,
1310,
1340,
1276,
1086,
791,
696,
622,
582,
560,
521,
532,
587,
605,
646,
673,
723,
691,
603,
567,
517,
523,
511,
520,
542,
439,
495,
455,
483,
493,
457,
417,
446,
431,
439,
381,
437,
438,
431,
400,
451,
464,
442,
426,
423,
432,
392,
389,
390,
374,
373,
383,
404,
349,
371,
343,
344,
319,
353,
321,
331,
312,
321,
294,
339,
319,
313,
329,
306,
287,
294,
295,
306,
307,
287,
281,
278,
299,
269,
286,
283,
263,
271,
236,
305,
273,
247,
257,
258,
225,
246,
257,
261,
227,
250,
264,
231,
232,
242,
240,
226,
188,
238,
233,
226,
220,
224,
237,
206,
171,
236,
198,
217,
184,
182,
180,
200,
180,
205,
177,
202,
180,
154,
182,
185,
155,
168,
169,
154,
175,
161,
170,
153,
157,
149,
149,
148,
158,
148,
122,
140,
157,
132,
154,
143,
129,
138,
143,
122,
128,
134,
140,
109,
125,
110,
124,
94,
120,
104,
108,
101,
114,
98,
92,
111,
88,
81,
91,
75,
81,
76,
80,
107,
91,
83,
89,
75,
88,
71,
92,
82,
81,
75,
68,
59,
63,
71,
74,
75,
74,
67,
53,
51,
64,
61,
55,
59,
61,
54,
45,
48,
57,
51,
60,
49,
53,
40,
37,
39,
45,
43,
40,
49,
38,
38,
25,
35,
34,
34,
24,
33,
34,
42,
36,
31,
24,
21,
24,
20,
26,
17,
20,
24,
26,
15,
16,
11,
23,
16,
19,
12,
16,
14,
13,
11,
16,
20,
15,
12,
13,
12,
13,
12,
16,
10,
4,
5,
4,
4,
5,
3,
4,
2,
2,
2,
1,
0,
2,
0,
0,
0,
0,
0,
0,
0,
0,
0,
0,
0,
1,
0,
0,
0,
0,
0,
0,
0,
0,
0,
1,
3,
0,
0,
2,
2,
0,
0,
1,
0,
0,
0,
0,
0,
0,
0,
0,
0,
0,
0,
0,
0,
0,
1,
0,
0,
0,
0,
0,
0,
0,
0,
0,
0,
0,
1,
0,
0,
0,
0,
0,
0,
0,
0,
0,
0,
0,
0,
0,
0,
0,
0,
0,
0,
0,
0,
0,
0,
0,
0,
0,
0,
0,
0,
0,
0,
0,
0,
0,
0,
0,
0,
0,
0,
0,
0,
0,
0,
0,
0,
0,
0,
0,
0,
0,
0,
0,
0,
0,
0,
0,
0,
0,
0,
0,
0,
0,
0,
0,
0,
0,
0,
0,
0,
0,
0,
0,
0,
1,
0,
0,
0,
0,
0,
0,
0,
0,
0,
0,
0,
0,
0,
0,
0,
0,
0,
0,
1,
0,
0,
0,
0,
0,
0,
0,
0,
0,
0,
0,
0,
0,
0,
0,
0,
0,
0,
0,
0,
0,
0,
0,
0,
0,
0,
0,
0,
0,
0,
0,
0,
0,
0,
0,
0,
0,
0,
0,
0,
0,
0,
0,
0,
0,
0,
0,
0,
0,
0,
0,
0,
0,
0,
0,
0,
0,
0,
0,
0,
0,
0,
0,
0,
0,
0,
0,
0,
0,
0,
0,
0,
0,
0,
0,
0,
0,
0,
0,
0,
0,
0,
0,
0,
0,
0,
0,
0,
0,
0,
0,
0,
0,
0,
0,
0,
0,
0,
0,
0,
0,
0,
0,
0,
0,
0,
0,
0,
0,
0,
0,
0,
0,
0,
0,
0,
0,
0,
0,
0,
0,
0,
0,
0,
0,
0,
0,
0,
0,
0,
0,
0,
0,
0,
0,
0,
0,
0,
0,
0,
0,
0,
0,
0,
0,
0,
0,
0,
0,
0,
0,
0,
0,
0,
0,
0,
0,
0,
0,
0,
0,
0,
0,
0,
0,
0,
0,
0,
0,
0,
0,
0,
0,
0,
0,
0,
0,
0,
0,
0,
0,
0,
0,
0,
0,
0,
0,
0,
0,
0,
0,
0,
0,
0,
0,
0,
0,
0,
0,
0,
0,
0,
0,
0,
0,
0,
0,
0,
0,
0,
0,
0,
0,
0,
0,
0,
0,
0,
0,
0,
0,
0,
0,
0,
0,
0,
0,
0,
0,
0,
0,
0,
0,
0,
0,
0,
0,
0,
0,
0,
0,
0,
0,
0,
0,
0,
0,
0,
0,
0,
0,
0,
0,
0,
0,
0,
0,
0,
0,
0,
0,
0,
0,
0,
0,
0,
0,
0,
0,
0,
0,
0,
0,
0,
0,
0,
0,
0,
0,
0,
0,
0,
0,
0,
0,
0,
0,
0,
0,
0,
0,
0,
0,
0,
0,
0,
0,
0,
0,
0,
0,
0,
0,
0,
0,
0,
0,
0,
0,
0,
0,
0,
0,
0,
0,
0,
0,
0,
0,
0,
0,
0,
0,
0,
0,
0,
0,
0,
0,
0,
0,
0,
0,
0,
0,
0,
0,
0,
0,
0,
0,
0,
0,
0,
0,
0,
0,
0,
0,
0,
0,
0,
0,
0,
0,
0,
0,
0,
0,
0,
0,
0,
0,
0,
0,
0,
0,
0,
0,
0,
0,
0,
0,
0,
0,
0,
0,
0,
0,
0,
0,
0,
0,
0,
0,
0,
0,
0,
0,
0,
0,
0,
0,
0,
0,
0,
0,
0,
0,
0,
0,
0,
0,
0,
0,
0,
0,
0,
0,
0,
0,
0,
0,
0,
0,
0,
0,
0,
0,
0,
0,
0,
0,
0,
0,
0,
0,
0,
0,
0,
0,
0,
0,
0,
0,
0,
0,
0,
0,
0,
0,
0,
0,
0,
0,
0,
0,
0,
0,
0,
0,
0,
0,
0,
0,
0,
0,
0,
0,
0,
0,
0,
0,
0,
0,
0,
0,
0,
0,
0,
0,
0,
0,
0,
0,
0,
0,
0,
0,
0,
0,
0,
0,
0,
0,
0,
0,
0,
0,
0,
0,
0,
0,
0,
0,
0,
0,
0,
0,
0,
0,
0,
0,
0,
0,
0,
0,
0,
0,
0,
0,
0,
0,
0,
0,
0,
0,
0,
0,
0,
0,
0,
0,
0,
0,
0,
0,
0,
0,
0,
0,
0,
0,
0,
0,
0,
0,
0,
0,
0,
0,
0,
0,
0,
0,
0,
0,
0,
0,
0,
0,
0,
0,
0,
0,
0,
0,
0,
0,
0,
0,
0,
0,
0,
0,
0,
0,
0,
0,
0,
0,
0,
0,
0,
0,
0,
0,
0,
0,
0,
0,
0,
0,
0,
0,
0,
0,
0,
0,
0,
0,
0,
0,
0,
0,
0,
0,
0,
0,
0,
0,
0,
0,
0,
0,
0,
0,
0,
0,
0,
0,
0,
0,
0,
0,
0,
0,
0,
0,
0,
0,
0,
0,
0,
0,
0,
0,
0,
0,
0,
0,
0,
0,
0,
0,
0,
0,
0,
0,
0,
0,
0,
0,
0,
0,
0,
0,
0,
0,
0,
0,
0,
0,
0,
0,
0,
0,
0,
0,
0,
0,
0,
0,
0,
0,
0,
0,
0,
0,
0,
0,
0,
0,
0,
0,
0,
0,
0,
0,
0,
0,
0,
0,
0,
0,
0,
0,
0,
0,
0,
0,
0,
0,
0,
0,
0,
0,
0,
0,
0,
0,
0,
0,
0,
0,
0,
0,
0,
0,
0,
0,
0,
0,
0,
0,
0,
#ENDOFDATA   :