File: N132962/Quantification/15 keV/Mengason MM2/MMM2 Stibnite[6][4].msa
#FORMAT      : EMSA/MAS Spectral Data File
#VERSION     : 1.0
#TITLE       : MMM2 Stibnite[6][all]
#DATE        : 28-SEP-2025
#TIME        : 23:39
#OWNER       : Unknown
#NPOINTS     : 4096
#NCOLUMNS    : 1
#XUNITS      : eV
#YUNITS      : counts
#DATATYPE    : Y
#XPERCHAN    : 9.99778
#OFFSET      : 1.69135
#BEAMKV      : 15
#SIGNALTYPE  : EDS
#ELEVANGLE   : 35
#AZIMANGLE   : 0
#LIVETIME    : 240.237
#REALTIME    : 260.455
#PROBECUR    : 1.21079
#TAUWIND     : 0
#TDEADLYR    : 0
#TACTLYR     : 0.045
#TALWIND     : 0.025
#CHOFFSET    : 0.0
#XLABEL      : Energy (eV)
#YLABEL      : Counts
#XPOSITION   : -14.43413
#YPOSITION   : 2.29201
#ZPOSITION   : 34.11879
#EDSDET      : SD
##SPECIMEN   : MMM2 Stibnite[6][all]
##DET_HASH   : 12273538-fd48-a23f-0a19-f1e6fa85caef
##CALIB_HASH : 6abaa72c-aa41-8738-0be9-f592914732f3
##WORKING    : 15.0 mm
##DET_NAME   : EDAX All
##DET_MODE   : MediumLE
#SPECTRUM    :
23,
24,
16,
219,
1496,
3085,
3348,
6823,
17854,
22341,
11766,
6291,
9210,
18152,
23457,
17133,
11266,
11637,
11976,
9981,
7045,
5794,
5664,
6731,
8035,
7954,
7253,
6415,
6265,
6064,
5887,
5819,
5875,
6160,
6388,
6352,
6558,
6768,
6801,
7155,
7166,
7469,
7386,
7709,
7737,
7848,
8044,
8030,
8190,
8435,
8231,
8225,
8234,
8113,
8304,
8367,
8591,
9025,
9731,
9511,
9239,
9342,
9361,
8444,
7971,
7798,
7626,
7722,
7942,
8042,
8144,
8802,
10669,
15034,
30335,
74604,
147384,
183178,
134164,
60142,
23302,
17615,
19110,
16482,
11236,
7548,
6139,
5593,
5642,
5563,
5581,
5586,
5490,
5449,
5414,
5500,
5466,
5384,
5439,
5262,
5314,
5309,
5405,
5604,
6317,
7604,
8741,
8543,
7343,
5968,
5404,
5235,
5449,
6127,
6754,
7477,
9843,
18681,
42528,
80297,
104393,
92366,
55666,
24818,
11720,
11912,
21781,
38124,
51001,
49711,
38294,
26016,
16943,
11915,
10253,
12573,
16272,
17633,
14408,
9579,
6028,
4753,
4917,
5919,
7763,
8635,
7625,
5837,
4318,
3762,
3726,
4513,
5186,
5771,
5292,
4515,
3755,
3359,
3207,
3058,
3010,
2902,
2897,
2887,
2856,
2851,
2923,
2898,
2808,
2847,
2857,
2879,
2782,
2756,
2797,
2792,
2736,
2786,
2688,
2736,
2740,
2806,
2762,
2674,
2720,
2747,
2586,
2620,
2629,
2610,
2549,
2671,
2499,
2651,
2656,
2678,
2701,
2722,
2721,
2559,
2526,
2462,
2555,
2479,
2515,
2543,
2482,
2429,
2400,
2381,
2389,
2403,
2511,
2412,
2394,
2333,
2234,
2184,
2223,
2177,
2087,
2138,
2164,
2187,
2078,
2038,
2111,
2080,
2124,
2076,
2081,
2094,
2030,
2002,
1977,
1974,
2013,
2002,
1951,
1911,
1994,
1916,
1960,
1970,
1875,
1897,
1870,
1903,
1897,
1929,
1875,
1844,
1759,
1791,
1785,
1710,
1693,
1714,
1739,
1749,
1718,
1695,
1677,
1689,
1654,
1631,
1628,
1557,
1590,
1529,
1614,
1575,
1555,
1504,
1560,
1516,
1461,
1533,
1459,
1445,
1473,
1509,
1445,
1387,
1408,
1337,
1438,
1348,
1411,
1368,
1360,
1274,
1261,
1325,
1285,
1259,
1266,
1223,
1227,
1247,
1214,
1262,
1203,
1231,
1187,
1210,
1222,
1163,
1186,
1141,
1189,
1088,
1138,
1111,
1135,
1056,
1184,
1078,
1096,
1113,
1109,
994,
1078,
1044,
1086,
1058,
999,
975,
979,
983,
976,
997,
1029,
900,
926,
928,
897,
921,
946,
905,
867,
839,
888,
840,
809,
897,
898,
819,
857,
821,
813,
791,
812,
763,
794,
786,
749,
713,
725,
797,
705,
739,
716,
691,
731,
690,
713,
674,
695,
645,
714,
673,
633,
639,
662,
624,
604,
608,
641,
588,
615,
542,
593,
572,
578,
581,
557,
564,
550,
510,
490,
511,
506,
505,
460,
517,
468,
471,
492,
458,
440,
481,
442,
447,
418,
407,
403,
443,
446,
443,
396,
404,
362,
401,
384,
368,
338,
389,
344,
359,
308,
344,
331,
337,
354,
318,
320,
281,
309,
310,
274,
303,
297,
273,
259,
251,
277,
214,
259,
238,
262,
243,
216,
204,
215,
222,
218,
186,
222,
207,
176,
227,
188,
179,
193,
155,
167,
180,
171,
175,
142,
152,
142,
105,
115,
115,
141,
129,
115,
95,
111,
90,
100,
110,
102,
90,
88,
83,
79,
91,
61,
78,
60,
56,
62,
53,
49,
50,
33,
41,
39,
46,
36,
31,
22,
20,
19,
22,
15,
6,
6,
5,
7,
5,
5,
2,
6,
2,
2,
2,
1,
5,
3,
4,
2,
2,
3,
4,
4,
3,
6,
2,
2,
4,
2,
6,
1,
4,
0,
0,
0,
3,
2,
1,
3,
4,
3,
6,
2,
3,
1,
3,
1,
2,
0,
5,
2,
4,
3,
2,
3,
1,
1,
0,
2,
0,
0,
3,
1,
0,
0,
0,
2,
3,
2,
2,
4,
2,
2,
2,
3,
1,
1,
1,
1,
0,
2,
1,
5,
2,
1,
1,
2,
2,
1,
0,
1,
2,
0,
1,
0,
1,
2,
1,
1,
1,
0,
1,
2,
1,
0,
1,
2,
0,
0,
2,
0,
0,
0,
0,
0,
1,
2,
0,
0,
0,
0,
1,
0,
0,
0,
0,
0,
0,
5,
0,
2,
1,
2,
1,
0,
0,
0,
0,
1,
1,
0,
0,
0,
0,
0,
1,
1,
0,
0,
0,
1,
0,
0,
0,
0,
0,
1,
2,
1,
1,
1,
0,
0,
1,
0,
1,
1,
1,
1,
1,
1,
0,
0,
0,
0,
0,
0,
0,
1,
0,
0,
1,
0,
0,
0,
1,
0,
0,
1,
1,
0,
0,
0,
0,
1,
0,
0,
0,
0,
0,
0,
2,
0,
1,
0,
0,
1,
0,
0,
0,
1,
0,
0,
0,
0,
0,
0,
0,
0,
0,
0,
0,
0,
0,
0,
0,
0,
0,
0,
1,
0,
0,
0,
0,
1,
0,
0,
0,
0,
0,
0,
0,
1,
0,
0,
1,
0,
0,
0,
0,
0,
1,
1,
0,
0,
0,
0,
1,
0,
0,
0,
0,
0,
0,
0,
0,
0,
0,
0,
0,
0,
0,
0,
0,
0,
0,
0,
1,
0,
1,
0,
0,
0,
0,
0,
0,
0,
0,
0,
0,
0,
0,
0,
0,
0,
0,
0,
0,
0,
0,
0,
0,
0,
0,
0,
0,
0,
0,
0,
0,
0,
0,
0,
0,
0,
0,
0,
0,
0,
0,
0,
0,
0,
0,
0,
0,
0,
0,
0,
0,
0,
0,
0,
0,
0,
0,
0,
0,
0,
0,
0,
0,
0,
0,
0,
0,
0,
0,
0,
0,
0,
0,
0,
0,
0,
1,
0,
0,
0,
0,
0,
0,
0,
0,
0,
0,
0,
0,
0,
0,
0,
0,
0,
0,
0,
0,
0,
0,
0,
0,
0,
0,
0,
0,
0,
0,
0,
0,
0,
0,
0,
0,
0,
0,
0,
0,
0,
0,
0,
0,
0,
0,
0,
0,
0,
0,
0,
0,
0,
0,
0,
0,
0,
0,
0,
0,
0,
0,
0,
0,
0,
0,
0,
0,
0,
0,
0,
0,
0,
0,
0,
0,
0,
0,
0,
0,
0,
0,
0,
0,
0,
0,
0,
0,
0,
0,
0,
0,
0,
0,
0,
0,
0,
0,
0,
0,
0,
0,
0,
0,
0,
0,
0,
0,
0,
0,
0,
0,
0,
0,
0,
0,
0,
0,
0,
0,
0,
0,
0,
0,
0,
0,
0,
0,
0,
0,
0,
0,
0,
0,
0,
0,
0,
0,
0,
0,
0,
0,
0,
0,
0,
0,
0,
0,
0,
0,
0,
0,
0,
0,
0,
0,
0,
0,
0,
0,
0,
0,
0,
0,
0,
0,
0,
0,
0,
0,
0,
0,
0,
0,
0,
0,
0,
0,
0,
0,
0,
0,
0,
0,
0,
0,
0,
0,
0,
0,
0,
0,
0,
0,
0,
0,
0,
0,
0,
0,
0,
0,
0,
0,
0,
0,
0,
0,
0,
0,
0,
0,
0,
0,
0,
0,
0,
0,
0,
0,
0,
0,
0,
0,
0,
0,
0,
0,
0,
0,
0,
0,
0,
0,
0,
0,
0,
0,
0,
0,
0,
0,
0,
0,
0,
0,
0,
0,
0,
0,
0,
0,
0,
0,
0,
0,
0,
0,
0,
0,
0,
0,
0,
0,
0,
0,
0,
0,
0,
0,
0,
0,
0,
0,
0,
0,
0,
0,
0,
0,
0,
0,
0,
0,
0,
0,
0,
0,
0,
0,
0,
0,
0,
0,
0,
0,
0,
0,
0,
0,
0,
0,
0,
0,
0,
0,
0,
0,
0,
0,
0,
0,
0,
0,
0,
0,
0,
0,
0,
0,
0,
0,
0,
0,
0,
0,
0,
0,
0,
0,
0,
0,
0,
0,
0,
0,
0,
0,
0,
0,
0,
0,
0,
0,
0,
0,
0,
0,
0,
0,
0,
0,
0,
0,
0,
0,
0,
0,
0,
0,
0,
0,
0,
0,
0,
0,
0,
0,
0,
0,
0,
0,
0,
0,
0,
0,
0,
0,
0,
0,
0,
0,
0,
0,
0,
0,
0,
0,
0,
0,
0,
0,
0,
0,
0,
0,
0,
0,
0,
0,
0,
0,
0,
0,
0,
0,
0,
0,
0,
0,
0,
0,
0,
0,
0,
0,
0,
0,
0,
0,
0,
0,
0,
0,
0,
0,
0,
0,
0,
0,
0,
0,
0,
0,
0,
0,
0,
0,
0,
0,
0,
0,
0,
0,
0,
0,
0,
0,
0,
0,
0,
0,
0,
0,
0,
0,
0,
0,
0,
0,
0,
0,
0,
0,
0,
0,
0,
0,
0,
0,
0,
0,
0,
0,
0,
0,
0,
0,
0,
0,
0,
0,
0,
0,
0,
0,
0,
0,
0,
0,
0,
0,
0,
0,
0,
0,
0,
0,
0,
0,
0,
0,
0,
0,
0,
0,
0,
0,
0,
0,
0,
0,
0,
0,
#ENDOFDATA   :