File: N132962/Quantification/15 keV/Mengason MM2/MMM2 Wollastonite[5][4].msa
#FORMAT      : EMSA/MAS Spectral Data File
#VERSION     : 1.0
#TITLE       : MMM2 Wollastonite[5][all]
#DATE        : 29-SEP-2025
#TIME        : 00:09
#OWNER       : Unknown
#NPOINTS     : 4096
#NCOLUMNS    : 1
#XUNITS      : eV
#YUNITS      : counts
#DATATYPE    : Y
#XPERCHAN    : 9.99778
#OFFSET      : 1.69135
#BEAMKV      : 15
#SIGNALTYPE  : EDS
#ELEVANGLE   : 35
#AZIMANGLE   : 0
#LIVETIME    : 240.434
#REALTIME    : 255.138
#PROBECUR    : 1.21151
#TAUWIND     : 0
#TDEADLYR    : 0
#TACTLYR     : 0.045
#TALWIND     : 0.025
#CHOFFSET    : 0.0
#XLABEL      : Energy (eV)
#YLABEL      : Counts
#XPOSITION   : -12.46511
#YPOSITION   : 4.58559
#ZPOSITION   : 34.11879
#EDSDET      : SD
##SPECIMEN   : MMM2 Wollastonite[5][all]
##DET_HASH   : 12273538-fd48-a23f-0a19-f1e6fa85caef
##CALIB_HASH : 6abaa72c-aa41-8738-0be9-f592914732f3
##WORKING    : 15.0 mm
##DET_NAME   : EDAX All
##DET_MODE   : MediumLE
#SPECTRUM    :
25,
22,
10,
17,
98,
428,
1272,
4668,
14014,
21233,
15368,
8224,
4557,
3586,
4996,
15572,
56940,
108095,
79264,
21261,
3789,
2455,
2578,
2781,
2980,
3082,
3207,
3508,
3615,
3861,
3909,
3930,
4239,
4351,
4456,
4601,
4599,
4670,
4862,
4819,
4933,
5071,
4985,
5094,
5191,
5219,
5484,
5413,
5637,
5651,
5892,
5964,
5898,
6089,
7314,
16584,
61347,
154435,
210050,
149172,
59625,
21035,
10262,
5975,
4675,
4636,
4171,
3674,
3320,
3210,
3188,
3191,
3252,
3288,
3381,
3516,
3529,
3250,
3124,
3004,
3024,
3007,
2937,
2917,
2862,
2810,
2818,
2797,
2773,
2781,
2760,
2637,
2562,
2628,
2671,
2583,
2522,
2534,
2574,
2481,
2487,
2468,
2456,
2500,
2507,
2467,
2370,
2389,
2357,
2352,
2282,
2340,
2192,
2304,
2299,
2616,
2901,
3278,
4058,
7138,
19051,
48137,
89258,
113052,
94683,
53590,
20568,
6729,
2945,
2579,
3178,
5116,
9272,
13674,
15488,
12025,
7103,
3546,
2091,
1745,
1589,
1686,
1501,
1468,
1410,
1484,
1389,
1377,
1447,
1442,
1425,
1368,
1445,
1353,
1432,
1274,
1342,
1305,
1301,
1243,
1295,
1324,
1279,
1249,
1260,
1143,
1223,
1240,
1199,
1271,
1234,
1214,
1260,
1181,
1135,
1164,
1152,
1151,
1175,
1210,
1244,
1340,
1306,
1203,
1196,
1088,
1015,
1050,
991,
1083,
1015,
1018,
1061,
1035,
1026,
996,
979,
1077,
981,
898,
965,
953,
912,
874,
909,
879,
885,
868,
906,
895,
908,
880,
942,
859,
931,
876,
885,
870,
833,
792,
788,
764,
827,
745,
824,
733,
735,
766,
788,
752,
753,
732,
702,
724,
737,
715,
711,
701,
699,
711,
636,
712,
672,
659,
662,
710,
719,
658,
675,
677,
635,
643,
632,
591,
584,
585,
575,
600,
602,
566,
592,
564,
541,
506,
563,
521,
467,
523,
554,
514,
517,
502,
532,
525,
516,
446,
487,
503,
506,
471,
493,
479,
475,
441,
486,
480,
452,
428,
428,
458,
416,
406,
437,
385,
396,
419,
416,
394,
422,
410,
395,
382,
402,
378,
380,
364,
368,
362,
360,
390,
339,
363,
357,
376,
365,
363,
378,
356,
327,
340,
321,
314,
308,
326,
302,
282,
293,
298,
327,
299,
270,
293,
293,
291,
280,
274,
253,
302,
244,
278,
265,
266,
250,
265,
238,
230,
250,
235,
260,
220,
236,
239,
225,
247,
222,
207,
232,
231,
208,
211,
203,
241,
195,
208,
208,
195,
194,
187,
185,
190,
182,
200,
169,
176,
188,
165,
161,
178,
179,
168,
160,
180,
155,
178,
175,
177,
145,
141,
139,
133,
151,
154,
150,
152,
150,
118,
134,
137,
137,
127,
119,
128,
114,
112,
93,
99,
100,
87,
126,
99,
111,
102,
96,
95,
98,
92,
92,
75,
105,
97,
91,
87,
78,
60,
89,
83,
81,
81,
71,
79,
77,
77,
64,
84,
56,
54,
62,
62,
52,
56,
63,
58,
59,
69,
56,
63,
53,
52,
54,
47,
55,
42,
47,
34,
36,
37,
40,
37,
33,
48,
34,
31,
43,
37,
40,
31,
25,
34,
29,
23,
30,
23,
21,
16,
18,
21,
19,
11,
22,
18,
18,
13,
15,
13,
9,
11,
12,
13,
11,
11,
5,
9,
4,
5,
7,
8,
2,
1,
4,
1,
0,
1,
2,
1,
1,
0,
0,
1,
0,
1,
0,
1,
1,
1,
1,
0,
0,
0,
0,
0,
0,
1,
0,
1,
0,
1,
1,
1,
0,
0,
1,
0,
2,
0,
0,
0,
1,
0,
1,
0,
0,
0,
0,
0,
0,
0,
0,
0,
0,
0,
1,
0,
0,
1,
1,
0,
1,
0,
0,
0,
1,
0,
0,
0,
0,
1,
0,
0,
0,
1,
1,
0,
0,
0,
0,
0,
0,
0,
0,
0,
0,
0,
0,
0,
0,
0,
0,
0,
0,
0,
0,
0,
0,
0,
0,
0,
0,
0,
0,
0,
0,
0,
0,
0,
0,
0,
0,
0,
0,
0,
0,
0,
0,
0,
0,
0,
0,
0,
0,
0,
0,
0,
0,
0,
0,
0,
0,
0,
0,
0,
0,
0,
0,
0,
0,
0,
0,
0,
0,
0,
0,
0,
0,
0,
0,
0,
0,
0,
0,
0,
0,
0,
0,
0,
0,
0,
0,
0,
0,
0,
0,
0,
0,
0,
0,
0,
0,
0,
0,
0,
0,
0,
0,
0,
0,
0,
1,
0,
0,
0,
0,
0,
0,
0,
0,
0,
0,
0,
0,
0,
0,
0,
0,
0,
0,
0,
0,
0,
0,
0,
0,
0,
0,
0,
0,
0,
0,
0,
0,
0,
0,
0,
0,
0,
0,
0,
0,
0,
0,
0,
0,
0,
0,
0,
1,
0,
0,
0,
0,
0,
0,
0,
0,
0,
0,
0,
0,
0,
0,
0,
0,
0,
0,
0,
0,
0,
0,
0,
0,
0,
0,
0,
0,
0,
0,
0,
0,
0,
0,
0,
0,
0,
0,
0,
0,
0,
0,
0,
0,
0,
0,
0,
0,
0,
0,
0,
0,
0,
0,
0,
0,
0,
0,
0,
0,
0,
0,
0,
0,
0,
0,
0,
0,
0,
0,
0,
0,
0,
0,
0,
0,
0,
0,
0,
0,
0,
0,
0,
0,
0,
0,
0,
0,
0,
0,
0,
0,
0,
0,
0,
0,
0,
0,
0,
0,
0,
0,
0,
0,
0,
0,
0,
0,
0,
0,
0,
0,
0,
0,
0,
0,
0,
0,
0,
0,
0,
0,
0,
0,
0,
0,
0,
0,
0,
0,
0,
0,
0,
0,
0,
0,
0,
0,
1,
0,
0,
0,
0,
0,
0,
0,
0,
0,
0,
0,
0,
0,
0,
0,
0,
0,
0,
0,
0,
0,
0,
0,
0,
0,
0,
0,
0,
0,
0,
0,
0,
0,
0,
0,
0,
0,
0,
0,
0,
0,
0,
0,
0,
0,
0,
0,
0,
0,
0,
0,
0,
0,
0,
0,
0,
0,
0,
0,
0,
0,
0,
0,
0,
0,
0,
0,
0,
0,
0,
0,
0,
0,
0,
0,
0,
0,
0,
0,
0,
0,
0,
0,
0,
0,
0,
0,
0,
0,
0,
0,
0,
0,
0,
0,
0,
0,
0,
0,
0,
0,
0,
0,
0,
0,
0,
0,
0,
0,
0,
0,
0,
0,
0,
0,
0,
0,
0,
0,
0,
0,
0,
0,
0,
0,
0,
0,
0,
0,
0,
0,
0,
0,
0,
0,
0,
0,
0,
0,
0,
0,
0,
0,
0,
0,
0,
0,
0,
0,
0,
0,
0,
0,
0,
0,
0,
0,
0,
0,
0,
0,
0,
0,
0,
0,
0,
0,
0,
0,
0,
0,
0,
0,
0,
0,
0,
0,
0,
0,
0,
0,
0,
0,
0,
0,
0,
0,
0,
0,
0,
0,
0,
0,
0,
0,
0,
0,
0,
0,
0,
0,
0,
0,
0,
0,
0,
0,
0,
0,
0,
0,
0,
0,
0,
0,
0,
0,
0,
0,
0,
0,
0,
0,
0,
0,
0,
0,
0,
0,
0,
0,
0,
0,
0,
0,
0,
0,
0,
0,
0,
0,
0,
0,
0,
0,
0,
0,
0,
0,
0,
0,
0,
0,
0,
0,
0,
0,
0,
0,
0,
0,
0,
0,
0,
0,
0,
0,
0,
0,
0,
0,
0,
0,
0,
0,
0,
0,
0,
0,
0,
0,
0,
0,
0,
0,
0,
0,
0,
0,
0,
0,
0,
0,
0,
0,
0,
0,
0,
0,
0,
0,
0,
0,
0,
0,
0,
0,
0,
0,
0,
0,
0,
0,
0,
0,
0,
0,
0,
0,
0,
0,
0,
0,
0,
0,
0,
0,
0,
0,
0,
0,
0,
0,
0,
0,
0,
0,
0,
0,
0,
0,
0,
0,
0,
0,
0,
0,
0,
0,
0,
0,
0,
0,
0,
0,
0,
0,
0,
0,
0,
0,
0,
0,
0,
0,
0,
0,
0,
0,
0,
0,
0,
0,
0,
0,
0,
0,
0,
0,
0,
0,
0,
0,
0,
0,
0,
0,
0,
0,
0,
0,
0,
0,
0,
0,
0,
0,
0,
0,
0,
0,
0,
0,
0,
0,
0,
0,
0,
0,
0,
0,
0,
0,
0,
0,
0,
0,
0,
0,
0,
0,
0,
0,
0,
0,
0,
0,
0,
0,
0,
0,
0,
0,
0,
0,
0,
0,
0,
0,
0,
0,
0,
0,
0,
0,
0,
0,
0,
0,
0,
0,
0,
0,
0,
0,
0,
0,
0,
0,
0,
0,
0,
0,
0,
0,
0,
0,
0,
0,
0,
0,
0,
0,
0,
0,
0,
0,
0,
0,
0,
0,
0,
0,
0,
0,
0,
0,
0,
0,
0,
0,
0,
0,
0,
0,
0,
0,
0,
0,
0,
0,
0,
#ENDOFDATA   :