File: N132962/Quantification/15 keV/Mengason MM2/MMM2 Scheelite[1][4].msa
#FORMAT      : EMSA/MAS Spectral Data File
#VERSION     : 1.0
#TITLE       : MMM2 Scheelite[1][all]
#DATE        : 29-SEP-2025
#TIME        : 00:25
#OWNER       : Unknown
#NPOINTS     : 4096
#NCOLUMNS    : 1
#XUNITS      : eV
#YUNITS      : counts
#DATATYPE    : Y
#XPERCHAN    : 9.99778
#OFFSET      : 1.69135
#BEAMKV      : 15
#SIGNALTYPE  : EDS
#ELEVANGLE   : 35
#AZIMANGLE   : 0
#LIVETIME    : 240.243
#REALTIME    : 260.582
#PROBECUR    : 1.21186
#TAUWIND     : 0
#TDEADLYR    : 0
#TACTLYR     : 0.045
#TALWIND     : 0.025
#CHOFFSET    : 0.0
#XLABEL      : Energy (eV)
#YLABEL      : Counts
#XPOSITION   : -17.55385
#YPOSITION   : 4.53779
#ZPOSITION   : 34.11879
#EDSDET      : SD
##SPECIMEN   : MMM2 Scheelite[1][all]
##DET_HASH   : 12273538-fd48-a23f-0a19-f1e6fa85caef
##CALIB_HASH : 6abaa72c-aa41-8738-0be9-f592914732f3
##WORKING    : 15.0 mm
##DET_NAME   : EDAX All
##DET_MODE   : MediumLE
#SPECTRUM    :
24,
23,
13,
42,
248,
1142,
3691,
9270,
20578,
26046,
15791,
8242,
6110,
5591,
6811,
14438,
42524,
76304,
56728,
18374,
6349,
5421,
6087,
6667,
6702,
6870,
7110,
7293,
7852,
7937,
8049,
8112,
8248,
8521,
8568,
8985,
9065,
9145,
9355,
9346,
9743,
9778,
9928,
10777,
13808,
20284,
23857,
20656,
14439,
12031,
10645,
10780,
10284,
10604,
11368,
13315,
21252,
54693,
136626,
215150,
210648,
151286,
84590,
34448,
12523,
7985,
8445,
10122,
10377,
8537,
6829,
5760,
5602,
5722,
5794,
6162,
6563,
7128,
6799,
6242,
5748,
5481,
5244,
5355,
5102,
5129,
5069,
5023,
5040,
5002,
4985,
5059,
5063,
4893,
4906,
5099,
4906,
4904,
4832,
4923,
4853,
4762,
4853,
4903,
4775,
4786,
4731,
4892,
4947,
4800,
4827,
4854,
4731,
4663,
4685,
4777,
4928,
5200,
5561,
6968,
12181,
24397,
42141,
52069,
44318,
26452,
12750,
6432,
4870,
4687,
4878,
5843,
7409,
9507,
10200,
8580,
6686,
4982,
4236,
4087,
4056,
4065,
3951,
3912,
3826,
3826,
3780,
3847,
3697,
3815,
3686,
3758,
3666,
3652,
3688,
3665,
3607,
3668,
3569,
3627,
3515,
3513,
3603,
3506,
3513,
3442,
3517,
3404,
3475,
3539,
3435,
3351,
3295,
3338,
3334,
3264,
3148,
3234,
3072,
3314,
3271,
3215,
3288,
3302,
3206,
3182,
3099,
3047,
3088,
2967,
3123,
3061,
3010,
2877,
2939,
2859,
2914,
2786,
2749,
2879,
2819,
2769,
2769,
2724,
2746,
2822,
2610,
2616,
2682,
2641,
2660,
2685,
2660,
2662,
2551,
2700,
2615,
2593,
2600,
2351,
2567,
2513,
2410,
2392,
2403,
2413,
2329,
2398,
2304,
2255,
2338,
2250,
2292,
2222,
2218,
2214,
2199,
2278,
2184,
2142,
2087,
2196,
2160,
2249,
2367,
2509,
2593,
2508,
2447,
2216,
2121,
2080,
1998,
2029,
1962,
1890,
1842,
1963,
1860,
1847,
1837,
1844,
1824,
1845,
1819,
1799,
1815,
1774,
1779,
1746,
1827,
1773,
1763,
1887,
2281,
2963,
4495,
6680,
9078,
10725,
11258,
9559,
7135,
4786,
3006,
2155,
1789,
1626,
1620,
1612,
1605,
1526,
1616,
1500,
1514,
1444,
1460,
1450,
1406,
1419,
1381,
1440,
1314,
1417,
1363,
1292,
1356,
1350,
1262,
1337,
1317,
1289,
1283,
1323,
1387,
1398,
1466,
1733,
2035,
2389,
2954,
3445,
3729,
3561,
3113,
2568,
2119,
1901,
1908,
2237,
2547,
2736,
2696,
2499,
2191,
1687,
1350,
1219,
1120,
1084,
1078,
1035,
1030,
928,
984,
954,
898,
857,
884,
872,
865,
862,
865,
857,
827,
866,
864,
835,
821,
787,
784,
828,
758,
804,
782,
740,
773,
777,
780,
694,
791,
758,
841,
886,
974,
1106,
1081,
997,
953,
853,
753,
701,
668,
670,
718,
725,
701,
688,
664,
657,
658,
611,
598,
606,
556,
582,
508,
552,
544,
532,
509,
512,
509,
489,
485,
494,
472,
487,
477,
446,
448,
433,
393,
405,
439,
431,
372,
422,
403,
393,
411,
397,
353,
353,
356,
353,
348,
354,
363,
338,
342,
327,
334,
302,
291,
302,
279,
287,
278,
281,
302,
267,
257,
253,
236,
269,
255,
244,
240,
222,
230,
225,
198,
209,
215,
232,
201,
184,
177,
189,
151,
167,
160,
154,
159,
157,
145,
132,
121,
155,
144,
138,
113,
114,
110,
105,
87,
93,
79,
92,
82,
69,
78,
68,
60,
59,
65,
46,
58,
52,
58,
47,
41,
44,
26,
20,
23,
10,
15,
14,
9,
7,
6,
5,
5,
0,
3,
3,
2,
4,
2,
0,
6,
7,
2,
4,
2,
2,
2,
3,
1,
3,
5,
2,
0,
3,
4,
4,
2,
1,
2,
2,
1,
2,
1,
5,
3,
1,
2,
3,
4,
1,
1,
1,
1,
4,
1,
4,
1,
1,
2,
3,
2,
1,
1,
1,
0,
1,
1,
1,
3,
2,
1,
1,
6,
3,
3,
0,
3,
2,
1,
0,
3,
4,
0,
2,
3,
3,
2,
3,
2,
3,
1,
6,
2,
0,
1,
1,
0,
2,
1,
1,
1,
0,
0,
2,
0,
2,
1,
3,
3,
2,
1,
0,
1,
1,
0,
2,
1,
2,
2,
4,
1,
2,
0,
3,
2,
2,
2,
1,
2,
2,
0,
1,
0,
0,
2,
0,
1,
0,
0,
0,
2,
1,
1,
3,
1,
0,
1,
1,
1,
3,
2,
0,
0,
0,
1,
0,
0,
0,
1,
2,
1,
1,
1,
0,
0,
1,
2,
1,
1,
0,
0,
1,
1,
2,
2,
1,
1,
0,
1,
1,
0,
0,
0,
0,
0,
1,
2,
2,
2,
0,
1,
1,
0,
0,
0,
1,
1,
0,
1,
3,
0,
2,
0,
0,
0,
1,
0,
0,
0,
0,
0,
0,
0,
0,
0,
1,
1,
1,
0,
2,
1,
0,
1,
0,
0,
0,
0,
0,
0,
1,
1,
0,
0,
1,
0,
0,
0,
0,
0,
1,
0,
0,
0,
0,
0,
0,
0,
0,
0,
1,
0,
0,
0,
0,
0,
1,
1,
0,
0,
0,
0,
0,
0,
0,
0,
0,
0,
0,
0,
0,
0,
0,
0,
0,
0,
0,
0,
0,
0,
0,
0,
0,
1,
0,
0,
1,
0,
0,
0,
0,
0,
0,
0,
0,
0,
0,
0,
0,
1,
0,
0,
0,
0,
0,
0,
0,
0,
0,
0,
0,
0,
1,
0,
0,
0,
0,
0,
0,
0,
0,
0,
0,
0,
0,
0,
0,
0,
0,
0,
0,
0,
0,
0,
0,
0,
0,
0,
0,
0,
0,
1,
0,
0,
0,
0,
0,
0,
0,
0,
0,
0,
0,
0,
0,
0,
0,
0,
0,
0,
1,
0,
0,
0,
0,
0,
0,
0,
1,
0,
0,
0,
0,
0,
0,
0,
0,
0,
0,
0,
0,
0,
0,
0,
0,
0,
0,
0,
0,
0,
0,
0,
0,
0,
0,
0,
0,
0,
0,
0,
0,
0,
0,
0,
0,
0,
0,
0,
0,
0,
0,
0,
0,
0,
0,
0,
0,
0,
0,
0,
0,
0,
0,
0,
0,
0,
0,
0,
0,
0,
0,
0,
0,
0,
0,
0,
0,
0,
0,
0,
0,
0,
0,
0,
0,
0,
0,
0,
0,
0,
0,
0,
0,
0,
0,
0,
0,
0,
0,
0,
0,
0,
0,
0,
0,
0,
0,
0,
0,
0,
0,
0,
0,
0,
0,
0,
0,
0,
0,
0,
0,
0,
0,
0,
0,
0,
0,
0,
0,
0,
0,
0,
0,
0,
0,
0,
0,
0,
0,
0,
0,
0,
0,
0,
0,
0,
0,
0,
0,
0,
0,
0,
0,
0,
0,
0,
0,
0,
0,
0,
0,
0,
0,
0,
0,
0,
0,
0,
0,
0,
0,
0,
0,
0,
0,
0,
0,
0,
0,
0,
0,
0,
0,
0,
0,
0,
0,
0,
0,
0,
0,
0,
0,
0,
0,
0,
0,
0,
0,
0,
0,
0,
0,
0,
0,
0,
0,
0,
0,
0,
0,
0,
0,
0,
0,
0,
0,
0,
0,
0,
0,
0,
0,
0,
0,
0,
0,
0,
0,
0,
0,
0,
0,
0,
0,
0,
0,
0,
0,
0,
0,
0,
0,
0,
0,
0,
0,
0,
0,
0,
0,
0,
0,
0,
0,
0,
0,
0,
0,
0,
0,
0,
0,
0,
0,
0,
0,
0,
0,
0,
0,
0,
0,
0,
0,
0,
0,
0,
0,
0,
0,
0,
0,
0,
0,
0,
0,
0,
0,
0,
0,
0,
0,
0,
0,
0,
0,
0,
0,
0,
0,
0,
0,
0,
0,
0,
0,
0,
0,
0,
0,
0,
0,
0,
0,
0,
0,
0,
0,
0,
0,
0,
0,
0,
0,
0,
0,
0,
0,
0,
0,
0,
0,
0,
0,
0,
0,
0,
0,
0,
0,
0,
0,
0,
0,
0,
0,
0,
0,
0,
0,
0,
0,
0,
0,
0,
0,
0,
0,
0,
0,
0,
0,
0,
0,
0,
0,
0,
0,
0,
0,
0,
0,
0,
0,
0,
0,
0,
0,
0,
0,
0,
0,
0,
0,
0,
0,
0,
0,
0,
0,
0,
0,
0,
0,
0,
0,
0,
0,
0,
0,
0,
0,
0,
0,
0,
0,
0,
0,
0,
0,
0,
0,
0,
0,
0,
0,
0,
0,
0,
0,
0,
0,
0,
0,
0,
0,
0,
0,
0,
0,
0,
0,
0,
0,
0,
0,
0,
0,
0,
0,
0,
0,
0,
0,
0,
0,
0,
0,
0,
0,
0,
0,
0,
0,
0,
0,
0,
0,
0,
0,
0,
0,
0,
0,
0,
0,
0,
0,
0,
0,
0,
0,
0,
0,
0,
0,
0,
0,
0,
0,
0,
0,
0,
0,
0,
0,
0,
0,
0,
0,
0,
0,
0,
0,
0,
0,
0,
0,
0,
0,
0,
0,
0,
0,
0,
0,
0,
0,
0,
0,
0,
0,
0,
0,
#ENDOFDATA   :