File: N132962/Quantification/15 keV/Mengason MM2/MMM2 SrTiO3[3][4].msa
#FORMAT      : EMSA/MAS Spectral Data File
#VERSION     : 1.0
#TITLE       : MMM2 SrTiO3[3][all]
#DATE        : 29-SEP-2025
#TIME        : 00:17
#OWNER       : Unknown
#NPOINTS     : 4096
#NCOLUMNS    : 1
#XUNITS      : eV
#YUNITS      : counts
#DATATYPE    : Y
#XPERCHAN    : 9.99778
#OFFSET      : 1.69135
#BEAMKV      : 15
#SIGNALTYPE  : EDS
#ELEVANGLE   : 35
#AZIMANGLE   : 0
#LIVETIME    : 240.392
#REALTIME    : 256.802
#PROBECUR    : 1.21151
#TAUWIND     : 0
#TDEADLYR    : 0
#TACTLYR     : 0.045
#TALWIND     : 0.025
#CHOFFSET    : 0.0
#XLABEL      : Energy (eV)
#YLABEL      : Counts
#XPOSITION   : -15.17745
#YPOSITION   : 4.46175
#ZPOSITION   : 34.11879
#EDSDET      : SD
##SPECIMEN   : MMM2 SrTiO3[3][all]
##D2STDCMP   : SrTiO3,(O:26.1592),(Ti:26.0877),(Sr:47.7532)
##DET_HASH   : 12273538-fd48-a23f-0a19-f1e6fa85caef
##CALIB_HASH : 6abaa72c-aa41-8738-0be9-f592914732f3
##WORKING    : 15.0 mm
##DET_NAME   : EDAX All
##DET_MODE   : MediumLE
#SPECTRUM    :
27,
28,
19,
86,
358,
910,
2068,
5880,
14733,
18437,
9686,
5820,
8872,
12177,
13448,
18589,
38106,
66083,
48825,
14696,
4315,
3545,
3749,
4294,
4469,
4426,
4632,
5125,
5434,
5569,
5643,
5755,
5991,
6150,
6278,
6523,
6620,
6722,
6799,
6962,
7125,
7196,
7396,
7581,
7431,
7663,
7554,
7552,
7941,
8023,
8703,
10715,
14125,
15819,
14649,
12607,
11544,
16717,
47771,
125727,
198875,
189060,
131041,
79254,
41295,
20195,
10720,
6450,
4948,
4297,
4280,
4346,
4648,
4830,
4795,
4391,
4035,
4056,
4109,
4134,
3957,
3981,
4017,
3902,
3883,
3920,
3872,
3905,
3924,
3959,
3948,
4193,
4223,
4130,
4003,
3864,
3764,
3877,
3651,
3695,
3744,
3632,
3674,
3722,
3582,
3597,
3440,
3586,
3519,
3519,
3512,
3346,
3426,
3323,
3354,
3339,
3315,
3218,
3308,
3385,
3463,
3503,
3514,
3361,
3296,
3247,
3067,
3213,
3068,
3095,
3083,
3029,
2977,
3024,
2865,
2947,
2875,
2840,
2977,
2838,
2817,
2814,
2931,
2887,
3174,
3571,
5357,
11681,
26411,
48087,
63300,
59038,
39488,
19460,
8101,
3803,
2751,
2674,
2584,
2728,
3012,
3886,
5587,
8064,
10177,
9941,
7439,
4966,
3201,
2467,
2132,
2115,
2028,
2077,
2044,
2094,
2075,
1951,
1944,
2075,
1976,
1997,
1923,
1957,
1876,
2012,
1901,
1846,
1936,
1771,
1843,
1861,
1776,
1767,
1788,
1775,
1731,
1822,
1728,
1686,
1671,
1796,
1704,
1665,
1638,
1674,
1640,
1681,
1696,
1661,
1725,
1771,
1745,
1717,
1676,
1640,
1548,
1566,
1473,
1451,
1460,
1466,
1438,
1379,
1481,
1470,
1421,
1443,
1407,
1411,
1385,
1333,
1384,
1342,
1361,
1447,
1361,
1321,
1301,
1241,
1239,
1279,
1227,
1207,
1241,
1231,
1177,
1219,
1215,
1221,
1141,
1156,
1202,
1142,
1166,
1121,
1152,
1142,
1093,
1108,
1065,
1041,
1123,
1029,
1103,
1062,
1000,
1050,
1007,
1039,
955,
1016,
991,
1027,
983,
994,
926,
909,
979,
882,
957,
912,
878,
905,
878,
879,
931,
874,
886,
891,
843,
884,
843,
795,
805,
821,
802,
778,
844,
793,
810,
812,
723,
790,
790,
765,
727,
736,
708,
751,
717,
652,
738,
718,
736,
679,
697,
670,
678,
675,
663,
607,
666,
613,
620,
616,
633,
634,
596,
636,
616,
659,
611,
585,
561,
555,
586,
564,
573,
545,
530,
560,
567,
508,
535,
519,
483,
522,
482,
476,
499,
475,
499,
488,
455,
473,
485,
495,
470,
468,
498,
416,
401,
416,
416,
377,
421,
371,
409,
392,
382,
422,
333,
345,
381,
384,
359,
386,
348,
361,
323,
316,
348,
300,
322,
302,
339,
297,
325,
304,
298,
323,
278,
268,
286,
284,
303,
270,
268,
292,
271,
280,
270,
253,
270,
246,
243,
252,
213,
224,
206,
234,
263,
218,
235,
225,
210,
199,
214,
176,
183,
203,
177,
183,
183,
162,
170,
180,
147,
169,
153,
166,
146,
161,
133,
151,
148,
140,
147,
133,
125,
119,
117,
131,
122,
115,
116,
120,
107,
100,
82,
97,
100,
109,
88,
106,
101,
92,
85,
81,
75,
82,
64,
62,
64,
72,
62,
52,
62,
46,
57,
57,
71,
55,
45,
45,
54,
44,
44,
42,
33,
30,
30,
40,
26,
22,
32,
29,
23,
24,
29,
17,
21,
10,
12,
8,
14,
4,
8,
5,
2,
5,
4,
0,
1,
3,
3,
1,
1,
1,
1,
0,
0,
0,
1,
0,
1,
1,
0,
2,
1,
1,
3,
1,
1,
1,
0,
2,
0,
1,
0,
0,
0,
1,
0,
2,
0,
0,
0,
1,
1,
0,
1,
2,
1,
0,
1,
1,
0,
2,
0,
3,
1,
0,
1,
0,
1,
2,
0,
0,
1,
0,
0,
0,
0,
1,
1,
0,
0,
0,
0,
1,
2,
0,
0,
0,
1,
0,
1,
1,
0,
0,
0,
2,
0,
1,
2,
0,
0,
0,
0,
0,
1,
2,
0,
0,
0,
0,
0,
0,
0,
2,
1,
1,
0,
0,
0,
0,
1,
0,
0,
1,
2,
0,
1,
0,
2,
0,
0,
0,
0,
1,
1,
0,
0,
0,
0,
0,
0,
0,
0,
0,
0,
0,
1,
1,
0,
1,
0,
0,
0,
0,
0,
0,
0,
0,
0,
0,
0,
2,
0,
0,
0,
0,
0,
0,
0,
0,
0,
0,
0,
1,
0,
0,
0,
0,
0,
0,
0,
0,
1,
0,
0,
0,
0,
0,
0,
0,
0,
0,
0,
0,
0,
0,
0,
0,
0,
0,
0,
1,
0,
0,
0,
0,
0,
0,
0,
0,
0,
0,
0,
0,
0,
0,
0,
0,
0,
0,
0,
0,
0,
0,
0,
0,
0,
0,
0,
0,
0,
0,
0,
0,
0,
0,
0,
0,
1,
0,
0,
0,
0,
2,
0,
0,
0,
0,
0,
0,
0,
0,
0,
0,
0,
0,
0,
0,
0,
0,
0,
0,
0,
0,
0,
0,
0,
0,
0,
0,
0,
0,
0,
0,
0,
0,
0,
0,
0,
0,
0,
0,
0,
0,
0,
0,
0,
0,
0,
0,
1,
0,
0,
0,
1,
0,
0,
0,
0,
0,
0,
0,
0,
0,
0,
0,
0,
0,
0,
0,
0,
0,
0,
0,
0,
0,
0,
0,
0,
0,
0,
0,
0,
0,
0,
0,
0,
0,
0,
0,
0,
0,
0,
0,
0,
0,
0,
0,
0,
0,
0,
0,
0,
0,
0,
0,
0,
0,
0,
0,
0,
0,
0,
0,
0,
0,
0,
0,
0,
0,
0,
0,
0,
0,
0,
0,
0,
0,
0,
0,
0,
0,
0,
0,
0,
0,
0,
0,
0,
0,
0,
0,
0,
0,
0,
0,
0,
0,
0,
0,
0,
0,
0,
0,
0,
0,
0,
0,
0,
0,
0,
0,
0,
0,
0,
0,
0,
0,
0,
0,
0,
0,
0,
0,
0,
0,
0,
0,
0,
0,
0,
0,
0,
0,
0,
0,
0,
0,
0,
0,
0,
0,
0,
0,
0,
0,
0,
0,
0,
0,
0,
0,
0,
0,
0,
0,
0,
0,
0,
0,
0,
0,
0,
0,
0,
0,
0,
0,
0,
0,
0,
0,
0,
0,
0,
0,
0,
0,
0,
0,
0,
0,
0,
0,
0,
0,
0,
0,
0,
0,
0,
0,
0,
0,
0,
0,
0,
0,
0,
0,
0,
0,
0,
0,
0,
0,
0,
0,
0,
0,
0,
0,
0,
0,
0,
0,
0,
0,
0,
0,
0,
0,
0,
0,
0,
0,
0,
0,
0,
0,
0,
0,
0,
0,
0,
0,
0,
0,
0,
0,
0,
0,
0,
0,
0,
0,
0,
0,
0,
0,
0,
0,
0,
0,
0,
0,
0,
0,
0,
0,
0,
0,
0,
0,
0,
0,
0,
0,
0,
0,
0,
0,
0,
0,
0,
0,
0,
0,
0,
0,
0,
0,
0,
0,
0,
0,
0,
0,
0,
0,
0,
0,
0,
0,
0,
0,
0,
0,
0,
0,
0,
0,
0,
0,
0,
0,
0,
0,
0,
0,
0,
0,
0,
0,
0,
0,
0,
0,
0,
0,
0,
0,
0,
0,
0,
0,
0,
0,
0,
0,
0,
0,
0,
0,
0,
0,
0,
0,
0,
0,
0,
0,
0,
0,
0,
0,
0,
0,
0,
0,
0,
0,
0,
0,
0,
0,
0,
0,
0,
0,
0,
0,
0,
0,
0,
0,
0,
0,
0,
0,
0,
0,
0,
0,
0,
0,
0,
0,
0,
0,
0,
0,
0,
0,
0,
0,
0,
0,
0,
0,
0,
0,
0,
0,
0,
0,
0,
0,
0,
0,
0,
0,
0,
0,
0,
0,
0,
0,
0,
0,
0,
0,
0,
0,
0,
0,
0,
0,
0,
0,
0,
0,
0,
0,
0,
0,
0,
0,
0,
0,
0,
0,
0,
0,
0,
0,
0,
0,
0,
0,
0,
0,
0,
0,
0,
0,
0,
0,
0,
0,
0,
0,
0,
0,
0,
0,
0,
0,
0,
0,
0,
0,
0,
0,
0,
0,
0,
0,
0,
0,
0,
0,
0,
0,
0,
0,
0,
0,
0,
0,
0,
0,
0,
0,
0,
0,
0,
0,
0,
0,
0,
0,
0,
0,
0,
0,
0,
0,
0,
0,
0,
0,
0,
0,
0,
0,
0,
0,
0,
0,
0,
0,
0,
0,
0,
0,
0,
0,
0,
0,
0,
0,
0,
0,
0,
0,
0,
0,
0,
0,
0,
0,
0,
0,
0,
0,
0,
0,
0,
0,
0,
0,
0,
0,
0,
0,
0,
0,
0,
0,
0,
0,
0,
0,
0,
0,
0,
0,
0,
0,
0,
0,
0,
0,
0,
0,
0,
0,
0,
0,
0,
0,
0,
0,
0,
0,
0,
0,
0,
0,
0,
0,
0,
0,
0,
0,
0,
0,
#ENDOFDATA   :