File: N132962/Quantification/15 keV/Mengason MM2/MMM2 Zircon[3][4].msa
#FORMAT      : EMSA/MAS Spectral Data File
#VERSION     : 1.0
#TITLE       : MMM2 Zircon[3][all]
#DATE        : 29-SEP-2025
#TIME        : 01:09
#OWNER       : Unknown
#NPOINTS     : 4096
#NCOLUMNS    : 1
#XUNITS      : eV
#YUNITS      : counts
#DATATYPE    : Y
#XPERCHAN    : 9.99778
#OFFSET      : 1.69135
#BEAMKV      : 15
#SIGNALTYPE  : EDS
#ELEVANGLE   : 35
#AZIMANGLE   : 0
#LIVETIME    : 240.273
#REALTIME    : 257.07
#PROBECUR    : 1.21248
#TAUWIND     : 0
#TDEADLYR    : 0
#TACTLYR     : 0.045
#TALWIND     : 0.025
#CHOFFSET    : 0.0
#XLABEL      : Energy (eV)
#YLABEL      : Counts
#XPOSITION   : -13.67668
#YPOSITION   : 6.97872
#ZPOSITION   : 34.11879
#EDSDET      : SD
##SPECIMEN   : MMM2 Zircon[3][all]
##D2STDCMP   : Zircon,(O:34.9128),(Si:15.3216),(Zr:49.7657),8.0
##DET_HASH   : 12273538-fd48-a23f-0a19-f1e6fa85caef
##CALIB_HASH : 6abaa72c-aa41-8738-0be9-f592914732f3
##WORKING    : 15.0 mm
##DET_NAME   : EDAX All
##DET_MODE   : MediumLE
#SPECTRUM    :
24,
25,
14,
67,
466,
1340,
2226,
5419,
14590,
19817,
12043,
5633,
4660,
5264,
6355,
16828,
57727,
106331,
77681,
22039,
5105,
3697,
4086,
4556,
4677,
4927,
4892,
5123,
5386,
5540,
5713,
5838,
6129,
6106,
6463,
6627,
6746,
6658,
6902,
7009,
7118,
7227,
7483,
7466,
7484,
7588,
7575,
7599,
7907,
7836,
8201,
8059,
8225,
8723,
10526,
17889,
48137,
112501,
151790,
112311,
52828,
23973,
14480,
11226,
12076,
20446,
48523,
102027,
140886,
126545,
93217,
72122,
49183,
28204,
16278,
9751,
6378,
4875,
4030,
3680,
3408,
3600,
3892,
4201,
4411,
4034,
3791,
3369,
3441,
3169,
3274,
3134,
3247,
3233,
3252,
3146,
3226,
3184,
3147,
3201,
3301,
3065,
3069,
3137,
3163,
3137,
3071,
2930,
2948,
3009,
3020,
2964,
3049,
2968,
3066,
3111,
2916,
3143,
2988,
2951,
2935,
2837,
2818,
2843,
2914,
3052,
2891,
2992,
2983,
2836,
2839,
2689,
2680,
2642,
2745,
2582,
2696,
2604,
2709,
2707,
2625,
2625,
2584,
2534,
2464,
2484,
2427,
2321,
2376,
2308,
2406,
2305,
2242,
2265,
2168,
2258,
2275,
2140,
2247,
2212,
2244,
2173,
2208,
2076,
2064,
2095,
2150,
2070,
2071,
2095,
2012,
2066,
2021,
1983,
1985,
1939,
2001,
1993,
1836,
1979,
1815,
1912,
1882,
1851,
1846,
1762,
1785,
1887,
1783,
1722,
1762,
1815,
1746,
1717,
1705,
1800,
1691,
1631,
1631,
1633,
1602,
1622,
1581,
1583,
1597,
1543,
1560,
1534,
1517,
1477,
1474,
1532,
1561,
1664,
1474,
1466,
1483,
1424,
1461,
1347,
1420,
1373,
1477,
1343,
1341,
1283,
1318,
1290,
1326,
1309,
1279,
1315,
1283,
1288,
1315,
1290,
1246,
1186,
1242,
1111,
1195,
1180,
1207,
1146,
1202,
1086,
1091,
1192,
1177,
1130,
1116,
1114,
1101,
1081,
1061,
1064,
997,
1100,
962,
1107,
1072,
1055,
1118,
1152,
1064,
1117,
1012,
1040,
954,
931,
940,
899,
913,
881,
912,
918,
860,
864,
885,
882,
836,
840,
816,
768,
811,
840,
821,
811,
787,
852,
834,
814,
762,
801,
792,
803,
718,
768,
791,
750,
770,
763,
724,
681,
682,
714,
679,
688,
719,
672,
709,
692,
698,
666,
636,
682,
588,
615,
625,
580,
587,
599,
622,
586,
598,
640,
578,
542,
556,
597,
560,
583,
531,
519,
528,
567,
540,
476,
514,
494,
529,
493,
520,
471,
508,
510,
477,
437,
472,
480,
473,
452,
453,
429,
455,
402,
411,
411,
415,
436,
407,
388,
385,
385,
394,
375,
395,
365,
363,
358,
362,
379,
346,
310,
290,
326,
331,
310,
340,
326,
330,
323,
314,
259,
298,
333,
321,
263,
320,
299,
296,
275,
253,
266,
283,
285,
270,
253,
238,
220,
240,
237,
220,
207,
234,
222,
212,
208,
184,
222,
221,
191,
200,
203,
194,
188,
173,
203,
145,
202,
188,
189,
173,
174,
170,
153,
145,
179,
150,
155,
144,
145,
123,
132,
134,
133,
147,
132,
115,
114,
123,
100,
96,
112,
92,
128,
100,
93,
90,
77,
110,
104,
103,
109,
74,
86,
73,
86,
97,
73,
79,
82,
64,
63,
64,
59,
43,
48,
49,
57,
47,
38,
53,
52,
56,
52,
39,
33,
32,
30,
33,
28,
22,
29,
35,
21,
28,
20,
18,
25,
22,
16,
12,
10,
12,
9,
12,
4,
5,
5,
4,
0,
0,
1,
0,
1,
1,
1,
2,
2,
0,
0,
0,
1,
0,
1,
0,
1,
0,
0,
1,
1,
1,
3,
0,
3,
1,
0,
1,
1,
2,
1,
0,
0,
3,
0,
1,
1,
3,
1,
0,
2,
0,
0,
0,
0,
0,
0,
0,
2,
0,
0,
0,
1,
0,
0,
0,
0,
0,
0,
0,
0,
0,
1,
1,
2,
0,
2,
1,
1,
0,
0,
1,
0,
0,
0,
0,
2,
0,
0,
0,
0,
0,
1,
1,
0,
0,
0,
1,
0,
1,
0,
0,
0,
0,
0,
0,
0,
0,
1,
0,
0,
0,
0,
1,
1,
0,
0,
0,
1,
0,
0,
0,
1,
0,
0,
0,
0,
0,
0,
0,
0,
0,
0,
0,
0,
0,
0,
0,
1,
0,
0,
0,
1,
1,
0,
0,
0,
0,
0,
0,
0,
0,
0,
0,
0,
0,
0,
1,
0,
0,
0,
0,
0,
0,
0,
0,
0,
0,
0,
0,
0,
2,
0,
0,
0,
0,
1,
0,
0,
0,
0,
0,
0,
0,
0,
0,
0,
0,
0,
0,
0,
0,
0,
0,
0,
0,
0,
0,
0,
0,
0,
0,
0,
0,
0,
0,
0,
0,
0,
0,
0,
0,
0,
0,
0,
0,
0,
0,
0,
0,
0,
0,
0,
0,
0,
1,
0,
0,
0,
0,
0,
0,
0,
0,
0,
0,
0,
0,
0,
0,
0,
0,
0,
0,
0,
0,
0,
0,
0,
0,
0,
0,
0,
0,
0,
0,
1,
0,
0,
0,
0,
0,
0,
0,
0,
0,
0,
0,
0,
0,
0,
0,
0,
0,
0,
0,
0,
0,
0,
0,
0,
0,
0,
0,
0,
0,
0,
0,
0,
0,
0,
0,
0,
0,
0,
0,
0,
0,
0,
0,
0,
0,
0,
0,
0,
0,
0,
0,
1,
0,
0,
0,
0,
0,
0,
0,
0,
0,
0,
0,
0,
0,
0,
0,
0,
0,
0,
0,
0,
0,
0,
0,
0,
0,
0,
0,
0,
0,
0,
0,
0,
0,
0,
0,
0,
0,
0,
0,
0,
0,
0,
0,
0,
0,
0,
0,
0,
0,
0,
0,
0,
0,
0,
0,
0,
0,
0,
0,
0,
0,
0,
0,
0,
0,
0,
0,
0,
0,
0,
1,
0,
0,
0,
0,
0,
0,
0,
0,
0,
0,
0,
0,
0,
0,
0,
0,
0,
0,
0,
0,
0,
0,
0,
0,
0,
0,
0,
0,
0,
0,
0,
0,
0,
0,
0,
0,
0,
0,
0,
0,
0,
0,
0,
0,
0,
0,
0,
0,
0,
0,
0,
0,
0,
0,
0,
0,
0,
0,
0,
0,
0,
0,
0,
0,
0,
0,
0,
0,
0,
0,
0,
0,
0,
0,
0,
0,
0,
0,
0,
0,
0,
0,
0,
0,
0,
0,
0,
0,
0,
0,
0,
0,
0,
0,
0,
0,
0,
0,
0,
0,
0,
0,
0,
0,
0,
0,
0,
0,
0,
0,
0,
0,
0,
0,
0,
0,
0,
0,
0,
0,
0,
0,
0,
0,
0,
0,
0,
0,
0,
0,
0,
0,
0,
0,
0,
0,
0,
0,
0,
0,
0,
0,
0,
0,
0,
0,
0,
0,
0,
0,
0,
0,
0,
0,
0,
0,
0,
0,
0,
0,
0,
0,
0,
0,
0,
0,
0,
0,
0,
0,
0,
0,
0,
0,
0,
0,
0,
0,
0,
0,
0,
0,
0,
0,
0,
0,
0,
0,
0,
0,
0,
0,
0,
0,
0,
0,
0,
0,
0,
0,
0,
0,
0,
0,
0,
0,
0,
0,
0,
0,
0,
0,
0,
0,
0,
0,
0,
0,
0,
0,
0,
0,
0,
0,
0,
0,
0,
0,
0,
0,
0,
0,
0,
0,
0,
0,
0,
0,
0,
0,
0,
0,
0,
0,
0,
0,
0,
0,
0,
0,
0,
0,
0,
0,
0,
0,
0,
0,
0,
0,
0,
0,
0,
0,
0,
0,
0,
0,
0,
0,
0,
0,
0,
0,
0,
0,
0,
0,
0,
0,
0,
0,
0,
0,
0,
0,
0,
0,
0,
0,
0,
0,
0,
0,
0,
0,
0,
0,
0,
0,
0,
0,
0,
0,
0,
0,
0,
0,
0,
0,
0,
0,
0,
0,
0,
0,
0,
0,
0,
0,
0,
0,
0,
0,
0,
0,
0,
0,
0,
0,
0,
0,
0,
0,
0,
0,
0,
0,
0,
0,
0,
0,
0,
0,
0,
0,
0,
0,
0,
0,
0,
0,
0,
0,
0,
0,
0,
0,
0,
0,
0,
0,
0,
0,
0,
0,
0,
0,
0,
0,
0,
0,
0,
0,
0,
0,
0,
0,
0,
0,
0,
0,
0,
0,
0,
0,
0,
0,
0,
0,
0,
0,
0,
0,
0,
0,
0,
0,
0,
0,
0,
0,
0,
0,
0,
0,
0,
0,
0,
0,
0,
0,
0,
0,
0,
0,
0,
0,
0,
0,
0,
0,
0,
0,
0,
0,
0,
0,
0,
0,
0,
0,
0,
0,
0,
0,
0,
0,
0,
0,
0,
0,
0,
0,
0,
0,
0,
0,
0,
0,
0,
0,
0,
0,
0,
0,
0,
0,
0,
0,
0,
0,
0,
0,
0,
0,
0,
0,
0,
0,
0,
0,
0,
0,
0,
0,
0,
0,
0,
0,
0,
0,
0,
0,
0,
0,
0,
0,
0,
0,
0,
0,
0,
0,
0,
#ENDOFDATA   :