File: N132962/Quantification/15 keV/Mengason MM2/MMM2 Sphene[4][4].msa
#FORMAT      : EMSA/MAS Spectral Data File
#VERSION     : 1.0
#TITLE       : MMM2 Sphene[4][all]
#DATE        : 28-SEP-2025
#TIME        : 22:03
#OWNER       : Unknown
#NPOINTS     : 4096
#NCOLUMNS    : 1
#XUNITS      : eV
#YUNITS      : counts
#DATATYPE    : Y
#XPERCHAN    : 9.99778
#OFFSET      : 1.69135
#BEAMKV      : 15
#SIGNALTYPE  : EDS
#ELEVANGLE   : 35
#AZIMANGLE   : 0
#LIVETIME    : 240.139
#REALTIME    : 253.351
#PROBECUR    : 1.21223
#TAUWIND     : 0
#TDEADLYR    : 0
#TACTLYR     : 0.045
#TALWIND     : 0.025
#CHOFFSET    : 0.0
#XLABEL      : Energy (eV)
#YLABEL      : Counts
#XPOSITION   : -11.21177
#YPOSITION   : -1.85433
#ZPOSITION   : 34.11879
#EDSDET      : SD
##SPECIMEN   : MMM2 Sphene[4][all]
##DET_HASH   : 12273538-fd48-a23f-0a19-f1e6fa85caef
##CALIB_HASH : 6abaa72c-aa41-8738-0be9-f592914732f3
##WORKING    : 15.0 mm
##DET_NAME   : EDAX All
##DET_MODE   : MediumLE
#SPECTRUM    :
24,
25,
9,
17,
107,
419,
1423,
4681,
13908,
20391,
14356,
9362,
9095,
10872,
11985,
19971,
52965,
96294,
69812,
19115,
3712,
2453,
2874,
3143,
3209,
2873,
2886,
3144,
3410,
3465,
3479,
3608,
3688,
4004,
4198,
4257,
4319,
4497,
4520,
4594,
4664,
4797,
4908,
4980,
4890,
4982,
5266,
5843,
7788,
10575,
10569,
8194,
6212,
5717,
6234,
11594,
36909,
90716,
121573,
86570,
36148,
14119,
7746,
5370,
4422,
4566,
4292,
3885,
3697,
3537,
3564,
3565,
3642,
3784,
3701,
3757,
3552,
3447,
3317,
3327,
3195,
3061,
3169,
3085,
3104,
3018,
3099,
2982,
2881,
2980,
3077,
3313,
3211,
3087,
2952,
2881,
2788,
2693,
2758,
2636,
2559,
2613,
2580,
2614,
2556,
2465,
2520,
2522,
2524,
2440,
2411,
2417,
2342,
2273,
2357,
2480,
2520,
2898,
3398,
5395,
12705,
30417,
56583,
70808,
60275,
33819,
13664,
5006,
2627,
2470,
2700,
4023,
6517,
9544,
10166,
8204,
5224,
3009,
2003,
1795,
1747,
1766,
1779,
1732,
1875,
2216,
3829,
8518,
19917,
36522,
47796,
44638,
29907,
14245,
5560,
2467,
1678,
1565,
1513,
1636,
1868,
2579,
3988,
5952,
7561,
7297,
5420,
3442,
2255,
1468,
1306,
1216,
1222,
1201,
1180,
1199,
1157,
1165,
1228,
1203,
1148,
1277,
1215,
1168,
1139,
1099,
1103,
1083,
1032,
1005,
1048,
1087,
1089,
1049,
1000,
989,
1013,
1050,
1011,
1015,
1023,
1012,
1005,
969,
975,
966,
968,
1016,
965,
1026,
1026,
1121,
1280,
1394,
1276,
1200,
1080,
933,
886,
856,
860,
830,
768,
778,
774,
827,
806,
801,
751,
753,
765,
744,
753,
812,
768,
784,
724,
764,
694,
677,
687,
735,
656,
639,
695,
677,
733,
648,
645,
658,
634,
661,
650,
614,
658,
659,
654,
609,
595,
604,
617,
602,
613,
613,
573,
555,
583,
578,
557,
599,
531,
577,
550,
569,
533,
547,
561,
504,
528,
549,
507,
499,
486,
489,
468,
468,
471,
455,
444,
473,
455,
453,
453,
430,
432,
423,
421,
434,
463,
399,
436,
421,
388,
392,
437,
384,
391,
383,
401,
372,
400,
345,
372,
376,
356,
362,
377,
331,
370,
342,
341,
328,
360,
333,
341,
367,
327,
291,
318,
321,
277,
287,
312,
323,
319,
307,
259,
276,
302,
273,
302,
289,
290,
270,
268,
274,
264,
264,
233,
253,
240,
255,
240,
256,
243,
247,
257,
250,
211,
250,
212,
212,
201,
219,
235,
212,
213,
207,
228,
176,
182,
196,
188,
187,
208,
176,
199,
175,
190,
182,
171,
170,
198,
161,
165,
164,
153,
152,
133,
162,
146,
150,
142,
146,
154,
136,
146,
132,
115,
136,
140,
124,
127,
127,
117,
118,
130,
121,
119,
115,
108,
92,
110,
100,
95,
108,
113,
98,
103,
90,
89,
100,
104,
108,
79,
88,
81,
81,
88,
79,
75,
62,
72,
64,
77,
80,
68,
73,
72,
68,
62,
67,
57,
77,
56,
39,
53,
52,
51,
39,
44,
73,
40,
46,
45,
28,
40,
40,
46,
54,
32,
39,
39,
37,
31,
26,
28,
36,
31,
23,
32,
23,
30,
23,
19,
23,
17,
24,
16,
10,
13,
15,
10,
10,
17,
11,
9,
12,
11,
13,
6,
6,
3,
9,
4,
4,
3,
4,
2,
1,
0,
0,
2,
0,
1,
1,
0,
0,
0,
0,
1,
0,
0,
1,
0,
0,
0,
2,
0,
1,
0,
1,
0,
0,
0,
0,
0,
0,
0,
0,
0,
0,
1,
1,
0,
0,
2,
0,
0,
0,
1,
0,
0,
0,
0,
0,
0,
0,
0,
0,
1,
0,
1,
1,
0,
1,
0,
0,
0,
0,
0,
0,
0,
0,
1,
0,
0,
0,
3,
0,
0,
0,
0,
0,
0,
0,
0,
0,
0,
0,
0,
0,
0,
0,
0,
0,
0,
0,
0,
0,
0,
0,
0,
0,
1,
0,
0,
0,
0,
0,
0,
0,
0,
0,
0,
0,
0,
0,
1,
0,
0,
0,
0,
0,
0,
0,
0,
0,
0,
0,
0,
0,
0,
0,
0,
0,
0,
0,
0,
0,
0,
1,
0,
0,
0,
0,
0,
0,
1,
0,
0,
0,
0,
0,
0,
0,
0,
0,
1,
0,
0,
0,
0,
0,
0,
0,
1,
0,
0,
0,
0,
1,
0,
0,
0,
0,
0,
0,
0,
0,
0,
0,
0,
0,
0,
0,
0,
0,
0,
0,
0,
0,
0,
0,
0,
0,
0,
0,
0,
0,
0,
1,
0,
0,
0,
0,
0,
0,
0,
0,
0,
0,
0,
0,
0,
0,
0,
0,
0,
0,
0,
0,
0,
0,
0,
0,
0,
0,
0,
0,
0,
0,
0,
0,
0,
0,
0,
0,
0,
0,
0,
0,
0,
0,
0,
0,
0,
0,
0,
0,
0,
0,
0,
0,
0,
0,
0,
0,
0,
0,
0,
0,
0,
0,
0,
0,
0,
0,
0,
0,
0,
0,
0,
0,
0,
0,
0,
1,
0,
0,
0,
0,
0,
0,
0,
0,
0,
0,
0,
0,
0,
0,
0,
0,
0,
0,
0,
0,
0,
0,
0,
0,
0,
0,
0,
0,
0,
0,
0,
0,
0,
0,
0,
0,
0,
0,
0,
0,
0,
0,
0,
0,
0,
0,
0,
0,
0,
0,
0,
0,
0,
0,
0,
0,
0,
0,
0,
0,
0,
0,
0,
0,
0,
0,
0,
0,
0,
0,
0,
0,
0,
0,
0,
0,
0,
0,
0,
0,
0,
0,
0,
0,
0,
0,
0,
0,
0,
0,
0,
0,
0,
0,
0,
0,
0,
0,
0,
0,
0,
0,
0,
0,
0,
0,
0,
0,
0,
0,
0,
0,
0,
0,
0,
0,
0,
0,
0,
0,
0,
0,
0,
0,
0,
0,
0,
0,
0,
0,
0,
0,
0,
0,
0,
0,
0,
0,
0,
0,
0,
0,
0,
0,
0,
0,
0,
0,
0,
0,
0,
0,
0,
0,
0,
0,
0,
0,
0,
0,
0,
0,
0,
0,
0,
0,
0,
0,
0,
0,
0,
0,
0,
0,
0,
0,
0,
0,
0,
0,
0,
0,
0,
0,
0,
0,
0,
0,
0,
0,
0,
0,
0,
0,
0,
0,
0,
0,
0,
0,
0,
0,
0,
0,
0,
0,
0,
0,
0,
0,
0,
0,
0,
0,
0,
0,
0,
0,
0,
0,
0,
0,
0,
0,
0,
0,
0,
0,
0,
0,
0,
0,
0,
0,
0,
0,
0,
0,
0,
0,
0,
0,
0,
0,
0,
0,
0,
0,
0,
0,
0,
0,
0,
0,
0,
0,
0,
0,
0,
0,
0,
0,
0,
0,
0,
0,
0,
0,
0,
0,
0,
0,
0,
0,
0,
0,
0,
0,
0,
0,
0,
0,
0,
0,
0,
0,
0,
0,
0,
0,
0,
0,
0,
0,
0,
0,
0,
0,
0,
0,
0,
0,
0,
0,
0,
0,
0,
0,
0,
0,
0,
0,
0,
0,
0,
0,
0,
0,
0,
0,
0,
0,
0,
0,
0,
0,
0,
0,
0,
0,
0,
0,
0,
0,
0,
0,
0,
0,
0,
0,
0,
0,
0,
0,
0,
0,
0,
0,
0,
0,
0,
0,
0,
0,
0,
0,
0,
0,
0,
0,
0,
0,
0,
0,
0,
0,
0,
0,
0,
0,
0,
0,
0,
0,
0,
0,
0,
0,
0,
0,
0,
0,
0,
0,
0,
0,
0,
0,
0,
0,
0,
0,
0,
0,
0,
0,
0,
0,
0,
0,
0,
0,
0,
0,
0,
0,
0,
0,
0,
0,
0,
0,
0,
0,
0,
0,
0,
0,
0,
0,
0,
0,
0,
0,
0,
0,
0,
0,
0,
0,
0,
0,
0,
0,
0,
0,
0,
0,
0,
0,
0,
0,
0,
0,
0,
0,
0,
0,
0,
0,
0,
0,
0,
0,
0,
0,
0,
0,
0,
0,
0,
0,
0,
0,
0,
0,
0,
0,
0,
0,
0,
0,
0,
0,
0,
0,
0,
0,
0,
0,
0,
0,
0,
0,
0,
0,
0,
0,
0,
0,
0,
0,
0,
0,
0,
0,
0,
0,
0,
0,
0,
0,
0,
0,
0,
0,
0,
0,
0,
0,
0,
0,
0,
0,
0,
0,
0,
0,
0,
0,
0,
0,
0,
0,
0,
0,
0,
0,
0,
0,
0,
0,
0,
0,
0,
0,
0,
0,
0,
0,
0,
0,
0,
0,
0,
0,
0,
0,
0,
0,
0,
0,
0,
0,
0,
0,
0,
0,
0,
0,
0,
0,
0,
0,
0,
0,
0,
0,
0,
0,
0,
0,
0,
0,
0,
0,
0,
0,
0,
0,
0,
0,
0,
0,
0,
0,
0,
0,
0,
0,
0,
0,
0,
0,
0,
0,
0,
0,
#ENDOFDATA   :