File: N132962/Quantification/15 keV/Mengason MM2/MMM2 Zircon[4][4].msa
#FORMAT      : EMSA/MAS Spectral Data File
#VERSION     : 1.0
#TITLE       : MMM2 Zircon[4][all]
#DATE        : 29-SEP-2025
#TIME        : 01:10
#OWNER       : Unknown
#NPOINTS     : 4096
#NCOLUMNS    : 1
#XUNITS      : eV
#YUNITS      : counts
#DATATYPE    : Y
#XPERCHAN    : 9.99778
#OFFSET      : 1.69135
#BEAMKV      : 15
#SIGNALTYPE  : EDS
#ELEVANGLE   : 35
#AZIMANGLE   : 0
#LIVETIME    : 240.267
#REALTIME    : 257.075
#PROBECUR    : 1.21247
#TAUWIND     : 0
#TDEADLYR    : 0
#TACTLYR     : 0.045
#TALWIND     : 0.025
#CHOFFSET    : 0.0
#XLABEL      : Energy (eV)
#YLABEL      : Counts
#XPOSITION   : -13.62661
#YPOSITION   : 6.97384
#ZPOSITION   : 34.11879
#EDSDET      : SD
##SPECIMEN   : MMM2 Zircon[4][all]
##D2STDCMP   : Zircon,(O:34.9128),(Si:15.3216),(Zr:49.7657),8.0
##DET_HASH   : 12273538-fd48-a23f-0a19-f1e6fa85caef
##CALIB_HASH : 6abaa72c-aa41-8738-0be9-f592914732f3
##WORKING    : 15.0 mm
##DET_NAME   : EDAX All
##DET_MODE   : MediumLE
#SPECTRUM    :
32,
20,
15,
77,
510,
1296,
2197,
5368,
14385,
19829,
12140,
5693,
4786,
5142,
6541,
16870,
57511,
106950,
77916,
22117,
5135,
3704,
4148,
4647,
4839,
5010,
5056,
5142,
5480,
5567,
5867,
5804,
6012,
6232,
6380,
6631,
6869,
6805,
6870,
7157,
7244,
7293,
7548,
7553,
7445,
7590,
7484,
7872,
7793,
7941,
8050,
8226,
8140,
8754,
10645,
17982,
48391,
112808,
151440,
112263,
52868,
24079,
14401,
11209,
12259,
20640,
47817,
101756,
141315,
126694,
93855,
72511,
49291,
28116,
16516,
9860,
6431,
4736,
4095,
3649,
3628,
3475,
3763,
4359,
4410,
4020,
3558,
3380,
3335,
3401,
3259,
3206,
3271,
3146,
3203,
3142,
3109,
3030,
3104,
3222,
3175,
3141,
3114,
3132,
3111,
3070,
3101,
3011,
3116,
2954,
2982,
2906,
2970,
2984,
3036,
3050,
3073,
3030,
2864,
2863,
2851,
2767,
2820,
2862,
2897,
2935,
3045,
3002,
2825,
2850,
2683,
2781,
2685,
2770,
2702,
2716,
2663,
2729,
2729,
2692,
2506,
2509,
2504,
2414,
2497,
2449,
2466,
2389,
2307,
2233,
2309,
2276,
2236,
2264,
2216,
2156,
2241,
2243,
2244,
2147,
2183,
2211,
2275,
2142,
2097,
2056,
2164,
2102,
2004,
2058,
1976,
2053,
1980,
1988,
1941,
1960,
1928,
1973,
1860,
1918,
1884,
1808,
1825,
1841,
1875,
1771,
1783,
1807,
1855,
1785,
1733,
1722,
1682,
1662,
1622,
1751,
1742,
1685,
1623,
1649,
1599,
1597,
1611,
1584,
1565,
1570,
1557,
1513,
1547,
1530,
1469,
1462,
1599,
1601,
1547,
1468,
1432,
1448,
1416,
1415,
1437,
1392,
1305,
1368,
1346,
1364,
1344,
1267,
1303,
1304,
1290,
1345,
1272,
1282,
1306,
1174,
1213,
1245,
1164,
1166,
1283,
1187,
1150,
1123,
1101,
1166,
1142,
1123,
1140,
1146,
1117,
1015,
1102,
1057,
1063,
1045,
1088,
1039,
1049,
1024,
1076,
1093,
1123,
1062,
1110,
1093,
1011,
981,
937,
934,
965,
933,
901,
918,
936,
883,
923,
869,
879,
887,
863,
870,
802,
814,
854,
825,
831,
777,
798,
802,
819,
780,
807,
760,
802,
777,
746,
767,
724,
805,
750,
811,
726,
766,
687,
726,
712,
678,
704,
703,
705,
672,
724,
696,
699,
614,
617,
641,
620,
572,
617,
579,
609,
568,
585,
619,
579,
568,
644,
544,
534,
587,
543,
580,
515,
496,
512,
522,
513,
551,
466,
476,
459,
497,
451,
484,
478,
429,
491,
508,
457,
414,
459,
429,
425,
402,
445,
412,
386,
393,
410,
416,
368,
419,
370,
419,
399,
363,
352,
343,
377,
362,
344,
310,
343,
319,
317,
336,
324,
313,
312,
291,
308,
298,
316,
282,
270,
285,
277,
280,
287,
295,
249,
258,
285,
288,
229,
253,
267,
273,
249,
236,
227,
215,
266,
231,
208,
217,
233,
224,
206,
204,
186,
189,
188,
185,
195,
178,
193,
160,
173,
174,
161,
174,
172,
145,
155,
138,
147,
150,
150,
124,
136,
163,
144,
140,
138,
138,
118,
105,
127,
138,
113,
138,
127,
106,
103,
94,
98,
97,
92,
94,
86,
79,
95,
77,
82,
94,
81,
92,
90,
72,
64,
53,
72,
63,
67,
64,
57,
60,
52,
67,
66,
56,
43,
39,
44,
45,
34,
31,
45,
34,
32,
18,
24,
35,
17,
24,
22,
18,
23,
12,
16,
10,
15,
10,
7,
5,
4,
6,
3,
3,
1,
1,
0,
2,
0,
0,
1,
2,
0,
0,
0,
1,
3,
0,
1,
0,
2,
1,
0,
1,
1,
0,
0,
0,
0,
2,
0,
0,
1,
1,
0,
0,
1,
0,
0,
0,
0,
0,
1,
1,
1,
0,
1,
0,
1,
0,
0,
0,
1,
0,
0,
0,
0,
0,
1,
0,
1,
0,
0,
0,
0,
0,
0,
0,
0,
0,
0,
0,
0,
0,
1,
0,
0,
0,
0,
0,
1,
0,
1,
0,
0,
1,
1,
1,
0,
0,
0,
0,
0,
0,
0,
0,
0,
0,
0,
0,
0,
0,
0,
0,
0,
0,
0,
1,
1,
0,
0,
0,
0,
1,
0,
0,
0,
0,
0,
0,
0,
0,
0,
0,
0,
2,
0,
0,
0,
0,
1,
0,
0,
0,
0,
0,
0,
1,
0,
0,
0,
1,
0,
0,
0,
0,
0,
0,
0,
0,
0,
0,
0,
1,
0,
1,
0,
0,
0,
0,
0,
0,
0,
0,
0,
0,
0,
0,
0,
0,
0,
0,
0,
0,
0,
2,
0,
0,
0,
0,
0,
0,
0,
1,
0,
0,
0,
0,
0,
0,
0,
0,
0,
0,
0,
0,
0,
0,
0,
0,
0,
0,
0,
0,
0,
0,
0,
0,
0,
0,
0,
0,
0,
0,
0,
0,
0,
0,
0,
0,
0,
0,
0,
0,
0,
0,
0,
0,
0,
0,
0,
0,
0,
0,
0,
0,
0,
0,
0,
0,
0,
0,
0,
0,
0,
0,
0,
0,
0,
0,
0,
0,
0,
0,
0,
0,
0,
0,
0,
0,
0,
0,
0,
0,
0,
0,
0,
0,
0,
0,
0,
0,
0,
0,
0,
0,
0,
0,
0,
0,
0,
0,
0,
0,
0,
0,
0,
0,
0,
0,
0,
0,
0,
0,
0,
0,
0,
0,
0,
0,
0,
0,
0,
0,
0,
0,
0,
0,
0,
0,
0,
0,
0,
0,
0,
0,
0,
0,
0,
0,
0,
0,
0,
0,
0,
0,
0,
0,
0,
0,
0,
0,
0,
0,
0,
0,
0,
0,
0,
0,
0,
0,
0,
0,
0,
0,
0,
0,
0,
0,
0,
0,
0,
0,
0,
0,
0,
0,
0,
0,
0,
0,
0,
0,
0,
0,
0,
0,
0,
0,
0,
0,
0,
0,
0,
0,
0,
0,
0,
0,
0,
0,
0,
0,
0,
0,
0,
0,
0,
0,
0,
0,
0,
0,
0,
0,
0,
0,
0,
0,
0,
0,
0,
0,
0,
0,
0,
0,
0,
0,
0,
0,
0,
0,
0,
0,
0,
0,
0,
0,
0,
0,
0,
0,
0,
0,
0,
0,
0,
0,
0,
0,
0,
0,
0,
0,
0,
0,
0,
0,
0,
0,
0,
0,
0,
0,
0,
0,
0,
0,
0,
0,
0,
0,
0,
0,
0,
0,
0,
0,
0,
0,
0,
0,
0,
0,
0,
0,
0,
0,
0,
0,
0,
0,
0,
0,
0,
0,
0,
0,
0,
0,
0,
0,
0,
0,
0,
0,
0,
0,
0,
0,
0,
0,
0,
0,
0,
0,
0,
0,
0,
0,
0,
0,
0,
0,
0,
0,
0,
0,
0,
0,
0,
0,
0,
0,
0,
0,
0,
0,
0,
0,
0,
0,
0,
0,
0,
0,
0,
0,
0,
0,
0,
0,
0,
0,
0,
0,
0,
0,
0,
0,
0,
0,
0,
0,
0,
0,
0,
0,
0,
0,
0,
0,
0,
0,
0,
0,
0,
0,
0,
0,
0,
0,
0,
0,
0,
0,
0,
0,
0,
0,
0,
0,
0,
0,
0,
0,
0,
0,
0,
0,
0,
0,
0,
0,
0,
0,
0,
0,
0,
0,
0,
0,
0,
0,
0,
0,
0,
0,
0,
0,
0,
0,
0,
0,
0,
0,
0,
0,
0,
0,
0,
0,
0,
0,
0,
0,
0,
0,
0,
0,
0,
0,
0,
0,
0,
0,
0,
0,
0,
0,
0,
0,
0,
0,
0,
0,
0,
0,
0,
0,
0,
0,
0,
0,
0,
0,
0,
0,
0,
0,
0,
0,
0,
0,
0,
0,
0,
0,
0,
0,
0,
0,
0,
0,
0,
0,
0,
0,
0,
0,
0,
0,
0,
0,
0,
0,
0,
0,
0,
0,
0,
0,
0,
0,
0,
0,
0,
0,
0,
0,
0,
0,
0,
0,
0,
0,
0,
0,
0,
0,
0,
0,
0,
0,
0,
0,
0,
0,
0,
0,
0,
0,
0,
0,
0,
0,
0,
0,
0,
0,
0,
0,
0,
0,
0,
0,
0,
0,
0,
0,
0,
0,
0,
0,
0,
0,
0,
0,
0,
0,
0,
0,
0,
0,
0,
0,
0,
0,
0,
0,
0,
0,
0,
0,
0,
0,
0,
0,
0,
0,
0,
0,
0,
0,
0,
0,
0,
0,
0,
0,
0,
0,
0,
0,
0,
0,
0,
0,
0,
0,
0,
0,
0,
0,
0,
0,
0,
0,
0,
0,
0,
0,
0,
0,
0,
0,
0,
0,
0,
0,
0,
0,
0,
0,
0,
0,
0,
0,
0,
0,
0,
0,
0,
0,
0,
0,
0,
0,
0,
0,
0,
0,
0,
0,
0,
0,
0,
0,
0,
0,
0,
0,
0,
0,
0,
0,
0,
0,
0,
0,
0,
0,
0,
0,
0,
0,
0,
0,
0,
0,
0,
0,
0,
0,
0,
0,
0,
0,
0,
0,
0,
0,
0,
0,
0,
0,
#ENDOFDATA   :