File: N132962/Quantification/15 keV/Mengason MM2/MMM2 Stibnite[5][4].msa
#FORMAT      : EMSA/MAS Spectral Data File
#VERSION     : 1.0
#TITLE       : MMM2 Stibnite[5][all]
#DATE        : 28-SEP-2025
#TIME        : 23:38
#OWNER       : Unknown
#NPOINTS     : 4096
#NCOLUMNS    : 1
#XUNITS      : eV
#YUNITS      : counts
#DATATYPE    : Y
#XPERCHAN    : 9.99778
#OFFSET      : 1.69135
#BEAMKV      : 15
#SIGNALTYPE  : EDS
#ELEVANGLE   : 35
#AZIMANGLE   : 0
#LIVETIME    : 240.157
#REALTIME    : 260.27
#PROBECUR    : 1.21079
#TAUWIND     : 0
#TDEADLYR    : 0
#TACTLYR     : 0.045
#TALWIND     : 0.025
#CHOFFSET    : 0.0
#XLABEL      : Energy (eV)
#YLABEL      : Counts
#XPOSITION   : -14.46718
#YPOSITION   : 2.25235
#ZPOSITION   : 34.11879
#EDSDET      : SD
##SPECIMEN   : MMM2 Stibnite[5][all]
##DET_HASH   : 12273538-fd48-a23f-0a19-f1e6fa85caef
##CALIB_HASH : 6abaa72c-aa41-8738-0be9-f592914732f3
##WORKING    : 15.0 mm
##DET_NAME   : EDAX All
##DET_MODE   : MediumLE
#SPECTRUM    :
30,
23,
22,
225,
1472,
3079,
3260,
6940,
18090,
22257,
11745,
6194,
9268,
17965,
23431,
16692,
11353,
11601,
12096,
9720,
6959,
5466,
5676,
6791,
7940,
8182,
7341,
6462,
6342,
5985,
5679,
5815,
5836,
6097,
6264,
6502,
6574,
6606,
6804,
6960,
7200,
7364,
7439,
7526,
7763,
7840,
7926,
7927,
8147,
8388,
8231,
8413,
8300,
8131,
8305,
8468,
8661,
9141,
9479,
9661,
9448,
9478,
9064,
8532,
7887,
7698,
7748,
7875,
7856,
8073,
8459,
8760,
10414,
15052,
29715,
73937,
146767,
182708,
133244,
59680,
23447,
17694,
19050,
16808,
11039,
7277,
5970,
5630,
5571,
5560,
5578,
5407,
5528,
5611,
5341,
5332,
5443,
5331,
5262,
5179,
5244,
5221,
5417,
5610,
6252,
7509,
8690,
8487,
7177,
5884,
5422,
5248,
5484,
5898,
6781,
7487,
9686,
18470,
42147,
79265,
103807,
91908,
55538,
24650,
11615,
11759,
21763,
38155,
50635,
49570,
38222,
25597,
17193,
11528,
10273,
12712,
16352,
17368,
14127,
9514,
5984,
4695,
4752,
5932,
7721,
8593,
7475,
5920,
4323,
3627,
3773,
4342,
5239,
5622,
5398,
4681,
3828,
3318,
3110,
3038,
3006,
2942,
2991,
2755,
2830,
2781,
2852,
2762,
2859,
2832,
2862,
2759,
2745,
2824,
2767,
2789,
2685,
2718,
2870,
2668,
2755,
2733,
2690,
2676,
2574,
2648,
2676,
2619,
2668,
2578,
2526,
2638,
2611,
2500,
2585,
2640,
2707,
2645,
2566,
2577,
2541,
2451,
2417,
2481,
2472,
2514,
2474,
2334,
2341,
2308,
2331,
2411,
2499,
2364,
2352,
2299,
2268,
2251,
2280,
2196,
2158,
2195,
2207,
2143,
2055,
2116,
2047,
2103,
2062,
2050,
1921,
1967,
1950,
2063,
1980,
1938,
1985,
1906,
1887,
1995,
1911,
1891,
1911,
1931,
1836,
1846,
1840,
1940,
1919,
1956,
1861,
1755,
1697,
1845,
1705,
1716,
1755,
1705,
1705,
1687,
1707,
1644,
1653,
1632,
1583,
1617,
1572,
1641,
1603,
1478,
1581,
1555,
1464,
1544,
1499,
1496,
1512,
1508,
1473,
1444,
1414,
1479,
1393,
1449,
1426,
1403,
1304,
1380,
1398,
1396,
1317,
1353,
1324,
1339,
1290,
1303,
1260,
1262,
1266,
1193,
1269,
1204,
1263,
1226,
1196,
1203,
1191,
1158,
1213,
1130,
1174,
1100,
1140,
1116,
1111,
1114,
1062,
1097,
1118,
1018,
1049,
1075,
1110,
970,
1034,
1017,
1019,
1034,
963,
947,
963,
939,
956,
939,
931,
919,
876,
891,
881,
907,
933,
866,
917,
890,
848,
851,
815,
823,
832,
806,
831,
796,
831,
788,
792,
747,
714,
759,
755,
737,
704,
738,
740,
730,
669,
662,
670,
662,
663,
655,
664,
642,
626,
610,
634,
643,
605,
602,
601,
558,
627,
572,
579,
556,
518,
574,
581,
495,
503,
512,
532,
570,
491,
525,
477,
457,
477,
476,
447,
483,
451,
465,
391,
450,
467,
402,
413,
426,
404,
401,
414,
426,
386,
390,
419,
366,
386,
356,
381,
354,
349,
342,
333,
303,
322,
318,
298,
327,
274,
289,
275,
283,
240,
257,
273,
253,
284,
229,
249,
205,
232,
198,
240,
220,
209,
219,
212,
213,
196,
197,
209,
165,
172,
198,
160,
190,
171,
137,
156,
144,
160,
166,
153,
130,
128,
122,
118,
114,
111,
101,
117,
96,
111,
92,
86,
94,
88,
90,
70,
64,
70,
56,
64,
66,
58,
62,
54,
57,
34,
38,
34,
34,
36,
24,
24,
21,
11,
13,
11,
5,
6,
4,
3,
3,
3,
5,
2,
5,
5,
2,
1,
2,
3,
2,
2,
2,
1,
3,
1,
2,
0,
2,
2,
5,
1,
4,
5,
2,
0,
4,
4,
4,
3,
0,
1,
3,
6,
0,
3,
0,
3,
2,
2,
1,
3,
2,
1,
0,
0,
2,
2,
0,
4,
1,
1,
2,
2,
2,
2,
1,
1,
1,
3,
1,
2,
3,
1,
2,
0,
0,
2,
1,
2,
1,
2,
2,
2,
2,
2,
1,
0,
1,
5,
0,
0,
2,
2,
0,
1,
0,
1,
0,
1,
1,
0,
0,
0,
0,
2,
2,
0,
4,
0,
1,
0,
1,
0,
2,
0,
2,
2,
5,
1,
0,
0,
0,
1,
0,
0,
0,
0,
0,
2,
0,
0,
0,
0,
0,
0,
1,
1,
0,
1,
0,
0,
0,
0,
0,
0,
0,
0,
1,
0,
0,
2,
0,
1,
0,
1,
0,
0,
0,
0,
0,
0,
0,
2,
0,
0,
0,
0,
1,
0,
0,
1,
0,
0,
0,
0,
0,
0,
1,
1,
0,
0,
0,
0,
0,
0,
0,
1,
0,
1,
0,
0,
1,
0,
0,
0,
0,
0,
0,
0,
0,
0,
0,
0,
0,
0,
0,
0,
0,
0,
0,
1,
1,
0,
0,
0,
0,
0,
0,
0,
0,
0,
0,
0,
0,
0,
0,
1,
0,
0,
0,
0,
0,
0,
0,
0,
0,
0,
0,
0,
2,
0,
1,
0,
0,
0,
0,
0,
0,
0,
0,
0,
0,
0,
1,
0,
0,
0,
0,
0,
0,
0,
0,
0,
0,
0,
0,
0,
0,
0,
0,
0,
0,
0,
0,
0,
0,
0,
0,
0,
0,
0,
0,
0,
0,
0,
0,
0,
0,
0,
0,
0,
0,
0,
0,
0,
0,
0,
0,
0,
0,
0,
0,
0,
0,
0,
0,
0,
0,
0,
0,
0,
0,
0,
0,
0,
0,
0,
0,
0,
0,
0,
0,
0,
0,
0,
0,
0,
0,
0,
0,
0,
0,
0,
0,
0,
0,
0,
0,
0,
0,
0,
0,
0,
0,
0,
0,
0,
0,
0,
0,
0,
0,
0,
0,
0,
0,
0,
0,
0,
0,
0,
0,
0,
0,
0,
0,
0,
0,
0,
0,
0,
0,
0,
0,
1,
0,
0,
0,
0,
0,
0,
0,
0,
0,
0,
0,
0,
0,
0,
0,
0,
0,
0,
0,
0,
0,
0,
0,
0,
0,
0,
0,
0,
0,
0,
0,
0,
0,
0,
0,
0,
0,
0,
0,
0,
0,
0,
0,
0,
0,
0,
0,
0,
0,
0,
0,
0,
0,
0,
0,
0,
0,
0,
0,
0,
0,
0,
0,
0,
0,
0,
0,
0,
0,
0,
0,
0,
0,
0,
0,
0,
0,
0,
0,
0,
0,
0,
0,
0,
0,
0,
0,
0,
0,
0,
0,
0,
0,
0,
0,
0,
0,
0,
0,
0,
0,
0,
0,
0,
0,
0,
0,
0,
0,
0,
0,
0,
0,
0,
0,
0,
0,
0,
0,
0,
0,
0,
0,
0,
0,
0,
0,
0,
0,
0,
0,
0,
0,
0,
0,
0,
0,
0,
0,
0,
0,
0,
0,
0,
0,
0,
0,
0,
0,
0,
0,
0,
0,
0,
0,
0,
0,
0,
0,
0,
0,
0,
0,
0,
0,
0,
0,
0,
0,
0,
0,
0,
0,
0,
0,
0,
0,
0,
0,
0,
0,
0,
0,
0,
0,
0,
0,
0,
0,
0,
0,
0,
0,
0,
0,
0,
0,
0,
0,
0,
0,
0,
0,
0,
0,
0,
0,
0,
0,
0,
0,
0,
0,
0,
0,
0,
0,
0,
0,
0,
0,
0,
0,
0,
0,
0,
0,
0,
0,
0,
0,
0,
0,
0,
0,
0,
0,
0,
0,
0,
0,
0,
0,
0,
0,
0,
0,
0,
0,
0,
0,
0,
0,
0,
0,
0,
0,
0,
0,
0,
0,
0,
0,
0,
0,
0,
0,
0,
0,
0,
0,
0,
0,
0,
0,
0,
0,
0,
0,
0,
0,
0,
0,
0,
0,
0,
0,
0,
0,
0,
0,
0,
0,
0,
0,
0,
0,
0,
0,
0,
0,
0,
0,
0,
0,
0,
0,
0,
0,
0,
0,
0,
0,
0,
0,
0,
0,
0,
0,
0,
0,
0,
0,
0,
0,
0,
0,
0,
0,
0,
0,
0,
0,
0,
0,
0,
0,
0,
0,
0,
0,
0,
0,
0,
0,
0,
0,
0,
0,
0,
0,
0,
0,
0,
0,
0,
0,
0,
0,
0,
0,
0,
0,
0,
0,
0,
0,
0,
0,
0,
0,
0,
0,
0,
0,
0,
0,
0,
0,
0,
0,
0,
0,
0,
0,
0,
0,
0,
0,
0,
0,
0,
0,
0,
0,
0,
0,
0,
0,
0,
0,
0,
0,
0,
0,
0,
0,
0,
0,
0,
0,
0,
0,
0,
0,
0,
0,
0,
0,
0,
0,
0,
0,
0,
0,
0,
0,
0,
0,
0,
0,
0,
0,
0,
0,
0,
0,
0,
0,
0,
0,
0,
0,
0,
0,
0,
0,
0,
0,
0,
0,
0,
0,
0,
0,
0,
0,
0,
0,
0,
0,
0,
0,
0,
0,
0,
0,
0,
0,
0,
0,
0,
0,
0,
0,
0,
0,
0,
0,
0,
0,
0,
0,
0,
0,
0,
0,
0,
0,
0,
0,
0,
0,
0,
0,
0,
0,
#ENDOFDATA   :