File: N132962/Quantification/15 keV/Mengason MM2/MMM2 Pollucite[5][4].msa
#FORMAT      : EMSA/MAS Spectral Data File
#VERSION     : 1.0
#TITLE       : MMM2 Pollucite[5][all]
#DATE        : 29-SEP-2025
#TIME        : 00:40
#OWNER       : Unknown
#NPOINTS     : 4096
#NCOLUMNS    : 1
#XUNITS      : eV
#YUNITS      : counts
#DATATYPE    : Y
#XPERCHAN    : 9.99778
#OFFSET      : 1.69135
#BEAMKV      : 15
#SIGNALTYPE  : EDS
#ELEVANGLE   : 35
#AZIMANGLE   : 0
#LIVETIME    : 240.202
#REALTIME    : 257.453
#PROBECUR    : 1.21186
#TAUWIND     : 0
#TDEADLYR    : 0
#TACTLYR     : 0.045
#TALWIND     : 0.025
#CHOFFSET    : 0.0
#XLABEL      : Energy (eV)
#YLABEL      : Counts
#XPOSITION   : -20.67205
#YPOSITION   : 3.82597
#ZPOSITION   : 34.11879
#EDSDET      : SD
##SPECIMEN   : MMM2 Pollucite[5][all]
##DET_HASH   : 12273538-fd48-a23f-0a19-f1e6fa85caef
##CALIB_HASH : 6abaa72c-aa41-8738-0be9-f592914732f3
##WORKING    : 15.0 mm
##DET_NAME   : EDAX All
##DET_MODE   : MediumLE
#SPECTRUM    :
27,
26,
16,
32,
125,
525,
1596,
5092,
13789,
17337,
9685,
5344,
5683,
6972,
11586,
36309,
130803,
246925,
181123,
51397,
9668,
4629,
4853,
6286,
6979,
6223,
5009,
4484,
4568,
4929,
5708,
6417,
6746,
8709,
12038,
12279,
8402,
5534,
4896,
4926,
5102,
5113,
5183,
5645,
5690,
5920,
6788,
12424,
32336,
61168,
61359,
34456,
13970,
7643,
7273,
14163,
47206,
115603,
156535,
111931,
46354,
17258,
9152,
5695,
4366,
4056,
4252,
4402,
4431,
4063,
3935,
3830,
3912,
4073,
4228,
4334,
4274,
4026,
3772,
3830,
3747,
3713,
3715,
3804,
3980,
4019,
3777,
3589,
3503,
3532,
3502,
3585,
3539,
3529,
3442,
3386,
3538,
3449,
3372,
3439,
3225,
3322,
3322,
3167,
3183,
3170,
3312,
3285,
3176,
3215,
3127,
3219,
3107,
3064,
3013,
2973,
3023,
2905,
2891,
2905,
2825,
2883,
2801,
2926,
3120,
3363,
3847,
3956,
3553,
3001,
2779,
2596,
2655,
2549,
2578,
2605,
2667,
3038,
3493,
5208,
9818,
18945,
30006,
33799,
27413,
16234,
7650,
3984,
2794,
2624,
3169,
5142,
8799,
13491,
16710,
15480,
11740,
8217,
5971,
4248,
3486,
3239,
3867,
5346,
6795,
6584,
5471,
3771,
2707,
2225,
1957,
1916,
2026,
2255,
2764,
3314,
3743,
3431,
2755,
2171,
1885,
1762,
1863,
2253,
2281,
2371,
2325,
1964,
1727,
1659,
1717,
1640,
1598,
1567,
1428,
1456,
1445,
1491,
1527,
1429,
1466,
1389,
1429,
1427,
1394,
1335,
1371,
1369,
1308,
1369,
1327,
1359,
1380,
1338,
1424,
1298,
1291,
1228,
1186,
1255,
1212,
1206,
1243,
1148,
1232,
1185,
1209,
1147,
1247,
1124,
1158,
1120,
1163,
1095,
1110,
1100,
1156,
1046,
1109,
1051,
1088,
1069,
1046,
996,
1062,
998,
1013,
1010,
1102,
981,
1031,
965,
989,
999,
986,
973,
908,
878,
964,
972,
904,
975,
894,
890,
900,
862,
878,
824,
853,
802,
818,
820,
814,
861,
848,
755,
800,
818,
756,
779,
774,
771,
773,
765,
768,
742,
760,
706,
729,
730,
705,
730,
702,
730,
718,
627,
696,
689,
691,
657,
645,
693,
659,
575,
690,
669,
635,
587,
582,
583,
600,
621,
585,
600,
534,
557,
627,
543,
512,
558,
574,
523,
531,
527,
495,
523,
498,
524,
508,
528,
487,
526,
478,
483,
511,
475,
498,
484,
486,
486,
476,
484,
442,
430,
447,
466,
458,
419,
411,
426,
390,
417,
422,
421,
406,
375,
344,
403,
358,
357,
391,
372,
356,
362,
363,
348,
334,
363,
325,
284,
335,
302,
333,
325,
336,
309,
277,
293,
297,
279,
254,
306,
295,
269,
298,
279,
279,
254,
260,
267,
252,
257,
266,
237,
232,
205,
258,
252,
242,
216,
220,
242,
221,
211,
203,
193,
182,
228,
180,
172,
195,
191,
191,
174,
173,
176,
156,
184,
174,
164,
147,
159,
159,
153,
148,
138,
135,
138,
142,
150,
128,
127,
150,
124,
124,
113,
110,
102,
120,
112,
104,
104,
97,
106,
94,
114,
113,
100,
106,
91,
110,
81,
70,
75,
75,
83,
78,
67,
68,
54,
64,
63,
61,
67,
59,
50,
68,
58,
64,
61,
35,
41,
37,
46,
40,
47,
33,
35,
36,
37,
32,
22,
33,
21,
19,
21,
27,
17,
19,
13,
13,
25,
14,
14,
9,
4,
4,
7,
2,
7,
0,
2,
1,
1,
0,
3,
4,
0,
0,
0,
1,
1,
0,
1,
1,
0,
0,
2,
1,
0,
1,
1,
0,
0,
0,
3,
0,
0,
0,
1,
0,
0,
1,
0,
1,
0,
0,
1,
0,
2,
0,
1,
0,
0,
0,
0,
1,
0,
0,
1,
0,
1,
0,
0,
0,
1,
0,
0,
0,
2,
0,
0,
1,
1,
1,
0,
0,
1,
2,
0,
0,
1,
0,
1,
1,
0,
0,
1,
1,
0,
0,
1,
2,
0,
0,
3,
0,
1,
0,
0,
0,
1,
0,
0,
0,
0,
0,
0,
0,
0,
0,
0,
0,
0,
1,
0,
0,
0,
0,
0,
0,
0,
1,
1,
0,
0,
1,
0,
0,
0,
0,
0,
0,
0,
0,
0,
0,
0,
0,
0,
1,
0,
1,
0,
1,
0,
0,
1,
0,
0,
1,
0,
0,
0,
0,
0,
0,
1,
0,
0,
0,
0,
1,
1,
0,
0,
0,
0,
0,
0,
0,
0,
0,
0,
0,
0,
0,
0,
0,
0,
0,
0,
0,
0,
0,
0,
0,
0,
0,
0,
0,
0,
0,
0,
0,
0,
0,
0,
0,
0,
0,
0,
0,
0,
0,
0,
0,
0,
0,
0,
0,
1,
0,
0,
0,
0,
0,
0,
0,
0,
0,
0,
0,
0,
0,
0,
0,
0,
0,
0,
0,
0,
0,
0,
0,
0,
0,
0,
0,
0,
0,
0,
0,
0,
0,
0,
0,
0,
0,
0,
0,
0,
0,
0,
0,
0,
0,
0,
0,
0,
0,
0,
0,
0,
0,
0,
0,
0,
0,
0,
0,
1,
0,
0,
0,
0,
0,
0,
0,
0,
0,
0,
0,
0,
0,
0,
0,
1,
0,
0,
0,
0,
0,
0,
0,
0,
0,
0,
0,
0,
0,
0,
0,
0,
0,
0,
0,
0,
0,
0,
0,
0,
0,
0,
0,
0,
0,
0,
0,
0,
0,
0,
0,
0,
0,
0,
0,
0,
0,
0,
0,
0,
0,
0,
0,
0,
0,
0,
0,
0,
0,
0,
0,
0,
0,
0,
1,
0,
0,
0,
0,
0,
0,
0,
0,
0,
0,
0,
0,
0,
0,
0,
0,
0,
0,
0,
0,
0,
0,
0,
0,
0,
0,
0,
0,
0,
0,
0,
0,
0,
0,
0,
0,
0,
0,
0,
0,
0,
0,
0,
0,
0,
0,
0,
0,
0,
0,
0,
0,
0,
0,
0,
0,
0,
0,
0,
0,
0,
0,
0,
0,
0,
0,
0,
0,
0,
0,
0,
0,
0,
0,
0,
0,
0,
0,
0,
0,
0,
0,
0,
0,
0,
0,
0,
0,
0,
0,
0,
0,
0,
0,
0,
0,
0,
0,
0,
0,
0,
0,
0,
0,
0,
0,
0,
0,
0,
0,
0,
0,
0,
0,
0,
0,
0,
0,
0,
0,
0,
0,
0,
0,
0,
0,
0,
0,
0,
0,
0,
0,
0,
0,
0,
0,
0,
0,
0,
0,
0,
0,
0,
0,
0,
0,
0,
0,
0,
0,
0,
0,
0,
0,
0,
0,
0,
0,
0,
0,
0,
0,
0,
0,
0,
0,
0,
0,
0,
0,
0,
0,
0,
0,
0,
0,
0,
0,
0,
0,
0,
0,
0,
0,
0,
0,
0,
0,
0,
0,
0,
0,
0,
0,
0,
0,
0,
0,
0,
0,
0,
0,
0,
0,
0,
0,
0,
0,
0,
0,
0,
0,
0,
0,
0,
0,
0,
0,
0,
0,
0,
0,
0,
0,
0,
0,
0,
0,
0,
0,
0,
0,
0,
0,
0,
0,
0,
0,
0,
0,
0,
0,
0,
0,
0,
0,
0,
0,
0,
0,
0,
0,
0,
0,
0,
0,
0,
0,
0,
0,
0,
0,
0,
0,
0,
0,
0,
0,
0,
0,
0,
0,
0,
0,
0,
0,
0,
0,
0,
0,
0,
0,
0,
0,
0,
0,
0,
0,
0,
0,
0,
0,
0,
0,
0,
0,
0,
0,
0,
0,
0,
0,
0,
0,
0,
0,
0,
0,
0,
0,
0,
0,
0,
0,
0,
0,
0,
0,
0,
0,
0,
0,
0,
0,
0,
0,
0,
0,
0,
0,
0,
0,
0,
0,
0,
0,
0,
0,
0,
0,
0,
0,
0,
0,
0,
0,
0,
0,
0,
0,
0,
0,
0,
0,
0,
0,
0,
0,
0,
0,
0,
0,
0,
0,
0,
0,
0,
0,
0,
0,
0,
0,
0,
0,
0,
0,
0,
0,
0,
0,
0,
0,
0,
0,
0,
0,
0,
0,
0,
0,
0,
0,
0,
0,
0,
0,
0,
0,
0,
0,
0,
0,
0,
0,
0,
0,
0,
0,
0,
0,
0,
0,
0,
0,
0,
0,
0,
0,
0,
0,
0,
0,
0,
0,
0,
0,
0,
0,
0,
0,
0,
0,
0,
0,
0,
0,
0,
0,
0,
0,
0,
0,
0,
0,
0,
0,
0,
0,
0,
0,
0,
0,
0,
0,
0,
0,
0,
0,
0,
0,
0,
0,
0,
0,
0,
0,
0,
0,
0,
0,
0,
0,
0,
0,
0,
0,
0,
0,
0,
0,
0,
0,
0,
0,
0,
0,
0,
0,
0,
0,
0,
0,
0,
0,
0,
0,
0,
0,
0,
0,
0,
0,
0,
0,
0,
0,
0,
0,
0,
0,
0,
0,
0,
0,
0,
0,
0,
0,
0,
0,
0,
0,
0,
0,
0,
0,
0,
0,
0,
#ENDOFDATA   :