File: N132962/Quantification/15 keV/Mengason MM2/MMM2 Spodumene[6][4].msa
#FORMAT      : EMSA/MAS Spectral Data File
#VERSION     : 1.0
#TITLE       : MMM2 Spodumene[6][all]
#DATE        : 28-SEP-2025
#TIME        : 22:26
#OWNER       : Unknown
#NPOINTS     : 4096
#NCOLUMNS    : 1
#XUNITS      : eV
#YUNITS      : counts
#DATATYPE    : Y
#XPERCHAN    : 9.99778
#OFFSET      : 1.69135
#BEAMKV      : 15
#SIGNALTYPE  : EDS
#ELEVANGLE   : 35
#AZIMANGLE   : 0
#LIVETIME    : 240.296
#REALTIME    : 257.388
#PROBECUR    : 1.21261
#TAUWIND     : 0
#TDEADLYR    : 0
#TACTLYR     : 0.045
#TALWIND     : 0.025
#CHOFFSET    : 0.0
#XLABEL      : Energy (eV)
#YLABEL      : Counts
#XPOSITION   : -12.95853
#YPOSITION   : 0.20176
#ZPOSITION   : 34.11879
#EDSDET      : SD
##SPECIMEN   : MMM2 Spodumene[6][all]
##DET_HASH   : 12273538-fd48-a23f-0a19-f1e6fa85caef
##CALIB_HASH : 6abaa72c-aa41-8738-0be9-f592914732f3
##WORKING    : 15.0 mm
##DET_NAME   : EDAX All
##DET_MODE   : MediumLE
#SPECTRUM    :
19,
26,
9,
21,
105,
360,
1076,
3593,
10173,
13136,
6848,
3587,
3792,
5202,
10464,
41060,
157763,
299389,
215619,
55415,
6791,
2337,
2332,
2644,
2700,
2784,
3014,
3241,
3398,
3638,
3725,
3761,
4049,
4603,
5375,
5460,
4898,
4404,
4355,
4528,
4569,
4727,
4736,
5059,
5336,
5565,
7339,
18780,
61354,
124220,
126676,
65721,
21652,
8423,
6824,
17067,
67962,
173122,
235692,
166537,
66217,
22005,
9512,
4933,
2951,
2537,
2744,
2830,
2531,
2244,
2221,
2204,
2236,
2470,
2818,
3117,
2927,
2503,
2282,
2152,
2055,
2102,
2150,
2076,
2093,
2065,
2095,
2089,
2041,
1972,
2006,
1897,
1980,
1886,
1925,
2077,
1883,
1902,
1913,
1906,
1866,
1831,
1733,
1782,
1825,
1851,
1897,
2059,
1945,
1919,
1812,
1733,
1697,
1751,
1784,
1906,
1987,
1872,
1647,
1551,
1547,
1515,
1612,
1544,
1468,
1467,
1376,
1456,
1419,
1386,
1388,
1373,
1332,
1262,
1285,
1333,
1270,
1301,
1286,
1175,
1206,
1247,
1251,
1173,
1195,
1192,
1140,
1193,
1172,
1118,
1110,
1132,
1070,
1101,
1137,
1067,
1132,
1076,
1063,
1019,
988,
1014,
1012,
1003,
986,
965,
963,
959,
917,
982,
984,
924,
917,
958,
905,
876,
943,
892,
870,
881,
854,
833,
874,
807,
853,
815,
792,
826,
791,
803,
800,
768,
729,
747,
704,
800,
758,
775,
724,
722,
784,
740,
665,
644,
699,
679,
683,
641,
650,
664,
659,
673,
719,
692,
643,
601,
607,
571,
619,
598,
561,
623,
631,
559,
572,
582,
576,
590,
572,
590,
536,
564,
550,
533,
525,
559,
546,
485,
506,
495,
486,
509,
502,
496,
454,
493,
474,
455,
489,
473,
466,
458,
409,
466,
454,
440,
419,
450,
398,
422,
379,
395,
409,
440,
404,
389,
383,
386,
378,
369,
386,
387,
355,
325,
375,
344,
339,
328,
343,
300,
327,
349,
325,
371,
312,
351,
332,
330,
326,
296,
294,
325,
304,
320,
316,
281,
282,
291,
300,
293,
282,
312,
296,
264,
246,
243,
276,
261,
254,
262,
272,
277,
275,
249,
240,
223,
255,
240,
253,
224,
220,
253,
229,
213,
241,
208,
213,
210,
227,
208,
215,
216,
209,
233,
185,
211,
196,
188,
179,
192,
193,
160,
152,
170,
185,
168,
190,
186,
170,
161,
174,
164,
155,
156,
178,
148,
178,
172,
130,
155,
167,
150,
151,
126,
153,
124,
122,
126,
144,
124,
128,
108,
120,
144,
123,
121,
130,
134,
108,
124,
128,
121,
118,
88,
107,
102,
101,
103,
101,
115,
103,
101,
98,
99,
102,
83,
85,
87,
76,
86,
78,
72,
85,
75,
78,
84,
69,
63,
66,
98,
55,
64,
73,
67,
70,
62,
72,
59,
66,
51,
67,
50,
53,
55,
52,
50,
46,
59,
63,
61,
49,
46,
46,
43,
41,
30,
38,
41,
54,
41,
42,
48,
52,
39,
40,
40,
24,
48,
29,
27,
27,
32,
25,
27,
21,
22,
29,
24,
20,
20,
28,
19,
26,
21,
12,
21,
18,
18,
25,
19,
20,
16,
14,
14,
12,
13,
13,
12,
14,
13,
13,
12,
11,
4,
4,
2,
8,
5,
8,
6,
2,
4,
5,
4,
2,
3,
2,
3,
1,
0,
3,
0,
1,
0,
1,
0,
0,
0,
0,
0,
0,
0,
0,
0,
0,
0,
2,
0,
0,
1,
0,
1,
0,
1,
0,
0,
0,
0,
0,
0,
0,
1,
0,
0,
0,
0,
0,
0,
1,
0,
0,
0,
0,
0,
0,
0,
0,
0,
0,
0,
0,
0,
0,
0,
0,
0,
0,
0,
0,
0,
0,
0,
0,
0,
0,
0,
0,
0,
0,
0,
0,
0,
0,
1,
0,
0,
0,
0,
1,
0,
0,
0,
0,
0,
0,
0,
0,
0,
0,
0,
0,
0,
0,
0,
0,
0,
0,
0,
0,
0,
0,
0,
0,
0,
0,
0,
0,
0,
0,
0,
0,
0,
0,
0,
0,
0,
0,
0,
0,
0,
0,
0,
0,
0,
0,
0,
0,
0,
0,
0,
0,
0,
0,
0,
0,
0,
0,
0,
0,
0,
0,
0,
0,
0,
0,
0,
0,
0,
0,
0,
0,
0,
0,
0,
0,
0,
0,
0,
1,
0,
0,
0,
0,
0,
0,
0,
0,
0,
0,
0,
0,
0,
0,
0,
0,
0,
0,
0,
0,
0,
0,
0,
0,
0,
0,
0,
0,
0,
0,
0,
0,
0,
0,
0,
0,
0,
0,
0,
0,
0,
0,
0,
0,
0,
0,
0,
0,
0,
0,
0,
0,
0,
0,
0,
0,
0,
0,
0,
0,
0,
0,
0,
0,
0,
0,
0,
0,
0,
0,
0,
0,
0,
0,
0,
0,
0,
0,
0,
0,
0,
0,
0,
0,
0,
0,
0,
0,
0,
0,
0,
0,
0,
0,
0,
0,
0,
0,
0,
0,
0,
0,
0,
0,
0,
0,
0,
0,
0,
0,
0,
0,
0,
0,
0,
0,
0,
0,
0,
0,
0,
0,
0,
0,
0,
0,
0,
0,
0,
0,
0,
0,
0,
0,
0,
0,
0,
0,
0,
0,
0,
0,
0,
0,
0,
0,
0,
0,
0,
0,
0,
0,
0,
0,
0,
0,
0,
0,
0,
0,
0,
0,
0,
0,
0,
0,
0,
0,
0,
0,
0,
0,
0,
0,
0,
0,
0,
0,
0,
0,
0,
0,
0,
0,
0,
0,
0,
0,
0,
0,
0,
0,
0,
0,
0,
0,
0,
0,
0,
0,
0,
0,
0,
0,
0,
0,
0,
0,
0,
0,
0,
0,
0,
0,
0,
0,
0,
0,
0,
0,
0,
0,
0,
0,
0,
0,
0,
0,
0,
0,
0,
0,
0,
0,
0,
0,
0,
0,
0,
0,
0,
0,
0,
0,
0,
0,
0,
0,
0,
0,
0,
0,
0,
0,
0,
0,
0,
0,
0,
0,
0,
0,
0,
0,
0,
0,
0,
0,
0,
0,
0,
0,
0,
0,
0,
0,
0,
0,
0,
0,
0,
0,
0,
0,
0,
0,
0,
0,
0,
0,
0,
0,
0,
0,
0,
0,
0,
0,
0,
0,
0,
0,
0,
0,
0,
0,
0,
0,
0,
0,
0,
0,
0,
0,
0,
0,
0,
0,
0,
0,
0,
0,
0,
0,
0,
0,
0,
0,
0,
0,
0,
0,
0,
0,
0,
0,
0,
0,
0,
0,
0,
0,
0,
0,
0,
0,
0,
0,
0,
0,
0,
0,
0,
0,
0,
0,
0,
0,
0,
0,
0,
0,
0,
0,
0,
0,
0,
0,
0,
0,
0,
0,
0,
0,
0,
0,
0,
0,
0,
0,
0,
0,
0,
0,
0,
0,
0,
0,
0,
0,
0,
0,
0,
0,
0,
0,
0,
0,
0,
0,
0,
0,
0,
0,
0,
0,
0,
0,
0,
0,
0,
0,
0,
0,
0,
0,
0,
0,
0,
0,
0,
0,
0,
0,
0,
0,
0,
0,
0,
0,
0,
0,
0,
0,
0,
0,
0,
0,
0,
0,
0,
0,
0,
0,
0,
0,
0,
0,
0,
0,
0,
0,
0,
0,
0,
0,
0,
0,
0,
0,
0,
0,
0,
0,
0,
0,
0,
0,
0,
0,
0,
0,
0,
0,
0,
0,
0,
0,
0,
0,
0,
0,
0,
0,
0,
0,
0,
0,
0,
0,
0,
0,
0,
0,
0,
0,
0,
0,
0,
0,
0,
0,
0,
0,
0,
0,
0,
0,
0,
0,
0,
0,
0,
0,
0,
0,
0,
0,
0,
0,
0,
0,
0,
0,
0,
0,
0,
0,
0,
0,
0,
0,
0,
0,
0,
0,
0,
0,
0,
0,
0,
0,
0,
0,
0,
0,
0,
0,
0,
0,
0,
0,
0,
0,
0,
0,
0,
0,
0,
0,
0,
0,
0,
0,
0,
0,
0,
0,
0,
0,
0,
0,
0,
0,
0,
0,
0,
0,
0,
0,
0,
0,
0,
0,
0,
0,
0,
0,
0,
0,
0,
0,
0,
0,
0,
0,
0,
0,
0,
0,
0,
0,
0,
0,
0,
0,
0,
0,
0,
0,
0,
0,
0,
0,
0,
0,
0,
0,
0,
0,
0,
0,
0,
0,
0,
0,
0,
0,
0,
0,
0,
0,
0,
0,
0,
0,
0,
0,
0,
0,
0,
0,
0,
0,
0,
0,
0,
0,
0,
0,
0,
0,
0,
0,
0,
0,
0,
0,
0,
0,
0,
0,
0,
0,
0,
0,
0,
0,
0,
0,
0,
0,
0,
0,
0,
0,
0,
0,
0,
0,
0,
0,
0,
0,
0,
0,
0,
0,
0,
0,
0,
0,
0,
0,
0,
0,
0,
0,
0,
0,
0,
0,
0,
0,
0,
0,
0,
#ENDOFDATA   :