File: N132962/Quantification/15 keV/Mengason MM2/MMM2 Sphene[6][4].msa
#FORMAT      : EMSA/MAS Spectral Data File
#VERSION     : 1.0
#TITLE       : MMM2 Sphene[6][all]
#DATE        : 28-SEP-2025
#TIME        : 22:05
#OWNER       : Unknown
#NPOINTS     : 4096
#NCOLUMNS    : 1
#XUNITS      : eV
#YUNITS      : counts
#DATATYPE    : Y
#XPERCHAN    : 9.99778
#OFFSET      : 1.69135
#BEAMKV      : 15
#SIGNALTYPE  : EDS
#ELEVANGLE   : 35
#AZIMANGLE   : 0
#LIVETIME    : 240.1239
#REALTIME    : 253.3563
#PROBECUR    : 1.21223
#TAUWIND     : 0
#TDEADLYR    : 0
#TACTLYR     : 0.045
#TALWIND     : 0.025
#CHOFFSET    : 0.0
#XLABEL      : Energy (eV)
#YLABEL      : Counts
#XPOSITION   : -11.21373
#YPOSITION   : -1.87516
#ZPOSITION   : 34.11879
#EDSDET      : SD
##SPECIMEN   : MMM2 Sphene[6][all]
##DET_HASH   : 12273538-fd48-a23f-0a19-f1e6fa85caef
##CALIB_HASH : 6abaa72c-aa41-8738-0be9-f592914732f3
##WORKING    : 15.0 mm
##DET_NAME   : EDAX All
##DET_MODE   : MediumLE
#SPECTRUM    :
24,
27,
10,
18,
98,
415,
1440,
4853,
14043,
20360,
14373,
9209,
9301,
10763,
11956,
20096,
52987,
96084,
69811,
18999,
3597,
2461,
2860,
3222,
3229,
3008,
2884,
3095,
3334,
3499,
3524,
3739,
3845,
4027,
4139,
4161,
4259,
4455,
4513,
4716,
4762,
4817,
4901,
4926,
4948,
5078,
5258,
5679,
7677,
10657,
11024,
8168,
6086,
5591,
6079,
11553,
37315,
90523,
122719,
86305,
36090,
14052,
7722,
5351,
4609,
4550,
4227,
3844,
3742,
3546,
3583,
3749,
3781,
3796,
3644,
3709,
3666,
3374,
3346,
3315,
3195,
3183,
3170,
3011,
3069,
3133,
2992,
3010,
2962,
3052,
3041,
3099,
3225,
3171,
2956,
2822,
2803,
2657,
2647,
2637,
2670,
2677,
2677,
2635,
2462,
2509,
2649,
2448,
2532,
2528,
2359,
2379,
2295,
2391,
2502,
2505,
2616,
2798,
3407,
5363,
12607,
30618,
56950,
71519,
60122,
33836,
13617,
4931,
2696,
2491,
2785,
4078,
6585,
9394,
10268,
8331,
5263,
2999,
1976,
1765,
1724,
1728,
1803,
1846,
1948,
2267,
3763,
8412,
19749,
35977,
47935,
44773,
29614,
14394,
5704,
2592,
1598,
1479,
1558,
1695,
1825,
2533,
3945,
5902,
7415,
7431,
5590,
3451,
2184,
1577,
1313,
1279,
1219,
1245,
1272,
1214,
1193,
1215,
1256,
1227,
1290,
1265,
1241,
1229,
1151,
1106,
1093,
1086,
1076,
1044,
1044,
1095,
1032,
1018,
1072,
1126,
1011,
1030,
1021,
999,
1022,
1007,
1006,
1010,
876,
927,
969,
964,
968,
961,
1052,
1195,
1222,
1367,
1368,
1191,
952,
920,
864,
813,
853,
862,
797,
776,
758,
786,
756,
825,
766,
794,
736,
772,
756,
825,
769,
815,
780,
755,
704,
714,
719,
720,
733,
676,
701,
705,
695,
722,
631,
686,
683,
695,
631,
634,
621,
661,
640,
631,
582,
632,
590,
594,
568,
629,
597,
572,
561,
574,
550,
531,
558,
592,
595,
594,
523,
574,
556,
517,
534,
469,
500,
499,
528,
519,
493,
510,
469,
537,
487,
460,
436,
457,
470,
464,
434,
436,
427,
448,
451,
443,
458,
423,
459,
371,
374,
394,
438,
403,
366,
403,
388,
371,
376,
363,
360,
335,
371,
329,
343,
328,
379,
355,
311,
338,
327,
345,
308,
328,
318,
306,
305,
307,
330,
284,
290,
300,
289,
296,
310,
279,
246,
270,
281,
260,
245,
283,
261,
273,
271,
267,
247,
239,
287,
235,
238,
245,
230,
224,
219,
223,
245,
213,
233,
224,
226,
183,
202,
209,
197,
217,
200,
198,
191,
193,
184,
196,
163,
170,
174,
158,
196,
162,
158,
154,
178,
192,
171,
172,
152,
189,
144,
140,
148,
127,
143,
136,
158,
138,
148,
133,
133,
130,
140,
121,
123,
145,
118,
116,
137,
136,
101,
111,
106,
108,
104,
102,
109,
110,
96,
95,
82,
85,
91,
78,
81,
79,
75,
92,
69,
79,
78,
96,
86,
67,
76,
67,
79,
71,
85,
61,
63,
68,
65,
50,
54,
55,
50,
41,
52,
44,
46,
47,
49,
47,
33,
34,
34,
28,
51,
34,
44,
31,
37,
29,
32,
25,
30,
31,
35,
29,
30,
24,
28,
25,
27,
15,
16,
25,
16,
18,
9,
11,
8,
16,
19,
10,
14,
12,
10,
6,
6,
8,
3,
6,
4,
0,
2,
0,
3,
2,
2,
1,
1,
0,
0,
3,
0,
1,
1,
1,
0,
1,
0,
1,
2,
0,
0,
0,
0,
1,
0,
0,
0,
0,
0,
0,
0,
0,
0,
0,
1,
1,
0,
0,
1,
1,
0,
1,
0,
0,
0,
0,
0,
0,
0,
1,
2,
1,
0,
0,
1,
1,
0,
0,
0,
1,
1,
1,
0,
0,
0,
0,
0,
0,
0,
0,
0,
1,
0,
0,
0,
1,
0,
0,
0,
0,
1,
0,
0,
0,
0,
0,
0,
1,
0,
1,
1,
0,
0,
0,
0,
1,
1,
0,
0,
0,
0,
1,
0,
0,
0,
0,
0,
0,
0,
0,
1,
0,
1,
0,
0,
0,
0,
1,
0,
0,
0,
0,
0,
0,
0,
0,
0,
0,
0,
1,
0,
0,
0,
0,
0,
0,
0,
0,
0,
0,
0,
0,
0,
0,
1,
1,
0,
0,
1,
0,
0,
0,
0,
0,
0,
0,
0,
0,
0,
0,
0,
0,
0,
0,
0,
0,
0,
0,
0,
0,
0,
0,
0,
0,
0,
0,
0,
0,
0,
0,
0,
0,
0,
0,
0,
1,
0,
0,
0,
0,
0,
0,
0,
0,
0,
0,
0,
0,
0,
0,
0,
0,
0,
0,
0,
0,
0,
0,
0,
0,
0,
0,
0,
0,
0,
0,
0,
0,
0,
0,
0,
0,
0,
0,
0,
0,
0,
0,
0,
0,
0,
0,
0,
0,
0,
0,
0,
0,
0,
0,
0,
0,
0,
0,
0,
0,
0,
0,
0,
0,
0,
0,
0,
0,
0,
0,
0,
0,
0,
0,
0,
1,
0,
0,
0,
0,
0,
0,
0,
0,
0,
0,
0,
0,
0,
0,
0,
0,
0,
0,
0,
0,
0,
0,
0,
0,
0,
0,
0,
0,
0,
0,
0,
0,
0,
0,
0,
0,
0,
0,
0,
0,
0,
0,
0,
0,
0,
0,
0,
0,
0,
0,
0,
0,
0,
0,
0,
0,
0,
0,
0,
0,
0,
0,
0,
0,
0,
0,
0,
0,
0,
0,
0,
0,
0,
0,
0,
0,
0,
0,
0,
0,
0,
0,
0,
0,
0,
0,
0,
0,
0,
0,
0,
0,
0,
0,
0,
0,
0,
0,
0,
0,
0,
0,
0,
0,
0,
0,
0,
0,
0,
0,
0,
0,
0,
0,
0,
0,
0,
0,
0,
0,
0,
0,
0,
0,
0,
0,
0,
0,
0,
0,
0,
0,
0,
0,
0,
0,
0,
0,
0,
0,
0,
0,
0,
0,
0,
0,
0,
0,
0,
0,
0,
0,
0,
0,
0,
0,
0,
0,
0,
0,
0,
0,
0,
0,
0,
0,
0,
0,
0,
0,
0,
0,
0,
0,
0,
0,
0,
0,
0,
0,
0,
0,
0,
0,
0,
0,
0,
0,
0,
0,
0,
0,
0,
0,
0,
0,
0,
0,
0,
0,
0,
0,
0,
0,
0,
0,
0,
0,
0,
0,
0,
0,
0,
0,
0,
0,
0,
0,
0,
0,
0,
0,
0,
0,
0,
0,
0,
0,
0,
0,
0,
0,
0,
0,
0,
0,
0,
0,
0,
0,
0,
0,
0,
0,
0,
0,
0,
0,
0,
0,
0,
0,
0,
0,
0,
0,
0,
0,
0,
0,
0,
0,
0,
0,
0,
0,
0,
0,
0,
0,
0,
0,
0,
0,
0,
0,
0,
0,
0,
0,
0,
0,
0,
0,
0,
0,
0,
0,
0,
0,
0,
0,
0,
0,
0,
0,
0,
0,
0,
0,
0,
0,
0,
0,
0,
0,
0,
0,
0,
0,
0,
0,
0,
0,
0,
0,
0,
0,
0,
0,
0,
0,
0,
0,
0,
0,
0,
0,
0,
0,
0,
0,
0,
0,
0,
0,
0,
0,
0,
0,
0,
0,
0,
0,
0,
0,
0,
0,
0,
0,
0,
0,
0,
0,
0,
0,
0,
0,
0,
0,
0,
0,
0,
0,
0,
0,
0,
0,
0,
0,
0,
0,
0,
0,
0,
0,
0,
0,
0,
0,
0,
0,
0,
0,
0,
0,
0,
0,
0,
0,
0,
0,
0,
0,
0,
0,
0,
0,
0,
0,
0,
0,
0,
0,
0,
0,
0,
0,
0,
0,
0,
0,
0,
0,
0,
0,
0,
0,
0,
0,
0,
0,
0,
0,
0,
0,
0,
0,
0,
0,
0,
0,
0,
0,
0,
0,
0,
0,
0,
0,
0,
0,
0,
0,
0,
0,
0,
0,
0,
0,
0,
0,
0,
0,
0,
0,
0,
0,
0,
0,
0,
0,
0,
0,
0,
0,
0,
0,
0,
0,
0,
0,
0,
0,
0,
0,
0,
0,
0,
0,
0,
0,
0,
0,
0,
0,
0,
0,
0,
0,
0,
0,
0,
0,
0,
0,
0,
0,
0,
0,
0,
0,
0,
0,
0,
0,
0,
0,
0,
0,
0,
0,
0,
0,
0,
0,
0,
0,
0,
0,
0,
0,
0,
0,
0,
0,
0,
0,
0,
0,
0,
0,
0,
0,
0,
0,
0,
0,
0,
0,
0,
0,
0,
0,
0,
0,
0,
0,
0,
0,
0,
0,
0,
0,
0,
0,
0,
0,
0,
0,
0,
0,
0,
0,
0,
0,
0,
0,
0,
0,
0,
0,
0,
0,
0,
0,
0,
0,
0,
0,
0,
0,
0,
0,
0,
0,
0,
0,
0,
0,
0,
0,
0,
0,
0,
0,
0,
0,
0,
0,
0,
0,
0,
0,
0,
0,
0,
0,
#ENDOFDATA   :