File: N132962/Quantification/15 keV/Mengason MM2/MMM2 Scheelite[3][4].msa
#FORMAT      : EMSA/MAS Spectral Data File
#VERSION     : 1.0
#TITLE       : MMM2 Scheelite[3][all]
#DATE        : 29-SEP-2025
#TIME        : 00:27
#OWNER       : Unknown
#NPOINTS     : 4096
#NCOLUMNS    : 1
#XUNITS      : eV
#YUNITS      : counts
#DATATYPE    : Y
#XPERCHAN    : 9.99778
#OFFSET      : 1.69135
#BEAMKV      : 15
#SIGNALTYPE  : EDS
#ELEVANGLE   : 35
#AZIMANGLE   : 0
#LIVETIME    : 240.298
#REALTIME    : 260.653
#PROBECUR    : 1.21186
#TAUWIND     : 0
#TDEADLYR    : 0
#TACTLYR     : 0.045
#TALWIND     : 0.025
#CHOFFSET    : 0.0
#XLABEL      : Energy (eV)
#YLABEL      : Counts
#XPOSITION   : -17.52098
#YPOSITION   : 4.50566
#ZPOSITION   : 34.11879
#EDSDET      : SD
##SPECIMEN   : MMM2 Scheelite[3][all]
##DET_HASH   : 12273538-fd48-a23f-0a19-f1e6fa85caef
##CALIB_HASH : 6abaa72c-aa41-8738-0be9-f592914732f3
##WORKING    : 15.0 mm
##DET_NAME   : EDAX All
##DET_MODE   : MediumLE
#SPECTRUM    :
31,
30,
12,
32,
256,
1168,
3717,
9445,
21253,
27134,
16345,
8105,
6035,
5617,
6625,
14072,
42197,
76455,
56978,
18246,
6302,
5421,
5904,
6565,
6882,
6846,
7069,
7585,
7807,
8059,
7935,
8214,
8456,
8577,
8851,
8842,
9110,
9231,
9342,
9432,
9636,
9866,
10254,
10777,
13771,
19739,
24344,
20258,
14593,
11757,
10953,
10631,
10581,
10622,
11139,
13575,
21383,
55152,
136391,
215277,
211399,
150943,
84139,
34407,
12613,
7875,
8453,
10116,
10553,
8738,
6579,
5843,
5544,
5922,
5752,
6216,
6714,
6842,
6603,
6176,
5815,
5345,
5219,
5222,
5201,
5119,
5213,
4982,
4956,
5089,
4938,
5057,
5153,
5126,
5195,
5128,
4940,
4876,
4965,
4937,
4765,
5059,
4904,
4773,
5023,
4988,
4832,
4830,
4709,
4911,
4799,
4698,
4708,
4760,
4732,
4708,
4911,
5172,
5481,
7051,
12001,
24464,
41943,
51549,
44247,
26178,
12783,
6432,
4933,
4868,
4870,
5672,
7537,
9433,
10029,
8745,
6448,
4787,
4214,
3978,
4076,
3961,
3848,
3989,
3917,
3928,
3867,
3710,
3860,
3652,
3806,
3785,
3654,
3739,
3633,
3739,
3621,
3521,
3549,
3545,
3645,
3684,
3463,
3556,
3457,
3498,
3538,
3456,
3443,
3312,
3488,
3322,
3322,
3336,
3334,
3243,
3364,
3203,
3487,
3210,
3270,
3260,
3240,
3221,
3166,
3271,
3118,
3040,
3017,
3036,
2985,
2929,
2902,
2870,
2849,
2952,
2839,
2786,
2789,
2870,
2769,
2822,
2810,
2747,
2654,
2814,
2681,
2668,
2583,
2708,
2626,
2673,
2654,
2810,
2726,
2634,
2532,
2522,
2507,
2522,
2520,
2529,
2459,
2407,
2390,
2349,
2382,
2384,
2383,
2312,
2281,
2262,
2348,
2244,
2368,
2246,
2210,
2191,
2221,
2229,
2215,
2185,
2239,
2239,
2341,
2459,
2641,
2533,
2396,
2257,
2142,
1978,
2094,
1976,
1928,
2003,
1920,
1908,
1923,
1873,
1919,
1859,
1946,
1810,
1791,
1823,
1821,
1862,
1822,
1760,
1826,
1780,
1867,
1988,
2221,
3059,
4468,
6679,
9109,
10860,
11244,
9720,
7039,
4679,
2991,
2089,
1752,
1710,
1629,
1614,
1567,
1568,
1541,
1505,
1517,
1416,
1415,
1386,
1459,
1389,
1419,
1376,
1320,
1380,
1359,
1348,
1356,
1316,
1356,
1288,
1359,
1262,
1304,
1247,
1345,
1318,
1530,
1711,
1968,
2334,
2936,
3564,
3695,
3455,
2992,
2542,
2114,
1998,
1954,
2115,
2457,
2717,
2635,
2554,
2150,
1794,
1467,
1219,
1095,
1125,
1061,
1026,
1057,
962,
945,
971,
894,
885,
890,
784,
928,
904,
910,
859,
832,
825,
922,
850,
853,
761,
794,
825,
792,
769,
775,
724,
783,
722,
758,
743,
828,
773,
839,
912,
1011,
1076,
1097,
1079,
908,
834,
776,
755,
635,
666,
664,
688,
708,
711,
683,
711,
634,
639,
535,
578,
553,
595,
569,
523,
494,
499,
497,
550,
523,
479,
510,
502,
534,
446,
469,
459,
478,
421,
402,
421,
409,
406,
413,
427,
379,
374,
386,
386,
358,
368,
343,
358,
317,
357,
329,
330,
339,
315,
309,
329,
298,
303,
288,
277,
294,
272,
270,
256,
286,
210,
241,
232,
220,
255,
225,
182,
216,
198,
234,
199,
211,
205,
199,
197,
187,
230,
185,
166,
186,
144,
148,
154,
143,
131,
133,
156,
127,
120,
103,
128,
116,
97,
121,
119,
73,
93,
84,
75,
84,
73,
69,
70,
63,
47,
46,
55,
43,
31,
36,
26,
28,
23,
23,
14,
7,
11,
13,
5,
7,
2,
4,
5,
2,
5,
2,
3,
4,
1,
6,
4,
1,
4,
1,
3,
4,
3,
6,
2,
2,
2,
3,
2,
3,
3,
3,
4,
0,
2,
2,
3,
2,
4,
1,
2,
3,
4,
1,
1,
0,
5,
2,
4,
2,
1,
4,
1,
2,
1,
3,
7,
1,
6,
2,
1,
3,
1,
3,
3,
2,
5,
4,
1,
0,
2,
1,
3,
5,
0,
3,
2,
0,
1,
4,
1,
2,
0,
2,
2,
2,
0,
1,
1,
3,
1,
1,
1,
1,
3,
3,
1,
3,
1,
0,
1,
2,
1,
2,
1,
1,
2,
2,
1,
2,
3,
3,
5,
4,
4,
5,
2,
3,
0,
3,
1,
1,
2,
0,
3,
0,
3,
2,
2,
2,
1,
3,
1,
0,
1,
3,
0,
2,
1,
0,
2,
1,
2,
0,
3,
1,
0,
1,
0,
1,
0,
0,
1,
1,
1,
1,
1,
2,
0,
1,
0,
1,
0,
1,
0,
0,
0,
0,
0,
1,
1,
0,
1,
0,
0,
2,
0,
1,
1,
1,
0,
0,
0,
1,
0,
0,
0,
0,
1,
0,
0,
0,
1,
0,
1,
0,
0,
1,
0,
0,
0,
1,
2,
0,
0,
0,
2,
0,
1,
0,
1,
0,
0,
0,
0,
0,
0,
0,
0,
0,
0,
1,
0,
2,
0,
0,
0,
0,
0,
0,
2,
0,
0,
0,
0,
0,
0,
0,
1,
0,
0,
0,
0,
0,
0,
1,
0,
0,
0,
0,
0,
0,
0,
0,
2,
1,
0,
0,
0,
0,
0,
0,
0,
0,
0,
0,
0,
0,
1,
0,
0,
0,
0,
1,
0,
0,
0,
0,
0,
0,
0,
0,
0,
0,
0,
0,
0,
0,
0,
0,
0,
0,
0,
0,
0,
0,
0,
0,
0,
0,
0,
0,
0,
0,
0,
0,
0,
0,
0,
1,
0,
0,
0,
0,
0,
1,
0,
0,
0,
0,
0,
1,
0,
0,
0,
0,
1,
1,
0,
0,
0,
0,
0,
0,
0,
0,
0,
0,
0,
0,
0,
0,
0,
0,
0,
0,
0,
0,
0,
0,
0,
0,
0,
0,
0,
0,
0,
0,
0,
0,
0,
0,
0,
0,
0,
0,
0,
0,
0,
0,
0,
0,
0,
0,
0,
0,
0,
0,
0,
0,
0,
0,
0,
0,
0,
0,
0,
1,
0,
0,
0,
0,
0,
0,
0,
0,
0,
0,
0,
0,
0,
0,
0,
0,
0,
0,
0,
0,
0,
0,
0,
0,
0,
0,
0,
0,
0,
0,
0,
0,
0,
0,
0,
0,
0,
0,
0,
0,
0,
0,
0,
0,
0,
0,
0,
0,
0,
0,
0,
0,
0,
0,
0,
0,
0,
0,
0,
0,
0,
0,
0,
0,
0,
0,
0,
0,
0,
0,
0,
0,
0,
0,
0,
0,
0,
0,
0,
0,
0,
0,
0,
0,
0,
0,
0,
0,
0,
0,
0,
0,
0,
0,
0,
0,
0,
0,
0,
0,
0,
0,
0,
0,
0,
0,
0,
0,
0,
0,
0,
0,
0,
0,
0,
0,
0,
0,
0,
0,
0,
0,
0,
0,
0,
0,
0,
0,
0,
0,
0,
0,
0,
0,
0,
0,
0,
0,
0,
0,
0,
0,
0,
0,
0,
0,
0,
0,
0,
0,
0,
0,
0,
0,
0,
0,
0,
0,
0,
0,
0,
0,
0,
0,
0,
0,
0,
0,
0,
0,
0,
0,
0,
0,
0,
0,
0,
0,
0,
0,
0,
0,
0,
0,
0,
0,
0,
0,
0,
0,
0,
0,
0,
0,
0,
0,
0,
0,
0,
0,
0,
0,
0,
0,
0,
0,
0,
0,
0,
0,
0,
0,
0,
0,
0,
0,
0,
0,
0,
0,
0,
0,
0,
0,
0,
0,
0,
0,
0,
0,
0,
0,
0,
0,
0,
0,
0,
0,
0,
0,
0,
0,
0,
0,
0,
0,
0,
0,
0,
0,
0,
0,
0,
0,
0,
0,
0,
0,
0,
0,
0,
0,
0,
0,
0,
0,
0,
0,
0,
0,
0,
0,
0,
0,
0,
0,
0,
0,
0,
0,
0,
0,
0,
0,
0,
0,
0,
0,
0,
0,
0,
0,
0,
0,
0,
0,
0,
0,
0,
0,
0,
0,
0,
0,
0,
0,
0,
0,
0,
0,
0,
0,
0,
0,
0,
0,
0,
0,
0,
0,
0,
0,
0,
0,
0,
0,
0,
0,
0,
0,
0,
0,
0,
0,
0,
0,
0,
0,
0,
0,
0,
0,
0,
0,
0,
0,
0,
0,
0,
0,
0,
0,
0,
0,
0,
0,
0,
0,
0,
0,
0,
0,
0,
0,
0,
0,
0,
0,
0,
0,
0,
0,
0,
0,
0,
0,
0,
0,
0,
0,
0,
0,
0,
0,
0,
0,
0,
0,
0,
0,
0,
0,
0,
0,
0,
0,
0,
0,
0,
0,
0,
0,
0,
0,
0,
0,
0,
0,
0,
0,
0,
0,
0,
0,
0,
0,
0,
0,
0,
0,
0,
0,
0,
0,
0,
0,
0,
0,
0,
0,
0,
0,
0,
0,
0,
0,
0,
0,
0,
0,
0,
0,
0,
0,
0,
0,
0,
0,
0,
0,
0,
0,
0,
0,
0,
0,
0,
0,
0,
0,
0,
0,
0,
0,
0,
0,
0,
0,
0,
0,
0,
0,
0,
0,
0,
0,
0,
0,
0,
0,
0,
#ENDOFDATA   :