File: N132962/Quantification/15 keV/Mengason MM2/MMM2 Zircon-2[7][4].msa
#FORMAT      : EMSA/MAS Spectral Data File
#VERSION     : 1.0
#TITLE       : MMM2 Zircon-2[7][all]
#DATE        : 29-SEP-2025
#TIME        : 01:24
#OWNER       : Unknown
#NPOINTS     : 4096
#NCOLUMNS    : 1
#XUNITS      : eV
#YUNITS      : counts
#DATATYPE    : Y
#XPERCHAN    : 9.99778
#OFFSET      : 1.69135
#BEAMKV      : 15
#SIGNALTYPE  : EDS
#ELEVANGLE   : 35
#AZIMANGLE   : 0
#LIVETIME    : 240.198
#REALTIME    : 256.941
#PROBECUR    : 1.21248
#TAUWIND     : 0
#TDEADLYR    : 0
#TACTLYR     : 0.045
#TALWIND     : 0.025
#CHOFFSET    : 0.0
#XLABEL      : Energy (eV)
#YLABEL      : Counts
#XPOSITION   : -14.65694
#YPOSITION   : 7.62219
#ZPOSITION   : 34.11879
#EDSDET      : SD
##SPECIMEN   : MMM2 Zircon-2[7][all]
##DET_HASH   : 12273538-fd48-a23f-0a19-f1e6fa85caef
##CALIB_HASH : 6abaa72c-aa41-8738-0be9-f592914732f3
##WORKING    : 15.0 mm
##DET_NAME   : EDAX All
##DET_MODE   : MediumLE
#SPECTRUM    :
21,
29,
11,
61,
461,
1356,
2111,
5270,
14248,
19708,
12063,
5544,
4624,
5265,
6455,
17163,
58842,
108995,
79248,
22482,
5199,
3776,
4117,
4496,
4873,
4668,
4894,
5211,
5424,
5600,
5748,
5826,
6131,
6244,
6516,
6483,
6589,
6753,
6849,
6849,
6960,
7287,
7398,
7355,
7462,
7608,
7464,
7577,
8523,
9368,
9342,
8892,
8165,
8727,
10645,
17573,
47866,
112986,
151586,
112282,
53132,
23890,
14214,
11080,
12073,
20011,
47202,
100001,
139011,
124080,
91858,
70990,
48146,
27780,
16224,
9851,
6439,
4823,
3922,
3679,
3615,
3478,
3898,
4355,
4313,
3987,
3645,
3341,
3332,
3301,
3094,
3103,
3146,
3249,
2992,
3155,
3080,
3039,
3096,
3180,
3058,
3069,
3083,
3038,
3078,
3082,
3073,
3073,
2985,
3007,
2954,
2956,
2967,
3003,
3040,
3078,
3041,
2891,
2902,
2905,
2857,
2952,
2857,
2822,
2879,
2914,
3118,
2955,
2999,
2781,
2714,
2713,
2673,
2760,
2589,
2636,
2716,
2566,
2583,
2562,
2511,
2523,
2550,
2430,
2458,
2357,
2379,
2304,
2364,
2396,
2342,
2323,
2218,
2314,
2278,
2268,
2239,
2229,
2230,
2191,
2230,
2059,
2159,
2144,
2159,
2078,
1998,
1959,
2005,
1938,
2028,
1955,
1977,
1969,
2002,
1942,
1897,
1869,
1911,
1872,
1964,
1819,
1878,
1768,
1769,
1784,
1763,
1801,
1694,
1800,
1754,
1677,
1658,
1716,
1695,
1689,
1639,
1616,
1694,
1586,
1592,
1644,
1536,
1502,
1554,
1521,
1539,
1468,
1531,
1537,
1572,
1635,
1784,
1788,
1787,
1593,
1450,
1447,
1415,
1402,
1374,
1406,
1342,
1334,
1306,
1338,
1313,
1349,
1315,
1304,
1273,
1272,
1325,
1282,
1265,
1269,
1244,
1215,
1181,
1199,
1138,
1163,
1119,
1130,
1123,
1173,
1207,
1112,
1159,
1072,
1172,
1090,
989,
1043,
1081,
1025,
1046,
1029,
1064,
1029,
1058,
1059,
1043,
1107,
1014,
1028,
969,
1002,
946,
955,
932,
901,
897,
905,
866,
908,
862,
913,
849,
874,
814,
826,
770,
812,
812,
856,
792,
797,
809,
752,
747,
790,
738,
792,
734,
789,
789,
716,
736,
746,
712,
745,
710,
736,
686,
689,
740,
700,
642,
690,
685,
644,
643,
654,
623,
657,
678,
622,
637,
592,
526,
585,
599,
582,
579,
577,
589,
569,
557,
575,
493,
494,
507,
526,
494,
487,
527,
496,
508,
503,
489,
510,
489,
493,
484,
444,
539,
475,
460,
454,
480,
430,
450,
422,
428,
428,
428,
376,
406,
406,
378,
399,
453,
393,
380,
376,
390,
350,
379,
366,
352,
347,
325,
362,
330,
328,
320,
318,
331,
301,
322,
280,
288,
311,
276,
311,
259,
301,
273,
277,
236,
298,
260,
235,
255,
228,
286,
244,
213,
267,
241,
207,
207,
234,
223,
220,
213,
200,
201,
205,
229,
203,
181,
212,
190,
188,
182,
178,
154,
155,
168,
129,
184,
154,
155,
131,
158,
148,
149,
154,
138,
153,
135,
133,
142,
145,
123,
112,
95,
99,
111,
111,
130,
110,
94,
108,
94,
106,
95,
89,
103,
86,
80,
88,
95,
88,
72,
73,
75,
89,
68,
69,
67,
69,
54,
55,
68,
63,
63,
64,
51,
59,
53,
53,
50,
54,
33,
41,
33,
37,
29,
24,
32,
36,
32,
27,
23,
22,
24,
22,
19,
17,
22,
11,
14,
9,
5,
5,
2,
3,
3,
1,
2,
2,
1,
0,
1,
0,
0,
2,
0,
1,
0,
0,
0,
0,
1,
1,
0,
0,
0,
1,
0,
1,
0,
0,
0,
1,
1,
0,
2,
0,
2,
3,
0,
1,
0,
1,
0,
1,
0,
0,
0,
0,
1,
0,
0,
0,
1,
1,
0,
0,
0,
0,
0,
0,
0,
0,
0,
0,
1,
0,
2,
0,
0,
1,
0,
0,
0,
1,
0,
0,
0,
0,
0,
0,
0,
1,
0,
0,
1,
0,
0,
0,
0,
0,
0,
1,
0,
0,
0,
0,
1,
0,
0,
0,
0,
0,
0,
1,
0,
0,
0,
0,
0,
0,
0,
1,
0,
1,
0,
0,
0,
0,
0,
0,
0,
1,
2,
0,
0,
0,
0,
0,
1,
0,
0,
0,
0,
0,
0,
0,
0,
1,
0,
0,
0,
0,
0,
0,
1,
0,
0,
0,
0,
0,
0,
0,
0,
0,
0,
1,
0,
0,
0,
0,
0,
0,
0,
0,
0,
0,
0,
0,
1,
0,
0,
1,
0,
0,
0,
0,
0,
0,
0,
1,
0,
0,
0,
0,
0,
0,
0,
0,
0,
1,
0,
0,
1,
0,
0,
0,
0,
0,
0,
0,
0,
0,
0,
0,
0,
0,
0,
0,
0,
0,
0,
1,
0,
0,
0,
0,
0,
0,
0,
0,
0,
0,
0,
0,
0,
0,
0,
0,
0,
0,
0,
0,
0,
0,
1,
0,
0,
0,
0,
0,
0,
0,
0,
0,
0,
0,
0,
0,
0,
0,
0,
0,
0,
0,
0,
0,
0,
0,
0,
0,
0,
0,
0,
0,
0,
0,
0,
0,
0,
0,
0,
0,
0,
0,
0,
0,
0,
0,
0,
0,
0,
0,
0,
0,
1,
0,
0,
0,
0,
0,
0,
0,
0,
0,
0,
0,
0,
0,
0,
0,
0,
0,
0,
0,
0,
0,
0,
0,
0,
0,
0,
0,
0,
0,
0,
0,
0,
0,
0,
0,
0,
0,
0,
0,
0,
0,
0,
0,
0,
0,
0,
0,
0,
0,
0,
0,
0,
0,
0,
0,
0,
0,
0,
0,
0,
0,
0,
0,
0,
0,
0,
0,
0,
0,
0,
0,
0,
0,
0,
0,
0,
0,
0,
0,
0,
0,
0,
0,
0,
0,
0,
0,
0,
0,
0,
0,
0,
0,
0,
0,
0,
0,
0,
0,
0,
0,
0,
0,
0,
0,
0,
0,
0,
0,
0,
0,
0,
0,
0,
0,
0,
0,
0,
0,
0,
0,
0,
0,
0,
0,
0,
0,
0,
0,
0,
0,
0,
0,
0,
0,
0,
0,
0,
0,
0,
0,
0,
0,
0,
0,
0,
0,
0,
0,
0,
0,
0,
0,
0,
0,
0,
0,
0,
0,
0,
0,
0,
0,
0,
0,
0,
0,
0,
0,
0,
0,
0,
0,
0,
0,
0,
0,
0,
0,
0,
0,
0,
0,
0,
0,
0,
0,
0,
0,
0,
0,
0,
0,
0,
0,
0,
0,
0,
0,
0,
0,
0,
0,
0,
0,
0,
0,
0,
0,
0,
0,
0,
0,
0,
0,
0,
0,
0,
0,
0,
0,
0,
0,
0,
0,
0,
0,
0,
0,
0,
0,
0,
0,
0,
0,
0,
0,
0,
0,
0,
0,
0,
0,
0,
0,
0,
0,
0,
0,
0,
0,
0,
0,
0,
0,
0,
0,
0,
0,
0,
0,
0,
0,
0,
0,
0,
0,
0,
0,
0,
0,
0,
0,
0,
0,
0,
0,
0,
0,
0,
0,
0,
0,
0,
0,
0,
0,
0,
0,
0,
0,
0,
0,
0,
0,
0,
0,
0,
0,
0,
0,
0,
0,
0,
0,
0,
0,
0,
0,
0,
0,
0,
0,
0,
0,
0,
0,
0,
0,
0,
0,
0,
0,
0,
0,
0,
0,
0,
0,
0,
0,
0,
0,
0,
0,
0,
0,
0,
0,
0,
0,
0,
0,
0,
0,
0,
0,
0,
0,
0,
0,
0,
0,
0,
0,
0,
0,
0,
0,
0,
0,
0,
0,
0,
0,
0,
0,
0,
0,
0,
0,
0,
0,
0,
0,
0,
0,
0,
0,
0,
0,
0,
0,
0,
0,
0,
0,
0,
0,
0,
0,
0,
0,
0,
0,
0,
0,
0,
0,
0,
0,
0,
0,
0,
0,
0,
0,
0,
0,
0,
0,
0,
0,
0,
0,
0,
0,
0,
0,
0,
0,
0,
0,
0,
0,
0,
0,
0,
0,
0,
0,
0,
0,
0,
0,
0,
0,
0,
0,
0,
0,
0,
0,
0,
0,
0,
0,
0,
0,
0,
0,
0,
0,
0,
0,
0,
0,
0,
0,
0,
0,
0,
0,
0,
0,
0,
0,
0,
0,
0,
0,
0,
0,
0,
0,
0,
0,
0,
0,
0,
0,
0,
0,
0,
0,
0,
0,
0,
0,
0,
0,
0,
0,
0,
0,
0,
0,
0,
0,
0,
0,
0,
0,
0,
0,
0,
0,
0,
0,
0,
0,
0,
0,
0,
0,
0,
0,
0,
0,
0,
0,
0,
0,
0,
0,
0,
0,
0,
0,
0,
0,
0,
0,
0,
0,
0,
0,
0,
0,
0,
0,
0,
0,
0,
0,
0,
0,
0,
0,
0,
0,
0,
0,
0,
0,
0,
0,
0,
0,
0,
0,
0,
0,
0,
0,
0,
0,
0,
0,
0,
0,
0,
0,
0,
0,
0,
0,
0,
0,
0,
0,
0,
0,
0,
0,
#ENDOFDATA   :