File: N132962/Quantification/15 keV/Mengason MM2/MMM2 Plagioclaise[5][4].msa
#FORMAT      : EMSA/MAS Spectral Data File
#VERSION     : 1.0
#TITLE       : MMM2 Plagioclaise[5][all]
#DATE        : 28-SEP-2025
#TIME        : 23:17
#OWNER       : Unknown
#NPOINTS     : 4096
#NCOLUMNS    : 1
#XUNITS      : eV
#YUNITS      : counts
#DATATYPE    : Y
#XPERCHAN    : 9.99778
#OFFSET      : 1.69135
#BEAMKV      : 15
#SIGNALTYPE  : EDS
#ELEVANGLE   : 35
#AZIMANGLE   : 0
#LIVETIME    : 240.29
#REALTIME    : 256.481
#PROBECUR    : 1.2132
#TAUWIND     : 0
#TDEADLYR    : 0
#TACTLYR     : 0.045
#TALWIND     : 0.025
#CHOFFSET    : 0.0
#XLABEL      : Energy (eV)
#YLABEL      : Counts
#XPOSITION   : -18.61228
#YPOSITION   : 1.96468
#ZPOSITION   : 34.11879
#EDSDET      : SD
##SPECIMEN   : MMM2 Plagioclaise[5][all]
##DET_HASH   : 12273538-fd48-a23f-0a19-f1e6fa85caef
##CALIB_HASH : 6abaa72c-aa41-8738-0be9-f592914732f3
##WORKING    : 15.0 mm
##DET_NAME   : EDAX All
##DET_MODE   : MediumLE
#SPECTRUM    :
32,
25,
10,
18,
84,
369,
1092,
3767,
11204,
14629,
8304,
4616,
3900,
4587,
8009,
29061,
109962,
210695,
152123,
39601,
5642,
2560,
2633,
3162,
3431,
3116,
3311,
3359,
3681,
3835,
4003,
4409,
5828,
11833,
23690,
25964,
14505,
6501,
4811,
4729,
4910,
5279,
5475,
5362,
5522,
5870,
7567,
19626,
64054,
128585,
130118,
67076,
22456,
8650,
6680,
14449,
54973,
139614,
190248,
134410,
54477,
18754,
9079,
4934,
3357,
3099,
3091,
3022,
2858,
2596,
2558,
2469,
2535,
2624,
2798,
2981,
2927,
2700,
2500,
2475,
2435,
2351,
2399,
2402,
2370,
2368,
2308,
2257,
2340,
2248,
2220,
2286,
2229,
2217,
2178,
2128,
2195,
2176,
2203,
2134,
2179,
2131,
1982,
2007,
1965,
2014,
2127,
2212,
2557,
2757,
2916,
2884,
2611,
2179,
1913,
1996,
2050,
2158,
2359,
3188,
6031,
13000,
23179,
28687,
24278,
14237,
6072,
2672,
1867,
1767,
1769,
2379,
3373,
4298,
4761,
3805,
2736,
1932,
1501,
1407,
1412,
1481,
1276,
1300,
1279,
1277,
1260,
1266,
1216,
1302,
1354,
1355,
1274,
1248,
1255,
1160,
1198,
1151,
1204,
1179,
1110,
1118,
1125,
1070,
1111,
1128,
1075,
1100,
1034,
1041,
1093,
1037,
1132,
1064,
1029,
983,
1045,
939,
992,
934,
960,
978,
967,
949,
918,
946,
983,
885,
849,
879,
932,
879,
868,
876,
828,
853,
858,
827,
820,
796,
799,
808,
749,
760,
747,
776,
757,
778,
745,
759,
835,
877,
990,
978,
966,
920,
788,
724,
677,
657,
692,
699,
681,
669,
685,
648,
634,
614,
596,
651,
593,
619,
667,
628,
639,
619,
611,
578,
560,
588,
532,
570,
550,
543,
568,
558,
546,
547,
540,
517,
490,
504,
513,
504,
502,
500,
458,
486,
508,
497,
453,
476,
394,
468,
467,
472,
444,
436,
431,
454,
410,
417,
405,
442,
422,
403,
395,
383,
402,
419,
334,
399,
384,
374,
381,
341,
386,
376,
331,
323,
329,
358,
342,
364,
295,
328,
327,
299,
363,
337,
313,
321,
324,
329,
299,
321,
325,
330,
327,
271,
298,
274,
323,
264,
275,
272,
276,
245,
265,
250,
236,
260,
264,
261,
229,
254,
241,
244,
241,
251,
236,
244,
236,
246,
219,
226,
220,
227,
207,
204,
182,
205,
195,
182,
233,
203,
194,
163,
214,
179,
176,
188,
217,
187,
169,
182,
186,
166,
192,
165,
148,
169,
150,
163,
175,
155,
167,
156,
142,
162,
166,
154,
182,
137,
111,
132,
136,
144,
120,
143,
131,
141,
133,
132,
129,
131,
142,
135,
121,
126,
117,
107,
105,
102,
103,
100,
99,
111,
100,
98,
89,
95,
80,
71,
92,
95,
92,
89,
90,
90,
92,
82,
87,
77,
65,
75,
67,
64,
82,
65,
71,
60,
73,
62,
70,
83,
56,
60,
64,
54,
48,
51,
51,
61,
51,
45,
57,
43,
42,
35,
45,
45,
47,
39,
39,
29,
41,
32,
36,
27,
30,
35,
39,
29,
23,
28,
39,
31,
30,
26,
41,
32,
24,
37,
18,
24,
26,
30,
24,
13,
23,
25,
14,
15,
9,
25,
19,
20,
14,
10,
9,
11,
6,
11,
7,
11,
5,
9,
11,
9,
12,
7,
4,
3,
4,
3,
3,
3,
3,
2,
0,
0,
0,
1,
1,
0,
0,
0,
0,
0,
0,
0,
0,
0,
0,
1,
0,
0,
1,
0,
0,
0,
0,
0,
0,
0,
1,
0,
0,
0,
0,
0,
0,
0,
0,
0,
0,
0,
0,
0,
0,
0,
1,
0,
0,
0,
0,
0,
0,
1,
0,
1,
0,
0,
0,
0,
0,
0,
0,
1,
0,
0,
0,
0,
0,
0,
0,
0,
1,
0,
0,
0,
0,
0,
0,
0,
0,
0,
0,
0,
1,
0,
0,
0,
0,
0,
0,
0,
1,
0,
0,
1,
0,
0,
0,
0,
0,
0,
0,
0,
0,
0,
0,
0,
0,
0,
0,
0,
0,
0,
0,
0,
1,
0,
0,
0,
0,
0,
0,
0,
1,
0,
0,
0,
0,
0,
0,
0,
0,
0,
0,
0,
0,
0,
0,
0,
0,
0,
0,
0,
0,
0,
0,
0,
0,
0,
0,
0,
0,
0,
0,
0,
0,
0,
0,
0,
0,
0,
0,
0,
0,
0,
0,
0,
0,
0,
0,
0,
0,
0,
0,
0,
0,
0,
0,
1,
0,
0,
0,
0,
0,
0,
0,
0,
0,
0,
0,
0,
0,
1,
0,
0,
0,
0,
0,
0,
0,
0,
0,
0,
0,
0,
0,
0,
0,
0,
0,
0,
0,
0,
0,
0,
0,
0,
0,
0,
0,
0,
0,
0,
0,
0,
0,
0,
0,
0,
0,
0,
0,
0,
0,
0,
0,
0,
0,
0,
0,
0,
0,
0,
0,
0,
0,
0,
0,
0,
0,
0,
0,
1,
0,
0,
0,
0,
0,
0,
0,
0,
0,
0,
0,
0,
0,
0,
1,
0,
0,
0,
0,
0,
0,
0,
0,
0,
0,
0,
0,
0,
0,
0,
0,
0,
0,
0,
0,
0,
0,
0,
0,
0,
0,
0,
0,
0,
0,
0,
0,
0,
0,
0,
0,
0,
0,
0,
0,
0,
0,
0,
0,
0,
0,
0,
0,
0,
0,
0,
0,
0,
0,
0,
0,
0,
0,
0,
0,
1,
0,
0,
0,
0,
0,
0,
0,
0,
0,
0,
0,
0,
0,
0,
0,
0,
0,
0,
0,
0,
0,
0,
0,
0,
0,
0,
0,
0,
0,
0,
0,
0,
0,
0,
0,
0,
0,
0,
0,
0,
0,
0,
0,
0,
0,
0,
0,
0,
0,
0,
0,
0,
0,
0,
0,
0,
0,
0,
0,
0,
0,
0,
0,
0,
0,
0,
0,
0,
0,
0,
0,
0,
0,
0,
0,
0,
0,
0,
0,
0,
0,
0,
0,
0,
0,
0,
0,
0,
0,
0,
0,
0,
0,
0,
0,
0,
0,
0,
0,
0,
0,
0,
0,
0,
0,
0,
0,
0,
0,
0,
0,
0,
0,
0,
0,
0,
0,
0,
0,
0,
0,
0,
0,
0,
0,
0,
0,
0,
0,
0,
0,
0,
0,
0,
0,
0,
0,
0,
0,
0,
0,
0,
0,
0,
0,
0,
0,
0,
0,
0,
0,
0,
0,
0,
0,
0,
0,
0,
0,
0,
0,
0,
0,
0,
0,
0,
0,
0,
0,
0,
0,
0,
0,
0,
0,
0,
0,
0,
0,
0,
0,
0,
0,
0,
0,
0,
0,
0,
0,
0,
0,
0,
0,
0,
0,
0,
0,
0,
0,
0,
0,
0,
0,
0,
0,
0,
0,
0,
0,
0,
0,
0,
0,
0,
0,
0,
0,
0,
0,
0,
0,
0,
0,
0,
0,
0,
0,
0,
0,
0,
0,
0,
0,
0,
0,
0,
0,
0,
0,
0,
0,
0,
0,
0,
0,
0,
0,
0,
0,
0,
0,
0,
0,
0,
0,
0,
0,
0,
0,
0,
0,
0,
0,
0,
0,
0,
0,
0,
0,
0,
0,
0,
0,
0,
0,
0,
0,
0,
0,
0,
0,
0,
0,
0,
0,
0,
0,
0,
0,
0,
0,
0,
0,
0,
0,
0,
0,
0,
0,
0,
0,
0,
0,
0,
0,
0,
0,
0,
0,
0,
0,
0,
0,
0,
0,
0,
0,
0,
0,
0,
0,
0,
0,
0,
0,
0,
0,
0,
0,
0,
0,
0,
0,
0,
0,
0,
0,
0,
0,
0,
0,
0,
0,
0,
0,
0,
0,
0,
0,
0,
0,
0,
0,
0,
0,
0,
0,
0,
0,
0,
0,
0,
0,
0,
0,
0,
0,
0,
0,
0,
0,
0,
0,
0,
0,
0,
0,
0,
0,
0,
0,
0,
0,
0,
0,
0,
0,
0,
0,
0,
0,
0,
0,
0,
0,
0,
0,
0,
0,
0,
0,
0,
0,
0,
0,
0,
0,
0,
0,
0,
0,
0,
0,
0,
0,
0,
0,
0,
0,
0,
0,
0,
0,
0,
0,
0,
0,
0,
0,
0,
0,
0,
0,
0,
0,
0,
0,
0,
0,
0,
0,
0,
0,
0,
0,
0,
0,
0,
0,
0,
0,
0,
0,
0,
0,
0,
0,
0,
0,
0,
0,
0,
0,
0,
0,
0,
0,
0,
0,
0,
0,
0,
0,
0,
0,
0,
0,
0,
0,
0,
0,
0,
0,
0,
0,
0,
0,
0,
0,
0,
0,
0,
0,
0,
0,
0,
0,
0,
0,
0,
0,
0,
0,
0,
0,
0,
0,
0,
0,
0,
0,
0,
0,
0,
0,
0,
0,
0,
0,
0,
0,
0,
0,
0,
0,
0,
0,
0,
0,
0,
0,
0,
0,
0,
0,
0,
0,
0,
0,
0,
#ENDOFDATA   :