File: N132962/Quantification/15 keV/Mengason MM2/MMM2 Manganotantalite[6][4].msa
#FORMAT      : EMSA/MAS Spectral Data File
#VERSION     : 1.0
#TITLE       : MMM2 Manganotantalite[6][all]
#DATE        : 28-SEP-2025
#TIME        : 22:57
#OWNER       : Unknown
#NPOINTS     : 4096
#NCOLUMNS    : 1
#XUNITS      : eV
#YUNITS      : counts
#DATATYPE    : Y
#XPERCHAN    : 9.99778
#OFFSET      : 1.69135
#BEAMKV      : 15
#SIGNALTYPE  : EDS
#ELEVANGLE   : 35
#AZIMANGLE   : 0
#LIVETIME    : 240.221
#REALTIME    : 259.885
#PROBECUR    : 1.2132
#TAUWIND     : 0
#TDEADLYR    : 0
#TACTLYR     : 0.045
#TALWIND     : 0.025
#CHOFFSET    : 0.0
#XLABEL      : Energy (eV)
#YLABEL      : Counts
#XPOSITION   : -22.53371
#YPOSITION   : -0.35155
#ZPOSITION   : 34.11879
#EDSDET      : SD
##SPECIMEN   : MMM2 Manganotantalite[6][all]
##DET_HASH   : 12273538-fd48-a23f-0a19-f1e6fa85caef
##CALIB_HASH : 6abaa72c-aa41-8738-0be9-f592914732f3
##WORKING    : 15.0 mm
##DET_NAME   : EDAX All
##DET_MODE   : MediumLE
#SPECTRUM    :
21,
20,
9,
43,
386,
1693,
4203,
8630,
18166,
21798,
11682,
6250,
5762,
6694,
8548,
17363,
50468,
91480,
68472,
24042,
12514,
15307,
13776,
11088,
9381,
7485,
6700,
6946,
7437,
7580,
7395,
7503,
7971,
8115,
8331,
8624,
8567,
8785,
9028,
9111,
9540,
9656,
11753,
16227,
21149,
19829,
14551,
11265,
10402,
10452,
10487,
10530,
10865,
13027,
21591,
56026,
130785,
187896,
168752,
110877,
55622,
21620,
10075,
8563,
9706,
11066,
10338,
8865,
7799,
8841,
14023,
25291,
34418,
32304,
24600,
20685,
16990,
12499,
9142,
7541,
6367,
5712,
5393,
5283,
5193,
4993,
5115,
5250,
5337,
5397,
5166,
5131,
4892,
4930,
4796,
4882,
4764,
4919,
4791,
4780,
4849,
4689,
4838,
4846,
4773,
4769,
4799,
4827,
4663,
4655,
4642,
4703,
4805,
4809,
4757,
4777,
4698,
4700,
4539,
4618,
4605,
4414,
4444,
4552,
4529,
4326,
4510,
4384,
4381,
4510,
4337,
4345,
4436,
4223,
4245,
4220,
4225,
4175,
4176,
4166,
4057,
4139,
4051,
4015,
3981,
3889,
3998,
4098,
4223,
4509,
4541,
4528,
4301,
3983,
3942,
3779,
3788,
3762,
3767,
3672,
3591,
3638,
3737,
3708,
3667,
3750,
3605,
3472,
3530,
3404,
3334,
3323,
3358,
3445,
3292,
3279,
3386,
3376,
3180,
3237,
3273,
3178,
3220,
3298,
3132,
3141,
3168,
3112,
3043,
3021,
3098,
3370,
3849,
5602,
9124,
14077,
17345,
17203,
13585,
8612,
5311,
3619,
2948,
2966,
2759,
2769,
2682,
2771,
2774,
3045,
3335,
3985,
4950,
5604,
5986,
5889,
5314,
4715,
3913,
3338,
2817,
2465,
2376,
2347,
2333,
2403,
2293,
2326,
2317,
2335,
2249,
2361,
2376,
2478,
2451,
2588,
2594,
2758,
2730,
2492,
2582,
2385,
2300,
2201,
2081,
2045,
2072,
2112,
2119,
2056,
2110,
1987,
2120,
2027,
1955,
1919,
1883,
1996,
1966,
1861,
1903,
1789,
1813,
1802,
1925,
2084,
2380,
3388,
5255,
7301,
9966,
11322,
10759,
8728,
6034,
4019,
2573,
1981,
1854,
1709,
1708,
1755,
1664,
1627,
1567,
1519,
1471,
1409,
1504,
1540,
1563,
1488,
1504,
1452,
1456,
1322,
1383,
1341,
1362,
1400,
1357,
1393,
1378,
1498,
1426,
1554,
1819,
2131,
2608,
3194,
3678,
4037,
3849,
3325,
2729,
2163,
1959,
1902,
2049,
2244,
2606,
2803,
2940,
2461,
2050,
1657,
1394,
1250,
1225,
1153,
1133,
1077,
1072,
1014,
994,
1030,
965,
936,
986,
979,
967,
995,
916,
943,
901,
868,
887,
879,
915,
865,
886,
856,
866,
907,
867,
851,
855,
857,
847,
876,
1088,
1108,
1192,
1118,
1209,
1014,
983,
838,
760,
768,
777,
769,
781,
770,
816,
799,
722,
755,
727,
675,
692,
664,
645,
584,
680,
599,
604,
657,
587,
587,
566,
592,
565,
566,
518,
565,
543,
518,
493,
513,
512,
509,
508,
481,
494,
458,
414,
497,
477,
448,
425,
419,
448,
448,
413,
422,
406,
412,
418,
403,
394,
373,
379,
369,
379,
324,
343,
361,
360,
347,
327,
296,
299,
302,
279,
293,
276,
286,
282,
286,
278,
295,
266,
245,
226,
248,
246,
245,
232,
208,
211,
236,
221,
212,
201,
166,
189,
172,
157,
139,
181,
148,
147,
151,
162,
148,
149,
137,
151,
102,
122,
124,
117,
104,
104,
111,
105,
97,
97,
100,
74,
83,
74,
80,
68,
55,
55,
52,
45,
37,
32,
36,
31,
36,
31,
26,
17,
11,
17,
10,
9,
7,
7,
6,
9,
6,
2,
5,
2,
4,
5,
3,
3,
2,
2,
6,
5,
5,
1,
6,
3,
2,
0,
1,
4,
4,
3,
2,
2,
2,
1,
2,
1,
2,
7,
3,
4,
0,
2,
1,
2,
4,
4,
2,
2,
1,
4,
2,
2,
2,
0,
0,
3,
3,
3,
4,
2,
2,
1,
2,
1,
1,
5,
3,
2,
2,
1,
1,
2,
5,
2,
1,
3,
0,
0,
1,
3,
6,
3,
3,
1,
2,
2,
1,
1,
1,
2,
5,
1,
3,
1,
2,
2,
2,
0,
2,
6,
2,
3,
1,
2,
1,
2,
2,
0,
0,
2,
1,
2,
1,
1,
3,
2,
0,
1,
2,
0,
0,
0,
3,
0,
2,
1,
3,
2,
3,
1,
3,
0,
2,
1,
2,
0,
4,
1,
1,
0,
3,
2,
1,
3,
0,
0,
3,
2,
0,
0,
1,
0,
1,
2,
1,
0,
1,
1,
0,
0,
2,
1,
0,
1,
1,
2,
2,
0,
0,
1,
0,
0,
1,
0,
0,
1,
1,
0,
0,
0,
0,
0,
0,
2,
0,
0,
0,
0,
0,
0,
2,
0,
2,
0,
0,
0,
2,
0,
1,
0,
0,
0,
0,
1,
0,
0,
1,
0,
0,
1,
1,
0,
0,
1,
0,
0,
0,
1,
0,
0,
2,
0,
0,
0,
0,
0,
0,
0,
1,
1,
0,
0,
0,
0,
1,
0,
0,
1,
2,
0,
0,
0,
0,
0,
0,
1,
0,
0,
0,
0,
1,
0,
1,
0,
0,
0,
0,
0,
0,
1,
0,
0,
0,
0,
0,
0,
0,
0,
0,
0,
0,
0,
0,
0,
0,
0,
0,
1,
0,
0,
0,
0,
0,
0,
0,
0,
0,
0,
0,
0,
0,
0,
0,
1,
0,
0,
0,
0,
0,
0,
0,
1,
0,
0,
0,
0,
1,
0,
0,
0,
0,
0,
0,
0,
1,
0,
0,
0,
0,
0,
0,
0,
0,
0,
0,
0,
0,
0,
1,
0,
0,
0,
0,
0,
0,
0,
0,
0,
0,
0,
0,
0,
0,
0,
0,
0,
0,
0,
0,
0,
0,
0,
0,
0,
0,
0,
0,
0,
0,
0,
0,
0,
0,
0,
0,
0,
0,
0,
0,
0,
0,
0,
0,
0,
0,
0,
0,
0,
0,
0,
0,
0,
0,
0,
0,
0,
0,
0,
0,
0,
0,
0,
0,
0,
0,
0,
0,
0,
0,
0,
0,
0,
0,
0,
0,
0,
0,
0,
0,
0,
0,
0,
0,
0,
0,
0,
0,
0,
0,
0,
0,
0,
0,
0,
0,
0,
0,
0,
0,
0,
0,
0,
0,
0,
0,
0,
0,
0,
0,
0,
0,
0,
0,
0,
0,
0,
0,
0,
0,
0,
0,
0,
0,
0,
0,
0,
0,
0,
0,
0,
0,
0,
0,
0,
0,
0,
0,
0,
0,
0,
0,
0,
0,
0,
0,
0,
0,
0,
0,
0,
0,
0,
0,
0,
0,
0,
0,
0,
0,
0,
0,
0,
0,
0,
0,
0,
0,
0,
0,
0,
0,
0,
0,
0,
0,
0,
0,
0,
0,
0,
0,
0,
0,
0,
0,
0,
0,
0,
0,
0,
0,
0,
0,
0,
0,
0,
0,
0,
0,
0,
0,
0,
0,
0,
0,
0,
0,
0,
0,
0,
0,
0,
0,
0,
0,
0,
0,
0,
0,
0,
0,
0,
0,
0,
0,
0,
0,
0,
0,
0,
0,
0,
0,
0,
0,
0,
0,
0,
0,
0,
0,
0,
0,
0,
0,
0,
0,
0,
0,
0,
0,
0,
0,
0,
0,
0,
0,
0,
0,
0,
0,
0,
0,
0,
0,
0,
0,
0,
0,
0,
0,
0,
0,
0,
0,
0,
0,
0,
0,
0,
0,
0,
0,
0,
0,
0,
0,
0,
0,
0,
0,
0,
0,
0,
0,
0,
0,
0,
0,
0,
0,
0,
0,
0,
0,
0,
0,
0,
0,
0,
0,
0,
0,
0,
0,
0,
0,
0,
0,
0,
0,
0,
0,
0,
0,
0,
0,
0,
0,
0,
0,
0,
0,
0,
0,
0,
0,
0,
0,
0,
0,
0,
0,
0,
0,
0,
0,
0,
0,
0,
0,
0,
0,
0,
0,
0,
0,
0,
0,
0,
0,
0,
0,
0,
0,
0,
0,
0,
0,
0,
0,
0,
0,
0,
0,
0,
0,
0,
0,
0,
0,
0,
0,
0,
0,
0,
0,
0,
0,
0,
0,
0,
0,
0,
0,
0,
0,
0,
0,
0,
0,
0,
0,
0,
0,
0,
0,
0,
0,
0,
0,
0,
0,
0,
0,
0,
0,
0,
0,
0,
0,
0,
0,
0,
0,
0,
0,
0,
0,
0,
0,
0,
0,
0,
0,
0,
0,
0,
0,
0,
0,
0,
0,
0,
0,
0,
0,
0,
0,
0,
0,
0,
0,
0,
0,
0,
0,
0,
0,
0,
0,
0,
0,
0,
0,
0,
0,
0,
0,
0,
0,
0,
0,
0,
0,
0,
0,
0,
0,
0,
0,
0,
0,
0,
0,
0,
0,
0,
0,
0,
0,
0,
0,
0,
0,
0,
0,
0,
0,
0,
0,
0,
0,
0,
0,
0,
0,
0,
0,
0,
0,
0,
0,
0,
0,
0,
0,
0,
0,
0,
0,
0,
0,
0,
0,
0,
0,
0,
0,
0,
0,
0,
0,
0,
0,
0,
0,
0,
0,
#ENDOFDATA   :