File: N132962/Quantification/15 keV/Mengason MM2/MMM2 Pentlandite[6][4].msa
#FORMAT      : EMSA/MAS Spectral Data File
#VERSION     : 1.0
#TITLE       : MMM2 Pentlandite[6][all]
#DATE        : 28-SEP-2025
#TIME        : 21:45
#OWNER       : Unknown
#NPOINTS     : 4096
#NCOLUMNS    : 1
#XUNITS      : eV
#YUNITS      : counts
#DATATYPE    : Y
#XPERCHAN    : 9.99778
#OFFSET      : 1.69135
#BEAMKV      : 15
#SIGNALTYPE  : EDS
#ELEVANGLE   : 35
#AZIMANGLE   : 0
#LIVETIME    : 240.303
#REALTIME    : 257.9
#PROBECUR    : 1.21217
#TAUWIND     : 0
#TDEADLYR    : 0
#TACTLYR     : 0.045
#TALWIND     : 0.025
#CHOFFSET    : 0.0
#XLABEL      : Energy (eV)
#YLABEL      : Counts
#XPOSITION   : -15.86015
#YPOSITION   : -2.37821
#ZPOSITION   : 34.11879
#EDSDET      : SD
##SPECIMEN   : MMM2 Pentlandite[6][all]
##DET_HASH   : 12273538-fd48-a23f-0a19-f1e6fa85caef
##CALIB_HASH : 6abaa72c-aa41-8738-0be9-f592914732f3
##WORKING    : 15.0 mm
##DET_NAME   : EDAX All
##DET_MODE   : MediumLE
#SPECTRUM    :
22,
30,
8,
53,
308,
825,
1605,
4976,
14189,
17926,
9013,
3932,
3782,
4261,
4759,
5786,
7238,
9651,
13168,
18550,
23771,
25505,
37992,
64062,
59506,
32972,
24520,
49755,
87513,
73368,
29582,
9127,
5309,
4638,
4345,
4486,
4413,
4808,
4858,
5063,
4999,
5243,
5293,
5409,
5569,
5740,
5687,
5833,
6049,
6074,
6166,
6123,
6171,
6143,
5971,
6127,
6324,
6754,
7017,
6894,
6539,
6228,
5769,
5708,
5446,
5648,
5751,
5827,
5918,
5845,
5932,
6559,
8490,
13565,
29385,
76520,
155394,
193186,
141410,
62209,
22624,
16438,
18006,
15506,
9716,
5899,
4245,
3904,
3940,
3951,
3841,
3773,
3858,
3804,
3888,
3747,
3933,
3738,
3769,
3858,
3766,
3911,
3768,
3652,
3666,
3758,
3744,
3588,
3518,
3506,
3400,
3392,
3329,
3359,
3252,
3330,
3230,
3353,
3237,
3187,
3072,
3174,
3141,
3088,
3149,
2970,
2979,
3021,
2922,
2936,
2977,
2905,
2841,
2959,
2891,
2896,
2785,
2802,
2856,
2791,
2730,
2753,
2737,
2664,
2677,
2597,
2637,
2624,
2500,
2491,
2569,
2574,
2631,
2721,
2785,
2771,
2643,
2498,
2341,
2453,
2452,
2335,
2264,
2319,
2351,
2305,
2283,
2208,
2289,
2112,
2189,
2146,
2189,
2072,
2146,
2076,
2074,
2118,
2033,
2066,
2132,
2028,
1917,
2042,
1873,
1943,
1869,
1951,
1799,
1849,
1958,
1943,
1811,
1907,
1817,
1851,
1829,
1731,
1768,
1715,
1719,
1725,
1724,
1765,
1779,
1818,
1808,
1978,
2633,
4794,
9851,
19106,
29302,
35627,
33057,
24156,
13835,
6642,
3276,
1974,
1611,
1518,
1577,
1517,
1463,
1394,
1453,
1466,
1629,
1781,
2083,
2453,
3169,
4239,
5387,
5707,
5279,
4058,
2837,
1939,
1491,
1346,
1359,
1666,
2512,
4747,
9293,
15476,
21374,
23788,
21069,
14748,
8756,
4422,
2390,
1475,
1215,
1113,
1134,
1088,
989,
1046,
1049,
996,
1077,
988,
1007,
1065,
1100,
1137,
1184,
1442,
1978,
2642,
3332,
3763,
3405,
2973,
2308,
1582,
1126,
961,
828,
848,
826,
799,
803,
839,
860,
808,
835,
785,
811,
823,
783,
769,
762,
782,
732,
741,
688,
744,
714,
693,
703,
737,
719,
670,
699,
669,
635,
699,
624,
615,
618,
632,
659,
632,
620,
589,
635,
600,
622,
618,
641,
638,
630,
617,
580,
608,
573,
582,
570,
576,
531,
533,
562,
522,
545,
531,
440,
541,
476,
532,
462,
505,
501,
468,
485,
433,
447,
471,
429,
444,
464,
463,
453,
444,
404,
432,
383,
429,
459,
432,
377,
384,
411,
376,
398,
413,
384,
379,
366,
338,
372,
373,
344,
333,
354,
310,
314,
306,
339,
315,
289,
312,
333,
324,
338,
321,
270,
287,
270,
257,
292,
240,
268,
258,
227,
238,
258,
261,
259,
249,
224,
247,
238,
259,
207,
242,
221,
209,
199,
231,
239,
210,
186,
200,
191,
184,
196,
216,
191,
170,
167,
167,
177,
179,
176,
168,
157,
145,
151,
151,
133,
146,
146,
138,
131,
130,
147,
114,
135,
112,
116,
126,
113,
109,
97,
99,
107,
127,
90,
88,
87,
101,
76,
90,
80,
79,
90,
82,
75,
67,
73,
82,
70,
68,
63,
65,
48,
64,
41,
37,
41,
35,
45,
44,
43,
33,
44,
33,
31,
29,
28,
19,
27,
28,
24,
24,
19,
12,
11,
14,
12,
13,
10,
7,
4,
7,
2,
6,
4,
0,
1,
1,
1,
2,
1,
3,
2,
2,
3,
2,
0,
0,
4,
2,
2,
2,
1,
2,
0,
3,
0,
3,
0,
2,
2,
4,
1,
1,
1,
3,
3,
1,
2,
0,
1,
1,
0,
2,
2,
2,
0,
0,
2,
1,
1,
3,
0,
1,
0,
0,
1,
0,
0,
1,
0,
0,
1,
2,
2,
1,
1,
4,
0,
4,
1,
1,
0,
0,
1,
0,
1,
1,
1,
0,
0,
0,
1,
2,
0,
0,
0,
0,
0,
1,
1,
2,
0,
0,
0,
0,
0,
2,
1,
1,
1,
2,
1,
0,
1,
1,
1,
1,
0,
1,
1,
3,
2,
0,
0,
0,
2,
1,
3,
1,
0,
0,
1,
1,
0,
0,
0,
0,
1,
0,
0,
1,
0,
1,
0,
1,
0,
0,
0,
0,
0,
1,
2,
0,
2,
1,
1,
0,
0,
1,
0,
0,
2,
1,
0,
0,
0,
0,
0,
0,
0,
2,
1,
0,
1,
0,
0,
0,
0,
1,
0,
0,
0,
0,
0,
0,
1,
0,
0,
0,
0,
0,
0,
0,
0,
0,
0,
1,
0,
0,
0,
0,
0,
0,
0,
0,
0,
0,
0,
0,
0,
0,
0,
0,
0,
0,
1,
0,
0,
0,
0,
0,
0,
0,
0,
0,
0,
0,
0,
0,
0,
0,
0,
0,
0,
0,
0,
0,
0,
0,
0,
0,
1,
0,
0,
0,
0,
0,
0,
0,
0,
0,
0,
0,
0,
0,
1,
0,
0,
0,
0,
0,
0,
0,
0,
0,
0,
0,
0,
0,
0,
0,
0,
0,
0,
0,
0,
0,
0,
0,
0,
0,
0,
0,
0,
0,
0,
0,
0,
0,
1,
0,
0,
0,
0,
0,
0,
0,
0,
0,
0,
0,
0,
0,
0,
0,
0,
0,
0,
0,
0,
0,
0,
0,
0,
0,
0,
0,
0,
0,
0,
0,
0,
0,
0,
0,
0,
0,
0,
0,
0,
0,
0,
0,
0,
0,
0,
0,
0,
0,
0,
0,
0,
0,
0,
0,
0,
0,
0,
0,
0,
0,
0,
0,
0,
0,
0,
0,
0,
0,
0,
0,
0,
0,
0,
0,
0,
0,
0,
0,
0,
0,
0,
0,
0,
0,
0,
0,
0,
0,
0,
0,
0,
0,
0,
0,
0,
0,
0,
0,
0,
0,
0,
0,
0,
0,
0,
0,
0,
0,
0,
0,
0,
0,
0,
0,
0,
0,
0,
0,
0,
0,
0,
0,
0,
0,
0,
0,
0,
0,
0,
0,
0,
0,
0,
0,
0,
0,
0,
0,
0,
0,
0,
0,
0,
0,
0,
0,
0,
0,
0,
0,
0,
0,
0,
0,
0,
0,
0,
0,
0,
0,
0,
0,
0,
0,
0,
0,
0,
0,
0,
0,
0,
0,
0,
0,
0,
0,
0,
0,
0,
0,
0,
0,
0,
0,
0,
0,
0,
0,
0,
0,
0,
0,
0,
0,
0,
0,
0,
0,
0,
0,
0,
0,
0,
0,
0,
0,
0,
0,
0,
0,
0,
0,
0,
0,
0,
0,
0,
0,
0,
0,
0,
0,
0,
0,
0,
0,
0,
0,
0,
0,
0,
0,
0,
0,
0,
0,
0,
0,
0,
0,
0,
0,
0,
0,
0,
0,
0,
0,
0,
0,
0,
0,
0,
0,
0,
0,
0,
0,
0,
0,
0,
0,
0,
0,
0,
0,
0,
0,
0,
0,
0,
0,
0,
0,
0,
0,
0,
0,
0,
0,
0,
0,
0,
0,
0,
0,
0,
0,
0,
0,
0,
0,
0,
0,
0,
0,
0,
0,
0,
0,
0,
0,
0,
0,
0,
0,
0,
0,
0,
0,
0,
0,
0,
0,
0,
0,
0,
0,
0,
0,
0,
0,
0,
0,
0,
0,
0,
0,
0,
0,
0,
0,
0,
0,
0,
0,
0,
0,
0,
0,
0,
0,
0,
0,
0,
0,
0,
0,
0,
0,
0,
0,
0,
0,
0,
0,
0,
0,
0,
0,
0,
0,
0,
0,
0,
0,
0,
0,
0,
0,
0,
0,
0,
0,
0,
0,
0,
0,
0,
0,
0,
0,
0,
0,
0,
0,
0,
0,
0,
0,
0,
0,
0,
0,
0,
0,
0,
0,
0,
0,
0,
0,
0,
0,
0,
0,
0,
0,
0,
0,
0,
0,
0,
0,
0,
0,
0,
0,
0,
0,
0,
0,
0,
0,
0,
0,
0,
0,
0,
0,
0,
0,
0,
0,
0,
0,
0,
0,
0,
0,
0,
0,
0,
0,
0,
0,
0,
0,
0,
0,
0,
0,
0,
0,
0,
0,
0,
0,
0,
0,
0,
0,
0,
0,
0,
0,
0,
0,
0,
0,
0,
0,
0,
0,
0,
0,
0,
0,
0,
0,
0,
0,
0,
0,
0,
0,
0,
0,
0,
0,
0,
0,
0,
0,
0,
0,
0,
0,
0,
0,
0,
0,
0,
0,
0,
0,
0,
0,
0,
0,
0,
0,
0,
0,
0,
0,
0,
0,
0,
0,
0,
0,
0,
0,
0,
0,
0,
0,
0,
0,
0,
0,
0,
0,
0,
0,
0,
0,
0,
0,
0,
0,
0,
0,
0,
0,
0,
0,
0,
0,
0,
0,
0,
0,
0,
0,
0,
0,
0,
0,
0,
0,
0,
0,
0,
0,
0,
0,
0,
0,
0,
0,
0,
0,
0,
0,
0,
0,
0,
0,
0,
0,
0,
0,
0,
0,
#ENDOFDATA   :