File: N132962/Quantification/15 keV/Mengason MM2/MMM2 Wollastonite[1][4].msa
#FORMAT      : EMSA/MAS Spectral Data File
#VERSION     : 1.0
#TITLE       : MMM2 Wollastonite[1][all]
#DATE        : 29-SEP-2025
#TIME        : 00:04
#OWNER       : Unknown
#NPOINTS     : 4096
#NCOLUMNS    : 1
#XUNITS      : eV
#YUNITS      : counts
#DATATYPE    : Y
#XPERCHAN    : 9.99778
#OFFSET      : 1.69135
#BEAMKV      : 15
#SIGNALTYPE  : EDS
#ELEVANGLE   : 35
#AZIMANGLE   : 0
#LIVETIME    : 240.093
#REALTIME    : 254.763
#PROBECUR    : 1.21151
#TAUWIND     : 0
#TDEADLYR    : 0
#TACTLYR     : 0.045
#TALWIND     : 0.025
#CHOFFSET    : 0.0
#XLABEL      : Energy (eV)
#YLABEL      : Counts
#XPOSITION   : -12.6372
#YPOSITION   : 4.63252
#ZPOSITION   : 34.11879
#EDSDET      : SD
##SPECIMEN   : MMM2 Wollastonite[1][all]
##DET_HASH   : 12273538-fd48-a23f-0a19-f1e6fa85caef
##CALIB_HASH : 6abaa72c-aa41-8738-0be9-f592914732f3
##WORKING    : 15.0 mm
##DET_NAME   : EDAX All
##DET_MODE   : MediumLE
#SPECTRUM    :
31,
24,
10,
17,
92,
386,
1362,
4574,
13742,
20825,
15062,
8035,
4595,
3546,
5073,
15056,
56612,
107073,
79241,
21197,
3876,
2360,
2495,
2818,
2851,
3010,
3163,
3342,
3703,
3663,
3764,
3947,
4144,
4396,
4391,
4605,
4516,
4602,
4692,
4951,
4898,
5016,
5108,
5064,
5121,
5282,
5256,
5349,
5591,
5750,
5727,
5972,
5938,
6078,
7149,
16806,
61267,
154466,
210137,
147827,
60194,
20995,
10246,
5873,
4770,
4592,
4069,
3548,
3328,
3263,
3213,
3204,
3169,
3209,
3362,
3467,
3503,
3273,
3011,
2991,
2955,
2986,
2945,
2846,
2823,
2817,
2804,
2727,
2846,
2710,
2743,
2720,
2751,
2635,
2584,
2560,
2488,
2587,
2609,
2498,
2538,
2533,
2435,
2443,
2476,
2479,
2456,
2373,
2393,
2373,
2283,
2302,
2137,
2314,
2463,
2642,
2819,
3109,
3926,
7031,
18691,
47950,
89522,
112645,
95051,
53158,
20805,
6616,
3024,
2528,
3089,
5142,
9071,
13550,
15181,
11984,
7261,
3639,
2072,
1663,
1651,
1623,
1602,
1490,
1467,
1457,
1413,
1396,
1431,
1404,
1335,
1368,
1398,
1393,
1394,
1357,
1344,
1271,
1276,
1322,
1303,
1249,
1226,
1215,
1323,
1225,
1251,
1216,
1206,
1186,
1198,
1158,
1136,
1230,
1117,
1147,
1190,
1133,
1208,
1278,
1278,
1311,
1257,
1271,
1158,
1087,
1096,
1036,
978,
1049,
1050,
1087,
1023,
1066,
1075,
1039,
1052,
1060,
995,
954,
939,
908,
899,
923,
864,
908,
855,
902,
914,
863,
887,
904,
886,
915,
879,
861,
891,
820,
768,
784,
790,
783,
745,
767,
794,
737,
760,
773,
741,
712,
756,
759,
740,
675,
754,
732,
674,
700,
739,
726,
623,
705,
635,
665,
674,
698,
723,
648,
724,
636,
642,
594,
597,
614,
638,
607,
600,
609,
537,
548,
552,
543,
554,
559,
549,
532,
533,
533,
534,
514,
537,
489,
524,
559,
484,
466,
523,
506,
461,
496,
463,
518,
437,
496,
492,
441,
486,
484,
459,
412,
451,
379,
388,
414,
427,
413,
409,
406,
384,
415,
382,
394,
369,
366,
378,
375,
383,
356,
366,
387,
369,
390,
399,
317,
317,
335,
325,
333,
324,
355,
347,
328,
346,
303,
323,
304,
306,
334,
329,
291,
340,
294,
266,
287,
269,
317,
263,
291,
278,
277,
265,
258,
268,
266,
241,
259,
247,
237,
267,
243,
226,
241,
221,
239,
219,
204,
216,
241,
225,
216,
217,
201,
211,
214,
187,
200,
189,
207,
193,
187,
197,
193,
180,
168,
168,
195,
166,
184,
157,
153,
160,
164,
167,
169,
166,
154,
149,
146,
140,
148,
146,
142,
132,
142,
132,
142,
149,
124,
119,
127,
111,
126,
109,
135,
116,
105,
95,
121,
110,
112,
96,
115,
85,
99,
95,
83,
88,
107,
91,
89,
83,
82,
91,
83,
81,
93,
80,
78,
68,
71,
74,
81,
69,
55,
72,
77,
56,
62,
52,
59,
61,
61,
67,
57,
55,
53,
54,
59,
43,
44,
46,
47,
42,
32,
46,
35,
29,
42,
33,
28,
33,
19,
39,
32,
34,
33,
42,
35,
33,
24,
26,
17,
22,
19,
16,
27,
15,
17,
22,
9,
16,
12,
13,
14,
7,
20,
9,
10,
7,
9,
5,
6,
7,
4,
5,
5,
2,
6,
2,
2,
2,
1,
3,
0,
1,
0,
0,
0,
0,
0,
0,
0,
0,
1,
0,
1,
1,
0,
1,
1,
1,
1,
0,
1,
1,
0,
1,
1,
1,
0,
0,
0,
0,
1,
1,
0,
0,
1,
0,
2,
0,
1,
0,
0,
0,
0,
0,
0,
0,
0,
1,
0,
0,
0,
0,
0,
0,
0,
1,
0,
0,
1,
0,
0,
0,
0,
0,
0,
0,
1,
0,
0,
0,
0,
0,
0,
0,
0,
0,
1,
0,
0,
0,
0,
0,
0,
0,
0,
1,
0,
0,
0,
0,
0,
0,
1,
0,
0,
0,
0,
0,
0,
0,
0,
0,
0,
0,
0,
0,
0,
0,
0,
1,
0,
0,
0,
0,
0,
0,
0,
0,
0,
0,
0,
0,
0,
0,
0,
0,
0,
0,
0,
0,
0,
0,
0,
0,
0,
0,
0,
0,
0,
0,
0,
0,
0,
0,
0,
0,
0,
0,
0,
0,
0,
0,
0,
0,
0,
0,
0,
0,
0,
0,
0,
1,
0,
0,
0,
0,
0,
0,
0,
0,
0,
0,
0,
0,
0,
0,
0,
0,
0,
0,
0,
0,
0,
0,
0,
0,
0,
0,
0,
0,
0,
0,
0,
0,
0,
0,
0,
0,
0,
0,
0,
0,
0,
0,
0,
0,
0,
0,
0,
0,
0,
0,
0,
0,
0,
0,
0,
0,
0,
0,
0,
0,
0,
0,
0,
0,
0,
0,
0,
0,
0,
0,
0,
0,
0,
0,
0,
0,
0,
0,
0,
0,
0,
0,
0,
0,
0,
0,
0,
0,
0,
0,
0,
0,
0,
0,
0,
0,
0,
0,
0,
0,
0,
0,
0,
0,
0,
0,
0,
0,
0,
0,
0,
0,
0,
0,
0,
0,
0,
0,
0,
0,
0,
0,
0,
0,
0,
0,
0,
0,
0,
1,
0,
0,
0,
0,
0,
0,
0,
0,
0,
0,
0,
0,
0,
0,
0,
0,
0,
0,
0,
0,
0,
0,
0,
0,
0,
0,
0,
0,
0,
0,
0,
0,
0,
0,
0,
0,
0,
0,
0,
0,
0,
0,
0,
0,
0,
0,
0,
0,
0,
0,
0,
0,
0,
0,
0,
0,
0,
0,
0,
0,
0,
0,
0,
0,
0,
0,
0,
0,
0,
0,
0,
0,
0,
0,
0,
0,
0,
0,
0,
0,
0,
0,
0,
0,
0,
0,
0,
0,
0,
0,
0,
0,
0,
0,
0,
0,
0,
0,
0,
0,
0,
0,
0,
0,
0,
0,
0,
0,
0,
0,
0,
0,
0,
0,
0,
0,
0,
0,
0,
0,
0,
0,
0,
0,
0,
0,
0,
0,
0,
0,
0,
0,
0,
0,
0,
0,
0,
0,
0,
0,
0,
0,
0,
0,
0,
0,
0,
0,
0,
0,
0,
0,
0,
0,
0,
0,
0,
0,
0,
0,
0,
0,
0,
0,
0,
0,
0,
0,
0,
0,
0,
0,
0,
0,
0,
0,
0,
0,
0,
0,
0,
0,
0,
0,
0,
0,
0,
0,
0,
0,
0,
0,
0,
0,
0,
0,
0,
0,
0,
0,
0,
0,
0,
0,
0,
0,
0,
0,
0,
0,
0,
0,
0,
0,
0,
0,
0,
0,
0,
0,
0,
0,
0,
0,
0,
0,
0,
0,
0,
0,
0,
0,
0,
0,
0,
0,
0,
0,
0,
0,
0,
0,
0,
0,
0,
0,
0,
0,
0,
0,
0,
0,
0,
0,
0,
0,
0,
0,
0,
0,
0,
0,
0,
0,
0,
0,
0,
0,
0,
0,
0,
0,
0,
0,
0,
0,
0,
0,
0,
0,
0,
0,
0,
0,
0,
0,
0,
0,
0,
0,
0,
0,
0,
0,
0,
0,
0,
0,
0,
0,
0,
0,
0,
0,
0,
0,
0,
0,
0,
0,
0,
0,
0,
0,
0,
0,
0,
0,
0,
0,
0,
0,
0,
0,
0,
0,
0,
0,
0,
0,
0,
0,
0,
0,
0,
0,
0,
0,
0,
0,
0,
0,
0,
0,
0,
0,
0,
0,
0,
0,
0,
0,
0,
0,
0,
0,
0,
0,
0,
0,
0,
0,
0,
0,
0,
0,
0,
0,
0,
0,
0,
0,
0,
0,
0,
0,
0,
0,
0,
0,
0,
0,
0,
0,
0,
0,
0,
0,
0,
0,
0,
0,
0,
0,
0,
0,
0,
0,
0,
0,
0,
0,
0,
0,
0,
0,
0,
0,
0,
0,
0,
0,
0,
0,
0,
0,
0,
0,
0,
0,
0,
0,
0,
0,
0,
0,
0,
0,
0,
0,
0,
0,
0,
0,
0,
0,
0,
0,
0,
0,
0,
0,
0,
0,
0,
0,
0,
0,
0,
0,
0,
0,
0,
0,
0,
0,
0,
0,
0,
0,
0,
0,
0,
0,
0,
0,
0,
0,
0,
0,
0,
0,
0,
0,
0,
0,
0,
0,
0,
0,
0,
0,
0,
0,
0,
0,
0,
0,
0,
0,
0,
0,
0,
0,
0,
0,
0,
0,
0,
0,
0,
0,
0,
0,
0,
0,
0,
0,
0,
0,
0,
0,
0,
0,
0,
0,
0,
0,
0,
0,
0,
0,
0,
0,
0,
0,
0,
0,
0,
0,
0,
0,
0,
0,
0,
0,
0,
0,
0,
0,
0,
0,
0,
0,
0,
0,
0,
0,
0,
0,
0,
0,
0,
0,
0,
0,
0,
0,
0,
0,
0,
0,
0,
0,
0,
0,
0,
0,
0,
0,
0,
#ENDOFDATA   :