File: N132962/Quantification/15 keV/Mengason MM2/MMM2 Rhodonite[1][4].msa
#FORMAT      : EMSA/MAS Spectral Data File
#VERSION     : 1.0
#TITLE       : MMM2 Rhodonite[1][all]
#DATE        : 28-SEP-2025
#TIME        : 23:23
#OWNER       : Unknown
#NPOINTS     : 4096
#NCOLUMNS    : 1
#XUNITS      : eV
#YUNITS      : counts
#DATATYPE    : Y
#XPERCHAN    : 9.99778
#OFFSET      : 1.69135
#BEAMKV      : 15
#SIGNALTYPE  : EDS
#ELEVANGLE   : 35
#AZIMANGLE   : 0
#LIVETIME    : 240.254
#REALTIME    : 256.109
#PROBECUR    : 1.21079
#TAUWIND     : 0
#TDEADLYR    : 0
#TACTLYR     : 0.045
#TALWIND     : 0.025
#CHOFFSET    : 0.0
#XLABEL      : Energy (eV)
#YLABEL      : Counts
#XPOSITION   : -16.7332
#YPOSITION   : 1.80929
#ZPOSITION   : 34.11879
#EDSDET      : SD
##SPECIMEN   : MMM2 Rhodonite[1][all]
##DET_HASH   : 12273538-fd48-a23f-0a19-f1e6fa85caef
##CALIB_HASH : 6abaa72c-aa41-8738-0be9-f592914732f3
##WORKING    : 15.0 mm
##DET_NAME   : EDAX All
##DET_MODE   : MediumLE
#SPECTRUM    :
16,
24,
14,
30,
113,
463,
1392,
4572,
12795,
16558,
9423,
5307,
5262,
6294,
10493,
35280,
128167,
242307,
178242,
52781,
19938,
24048,
19157,
10382,
6694,
4202,
3131,
3145,
3212,
3360,
3329,
3432,
3578,
4035,
4427,
4561,
4251,
4506,
4534,
4930,
6879,
11017,
12254,
8964,
5910,
5041,
4997,
5061,
5115,
5310,
5494,
5510,
5781,
5837,
6812,
15078,
52250,
131893,
177770,
126236,
51842,
18623,
9209,
5643,
3877,
3691,
3521,
3483,
3430,
3393,
3363,
3413,
3467,
3730,
3742,
3915,
3774,
3463,
3461,
3299,
3287,
3219,
3233,
3078,
3113,
3182,
3063,
3019,
3079,
2983,
2901,
3022,
2956,
2837,
2879,
2831,
2817,
2789,
2748,
2749,
2774,
2700,
2647,
2624,
2728,
2630,
2603,
2574,
2545,
2539,
2459,
2427,
2505,
2451,
2437,
2561,
2582,
2620,
2575,
2854,
3942,
6889,
11137,
13683,
11981,
7245,
4029,
2674,
2214,
2102,
2180,
2423,
2790,
3187,
3407,
3090,
2552,
2239,
2249,
1964,
1987,
1919,
1880,
1776,
1771,
1793,
1787,
1765,
1782,
1686,
1660,
1759,
1617,
1639,
1623,
1641,
1632,
1607,
1597,
1630,
1563,
1632,
1540,
1543,
1510,
1540,
1506,
1584,
1428,
1479,
1477,
1442,
1370,
1423,
1395,
1352,
1433,
1341,
1329,
1331,
1300,
1338,
1412,
1346,
1375,
1249,
1304,
1314,
1312,
1443,
1501,
1960,
3680,
8325,
17836,
30875,
40197,
39585,
29688,
16655,
7532,
3295,
1583,
1180,
1120,
1178,
1176,
1151,
1160,
1432,
2046,
3071,
4391,
6116,
7085,
7538,
7255,
6160,
4341,
2789,
1669,
1189,
892,
854,
875,
905,
860,
849,
852,
814,
910,
925,
977,
1126,
1129,
1227,
1118,
1067,
903,
873,
805,
820,
700,
745,
759,
658,
709,
717,
721,
689,
684,
699,
679,
754,
719,
709,
737,
705,
626,
688,
697,
623,
688,
625,
674,
625,
650,
612,
636,
611,
617,
587,
587,
601,
586,
609,
555,
524,
564,
562,
549,
560,
542,
560,
558,
547,
526,
516,
533,
478,
519,
514,
452,
469,
495,
466,
470,
430,
433,
437,
471,
460,
477,
408,
455,
447,
409,
386,
399,
407,
383,
449,
444,
392,
400,
393,
392,
402,
387,
372,
420,
382,
371,
399,
392,
372,
364,
348,
354,
376,
339,
353,
313,
341,
336,
313,
347,
305,
313,
351,
330,
285,
290,
291,
293,
311,
286,
269,
294,
258,
295,
296,
291,
258,
281,
264,
254,
242,
251,
267,
260,
257,
219,
248,
238,
235,
263,
227,
216,
232,
235,
211,
211,
214,
219,
225,
176,
174,
218,
206,
191,
207,
187,
184,
185,
189,
176,
179,
160,
172,
176,
180,
177,
181,
175,
158,
157,
166,
154,
157,
139,
146,
136,
131,
140,
126,
126,
123,
142,
142,
124,
127,
126,
96,
147,
120,
103,
115,
96,
98,
103,
104,
117,
99,
85,
101,
94,
76,
81,
83,
80,
74,
76,
89,
81,
79,
68,
63,
73,
87,
75,
79,
82,
71,
67,
64,
63,
49,
58,
50,
54,
52,
56,
56,
57,
35,
43,
56,
46,
44,
51,
42,
48,
34,
30,
44,
35,
39,
24,
21,
21,
36,
34,
21,
17,
22,
24,
29,
27,
26,
20,
17,
30,
13,
11,
17,
12,
14,
7,
6,
9,
6,
8,
8,
6,
4,
2,
2,
4,
2,
2,
0,
0,
0,
1,
1,
1,
0,
2,
0,
3,
1,
0,
4,
1,
0,
0,
1,
1,
3,
0,
0,
0,
0,
0,
1,
0,
1,
1,
0,
0,
0,
0,
2,
0,
1,
0,
0,
0,
0,
1,
0,
0,
1,
1,
0,
0,
0,
0,
0,
0,
0,
0,
0,
0,
0,
1,
0,
0,
0,
1,
0,
0,
0,
1,
0,
0,
0,
0,
1,
1,
1,
0,
1,
0,
1,
1,
0,
0,
0,
0,
0,
0,
0,
1,
0,
0,
0,
0,
0,
0,
1,
0,
1,
0,
0,
0,
1,
0,
0,
2,
2,
0,
1,
0,
0,
0,
0,
1,
0,
0,
0,
0,
0,
0,
0,
0,
0,
0,
0,
0,
0,
0,
0,
0,
0,
0,
0,
0,
0,
0,
0,
0,
0,
0,
1,
0,
1,
0,
0,
0,
0,
0,
0,
0,
0,
0,
0,
0,
0,
0,
0,
0,
0,
0,
0,
0,
0,
0,
0,
0,
0,
0,
0,
0,
0,
0,
0,
0,
0,
0,
0,
1,
0,
0,
0,
0,
1,
0,
0,
0,
0,
0,
0,
0,
0,
0,
0,
0,
0,
0,
0,
0,
1,
0,
0,
0,
0,
0,
0,
0,
0,
0,
0,
0,
0,
0,
0,
0,
0,
0,
0,
0,
0,
0,
0,
0,
0,
0,
0,
0,
0,
0,
0,
0,
0,
0,
0,
0,
0,
0,
0,
0,
0,
0,
0,
0,
0,
0,
0,
0,
0,
0,
0,
0,
0,
0,
0,
0,
0,
0,
0,
0,
0,
0,
0,
0,
0,
0,
0,
0,
0,
0,
0,
0,
0,
0,
0,
0,
0,
0,
0,
0,
0,
0,
0,
0,
0,
0,
0,
0,
0,
0,
0,
0,
0,
0,
0,
0,
0,
0,
0,
0,
0,
0,
0,
0,
0,
0,
0,
0,
0,
0,
0,
0,
0,
0,
0,
0,
0,
0,
0,
0,
0,
0,
0,
1,
0,
0,
1,
0,
0,
0,
0,
0,
0,
0,
0,
0,
0,
0,
0,
0,
0,
0,
0,
0,
0,
0,
0,
0,
0,
0,
0,
0,
0,
0,
0,
0,
0,
0,
0,
0,
0,
0,
0,
0,
0,
0,
0,
0,
0,
0,
0,
0,
0,
0,
0,
0,
0,
0,
0,
0,
0,
0,
0,
0,
0,
0,
0,
0,
0,
0,
0,
0,
0,
0,
0,
0,
0,
0,
0,
0,
0,
0,
0,
0,
0,
0,
0,
0,
0,
0,
0,
0,
0,
0,
0,
0,
0,
0,
0,
0,
0,
0,
0,
0,
0,
0,
0,
0,
0,
0,
0,
0,
0,
0,
0,
0,
0,
0,
0,
0,
0,
0,
0,
0,
0,
0,
0,
0,
0,
0,
0,
0,
0,
0,
0,
0,
0,
0,
0,
0,
0,
0,
0,
0,
0,
0,
0,
0,
0,
0,
0,
0,
0,
0,
0,
0,
0,
0,
0,
0,
0,
0,
0,
0,
0,
0,
0,
0,
0,
0,
0,
0,
0,
0,
0,
0,
0,
0,
0,
0,
0,
0,
0,
0,
0,
0,
0,
0,
0,
0,
0,
0,
0,
0,
0,
0,
0,
0,
0,
0,
0,
0,
0,
0,
0,
0,
0,
0,
0,
0,
0,
0,
0,
0,
0,
0,
0,
0,
0,
0,
0,
0,
0,
0,
0,
0,
0,
0,
0,
0,
0,
0,
0,
0,
0,
0,
0,
0,
0,
0,
0,
0,
0,
0,
0,
0,
0,
0,
0,
0,
0,
0,
0,
0,
0,
0,
0,
0,
0,
0,
0,
0,
0,
0,
0,
0,
0,
0,
0,
0,
0,
0,
0,
0,
0,
0,
0,
0,
0,
0,
0,
0,
0,
0,
0,
0,
0,
0,
0,
0,
0,
0,
0,
0,
0,
0,
0,
0,
0,
0,
0,
0,
0,
0,
0,
0,
0,
0,
0,
0,
0,
0,
0,
0,
0,
0,
0,
0,
0,
0,
0,
0,
0,
0,
0,
0,
0,
0,
0,
0,
0,
0,
0,
0,
0,
0,
0,
0,
0,
0,
0,
0,
0,
0,
0,
0,
0,
0,
0,
0,
0,
0,
0,
0,
0,
0,
0,
0,
0,
0,
0,
0,
0,
0,
0,
0,
0,
0,
0,
0,
0,
0,
0,
0,
0,
0,
0,
0,
0,
0,
0,
0,
0,
0,
0,
0,
0,
0,
0,
0,
0,
0,
0,
0,
0,
0,
0,
0,
0,
0,
0,
0,
0,
0,
0,
0,
0,
0,
0,
0,
0,
0,
0,
0,
0,
0,
0,
0,
0,
0,
0,
0,
0,
0,
0,
0,
0,
0,
0,
0,
0,
0,
0,
0,
0,
0,
0,
0,
0,
0,
0,
0,
0,
0,
0,
0,
0,
0,
0,
0,
0,
0,
0,
0,
0,
0,
0,
0,
0,
0,
0,
0,
0,
0,
0,
0,
0,
0,
0,
0,
0,
0,
0,
0,
0,
0,
0,
0,
0,
0,
0,
0,
0,
0,
0,
0,
0,
0,
0,
0,
0,
0,
0,
0,
0,
0,
0,
0,
0,
0,
0,
0,
0,
0,
0,
0,
0,
0,
0,
0,
0,
0,
0,
0,
0,
0,
0,
0,
0,
0,
0,
0,
0,
0,
0,
0,
0,
0,
0,
0,
0,
0,
0,
0,
0,
0,
0,
0,
0,
0,
0,
0,
0,
0,
0,
0,
0,
0,
0,
0,
0,
0,
0,
#ENDOFDATA   :