File: N132962/Quantification/15 keV/Mengason MM2/MMM2 Manganotantalite[2][4].msa
#FORMAT      : EMSA/MAS Spectral Data File
#VERSION     : 1.0
#TITLE       : MMM2 Manganotantalite[2][all]
#DATE        : 28-SEP-2025
#TIME        : 22:53
#OWNER       : Unknown
#NPOINTS     : 4096
#NCOLUMNS    : 1
#XUNITS      : eV
#YUNITS      : counts
#DATATYPE    : Y
#XPERCHAN    : 9.99778
#OFFSET      : 1.69135
#BEAMKV      : 15
#SIGNALTYPE  : EDS
#ELEVANGLE   : 35
#AZIMANGLE   : 0
#LIVETIME    : 240.429
#REALTIME    : 259.89
#PROBECUR    : 1.2132
#TAUWIND     : 0
#TDEADLYR    : 0
#TACTLYR     : 0.045
#TALWIND     : 0.025
#CHOFFSET    : 0.0
#XLABEL      : Energy (eV)
#YLABEL      : Counts
#XPOSITION   : -22.41367
#YPOSITION   : -0.28555
#ZPOSITION   : 34.11879
#EDSDET      : SD
##SPECIMEN   : MMM2 Manganotantalite[2][all]
##DET_HASH   : 12273538-fd48-a23f-0a19-f1e6fa85caef
##CALIB_HASH : 6abaa72c-aa41-8738-0be9-f592914732f3
##WORKING    : 15.0 mm
##DET_NAME   : EDAX All
##DET_MODE   : MediumLE
#SPECTRUM    :
22,
31,
15,
44,
346,
1707,
4307,
8528,
18066,
22023,
11623,
6215,
5799,
6608,
8534,
17346,
50375,
91168,
68550,
23929,
12564,
15211,
13575,
10865,
9403,
7497,
6750,
6785,
7212,
7326,
7353,
7637,
7868,
7964,
8235,
8346,
8414,
8564,
8829,
8982,
9225,
9904,
11361,
15930,
20500,
19087,
13983,
11153,
10355,
10394,
10211,
10284,
10764,
12617,
20832,
53983,
126010,
181064,
163025,
106631,
53698,
21284,
9905,
8824,
9789,
10840,
10106,
8796,
7959,
9122,
14851,
27490,
38336,
35832,
27069,
22322,
18407,
13158,
9630,
7658,
6469,
5862,
5518,
5273,
5090,
5002,
5056,
4884,
5342,
5366,
5338,
5183,
4885,
4779,
4951,
4782,
4782,
4795,
4740,
4794,
4805,
4801,
4631,
4799,
4663,
4759,
4673,
4717,
4710,
4727,
4659,
4649,
4688,
4843,
4798,
4841,
4692,
4777,
4530,
4522,
4373,
4529,
4462,
4392,
4461,
4261,
4330,
4268,
4356,
4307,
4312,
4175,
4345,
4281,
4219,
4167,
4107,
4153,
4215,
3997,
4051,
4007,
3980,
3874,
4010,
3996,
3992,
4026,
4204,
4376,
4677,
4418,
4243,
4002,
3820,
3889,
3719,
3606,
3572,
3795,
3522,
3593,
3575,
3594,
3613,
3541,
3537,
3359,
3356,
3443,
3347,
3347,
3231,
3353,
3301,
3247,
3226,
3271,
3194,
3218,
3194,
3102,
3211,
3073,
3067,
3084,
3043,
3001,
3114,
3079,
3056,
3283,
3874,
5659,
9205,
13793,
17424,
17258,
13421,
8889,
5181,
3543,
2934,
2867,
2671,
2671,
2760,
2716,
2741,
2940,
3334,
4151,
5038,
5816,
6181,
5973,
5443,
4688,
3818,
3165,
2622,
2532,
2384,
2474,
2396,
2290,
2285,
2297,
2145,
2260,
2336,
2316,
2258,
2479,
2453,
2562,
2597,
2638,
2622,
2631,
2410,
2367,
2237,
2233,
2095,
2122,
2044,
2051,
1989,
2045,
1990,
2118,
2063,
1987,
1888,
1968,
1904,
1819,
1866,
1860,
1846,
1768,
1861,
1831,
1939,
2009,
2559,
3400,
4963,
7262,
9664,
10944,
10468,
8648,
5957,
3784,
2555,
2015,
1735,
1759,
1621,
1611,
1710,
1649,
1542,
1641,
1601,
1509,
1556,
1483,
1463,
1463,
1464,
1396,
1468,
1455,
1375,
1309,
1378,
1377,
1381,
1354,
1361,
1377,
1504,
1593,
1733,
2043,
2503,
3120,
3660,
4004,
3810,
3371,
2619,
2230,
1938,
1875,
1942,
2349,
2592,
2718,
2723,
2444,
2046,
1606,
1348,
1239,
1133,
1086,
1040,
1104,
1062,
1025,
993,
999,
941,
958,
962,
994,
948,
888,
958,
947,
919,
916,
889,
884,
897,
868,
869,
860,
887,
836,
827,
803,
817,
849,
910,
932,
1019,
1129,
1209,
1159,
1125,
1026,
921,
794,
792,
769,
722,
767,
711,
775,
832,
778,
730,
742,
692,
698,
659,
672,
632,
617,
583,
603,
627,
564,
578,
595,
587,
570,
537,
554,
517,
500,
528,
486,
541,
524,
514,
509,
491,
502,
463,
434,
489,
424,
456,
456,
440,
380,
396,
384,
405,
418,
435,
384,
372,
364,
362,
376,
358,
323,
357,
335,
329,
357,
337,
329,
306,
324,
330,
305,
290,
293,
279,
279,
295,
264,
307,
245,
274,
243,
229,
260,
241,
243,
226,
209,
200,
213,
217,
187,
211,
200,
189,
173,
172,
157,
171,
160,
153,
163,
142,
160,
166,
119,
123,
125,
116,
107,
126,
111,
90,
103,
98,
92,
111,
77,
92,
86,
78,
69,
71,
56,
57,
40,
44,
41,
41,
27,
30,
21,
22,
21,
17,
19,
11,
5,
7,
4,
11,
7,
2,
4,
3,
4,
6,
2,
1,
3,
6,
1,
5,
3,
2,
3,
3,
2,
4,
7,
3,
2,
2,
5,
1,
2,
1,
3,
3,
3,
0,
2,
1,
4,
4,
4,
3,
2,
4,
0,
2,
4,
6,
3,
3,
0,
0,
4,
2,
3,
0,
1,
2,
1,
1,
2,
1,
0,
2,
2,
2,
4,
5,
0,
0,
2,
0,
1,
2,
1,
4,
1,
0,
4,
2,
1,
2,
1,
0,
1,
4,
1,
2,
2,
4,
0,
1,
2,
2,
2,
1,
1,
1,
2,
3,
3,
0,
1,
1,
3,
1,
0,
1,
0,
1,
0,
1,
2,
2,
1,
0,
4,
2,
0,
4,
0,
2,
2,
0,
3,
1,
2,
1,
0,
1,
1,
0,
0,
1,
1,
1,
3,
1,
2,
0,
2,
0,
4,
0,
0,
0,
1,
0,
1,
1,
1,
1,
0,
0,
0,
0,
1,
0,
0,
1,
0,
0,
1,
0,
1,
1,
0,
0,
0,
0,
0,
1,
0,
1,
0,
1,
1,
1,
1,
0,
1,
0,
1,
0,
0,
1,
0,
1,
0,
0,
1,
0,
0,
1,
0,
0,
0,
0,
0,
0,
3,
0,
0,
0,
0,
0,
0,
1,
0,
2,
0,
0,
0,
0,
2,
1,
1,
1,
0,
0,
1,
1,
1,
0,
0,
0,
0,
0,
0,
0,
0,
0,
1,
1,
2,
1,
0,
0,
0,
0,
0,
0,
0,
1,
1,
0,
0,
0,
0,
0,
0,
1,
0,
0,
0,
0,
0,
0,
0,
0,
0,
0,
0,
0,
1,
0,
0,
1,
0,
0,
0,
0,
1,
0,
0,
0,
0,
0,
0,
0,
0,
0,
0,
0,
1,
0,
0,
1,
0,
0,
0,
0,
0,
1,
0,
0,
0,
0,
0,
0,
0,
0,
0,
0,
0,
0,
0,
0,
0,
0,
0,
0,
0,
0,
0,
0,
0,
0,
0,
0,
0,
0,
0,
0,
0,
0,
0,
0,
0,
0,
0,
0,
0,
0,
0,
0,
0,
0,
0,
0,
0,
0,
0,
0,
0,
0,
0,
0,
0,
0,
0,
0,
0,
0,
0,
0,
0,
0,
0,
0,
0,
0,
0,
0,
0,
0,
0,
0,
0,
0,
0,
0,
0,
0,
0,
0,
0,
0,
0,
0,
0,
0,
0,
0,
0,
0,
0,
0,
0,
0,
0,
0,
0,
0,
0,
0,
0,
0,
0,
0,
0,
0,
0,
0,
0,
0,
0,
0,
0,
0,
0,
0,
0,
0,
0,
0,
0,
0,
0,
0,
0,
0,
0,
0,
0,
0,
0,
0,
0,
0,
0,
0,
0,
0,
0,
0,
0,
0,
0,
0,
0,
0,
0,
0,
0,
0,
0,
0,
0,
0,
0,
0,
0,
0,
0,
0,
0,
0,
0,
0,
0,
0,
0,
0,
0,
0,
0,
0,
0,
0,
0,
0,
0,
0,
0,
0,
0,
0,
0,
0,
0,
0,
0,
0,
0,
0,
0,
0,
0,
0,
0,
0,
0,
0,
0,
0,
0,
0,
0,
0,
0,
0,
0,
0,
0,
0,
0,
0,
0,
0,
0,
0,
0,
0,
0,
0,
0,
0,
0,
0,
0,
0,
0,
0,
0,
0,
0,
0,
0,
0,
0,
0,
0,
0,
0,
0,
0,
0,
0,
0,
0,
0,
0,
0,
0,
0,
0,
0,
0,
0,
0,
0,
0,
0,
0,
0,
0,
0,
0,
0,
0,
0,
0,
0,
0,
0,
0,
0,
0,
0,
0,
0,
0,
0,
0,
0,
0,
0,
0,
0,
0,
0,
0,
0,
0,
0,
0,
0,
0,
0,
0,
0,
0,
0,
0,
0,
0,
0,
0,
0,
0,
0,
0,
0,
0,
0,
0,
0,
0,
0,
0,
0,
0,
0,
0,
0,
0,
0,
0,
0,
0,
0,
0,
0,
0,
0,
0,
0,
0,
0,
0,
0,
0,
0,
0,
0,
0,
0,
0,
0,
0,
0,
0,
0,
0,
0,
0,
0,
0,
0,
0,
0,
0,
0,
0,
0,
0,
0,
0,
0,
0,
0,
0,
0,
0,
0,
0,
0,
0,
0,
0,
0,
0,
0,
0,
0,
0,
0,
0,
0,
0,
0,
0,
0,
0,
0,
0,
0,
0,
0,
0,
0,
0,
0,
0,
0,
0,
0,
0,
0,
0,
0,
0,
0,
0,
0,
0,
0,
0,
0,
0,
0,
0,
0,
0,
0,
0,
0,
0,
0,
0,
0,
0,
0,
0,
0,
0,
0,
0,
0,
0,
0,
0,
0,
0,
0,
0,
0,
0,
0,
0,
0,
0,
0,
0,
0,
0,
0,
0,
0,
0,
0,
0,
0,
0,
0,
0,
0,
0,
0,
0,
0,
0,
0,
0,
0,
0,
0,
0,
0,
0,
0,
0,
0,
0,
0,
0,
0,
0,
0,
0,
0,
0,
0,
0,
0,
0,
0,
0,
0,
0,
0,
0,
0,
0,
0,
0,
0,
0,
0,
0,
0,
0,
0,
0,
0,
0,
0,
0,
0,
0,
0,
0,
0,
0,
0,
0,
0,
0,
0,
0,
0,
0,
0,
0,
0,
0,
0,
0,
0,
0,
0,
0,
0,
0,
0,
0,
0,
0,
0,
0,
0,
0,
0,
0,
0,
0,
0,
0,
0,
0,
0,
0,
0,
0,
0,
0,
0,
0,
0,
0,
0,
0,
0,
0,
0,
0,
0,
0,
#ENDOFDATA   :