File: N132962/Quantification/15 keV/Mengason MM2/MMM2 Pyrite[2][4].msa
#FORMAT      : EMSA/MAS Spectral Data File
#VERSION     : 1.0
#TITLE       : MMM2 Pyrite[2][all]
#DATE        : 28-SEP-2025
#TIME        : 20:48
#OWNER       : Unknown
#NPOINTS     : 4096
#NCOLUMNS    : 1
#XUNITS      : eV
#YUNITS      : counts
#DATATYPE    : Y
#XPERCHAN    : 9.99778
#OFFSET      : 1.69135
#BEAMKV      : 15
#SIGNALTYPE  : EDS
#ELEVANGLE   : 35
#AZIMANGLE   : 0
#LIVETIME    : 240.218
#REALTIME    : 259.049
#PROBECUR    : 1.21333
#TAUWIND     : 0
#TDEADLYR    : 0
#TACTLYR     : 0.045
#TALWIND     : 0.025
#CHOFFSET    : 0.0
#XLABEL      : Energy (eV)
#YLABEL      : Counts
#XPOSITION   : -11.70612
#YPOSITION   : -4.31778
#ZPOSITION   : 34.11879
#EDSDET      : SD
##SPECIMEN   : MMM2 Pyrite[2][all]
##D2STDCMP   : Pyrite,(S:53.4528),(Fe:46.5472)
##DET_HASH   : 12273538-fd48-a23f-0a19-f1e6fa85caef
##CALIB_HASH : 6abaa72c-aa41-8738-0be9-f592914732f3
##WORKING    : 15.0 mm
##DET_NAME   : EDAX All
##DET_MODE   : MediumLE
#SPECTRUM    :
27,
32,
12,
91,
538,
1229,
1721,
4496,
13068,
16687,
8261,
3375,
3089,
3238,
3691,
4629,
6138,
9027,
14175,
21237,
26775,
29192,
47979,
82538,
68848,
26236,
8387,
5440,
4787,
4562,
4542,
4642,
4892,
4901,
5086,
5325,
5384,
5504,
5608,
5634,
5902,
5788,
6091,
6194,
6290,
6372,
6412,
6341,
6654,
6686,
6594,
6680,
6412,
6520,
6449,
6475,
6574,
6919,
7442,
7177,
6748,
6562,
5980,
5899,
5870,
5940,
6005,
6103,
6067,
6157,
6322,
7576,
10867,
19143,
46425,
126863,
259890,
325654,
235029,
102640,
34798,
23946,
26268,
22199,
12839,
6309,
3903,
3458,
3211,
3248,
3192,
3221,
3146,
3353,
3302,
3340,
3278,
3351,
3427,
3475,
3482,
3445,
3360,
3147,
3189,
3092,
3104,
2982,
2911,
2907,
2963,
3009,
2909,
2947,
2847,
2865,
2804,
2759,
2806,
2805,
2871,
2794,
2782,
2713,
2773,
2720,
2624,
2671,
2659,
2560,
2604,
2439,
2577,
2490,
2602,
2533,
2528,
2483,
2508,
2483,
2375,
2376,
2271,
2269,
2236,
2319,
2288,
2185,
2313,
2261,
2315,
2231,
2594,
2709,
2848,
2732,
2671,
2360,
2232,
2156,
2151,
2045,
2073,
2010,
1972,
1989,
1935,
1986,
1946,
1875,
1979,
1860,
1790,
1898,
1863,
1790,
1902,
1723,
1786,
1840,
1846,
1732,
1748,
1748,
1724,
1672,
1637,
1637,
1648,
1682,
1562,
1524,
1563,
1620,
1626,
1565,
1610,
1626,
1620,
1476,
1582,
1567,
1522,
1544,
1502,
1633,
1670,
2030,
2864,
5632,
12927,
25354,
39949,
47925,
45433,
32672,
18508,
8519,
3682,
2014,
1394,
1323,
1270,
1333,
1218,
1400,
1269,
1243,
1350,
1432,
1623,
2184,
3221,
4892,
6538,
7220,
6588,
5094,
3267,
2053,
1389,
1166,
996,
965,
1046,
947,
972,
960,
932,
968,
977,
919,
959,
936,
960,
916,
928,
892,
915,
857,
839,
870,
858,
880,
893,
875,
840,
865,
796,
825,
802,
813,
837,
778,
778,
783,
805,
814,
824,
775,
850,
743,
729,
750,
785,
695,
770,
752,
752,
801,
869,
750,
792,
764,
723,
673,
646,
651,
667,
675,
639,
645,
617,
597,
654,
653,
630,
609,
609,
599,
569,
620,
609,
580,
593,
599,
568,
550,
552,
532,
530,
569,
559,
538,
544,
529,
501,
462,
473,
521,
477,
453,
504,
487,
447,
482,
452,
460,
441,
422,
419,
444,
457,
462,
443,
429,
412,
412,
401,
434,
408,
388,
398,
373,
377,
353,
365,
370,
347,
343,
386,
336,
356,
346,
326,
367,
377,
328,
328,
340,
359,
334,
339,
288,
312,
295,
286,
279,
278,
273,
273,
262,
274,
252,
273,
264,
228,
254,
264,
243,
244,
259,
248,
239,
206,
222,
224,
230,
214,
237,
217,
207,
205,
190,
193,
196,
177,
178,
179,
172,
181,
164,
200,
182,
168,
175,
183,
187,
175,
154,
168,
165,
170,
137,
140,
143,
143,
153,
117,
148,
101,
132,
130,
124,
99,
131,
95,
130,
110,
109,
91,
101,
87,
109,
97,
102,
95,
96,
92,
92,
93,
87,
76,
69,
102,
68,
81,
80,
70,
65,
66,
65,
53,
66,
51,
42,
65,
62,
52,
50,
57,
45,
39,
43,
43,
43,
31,
31,
28,
38,
25,
25,
27,
21,
28,
22,
22,
21,
19,
20,
18,
14,
14,
8,
6,
4,
8,
8,
3,
5,
4,
1,
1,
3,
1,
2,
2,
2,
1,
2,
0,
2,
1,
1,
2,
0,
1,
0,
0,
2,
0,
1,
1,
0,
1,
2,
2,
0,
0,
2,
1,
2,
1,
0,
0,
0,
1,
0,
0,
0,
1,
0,
1,
1,
1,
0,
2,
0,
0,
0,
2,
0,
0,
1,
0,
0,
0,
0,
1,
1,
1,
2,
1,
1,
0,
2,
0,
1,
0,
2,
1,
1,
1,
1,
1,
0,
1,
0,
1,
2,
1,
1,
1,
1,
0,
1,
0,
1,
0,
1,
1,
0,
0,
0,
0,
0,
0,
0,
0,
0,
0,
0,
1,
0,
0,
3,
1,
0,
0,
1,
0,
0,
1,
0,
0,
0,
1,
0,
0,
0,
1,
0,
0,
0,
0,
0,
0,
1,
1,
0,
0,
1,
1,
0,
0,
1,
0,
0,
0,
0,
0,
0,
0,
1,
0,
2,
0,
1,
0,
0,
0,
0,
0,
0,
0,
0,
0,
0,
0,
0,
0,
0,
0,
0,
0,
0,
0,
0,
0,
0,
0,
0,
0,
0,
0,
0,
0,
0,
0,
0,
0,
0,
0,
0,
0,
1,
0,
0,
0,
0,
0,
0,
0,
0,
0,
0,
0,
0,
0,
0,
0,
0,
0,
0,
0,
0,
0,
0,
0,
1,
0,
0,
0,
0,
0,
0,
0,
0,
0,
0,
0,
0,
0,
0,
0,
0,
0,
0,
0,
0,
0,
0,
0,
0,
0,
0,
0,
0,
0,
0,
0,
0,
0,
0,
0,
0,
0,
0,
0,
0,
0,
0,
0,
0,
1,
0,
0,
0,
0,
0,
0,
0,
0,
0,
0,
0,
0,
0,
0,
0,
0,
0,
0,
0,
0,
0,
0,
0,
0,
0,
0,
0,
0,
0,
0,
0,
0,
0,
0,
0,
0,
0,
0,
0,
0,
0,
0,
0,
0,
0,
0,
0,
0,
0,
0,
0,
0,
0,
0,
0,
0,
0,
0,
0,
0,
0,
0,
0,
0,
0,
0,
0,
0,
0,
0,
0,
0,
0,
0,
0,
0,
0,
0,
0,
0,
0,
0,
0,
0,
0,
0,
0,
0,
0,
0,
0,
0,
0,
0,
0,
0,
0,
0,
0,
0,
0,
0,
0,
0,
0,
0,
0,
0,
0,
0,
0,
0,
0,
0,
1,
0,
0,
0,
0,
0,
0,
0,
0,
0,
0,
0,
0,
0,
0,
0,
0,
0,
0,
0,
0,
0,
0,
0,
0,
0,
0,
0,
0,
0,
0,
0,
0,
0,
0,
0,
0,
0,
0,
0,
0,
0,
0,
0,
0,
0,
0,
0,
0,
0,
0,
0,
0,
0,
0,
0,
0,
0,
0,
0,
0,
0,
0,
0,
0,
0,
0,
0,
0,
0,
0,
0,
0,
0,
0,
0,
0,
0,
0,
0,
0,
0,
0,
0,
0,
0,
0,
0,
0,
0,
0,
0,
0,
0,
0,
0,
0,
0,
0,
0,
0,
0,
0,
0,
0,
0,
0,
0,
0,
0,
0,
0,
0,
0,
0,
0,
0,
0,
0,
0,
0,
0,
0,
0,
0,
0,
0,
0,
0,
0,
0,
0,
0,
0,
0,
0,
0,
0,
0,
0,
0,
0,
0,
0,
0,
0,
0,
0,
0,
0,
0,
0,
0,
0,
0,
0,
0,
0,
0,
0,
0,
0,
0,
0,
0,
0,
0,
0,
0,
0,
0,
0,
0,
0,
0,
0,
0,
0,
0,
0,
0,
0,
0,
0,
0,
0,
0,
0,
0,
0,
0,
0,
0,
0,
0,
0,
0,
0,
0,
0,
0,
0,
0,
0,
0,
0,
0,
0,
0,
0,
0,
0,
0,
0,
0,
0,
0,
0,
0,
0,
0,
0,
0,
0,
0,
0,
0,
0,
0,
0,
0,
0,
0,
0,
0,
0,
0,
0,
0,
0,
0,
0,
0,
0,
0,
0,
0,
0,
0,
0,
0,
0,
0,
0,
0,
0,
0,
0,
0,
0,
0,
0,
0,
0,
0,
0,
0,
0,
0,
0,
0,
0,
0,
0,
0,
0,
0,
0,
0,
0,
0,
0,
0,
0,
0,
0,
0,
0,
0,
0,
0,
0,
0,
0,
0,
0,
0,
0,
0,
0,
0,
0,
0,
0,
0,
0,
0,
0,
0,
0,
0,
0,
0,
0,
0,
0,
0,
0,
0,
0,
0,
0,
0,
0,
0,
0,
0,
0,
0,
0,
0,
0,
0,
0,
0,
0,
0,
0,
0,
0,
0,
0,
0,
0,
0,
0,
0,
0,
0,
0,
0,
0,
0,
0,
0,
0,
0,
0,
0,
0,
0,
0,
0,
0,
0,
0,
0,
0,
0,
0,
0,
0,
0,
0,
0,
0,
0,
0,
0,
0,
0,
0,
0,
0,
0,
0,
0,
0,
0,
0,
0,
0,
0,
0,
0,
0,
0,
0,
0,
0,
0,
0,
0,
0,
0,
0,
0,
0,
0,
0,
0,
0,
0,
0,
0,
0,
0,
0,
0,
0,
0,
0,
0,
0,
0,
0,
0,
0,
0,
0,
0,
0,
0,
0,
0,
0,
0,
0,
0,
0,
0,
0,
0,
0,
0,
0,
0,
0,
0,
0,
0,
0,
0,
0,
0,
0,
0,
0,
0,
0,
0,
0,
0,
0,
0,
0,
0,
0,
0,
0,
0,
0,
0,
0,
0,
0,
0,
0,
0,
0,
0,
0,
0,
0,
0,
0,
0,
0,
0,
0,
0,
0,
0,
0,
0,
0,
0,
#ENDOFDATA   :