File: N132962/Quantification/15 keV/Mengason MM2/MMM2 Stibnite[3][4].msa
#FORMAT      : EMSA/MAS Spectral Data File
#VERSION     : 1.0
#TITLE       : MMM2 Stibnite[3][all]
#DATE        : 28-SEP-2025
#TIME        : 23:35
#OWNER       : Unknown
#NPOINTS     : 4096
#NCOLUMNS    : 1
#XUNITS      : eV
#YUNITS      : counts
#DATATYPE    : Y
#XPERCHAN    : 9.99778
#OFFSET      : 1.69135
#BEAMKV      : 15
#SIGNALTYPE  : EDS
#ELEVANGLE   : 35
#AZIMANGLE   : 0
#LIVETIME    : 240.183
#REALTIME    : 260.3904
#PROBECUR    : 1.21079
#TAUWIND     : 0
#TDEADLYR    : 0
#TACTLYR     : 0.045
#TALWIND     : 0.025
#CHOFFSET    : 0.0
#XLABEL      : Energy (eV)
#YLABEL      : Counts
#XPOSITION   : -14.5099
#YPOSITION   : 2.24599
#ZPOSITION   : 34.11879
#EDSDET      : SD
##SPECIMEN   : MMM2 Stibnite[3][all]
##DET_HASH   : 12273538-fd48-a23f-0a19-f1e6fa85caef
##CALIB_HASH : 6abaa72c-aa41-8738-0be9-f592914732f3
##WORKING    : 15.0 mm
##DET_NAME   : EDAX All
##DET_MODE   : MediumLE
#SPECTRUM    :
19,
21,
21,
211,
1560,
3126,
3388,
7099,
18063,
22513,
11627,
6384,
9023,
17966,
23851,
16927,
11553,
11750,
12056,
9640,
6919,
5690,
5776,
6761,
8039,
8154,
7204,
6503,
6329,
6031,
5814,
5710,
5950,
6013,
6285,
6373,
6544,
6724,
6743,
6869,
7254,
7397,
7626,
7664,
7719,
7850,
7943,
8033,
8423,
8217,
8379,
8202,
8392,
8325,
8203,
8294,
8512,
9252,
9516,
9591,
9496,
9458,
9143,
8421,
7936,
7682,
7745,
7776,
8021,
8008,
8214,
8967,
10522,
14878,
29795,
74908,
148655,
184156,
133803,
59980,
23419,
17744,
19253,
16745,
11238,
7501,
5885,
5705,
5705,
5667,
5582,
5426,
5463,
5474,
5424,
5438,
5349,
5404,
5333,
5416,
5258,
5236,
5300,
5612,
6305,
7651,
8773,
8533,
7323,
5904,
5350,
5238,
5385,
6008,
6765,
7485,
9684,
18608,
42685,
79981,
105117,
91942,
55699,
24796,
11820,
11888,
22266,
38052,
50809,
49576,
38069,
25881,
17243,
11719,
10341,
12621,
16254,
17242,
14247,
9483,
6173,
4721,
4871,
5958,
7646,
8559,
7595,
5893,
4289,
3652,
3778,
4243,
5208,
5649,
5391,
4535,
3908,
3319,
3107,
3023,
2904,
2932,
2971,
2860,
2821,
2966,
2881,
2887,
2820,
2806,
2737,
2782,
2859,
2733,
2757,
2802,
2721,
2694,
2769,
2730,
2707,
2792,
2763,
2685,
2727,
2619,
2669,
2661,
2621,
2611,
2548,
2502,
2493,
2515,
2568,
2572,
2625,
2600,
2674,
2675,
2638,
2387,
2548,
2444,
2565,
2480,
2442,
2476,
2358,
2412,
2292,
2355,
2375,
2474,
2523,
2411,
2318,
2233,
2175,
2220,
2161,
2335,
2131,
2100,
2135,
2128,
2081,
2124,
2104,
1957,
2057,
1994,
2018,
2029,
1965,
2030,
2058,
1959,
2002,
1943,
1975,
1913,
1981,
1944,
1853,
1880,
1801,
1873,
1876,
1918,
1812,
1851,
1805,
1771,
1719,
1685,
1791,
1711,
1659,
1664,
1676,
1659,
1687,
1643,
1606,
1595,
1591,
1668,
1513,
1603,
1572,
1539,
1537,
1518,
1535,
1495,
1440,
1478,
1496,
1422,
1423,
1424,
1372,
1473,
1382,
1442,
1371,
1321,
1363,
1277,
1336,
1315,
1362,
1284,
1342,
1314,
1341,
1275,
1202,
1265,
1211,
1237,
1220,
1254,
1172,
1225,
1209,
1192,
1149,
1140,
1140,
1080,
1143,
1162,
1119,
1140,
1149,
1146,
1097,
1051,
1095,
1074,
1065,
1044,
994,
1039,
1037,
1013,
1006,
965,
1005,
935,
963,
948,
927,
931,
929,
952,
938,
884,
887,
875,
917,
782,
832,
825,
839,
806,
827,
817,
784,
773,
756,
855,
797,
722,
750,
757,
801,
738,
752,
719,
701,
647,
652,
680,
760,
678,
706,
675,
652,
670,
629,
651,
616,
652,
611,
604,
616,
570,
563,
581,
569,
594,
563,
521,
559,
584,
549,
528,
553,
547,
539,
490,
531,
504,
495,
457,
467,
450,
473,
444,
444,
428,
412,
404,
461,
420,
414,
409,
427,
393,
379,
358,
380,
377,
369,
331,
339,
334,
338,
348,
336,
355,
308,
316,
271,
309,
327,
311,
271,
294,
298,
288,
243,
280,
248,
247,
250,
229,
248,
233,
258,
201,
224,
207,
187,
218,
201,
205,
188,
179,
181,
163,
168,
160,
166,
148,
155,
125,
140,
151,
134,
119,
131,
119,
118,
120,
119,
109,
101,
102,
107,
79,
101,
97,
94,
92,
84,
94,
66,
61,
66,
61,
47,
55,
56,
42,
47,
36,
29,
39,
27,
34,
27,
25,
20,
11,
5,
10,
3,
5,
4,
5,
0,
1,
4,
3,
2,
6,
4,
4,
0,
3,
1,
4,
1,
1,
6,
4,
4,
5,
7,
1,
1,
3,
4,
6,
3,
1,
1,
0,
3,
2,
1,
3,
3,
4,
2,
0,
1,
0,
2,
0,
2,
2,
3,
5,
1,
1,
3,
2,
0,
0,
1,
0,
2,
1,
1,
2,
1,
2,
0,
2,
1,
2,
1,
3,
1,
2,
4,
2,
2,
1,
3,
1,
1,
1,
5,
5,
3,
1,
2,
3,
0,
3,
2,
1,
3,
1,
1,
2,
2,
3,
1,
0,
2,
1,
1,
2,
1,
1,
0,
2,
1,
0,
2,
3,
1,
1,
0,
0,
0,
1,
0,
0,
1,
1,
2,
0,
0,
2,
0,
0,
0,
0,
1,
2,
1,
0,
0,
2,
0,
1,
1,
0,
0,
0,
1,
0,
0,
1,
0,
0,
0,
0,
0,
0,
0,
0,
0,
0,
0,
0,
0,
0,
0,
1,
1,
0,
0,
0,
1,
0,
1,
0,
0,
2,
0,
0,
0,
0,
0,
0,
1,
0,
0,
0,
0,
0,
0,
1,
1,
0,
0,
0,
0,
0,
0,
0,
0,
0,
0,
0,
1,
0,
0,
0,
0,
0,
0,
0,
0,
0,
0,
0,
1,
0,
0,
0,
0,
0,
0,
0,
0,
0,
0,
0,
0,
0,
1,
0,
0,
0,
0,
0,
0,
0,
0,
0,
0,
0,
1,
0,
0,
0,
0,
0,
0,
0,
0,
0,
0,
0,
0,
0,
0,
0,
0,
0,
0,
0,
0,
1,
0,
0,
0,
0,
0,
0,
0,
0,
0,
0,
0,
0,
0,
0,
0,
0,
0,
0,
0,
0,
0,
0,
0,
0,
0,
0,
0,
0,
0,
0,
0,
0,
0,
0,
0,
0,
0,
0,
0,
0,
0,
0,
0,
0,
0,
0,
0,
0,
0,
0,
0,
0,
0,
0,
0,
0,
0,
0,
0,
0,
0,
0,
0,
0,
0,
0,
0,
0,
0,
0,
0,
0,
0,
0,
0,
0,
0,
0,
0,
0,
0,
0,
0,
0,
0,
0,
0,
0,
0,
0,
0,
0,
0,
0,
0,
0,
0,
0,
0,
0,
1,
0,
0,
0,
0,
0,
0,
0,
0,
0,
0,
0,
0,
0,
0,
0,
0,
0,
0,
0,
0,
0,
0,
0,
0,
0,
0,
0,
0,
0,
0,
0,
0,
0,
0,
0,
0,
0,
0,
0,
0,
0,
0,
0,
0,
0,
0,
0,
0,
0,
0,
0,
0,
0,
0,
0,
0,
0,
0,
0,
0,
0,
0,
0,
0,
0,
0,
0,
0,
0,
0,
0,
0,
0,
0,
0,
0,
0,
0,
0,
0,
0,
0,
0,
0,
0,
0,
0,
0,
0,
0,
0,
0,
0,
0,
0,
0,
0,
0,
0,
0,
0,
0,
0,
0,
0,
0,
0,
0,
0,
0,
0,
0,
0,
0,
0,
0,
0,
0,
0,
0,
0,
0,
0,
0,
0,
0,
0,
0,
0,
0,
0,
0,
0,
0,
0,
0,
0,
0,
0,
0,
0,
0,
0,
0,
0,
0,
0,
0,
0,
0,
0,
0,
0,
0,
0,
0,
0,
0,
0,
0,
0,
0,
0,
0,
0,
0,
0,
0,
0,
0,
0,
0,
0,
0,
0,
0,
0,
0,
0,
0,
0,
0,
0,
0,
0,
0,
0,
0,
0,
0,
0,
0,
0,
0,
0,
0,
0,
0,
0,
0,
0,
0,
0,
0,
0,
0,
0,
0,
0,
0,
0,
0,
0,
0,
0,
0,
0,
0,
0,
0,
0,
0,
0,
0,
0,
0,
0,
0,
0,
0,
0,
0,
0,
0,
0,
0,
0,
0,
0,
0,
0,
0,
0,
0,
0,
0,
0,
0,
0,
0,
0,
0,
0,
0,
0,
0,
0,
0,
0,
0,
0,
0,
0,
0,
0,
0,
0,
0,
0,
0,
0,
0,
0,
0,
0,
0,
0,
0,
0,
0,
0,
0,
0,
0,
0,
0,
0,
0,
0,
0,
0,
0,
0,
0,
0,
0,
0,
0,
0,
0,
0,
0,
0,
0,
0,
0,
0,
0,
0,
0,
0,
0,
0,
0,
0,
0,
0,
0,
0,
0,
0,
0,
0,
0,
0,
0,
0,
0,
0,
0,
0,
0,
0,
0,
0,
0,
0,
0,
0,
0,
0,
0,
0,
0,
0,
0,
0,
0,
0,
0,
0,
0,
0,
0,
0,
0,
0,
0,
0,
0,
0,
0,
0,
0,
0,
0,
0,
0,
0,
0,
0,
0,
0,
0,
0,
0,
0,
0,
0,
0,
0,
0,
0,
0,
0,
0,
0,
0,
0,
0,
0,
0,
0,
0,
0,
0,
0,
0,
0,
0,
0,
0,
0,
0,
0,
0,
0,
0,
0,
0,
0,
0,
0,
0,
0,
0,
0,
0,
0,
0,
0,
0,
0,
0,
0,
0,
0,
0,
0,
0,
0,
0,
0,
0,
0,
0,
0,
0,
0,
0,
0,
0,
0,
0,
0,
0,
0,
0,
0,
0,
0,
0,
0,
0,
0,
0,
0,
0,
0,
0,
0,
0,
0,
0,
0,
0,
0,
0,
0,
0,
0,
0,
0,
0,
0,
0,
0,
0,
0,
0,
0,
0,
0,
0,
0,
0,
0,
0,
0,
0,
0,
0,
0,
0,
0,
0,
0,
0,
0,
0,
0,
0,
0,
0,
0,
0,
0,
0,
0,
0,
0,
#ENDOFDATA   :