File: N132962/Quantification/15 keV/Mengason MM2/MMM2 MgAl2O4[3][4].msa
#FORMAT      : EMSA/MAS Spectral Data File
#VERSION     : 1.0
#TITLE       : MMM2 MgAl2O4[3][all]
#DATE        : 28-SEP-2025
#TIME        : 21:20
#OWNER       : Unknown
#NPOINTS     : 4096
#NCOLUMNS    : 1
#XUNITS      : eV
#YUNITS      : counts
#DATATYPE    : Y
#XPERCHAN    : 9.99778
#OFFSET      : 1.69135
#BEAMKV      : 15
#SIGNALTYPE  : EDS
#ELEVANGLE   : 35
#AZIMANGLE   : 0
#LIVETIME    : 240.687
#REALTIME    : 259.244
#PROBECUR    : 1.21217
#TAUWIND     : 0
#TDEADLYR    : 0
#TACTLYR     : 0.045
#TALWIND     : 0.025
#CHOFFSET    : 0.0
#XLABEL      : Energy (eV)
#YLABEL      : Counts
#XPOSITION   : -21.69949
#YPOSITION   : -2.76975
#ZPOSITION   : 34.11879
#EDSDET      : SD
##SPECIMEN   : MMM2 MgAl2O4[3][all]
##D2STDCMP   : MgAl2O4,(O:44.9839),(Mg:17.0844),(Al:37.9316)
##DET_HASH   : 12273538-fd48-a23f-0a19-f1e6fa85caef
##CALIB_HASH : 6abaa72c-aa41-8738-0be9-f592914732f3
##WORKING    : 15.0 mm
##DET_NAME   : EDAX All
##DET_MODE   : MediumLE
#SPECTRUM    :
32,
27,
7,
20,
97,
393,
1135,
3651,
10273,
12942,
6977,
3612,
3919,
5238,
10294,
39951,
153435,
291847,
210491,
54589,
6889,
2595,
2635,
2909,
3233,
3429,
3559,
3622,
3806,
4091,
4203,
4396,
4744,
5137,
5650,
5859,
5907,
6323,
7784,
15718,
55525,
134317,
161316,
91505,
28177,
9445,
10185,
35612,
130875,
269274,
272743,
137863,
40492,
10648,
4276,
2859,
2689,
2993,
3352,
3539,
3285,
2787,
2455,
2363,
2586,
2898,
3348,
3487,
3091,
2570,
2453,
2320,
2306,
2293,
2222,
2314,
2301,
2299,
2244,
2299,
2222,
2298,
2242,
2322,
2335,
2239,
2151,
2110,
2237,
2263,
2460,
2575,
2538,
2375,
2146,
1971,
2019,
2081,
2303,
2478,
2396,
2131,
1974,
1825,
1899,
1791,
1790,
1775,
1766,
1792,
1711,
1708,
1760,
1734,
1643,
1640,
1612,
1621,
1590,
1561,
1553,
1548,
1520,
1526,
1559,
1476,
1518,
1433,
1413,
1488,
1346,
1460,
1377,
1368,
1308,
1394,
1255,
1355,
1342,
1295,
1322,
1289,
1268,
1233,
1299,
1281,
1193,
1247,
1198,
1158,
1162,
1159,
1150,
1105,
1161,
1072,
1100,
1104,
1039,
1144,
1124,
1116,
1071,
1102,
1020,
1021,
998,
976,
1024,
953,
1051,
969,
910,
954,
963,
956,
948,
953,
890,
898,
973,
909,
841,
813,
822,
857,
860,
874,
825,
868,
807,
820,
767,
825,
754,
819,
786,
770,
748,
780,
712,
736,
720,
727,
762,
674,
727,
671,
628,
683,
670,
715,
676,
677,
681,
644,
632,
653,
635,
602,
627,
638,
636,
633,
576,
567,
594,
549,
534,
576,
593,
579,
559,
561,
507,
569,
546,
526,
501,
540,
497,
539,
514,
493,
519,
493,
450,
489,
493,
561,
463,
486,
460,
476,
479,
473,
432,
461,
477,
434,
458,
414,
397,
435,
426,
400,
432,
412,
373,
375,
382,
412,
397,
415,
396,
383,
356,
384,
338,
369,
343,
356,
379,
364,
339,
346,
317,
344,
318,
329,
299,
337,
300,
320,
306,
296,
306,
326,
290,
287,
310,
290,
281,
257,
277,
258,
281,
282,
289,
258,
290,
268,
282,
280,
267,
284,
224,
221,
237,
240,
247,
226,
223,
229,
240,
241,
231,
221,
205,
217,
215,
215,
229,
206,
211,
205,
223,
202,
193,
184,
190,
189,
166,
197,
149,
175,
198,
190,
164,
205,
162,
183,
185,
157,
173,
170,
179,
151,
130,
174,
135,
161,
150,
155,
161,
148,
133,
123,
147,
152,
152,
144,
138,
128,
120,
129,
136,
110,
129,
114,
118,
118,
111,
113,
103,
95,
121,
100,
99,
117,
104,
83,
111,
83,
87,
83,
82,
100,
93,
81,
96,
93,
84,
84,
86,
92,
79,
83,
61,
91,
58,
73,
71,
71,
68,
64,
71,
63,
56,
61,
66,
69,
55,
73,
53,
54,
61,
52,
52,
38,
41,
42,
66,
58,
42,
36,
47,
40,
36,
34,
32,
30,
35,
37,
31,
35,
37,
32,
35,
23,
32,
37,
34,
31,
23,
26,
22,
20,
22,
16,
26,
20,
20,
12,
21,
12,
19,
25,
18,
12,
16,
10,
15,
14,
10,
17,
11,
13,
12,
11,
5,
12,
8,
6,
12,
5,
9,
5,
2,
9,
5,
4,
1,
2,
0,
2,
1,
1,
5,
2,
1,
0,
0,
0,
0,
0,
0,
0,
1,
0,
0,
0,
0,
1,
0,
0,
0,
0,
0,
0,
0,
0,
0,
0,
0,
0,
0,
0,
0,
0,
0,
0,
0,
1,
1,
0,
0,
0,
1,
0,
0,
0,
0,
0,
0,
0,
0,
0,
0,
0,
0,
0,
0,
0,
0,
0,
0,
0,
1,
0,
0,
0,
0,
0,
0,
0,
0,
0,
0,
0,
1,
0,
0,
0,
0,
0,
0,
0,
0,
0,
0,
0,
0,
0,
0,
0,
0,
0,
0,
0,
0,
0,
0,
0,
0,
0,
0,
0,
0,
0,
0,
0,
1,
0,
0,
0,
0,
0,
0,
0,
0,
0,
0,
0,
0,
0,
0,
0,
0,
0,
0,
0,
0,
0,
0,
0,
0,
0,
0,
0,
0,
0,
0,
0,
0,
0,
0,
0,
0,
0,
0,
0,
0,
1,
0,
0,
0,
0,
0,
0,
0,
0,
0,
0,
0,
0,
0,
0,
0,
0,
0,
0,
0,
0,
0,
0,
0,
0,
0,
0,
0,
0,
0,
0,
0,
0,
0,
0,
0,
0,
0,
0,
0,
0,
0,
0,
0,
0,
0,
0,
0,
0,
0,
0,
0,
0,
0,
0,
0,
0,
0,
0,
0,
1,
0,
0,
0,
0,
0,
0,
0,
0,
0,
0,
0,
0,
0,
0,
0,
0,
0,
0,
0,
0,
0,
0,
0,
0,
0,
0,
0,
0,
0,
0,
0,
0,
0,
0,
0,
0,
0,
1,
0,
0,
0,
0,
0,
0,
0,
0,
0,
0,
0,
0,
0,
0,
0,
0,
0,
0,
0,
0,
0,
0,
0,
0,
0,
0,
0,
0,
0,
0,
0,
0,
0,
0,
0,
0,
0,
0,
0,
0,
0,
0,
0,
0,
0,
0,
0,
0,
0,
0,
0,
0,
0,
0,
0,
0,
0,
0,
0,
0,
0,
0,
0,
0,
0,
0,
0,
0,
0,
0,
0,
0,
0,
0,
0,
0,
0,
0,
0,
0,
0,
0,
0,
0,
0,
0,
0,
0,
0,
0,
0,
0,
0,
0,
0,
0,
0,
0,
0,
0,
0,
0,
0,
0,
0,
0,
0,
0,
0,
0,
0,
0,
0,
0,
0,
0,
0,
0,
0,
0,
0,
0,
0,
0,
0,
0,
0,
0,
0,
0,
0,
0,
0,
0,
0,
0,
0,
0,
0,
0,
0,
0,
0,
0,
0,
0,
0,
0,
0,
0,
0,
0,
0,
0,
0,
0,
0,
0,
0,
0,
0,
0,
0,
0,
0,
0,
0,
0,
0,
0,
0,
0,
0,
0,
0,
0,
0,
0,
0,
0,
0,
0,
0,
0,
0,
0,
0,
0,
0,
0,
0,
0,
0,
0,
0,
0,
0,
0,
0,
0,
0,
0,
0,
0,
0,
0,
0,
0,
0,
0,
0,
0,
0,
0,
0,
0,
0,
0,
0,
0,
0,
0,
0,
0,
0,
0,
0,
0,
0,
0,
0,
0,
0,
0,
0,
0,
0,
0,
0,
0,
0,
0,
0,
0,
0,
0,
0,
0,
0,
0,
0,
0,
0,
0,
0,
0,
0,
0,
0,
0,
0,
0,
0,
0,
0,
0,
0,
0,
0,
0,
0,
0,
0,
0,
0,
0,
0,
0,
0,
0,
0,
0,
0,
0,
0,
0,
0,
0,
0,
0,
0,
0,
0,
0,
0,
0,
0,
0,
0,
0,
0,
0,
0,
0,
0,
0,
0,
0,
0,
0,
0,
0,
0,
0,
0,
0,
0,
0,
0,
0,
0,
0,
0,
0,
0,
0,
0,
0,
0,
0,
0,
0,
0,
0,
0,
0,
0,
0,
0,
0,
0,
0,
0,
0,
0,
0,
0,
0,
0,
0,
0,
0,
0,
0,
0,
0,
0,
0,
0,
0,
0,
0,
0,
0,
0,
0,
0,
0,
0,
0,
0,
0,
0,
0,
0,
0,
0,
0,
0,
0,
0,
0,
0,
0,
0,
0,
0,
0,
0,
0,
0,
0,
0,
0,
0,
0,
0,
0,
0,
0,
0,
0,
0,
0,
0,
0,
0,
0,
0,
0,
0,
0,
0,
0,
0,
0,
0,
0,
0,
0,
0,
0,
0,
0,
0,
0,
0,
0,
0,
0,
0,
0,
0,
0,
0,
0,
0,
0,
0,
0,
0,
0,
0,
0,
0,
0,
0,
0,
0,
0,
0,
0,
0,
0,
0,
0,
0,
0,
0,
0,
0,
0,
0,
0,
0,
0,
0,
0,
0,
0,
0,
0,
0,
0,
0,
0,
0,
0,
0,
0,
0,
0,
0,
0,
0,
0,
0,
0,
0,
0,
0,
0,
0,
0,
0,
0,
0,
0,
0,
0,
0,
0,
0,
0,
0,
0,
0,
0,
0,
0,
0,
0,
0,
0,
0,
0,
0,
0,
0,
0,
0,
0,
0,
0,
0,
0,
0,
0,
0,
0,
0,
0,
0,
0,
0,
0,
0,
0,
0,
0,
0,
0,
0,
0,
0,
0,
0,
0,
0,
0,
0,
0,
0,
0,
0,
0,
0,
0,
0,
0,
0,
0,
0,
0,
0,
0,
0,
0,
0,
0,
0,
0,
0,
0,
0,
0,
0,
0,
0,
0,
0,
0,
0,
0,
0,
0,
0,
0,
0,
0,
0,
0,
0,
0,
0,
0,
0,
0,
0,
0,
0,
0,
0,
0,
0,
0,
0,
0,
0,
0,
0,
0,
0,
0,
0,
0,
0,
0,
0,
0,
0,
0,
0,
0,
#ENDOFDATA   :