File: N132962/Quantification/15 keV/Mengason MM2/MMM2 Sphene[7][4].msa
#FORMAT      : EMSA/MAS Spectral Data File
#VERSION     : 1.0
#TITLE       : MMM2 Sphene[7][all]
#DATE        : 28-SEP-2025
#TIME        : 22:06
#OWNER       : Unknown
#NPOINTS     : 4096
#NCOLUMNS    : 1
#XUNITS      : eV
#YUNITS      : counts
#DATATYPE    : Y
#XPERCHAN    : 9.99778
#OFFSET      : 1.69135
#BEAMKV      : 15
#SIGNALTYPE  : EDS
#ELEVANGLE   : 35
#AZIMANGLE   : 0
#LIVETIME    : 240.128
#REALTIME    : 253.353
#PROBECUR    : 1.21223
#TAUWIND     : 0
#TDEADLYR    : 0
#TACTLYR     : 0.045
#TALWIND     : 0.025
#CHOFFSET    : 0.0
#XLABEL      : Energy (eV)
#YLABEL      : Counts
#XPOSITION   : -11.20105
#YPOSITION   : -1.87133
#ZPOSITION   : 34.11879
#EDSDET      : SD
##SPECIMEN   : MMM2 Sphene[7][all]
##DET_HASH   : 12273538-fd48-a23f-0a19-f1e6fa85caef
##CALIB_HASH : 6abaa72c-aa41-8738-0be9-f592914732f3
##WORKING    : 15.0 mm
##DET_NAME   : EDAX All
##DET_MODE   : MediumLE
#SPECTRUM    :
20,
21,
11,
12,
128,
439,
1455,
4784,
14078,
20257,
14262,
9066,
9190,
10836,
12171,
20148,
53339,
96257,
70029,
19257,
3619,
2478,
2867,
3273,
3255,
2987,
3008,
3079,
3383,
3550,
3517,
3812,
3835,
3934,
4220,
4352,
4398,
4462,
4545,
4710,
4716,
4849,
4859,
5001,
5090,
4934,
5212,
5725,
7600,
10431,
10676,
7989,
6198,
5754,
6305,
11708,
37114,
90908,
121503,
86487,
36168,
13997,
7718,
5209,
4548,
4378,
4102,
3872,
3670,
3553,
3584,
3626,
3773,
3821,
3719,
3667,
3687,
3373,
3341,
3293,
3180,
3168,
3070,
3163,
3004,
3103,
2942,
2970,
3012,
2991,
3052,
3112,
3145,
3155,
2939,
2794,
2733,
2628,
2821,
2639,
2624,
2646,
2607,
2447,
2487,
2610,
2509,
2520,
2526,
2448,
2443,
2457,
2343,
2365,
2342,
2431,
2529,
2802,
3408,
5407,
12577,
30966,
56704,
70813,
59370,
33825,
13670,
5081,
2719,
2448,
2853,
4052,
6644,
9179,
10188,
8320,
5276,
2898,
2099,
1865,
1710,
1732,
1788,
1882,
2051,
2268,
3775,
8494,
19949,
36588,
47591,
44858,
29844,
14354,
5678,
2503,
1580,
1564,
1647,
1692,
1902,
2518,
3886,
5924,
7452,
7222,
5445,
3410,
2146,
1516,
1321,
1255,
1215,
1249,
1216,
1240,
1164,
1233,
1237,
1207,
1230,
1236,
1298,
1205,
1128,
1186,
1100,
1115,
1099,
1053,
1081,
1056,
1091,
1019,
1035,
1102,
1044,
1051,
1042,
961,
1037,
953,
947,
866,
991,
948,
942,
984,
1047,
1031,
1034,
1144,
1296,
1387,
1337,
1203,
1019,
882,
923,
805,
843,
857,
866,
775,
783,
781,
811,
781,
788,
777,
716,
774,
768,
836,
763,
803,
773,
764,
709,
713,
656,
710,
713,
725,
623,
708,
713,
677,
722,
666,
654,
622,
610,
639,
642,
628,
602,
628,
663,
599,
607,
608,
618,
592,
559,
576,
532,
547,
536,
547,
555,
556,
565,
531,
557,
569,
593,
471,
528,
504,
537,
473,
516,
495,
457,
472,
483,
454,
489,
477,
483,
435,
488,
469,
429,
485,
437,
405,
426,
408,
402,
465,
433,
435,
443,
380,
349,
386,
404,
380,
349,
374,
412,
388,
356,
357,
390,
334,
357,
347,
341,
344,
332,
322,
339,
343,
304,
350,
328,
334,
343,
306,
322,
285,
304,
328,
297,
285,
300,
280,
302,
295,
299,
299,
277,
244,
268,
241,
265,
269,
275,
251,
246,
228,
236,
222,
236,
226,
226,
195,
241,
231,
222,
228,
197,
231,
235,
222,
224,
205,
226,
201,
216,
205,
192,
201,
161,
143,
186,
184,
189,
179,
195,
169,
158,
178,
173,
167,
155,
157,
136,
137,
154,
145,
142,
130,
125,
150,
112,
135,
133,
153,
141,
127,
128,
131,
131,
134,
121,
101,
120,
107,
133,
90,
123,
79,
85,
108,
90,
96,
96,
90,
83,
92,
102,
103,
75,
80,
71,
81,
68,
63,
86,
61,
64,
86,
74,
60,
71,
75,
74,
74,
58,
55,
55,
69,
69,
46,
63,
51,
51,
48,
42,
37,
48,
41,
37,
49,
43,
35,
37,
44,
42,
34,
34,
28,
30,
28,
35,
24,
29,
16,
23,
24,
26,
28,
22,
29,
12,
20,
27,
11,
14,
11,
12,
10,
11,
9,
12,
10,
6,
12,
12,
7,
2,
7,
2,
2,
3,
1,
0,
3,
0,
0,
2,
0,
2,
1,
2,
2,
0,
0,
2,
0,
0,
0,
2,
3,
0,
0,
0,
0,
0,
1,
1,
2,
0,
1,
0,
2,
0,
0,
1,
0,
0,
0,
0,
0,
0,
1,
0,
0,
0,
0,
1,
0,
0,
1,
0,
0,
0,
0,
0,
1,
0,
0,
1,
0,
1,
0,
0,
0,
0,
0,
0,
0,
0,
0,
0,
0,
0,
0,
0,
1,
0,
0,
0,
0,
0,
0,
1,
1,
0,
0,
0,
1,
0,
0,
0,
0,
0,
1,
1,
0,
0,
0,
0,
2,
0,
1,
0,
0,
1,
0,
0,
0,
0,
0,
0,
0,
0,
0,
0,
2,
0,
0,
0,
0,
0,
0,
0,
0,
0,
0,
0,
0,
0,
0,
0,
0,
0,
0,
0,
0,
0,
0,
0,
0,
0,
0,
0,
0,
0,
0,
0,
0,
0,
0,
0,
0,
0,
0,
0,
0,
0,
0,
0,
0,
0,
0,
0,
0,
0,
0,
0,
0,
0,
0,
0,
0,
0,
0,
0,
0,
0,
0,
0,
0,
0,
0,
0,
0,
0,
0,
0,
0,
0,
0,
0,
0,
0,
0,
0,
0,
0,
0,
0,
0,
0,
0,
0,
0,
0,
0,
0,
0,
0,
0,
0,
0,
0,
0,
0,
0,
0,
0,
0,
0,
0,
0,
0,
0,
0,
0,
0,
0,
0,
0,
0,
0,
0,
0,
0,
0,
0,
0,
0,
0,
0,
0,
0,
0,
0,
0,
0,
0,
0,
0,
0,
0,
0,
0,
0,
0,
0,
0,
0,
0,
0,
0,
0,
0,
0,
0,
0,
0,
0,
0,
0,
0,
0,
0,
0,
0,
0,
0,
0,
0,
0,
0,
0,
0,
0,
0,
0,
0,
0,
0,
0,
0,
0,
0,
0,
0,
0,
0,
0,
0,
0,
0,
0,
0,
0,
0,
0,
0,
0,
0,
0,
0,
0,
0,
0,
0,
0,
0,
0,
0,
0,
0,
0,
0,
0,
0,
0,
0,
0,
0,
0,
0,
0,
0,
0,
0,
0,
0,
0,
0,
0,
0,
0,
0,
0,
0,
0,
0,
0,
0,
0,
0,
0,
0,
0,
0,
0,
0,
0,
0,
0,
0,
0,
0,
0,
0,
0,
0,
0,
0,
0,
0,
0,
0,
0,
0,
0,
0,
0,
0,
0,
0,
0,
0,
0,
0,
0,
0,
0,
0,
0,
0,
0,
0,
0,
0,
0,
0,
0,
0,
0,
0,
0,
0,
0,
0,
0,
0,
0,
0,
0,
0,
0,
0,
0,
0,
0,
0,
0,
0,
0,
0,
0,
0,
0,
0,
0,
0,
0,
0,
0,
0,
0,
0,
0,
0,
0,
0,
0,
0,
0,
0,
0,
0,
0,
0,
0,
0,
0,
0,
0,
0,
0,
0,
0,
0,
0,
0,
0,
0,
0,
0,
0,
0,
0,
0,
0,
0,
0,
0,
0,
0,
0,
0,
0,
0,
0,
0,
0,
0,
0,
0,
0,
0,
0,
0,
0,
0,
0,
0,
0,
0,
0,
0,
0,
0,
0,
0,
0,
0,
0,
0,
0,
0,
0,
0,
0,
0,
0,
0,
0,
0,
0,
0,
0,
0,
0,
0,
0,
0,
0,
0,
0,
0,
0,
0,
0,
0,
0,
0,
0,
0,
0,
0,
0,
0,
0,
0,
0,
0,
0,
0,
0,
0,
0,
0,
0,
0,
0,
0,
0,
0,
0,
0,
0,
0,
0,
0,
0,
0,
0,
0,
0,
0,
0,
0,
0,
0,
0,
0,
0,
0,
0,
0,
0,
0,
0,
0,
0,
0,
0,
0,
0,
0,
0,
0,
0,
0,
0,
0,
0,
0,
0,
0,
0,
0,
0,
0,
0,
0,
0,
0,
0,
0,
0,
0,
0,
0,
0,
0,
0,
0,
0,
0,
0,
0,
0,
0,
0,
0,
0,
0,
0,
0,
0,
0,
0,
0,
0,
0,
0,
0,
0,
0,
0,
0,
0,
0,
0,
0,
0,
0,
0,
0,
0,
0,
0,
0,
0,
0,
0,
0,
0,
0,
0,
0,
0,
0,
0,
0,
0,
0,
0,
0,
0,
0,
0,
0,
0,
0,
0,
0,
0,
0,
0,
0,
0,
0,
0,
0,
0,
0,
0,
0,
0,
0,
0,
0,
0,
0,
0,
0,
0,
0,
0,
0,
0,
0,
0,
0,
0,
0,
0,
0,
0,
0,
0,
0,
0,
0,
0,
0,
0,
0,
0,
0,
0,
0,
0,
0,
0,
0,
0,
0,
0,
0,
0,
0,
0,
0,
0,
0,
0,
0,
0,
0,
0,
0,
0,
0,
0,
0,
0,
0,
0,
0,
0,
0,
0,
0,
0,
0,
0,
0,
0,
0,
0,
0,
0,
0,
0,
0,
0,
0,
0,
0,
0,
0,
0,
0,
0,
0,
0,
0,
0,
0,
0,
0,
0,
0,
0,
0,
0,
0,
0,
0,
0,
0,
0,
0,
0,
0,
0,
0,
0,
0,
0,
0,
0,
0,
0,
0,
0,
0,
0,
0,
0,
0,
0,
0,
0,
0,
0,
0,
0,
0,
0,
0,
0,
0,
0,
0,
0,
0,
0,
0,
0,
0,
0,
0,
0,
0,
0,
0,
0,
0,
0,
0,
0,
0,
0,
0,
0,
0,
0,
0,
0,
0,
0,
0,
0,
0,
0,
0,
0,
0,
0,
0,
0,
0,
0,
0,
0,
0,
0,
0,
0,
0,
#ENDOFDATA   :