File: N132962/Quantification/15 keV/Mengason MM2/MMM2 Spessartine[6][4].msa
#FORMAT      : EMSA/MAS Spectral Data File
#VERSION     : 1.0
#TITLE       : MMM2 Spessartine[6][all]
#DATE        : 29-SEP-2025
#TIME        : 00:51
#OWNER       : Unknown
#NPOINTS     : 4096
#NCOLUMNS    : 1
#XUNITS      : eV
#YUNITS      : counts
#DATATYPE    : Y
#XPERCHAN    : 9.99778
#OFFSET      : 1.69135
#BEAMKV      : 15
#SIGNALTYPE  : EDS
#ELEVANGLE   : 35
#AZIMANGLE   : 0
#LIVETIME    : 240.359
#REALTIME    : 256.804
#PROBECUR    : 1.21186
#TAUWIND     : 0
#TDEADLYR    : 0
#TACTLYR     : 0.045
#TALWIND     : 0.025
#CHOFFSET    : 0.0
#XLABEL      : Energy (eV)
#YLABEL      : Counts
#XPOSITION   : -19.71425
#YPOSITION   : 6.69259
#ZPOSITION   : 34.11879
#EDSDET      : SD
##SPECIMEN   : MMM2 Spessartine[6][all]
##DET_HASH   : 12273538-fd48-a23f-0a19-f1e6fa85caef
##CALIB_HASH : 6abaa72c-aa41-8738-0be9-f592914732f3
##WORKING    : 15.0 mm
##DET_NAME   : EDAX All
##DET_MODE   : MediumLE
#SPECTRUM    :
19,
23,
6,
27,
103,
444,
1373,
4303,
11929,
15366,
8413,
4843,
5029,
6505,
11708,
39311,
146089,
274753,
202683,
59434,
20808,
25639,
20695,
10134,
5223,
3527,
3073,
3100,
3240,
3380,
3405,
3484,
3745,
4076,
4421,
4590,
4391,
4337,
4511,
4537,
4674,
4953,
4977,
5122,
5433,
5584,
6716,
14152,
42146,
81800,
83705,
44515,
16046,
7414,
6355,
11563,
37943,
94132,
127386,
90635,
37603,
14061,
7524,
4929,
3734,
3623,
3738,
3783,
3720,
3405,
3277,
3196,
3192,
3443,
3552,
3627,
3679,
3357,
3201,
3197,
3162,
3104,
3141,
2995,
2986,
2966,
2923,
2960,
2940,
2895,
2923,
2817,
2791,
2823,
2766,
2768,
2766,
2776,
2779,
2624,
2715,
2555,
2575,
2567,
2512,
2564,
2688,
2589,
2511,
2459,
2486,
2508,
2397,
2455,
2375,
2339,
2419,
2371,
2360,
2271,
2281,
2584,
2811,
2999,
2880,
2551,
2208,
2162,
2103,
2023,
1974,
2012,
2133,
2058,
1982,
2018,
2075,
2068,
2038,
2031,
1977,
1841,
1813,
1757,
1744,
1720,
1791,
1665,
1677,
1738,
1748,
1677,
1636,
1582,
1608,
1594,
1565,
1560,
1576,
1562,
1539,
1524,
1494,
1576,
1493,
1478,
1438,
1432,
1458,
1465,
1463,
1425,
1370,
1397,
1321,
1275,
1361,
1314,
1303,
1244,
1271,
1370,
1276,
1218,
1264,
1281,
1312,
1249,
1324,
1272,
1482,
1899,
3618,
8245,
17394,
30918,
40349,
39773,
29724,
17055,
7859,
3182,
1648,
1176,
1184,
1148,
1050,
1089,
1134,
1173,
1465,
1857,
2536,
3656,
4827,
5927,
6428,
5846,
4339,
2790,
1683,
1161,
896,
853,
816,
820,
844,
795,
740,
788,
810,
833,
856,
869,
912,
897,
876,
815,
747,
729,
765,
777,
718,
722,
726,
728,
743,
701,
745,
692,
674,
739,
658,
727,
754,
669,
658,
662,
654,
621,
585,
669,
602,
601,
589,
622,
580,
590,
567,
574,
602,
592,
597,
599,
565,
552,
549,
533,
529,
516,
560,
512,
494,
544,
521,
472,
546,
509,
488,
492,
480,
487,
457,
477,
437,
468,
477,
446,
471,
431,
473,
417,
430,
427,
425,
431,
416,
433,
397,
369,
436,
392,
401,
372,
374,
402,
377,
368,
362,
363,
379,
375,
356,
363,
377,
348,
354,
336,
340,
310,
321,
362,
338,
332,
332,
311,
362,
302,
297,
295,
328,
321,
285,
281,
269,
290,
297,
286,
268,
265,
267,
255,
261,
277,
260,
256,
246,
256,
253,
212,
250,
263,
230,
214,
229,
223,
230,
236,
221,
230,
194,
198,
208,
187,
214,
193,
181,
177,
182,
177,
184,
174,
188,
165,
193,
155,
180,
190,
172,
168,
155,
171,
153,
161,
147,
162,
151,
142,
134,
170,
152,
121,
133,
153,
134,
140,
116,
121,
115,
110,
133,
118,
115,
116,
132,
93,
83,
121,
131,
108,
94,
95,
103,
96,
103,
85,
83,
102,
86,
73,
77,
94,
74,
76,
70,
84,
76,
78,
84,
68,
60,
53,
66,
62,
63,
52,
51,
50,
53,
58,
50,
65,
52,
68,
38,
51,
35,
41,
46,
51,
44,
42,
47,
32,
37,
42,
48,
40,
36,
25,
17,
25,
27,
29,
23,
16,
34,
13,
26,
22,
28,
13,
16,
12,
16,
20,
18,
14,
11,
5,
6,
8,
12,
6,
11,
1,
3,
0,
5,
2,
1,
0,
1,
0,
1,
0,
1,
0,
0,
1,
0,
0,
1,
0,
2,
1,
1,
0,
1,
1,
0,
1,
0,
0,
1,
2,
0,
0,
1,
1,
0,
0,
0,
0,
1,
0,
1,
0,
1,
1,
0,
0,
0,
1,
0,
0,
0,
0,
2,
1,
0,
2,
0,
0,
0,
0,
1,
0,
0,
0,
1,
0,
0,
0,
2,
0,
0,
1,
0,
1,
1,
0,
1,
0,
0,
0,
1,
0,
0,
0,
1,
0,
0,
1,
1,
0,
0,
0,
0,
0,
0,
0,
0,
0,
0,
0,
0,
0,
0,
0,
1,
0,
1,
0,
1,
1,
0,
0,
0,
1,
0,
1,
0,
0,
1,
0,
0,
0,
0,
1,
0,
0,
0,
0,
0,
0,
0,
0,
0,
1,
0,
0,
0,
0,
0,
0,
0,
0,
0,
1,
1,
0,
0,
0,
0,
0,
1,
0,
0,
0,
0,
0,
0,
0,
0,
0,
0,
0,
1,
0,
0,
0,
0,
0,
0,
0,
0,
0,
0,
0,
0,
0,
0,
0,
0,
1,
0,
0,
0,
0,
0,
0,
1,
0,
0,
0,
0,
0,
0,
0,
0,
0,
0,
0,
0,
0,
0,
0,
0,
0,
0,
0,
0,
0,
0,
0,
0,
0,
0,
0,
0,
0,
0,
0,
0,
0,
0,
0,
1,
0,
0,
0,
0,
0,
0,
0,
0,
0,
0,
0,
0,
0,
0,
0,
0,
0,
0,
0,
0,
0,
0,
0,
0,
0,
0,
0,
0,
0,
0,
0,
0,
0,
0,
0,
0,
0,
0,
0,
0,
0,
0,
0,
0,
0,
0,
0,
0,
0,
0,
0,
0,
0,
0,
0,
0,
0,
0,
0,
0,
0,
0,
0,
1,
0,
0,
0,
0,
0,
0,
0,
0,
0,
0,
1,
0,
0,
0,
0,
0,
0,
0,
0,
0,
0,
0,
0,
0,
0,
0,
0,
0,
0,
0,
0,
0,
0,
0,
0,
0,
0,
0,
0,
0,
0,
0,
0,
0,
0,
0,
0,
0,
0,
0,
0,
0,
0,
0,
0,
0,
0,
0,
0,
0,
0,
0,
0,
0,
0,
0,
0,
0,
0,
0,
0,
0,
0,
0,
0,
0,
0,
0,
0,
0,
0,
0,
0,
0,
0,
0,
0,
0,
0,
0,
0,
0,
0,
0,
0,
0,
0,
0,
0,
0,
0,
0,
0,
0,
0,
0,
0,
0,
0,
0,
0,
0,
0,
0,
0,
0,
0,
0,
0,
0,
0,
0,
0,
0,
0,
0,
0,
0,
0,
0,
0,
0,
0,
0,
0,
0,
0,
0,
0,
0,
0,
0,
0,
0,
0,
0,
0,
0,
0,
0,
0,
0,
0,
0,
0,
0,
0,
0,
0,
0,
0,
0,
0,
0,
0,
0,
0,
0,
0,
0,
0,
0,
0,
0,
0,
0,
0,
0,
0,
0,
0,
0,
0,
0,
0,
0,
0,
0,
0,
0,
0,
0,
0,
0,
0,
0,
0,
0,
0,
0,
0,
0,
0,
0,
0,
0,
0,
0,
0,
0,
0,
0,
0,
0,
0,
0,
0,
0,
0,
0,
0,
0,
0,
0,
0,
0,
0,
0,
0,
0,
0,
0,
0,
0,
0,
0,
0,
0,
0,
0,
0,
0,
0,
0,
0,
0,
0,
0,
0,
0,
0,
0,
0,
0,
0,
0,
0,
0,
0,
0,
0,
0,
0,
0,
0,
0,
0,
0,
0,
0,
0,
0,
0,
0,
0,
0,
0,
0,
0,
0,
0,
0,
0,
0,
0,
0,
0,
0,
0,
0,
0,
0,
0,
0,
0,
0,
0,
0,
0,
0,
0,
0,
0,
0,
0,
0,
0,
0,
0,
0,
0,
0,
0,
0,
0,
0,
0,
0,
0,
0,
0,
0,
0,
0,
0,
0,
0,
0,
0,
0,
0,
0,
0,
0,
0,
0,
0,
0,
0,
0,
0,
0,
0,
0,
0,
0,
0,
0,
0,
0,
0,
0,
0,
0,
0,
0,
0,
0,
0,
0,
0,
0,
0,
0,
0,
0,
0,
0,
0,
0,
0,
0,
0,
0,
0,
0,
0,
0,
0,
0,
0,
0,
0,
0,
0,
0,
0,
0,
0,
0,
0,
0,
0,
0,
0,
0,
0,
0,
0,
0,
0,
0,
0,
0,
0,
0,
0,
0,
0,
0,
0,
0,
0,
0,
0,
0,
0,
0,
0,
0,
0,
0,
0,
0,
0,
0,
0,
0,
0,
0,
0,
0,
0,
0,
0,
0,
0,
0,
0,
0,
0,
0,
0,
0,
0,
0,
0,
0,
0,
0,
0,
0,
0,
0,
0,
0,
0,
0,
0,
0,
0,
0,
0,
0,
0,
0,
0,
0,
0,
0,
0,
0,
0,
0,
0,
0,
0,
0,
0,
0,
0,
0,
0,
0,
0,
0,
0,
0,
0,
0,
0,
0,
0,
0,
0,
0,
0,
0,
0,
0,
0,
0,
0,
0,
0,
0,
0,
0,
0,
0,
0,
0,
0,
0,
0,
0,
0,
0,
0,
0,
0,
0,
0,
0,
0,
0,
0,
0,
0,
0,
0,
0,
0,
0,
0,
0,
0,
0,
0,
0,
0,
0,
0,
0,
0,
0,
0,
0,
0,
0,
0,
0,
0,
0,
0,
0,
0,
0,
0,
0,
0,
0,
0,
0,
0,
0,
0,
0,
0,
0,
0,
0,
0,
0,
0,
0,
0,
0,
0,
0,
0,
0,
0,
#ENDOFDATA   :