File: N132962/Quantification/15 keV/Mengason MM2/MMM2 Olivine[4][4].msa
#FORMAT      : EMSA/MAS Spectral Data File
#VERSION     : 1.0
#TITLE       : MMM2 Olivine[4][all]
#DATE        : 28-SEP-2025
#TIME        : 23:05
#OWNER       : Unknown
#NPOINTS     : 4096
#NCOLUMNS    : 1
#XUNITS      : eV
#YUNITS      : counts
#DATATYPE    : Y
#XPERCHAN    : 9.99778
#OFFSET      : 1.69135
#BEAMKV      : 15
#SIGNALTYPE  : EDS
#ELEVANGLE   : 35
#AZIMANGLE   : 0
#LIVETIME    : 240.276
#REALTIME    : 258.138
#PROBECUR    : 1.2132
#TAUWIND     : 0
#TDEADLYR    : 0
#TACTLYR     : 0.045
#TALWIND     : 0.025
#CHOFFSET    : 0.0
#XLABEL      : Energy (eV)
#YLABEL      : Counts
#XPOSITION   : -21.2305
#YPOSITION   : 2.48482
#ZPOSITION   : 34.11879
#EDSDET      : SD
##SPECIMEN   : MMM2 Olivine[4][all]
##DET_HASH   : 12273538-fd48-a23f-0a19-f1e6fa85caef
##CALIB_HASH : 6abaa72c-aa41-8738-0be9-f592914732f3
##WORKING    : 15.0 mm
##DET_NAME   : EDAX All
##DET_MODE   : MediumLE
#SPECTRUM    :
28,
26,
10,
21,
89,
407,
1167,
3709,
10324,
13436,
7214,
3790,
4226,
5522,
10531,
38945,
147577,
282923,
205314,
53775,
8278,
4424,
6091,
10094,
9959,
6134,
4153,
4203,
4568,
4695,
4375,
4321,
4509,
4880,
5436,
5909,
5838,
6719,
8767,
21801,
85984,
217025,
261941,
145860,
41079,
8642,
4105,
3401,
3511,
3699,
3849,
3917,
3913,
4040,
4896,
11130,
41118,
102408,
140546,
99349,
40377,
14749,
7335,
4090,
2805,
2672,
2500,
2566,
2423,
2476,
2529,
2459,
2569,
2641,
2684,
3037,
2938,
2714,
2475,
2377,
2428,
2541,
2487,
2757,
2684,
2694,
2455,
2363,
2298,
2267,
2176,
2225,
2185,
2211,
2160,
2111,
2173,
2137,
2233,
2491,
2525,
2296,
2165,
1998,
1951,
1956,
1899,
1932,
1906,
1918,
1894,
1809,
1797,
1931,
1773,
1835,
1890,
1791,
1772,
1713,
1642,
1693,
1629,
1723,
1658,
1582,
1582,
1591,
1543,
1593,
1510,
1477,
1496,
1524,
1454,
1407,
1470,
1489,
1343,
1475,
1457,
1398,
1358,
1322,
1322,
1347,
1323,
1306,
1236,
1280,
1301,
1260,
1240,
1196,
1182,
1246,
1238,
1162,
1131,
1156,
1158,
1144,
1191,
1166,
1128,
1099,
1065,
1072,
1097,
1087,
1054,
1043,
1072,
985,
969,
1070,
1026,
979,
980,
960,
946,
942,
975,
896,
934,
923,
889,
934,
964,
934,
884,
931,
885,
901,
902,
888,
950,
977,
928,
892,
856,
809,
759,
783,
792,
743,
824,
790,
933,
1245,
2133,
3762,
5488,
6428,
5949,
4519,
2838,
1631,
927,
741,
680,
663,
689,
655,
664,
648,
686,
640,
665,
702,
665,
772,
890,
1070,
1210,
1370,
1265,
1037,
878,
643,
602,
584,
514,
565,
524,
563,
581,
639,
693,
704,
656,
615,
568,
521,
521,
500,
496,
484,
520,
446,
493,
424,
461,
499,
433,
454,
472,
404,
428,
468,
426,
421,
435,
436,
451,
423,
383,
418,
399,
391,
397,
381,
388,
376,
388,
362,
350,
368,
389,
334,
366,
340,
354,
328,
353,
309,
343,
355,
340,
338,
297,
306,
321,
316,
318,
287,
313,
304,
283,
296,
308,
314,
289,
268,
287,
278,
289,
236,
245,
257,
264,
305,
249,
263,
252,
271,
244,
247,
224,
251,
217,
242,
234,
224,
247,
231,
236,
208,
225,
210,
210,
255,
207,
197,
198,
195,
183,
183,
214,
233,
183,
179,
182,
184,
198,
188,
151,
175,
186,
170,
144,
158,
170,
188,
152,
148,
167,
139,
139,
157,
163,
162,
154,
143,
135,
135,
131,
143,
121,
133,
146,
114,
124,
138,
114,
118,
121,
129,
125,
117,
129,
91,
123,
116,
100,
111,
115,
99,
98,
92,
90,
93,
93,
91,
79,
96,
79,
81,
76,
89,
83,
78,
91,
68,
76,
84,
75,
84,
72,
75,
70,
73,
72,
67,
71,
64,
74,
63,
61,
61,
43,
51,
60,
62,
50,
41,
60,
44,
48,
48,
36,
41,
53,
33,
42,
44,
34,
29,
31,
36,
49,
29,
42,
34,
27,
24,
39,
24,
27,
29,
32,
34,
34,
30,
18,
26,
22,
23,
20,
16,
21,
17,
26,
13,
12,
15,
14,
9,
19,
18,
8,
8,
13,
10,
4,
11,
13,
9,
8,
5,
5,
4,
6,
3,
3,
3,
3,
1,
2,
3,
3,
2,
0,
0,
0,
0,
0,
0,
0,
0,
0,
0,
0,
0,
0,
0,
0,
0,
0,
0,
0,
0,
1,
0,
1,
0,
1,
0,
0,
0,
1,
0,
0,
0,
0,
0,
0,
0,
0,
0,
0,
0,
0,
1,
0,
1,
0,
0,
0,
0,
0,
0,
0,
0,
0,
0,
0,
0,
0,
0,
0,
0,
0,
0,
0,
0,
0,
0,
0,
0,
0,
0,
0,
0,
0,
0,
0,
1,
0,
1,
0,
0,
0,
0,
1,
0,
0,
0,
0,
1,
0,
0,
0,
0,
0,
0,
0,
0,
0,
0,
0,
0,
0,
0,
0,
0,
0,
0,
0,
0,
0,
0,
1,
0,
0,
0,
0,
0,
0,
0,
0,
0,
0,
0,
0,
0,
0,
0,
0,
0,
0,
0,
0,
0,
0,
0,
0,
0,
0,
0,
0,
0,
0,
0,
0,
0,
0,
0,
0,
0,
0,
0,
0,
0,
0,
0,
0,
0,
0,
0,
0,
0,
0,
0,
0,
0,
0,
0,
0,
0,
0,
0,
0,
0,
0,
1,
0,
0,
0,
0,
0,
0,
0,
0,
0,
0,
0,
0,
0,
0,
0,
0,
0,
0,
0,
0,
0,
0,
0,
0,
0,
0,
0,
0,
0,
0,
0,
0,
0,
0,
0,
0,
0,
0,
0,
0,
0,
0,
0,
0,
0,
0,
0,
0,
0,
0,
0,
0,
0,
0,
0,
0,
0,
0,
0,
0,
0,
0,
0,
0,
0,
0,
0,
0,
0,
0,
0,
0,
0,
0,
0,
0,
0,
0,
0,
0,
0,
0,
0,
0,
0,
0,
0,
0,
0,
0,
0,
0,
0,
0,
0,
0,
0,
0,
0,
1,
0,
0,
0,
0,
0,
0,
0,
0,
0,
0,
0,
0,
0,
0,
0,
0,
0,
0,
0,
0,
0,
0,
0,
0,
0,
0,
0,
0,
0,
0,
0,
0,
0,
0,
0,
0,
0,
0,
0,
0,
0,
0,
0,
0,
0,
0,
0,
0,
0,
0,
0,
0,
0,
0,
0,
0,
0,
0,
0,
0,
0,
0,
0,
0,
0,
0,
0,
0,
0,
0,
0,
0,
0,
0,
0,
0,
0,
0,
0,
0,
0,
0,
0,
0,
0,
0,
0,
0,
0,
0,
0,
0,
0,
0,
0,
0,
0,
0,
0,
0,
0,
0,
0,
0,
0,
0,
0,
0,
0,
0,
0,
0,
0,
0,
0,
0,
0,
0,
0,
0,
0,
0,
0,
0,
0,
0,
0,
0,
0,
0,
0,
0,
0,
0,
0,
0,
0,
0,
0,
0,
0,
0,
0,
0,
0,
0,
0,
0,
0,
0,
0,
0,
0,
0,
0,
0,
0,
0,
0,
0,
0,
0,
0,
0,
0,
0,
0,
0,
0,
0,
0,
0,
0,
0,
0,
0,
0,
0,
0,
0,
0,
0,
0,
0,
0,
0,
0,
0,
0,
0,
0,
0,
0,
0,
0,
0,
0,
0,
0,
0,
0,
0,
0,
0,
0,
0,
0,
0,
0,
0,
0,
0,
0,
0,
0,
0,
0,
0,
0,
0,
0,
0,
0,
0,
0,
0,
0,
0,
0,
0,
0,
0,
0,
0,
0,
0,
0,
0,
0,
0,
0,
0,
0,
0,
0,
0,
0,
0,
0,
0,
0,
0,
0,
0,
0,
0,
0,
0,
0,
0,
0,
0,
0,
0,
0,
0,
0,
0,
0,
0,
0,
0,
0,
0,
0,
0,
0,
0,
0,
0,
0,
0,
0,
0,
0,
0,
0,
0,
0,
0,
0,
0,
0,
0,
0,
0,
0,
0,
0,
0,
0,
0,
0,
0,
0,
0,
0,
0,
0,
0,
0,
0,
0,
0,
0,
0,
0,
0,
0,
0,
0,
0,
0,
0,
0,
0,
0,
0,
0,
0,
0,
0,
0,
0,
0,
0,
0,
0,
0,
0,
0,
0,
0,
0,
0,
0,
0,
0,
0,
0,
0,
0,
0,
0,
0,
0,
0,
0,
0,
0,
0,
0,
0,
0,
0,
0,
0,
0,
0,
0,
0,
0,
0,
0,
0,
0,
0,
0,
0,
0,
0,
0,
0,
0,
0,
0,
0,
0,
0,
0,
0,
0,
0,
0,
0,
0,
0,
0,
0,
0,
0,
0,
0,
0,
0,
0,
0,
0,
0,
0,
0,
0,
0,
0,
0,
0,
0,
0,
0,
0,
0,
0,
0,
0,
0,
0,
0,
0,
0,
0,
0,
0,
0,
0,
0,
0,
0,
0,
0,
0,
0,
0,
0,
0,
0,
0,
0,
0,
0,
0,
0,
0,
0,
0,
0,
0,
0,
0,
0,
0,
0,
0,
0,
0,
0,
0,
0,
0,
0,
0,
0,
0,
0,
0,
0,
0,
0,
0,
0,
0,
0,
0,
0,
0,
0,
0,
0,
0,
0,
0,
0,
0,
0,
0,
0,
0,
0,
0,
0,
0,
0,
0,
0,
0,
0,
0,
0,
0,
0,
0,
0,
0,
0,
0,
0,
0,
0,
0,
0,
0,
0,
0,
0,
0,
0,
0,
0,
0,
0,
0,
0,
0,
0,
0,
0,
0,
0,
0,
0,
0,
0,
0,
0,
0,
0,
0,
0,
0,
0,
0,
0,
0,
0,
0,
0,
0,
0,
0,
0,
0,
0,
0,
0,
0,
0,
0,
0,
0,
0,
0,
0,
0,
0,
0,
0,
0,
0,
0,
0,
0,
0,
0,
0,
0,
0,
0,
0,
0,
0,
0,
#ENDOFDATA   :