File: N132962/Quantification/15 keV/Mengason MM2/MMM2 Pentlandite[1][4].msa
#FORMAT      : EMSA/MAS Spectral Data File
#VERSION     : 1.0
#TITLE       : MMM2 Pentlandite[1][all]
#DATE        : 28-SEP-2025
#TIME        : 21:39
#OWNER       : Unknown
#NPOINTS     : 4096
#NCOLUMNS    : 1
#XUNITS      : eV
#YUNITS      : counts
#DATATYPE    : Y
#XPERCHAN    : 9.99778
#OFFSET      : 1.69135
#BEAMKV      : 15
#SIGNALTYPE  : EDS
#ELEVANGLE   : 35
#AZIMANGLE   : 0
#LIVETIME    : 240.207
#REALTIME    : 257.775
#PROBECUR    : 1.21217
#TAUWIND     : 0
#TDEADLYR    : 0
#TACTLYR     : 0.045
#TALWIND     : 0.025
#CHOFFSET    : 0.0
#XLABEL      : Energy (eV)
#YLABEL      : Counts
#XPOSITION   : -15.89244
#YPOSITION   : -2.30549
#ZPOSITION   : 34.11879
#EDSDET      : SD
##SPECIMEN   : MMM2 Pentlandite[1][all]
##DET_HASH   : 12273538-fd48-a23f-0a19-f1e6fa85caef
##CALIB_HASH : 6abaa72c-aa41-8738-0be9-f592914732f3
##WORKING    : 15.0 mm
##DET_NAME   : EDAX All
##DET_MODE   : MediumLE
#SPECTRUM    :
26,
27,
11,
43,
315,
850,
1630,
5032,
14102,
17705,
9092,
3987,
3849,
4256,
4666,
5819,
7542,
10051,
13391,
18675,
23646,
25368,
37668,
63328,
59728,
32874,
24525,
49447,
87663,
73679,
29451,
9190,
5359,
4574,
4344,
4253,
4546,
4619,
4732,
4911,
4987,
5158,
5310,
5517,
5478,
5653,
5745,
5740,
5832,
5962,
6176,
5994,
6102,
5930,
6101,
6062,
6366,
6626,
6879,
6716,
6618,
6273,
5907,
5732,
5561,
5664,
5732,
5760,
5856,
5848,
5947,
6442,
8657,
13352,
28906,
76952,
154909,
193639,
140260,
62268,
22450,
16038,
17920,
15476,
9739,
5726,
4397,
3928,
3878,
3862,
3771,
3817,
3712,
3819,
3693,
3656,
3789,
3701,
3802,
3808,
3860,
3801,
3727,
3641,
3793,
3734,
3681,
3610,
3523,
3451,
3325,
3420,
3445,
3344,
3285,
3255,
3283,
3186,
3198,
3240,
3227,
3114,
3180,
3037,
3134,
3024,
2984,
3056,
2981,
2937,
2926,
3014,
2924,
2948,
2920,
2837,
2850,
2817,
2725,
2888,
2770,
2713,
2643,
2813,
2563,
2691,
2676,
2523,
2561,
2675,
2567,
2566,
2652,
2788,
2772,
2746,
2568,
2525,
2383,
2356,
2353,
2335,
2292,
2317,
2275,
2326,
2118,
2246,
2108,
2187,
2212,
2252,
2142,
2121,
2158,
2071,
2076,
2085,
2069,
2021,
2039,
2029,
1895,
1976,
1965,
1951,
1944,
1916,
1888,
1862,
1897,
1872,
1845,
1863,
1876,
1797,
1879,
1792,
1775,
1787,
1746,
1683,
1707,
1703,
1731,
1840,
1905,
1914,
2628,
4729,
9796,
18800,
28901,
35723,
32937,
24202,
13928,
6587,
3220,
1903,
1660,
1504,
1493,
1460,
1461,
1463,
1542,
1527,
1737,
1785,
2146,
2592,
3164,
4161,
5223,
5780,
5270,
4075,
2843,
2026,
1604,
1385,
1412,
1645,
2519,
4654,
9219,
15612,
21255,
23835,
20824,
14978,
8820,
4434,
2324,
1464,
1212,
1090,
1135,
1086,
1072,
1044,
1106,
993,
1024,
1044,
1046,
1038,
1087,
1080,
1178,
1481,
1943,
2643,
3460,
3906,
3779,
2972,
2335,
1526,
1152,
939,
852,
847,
827,
883,
783,
828,
812,
833,
831,
827,
838,
815,
773,
752,
721,
751,
750,
762,
742,
782,
752,
723,
754,
726,
687,
744,
673,
642,
676,
708,
656,
637,
656,
636,
642,
638,
633,
623,
626,
602,
584,
633,
627,
643,
639,
669,
595,
599,
565,
560,
570,
578,
543,
569,
492,
575,
536,
528,
485,
575,
478,
504,
486,
463,
449,
458,
480,
536,
484,
468,
474,
443,
456,
467,
419,
413,
415,
458,
430,
439,
375,
419,
405,
387,
389,
381,
372,
346,
383,
371,
380,
363,
332,
340,
388,
336,
327,
319,
325,
313,
321,
327,
332,
312,
306,
288,
311,
292,
277,
289,
281,
289,
283,
296,
283,
277,
255,
240,
238,
237,
248,
250,
248,
248,
242,
249,
228,
203,
228,
212,
225,
197,
225,
207,
193,
189,
191,
200,
184,
201,
189,
152,
174,
164,
176,
154,
167,
168,
168,
139,
133,
138,
148,
151,
121,
137,
114,
134,
127,
127,
121,
122,
101,
124,
119,
99,
103,
99,
95,
93,
103,
95,
85,
92,
99,
75,
91,
93,
94,
73,
82,
54,
67,
68,
58,
89,
52,
51,
71,
54,
46,
41,
58,
42,
54,
39,
41,
34,
36,
32,
29,
27,
46,
29,
22,
23,
18,
26,
15,
15,
15,
12,
11,
5,
9,
13,
2,
8,
9,
4,
6,
3,
3,
3,
2,
1,
1,
2,
2,
2,
0,
2,
1,
0,
2,
1,
2,
1,
1,
3,
1,
0,
3,
2,
1,
3,
2,
2,
2,
2,
2,
3,
0,
0,
1,
0,
1,
1,
1,
0,
0,
1,
0,
2,
0,
0,
1,
4,
0,
0,
0,
0,
0,
2,
1,
0,
0,
1,
1,
1,
3,
1,
2,
1,
1,
0,
0,
0,
1,
0,
1,
2,
1,
0,
0,
0,
1,
2,
1,
0,
1,
3,
2,
0,
1,
0,
0,
2,
1,
1,
0,
0,
0,
1,
1,
0,
1,
2,
0,
0,
0,
0,
1,
0,
1,
0,
0,
1,
0,
1,
1,
1,
2,
0,
1,
0,
0,
0,
1,
0,
1,
0,
3,
0,
0,
0,
0,
1,
2,
0,
0,
1,
1,
0,
1,
0,
0,
0,
0,
1,
1,
0,
0,
0,
0,
1,
0,
1,
0,
0,
0,
0,
1,
1,
0,
0,
0,
0,
0,
0,
0,
0,
0,
0,
1,
0,
0,
0,
1,
0,
0,
0,
0,
0,
0,
0,
0,
0,
2,
0,
0,
0,
0,
0,
0,
0,
0,
0,
1,
0,
0,
0,
0,
0,
0,
0,
0,
0,
0,
0,
0,
0,
0,
0,
0,
0,
0,
0,
0,
0,
0,
0,
0,
0,
0,
0,
0,
0,
0,
0,
0,
0,
0,
0,
0,
0,
0,
0,
0,
0,
0,
0,
0,
0,
0,
0,
0,
1,
0,
0,
0,
0,
0,
0,
0,
0,
0,
0,
0,
0,
0,
0,
0,
0,
0,
0,
0,
0,
0,
0,
0,
0,
0,
0,
0,
0,
0,
0,
0,
0,
0,
0,
0,
0,
0,
0,
0,
0,
0,
0,
0,
0,
0,
0,
0,
0,
0,
0,
0,
0,
0,
0,
0,
0,
0,
0,
0,
0,
0,
0,
0,
0,
0,
0,
0,
0,
0,
0,
0,
0,
0,
0,
0,
0,
0,
0,
0,
0,
0,
0,
0,
0,
0,
0,
0,
0,
0,
0,
0,
0,
0,
0,
0,
0,
0,
0,
0,
0,
0,
0,
0,
0,
0,
0,
0,
0,
0,
0,
0,
0,
0,
0,
0,
0,
0,
0,
0,
0,
0,
0,
0,
0,
0,
0,
0,
0,
0,
0,
0,
0,
0,
0,
0,
0,
0,
0,
0,
0,
0,
0,
0,
0,
0,
0,
0,
0,
0,
0,
0,
0,
0,
0,
0,
0,
0,
0,
0,
0,
0,
0,
0,
0,
0,
0,
0,
0,
0,
0,
0,
0,
0,
0,
0,
0,
0,
0,
0,
0,
0,
0,
0,
0,
0,
0,
0,
0,
0,
0,
0,
0,
0,
0,
0,
0,
0,
0,
0,
0,
0,
0,
0,
0,
0,
0,
0,
0,
0,
0,
0,
0,
0,
0,
0,
0,
0,
0,
0,
0,
0,
0,
0,
0,
0,
0,
0,
0,
0,
0,
0,
0,
0,
0,
0,
0,
0,
0,
0,
0,
0,
0,
0,
0,
0,
0,
0,
0,
0,
0,
0,
0,
0,
0,
0,
0,
0,
0,
0,
0,
0,
0,
0,
0,
0,
0,
0,
0,
0,
0,
0,
0,
0,
0,
0,
0,
0,
0,
0,
0,
0,
0,
0,
0,
0,
0,
0,
0,
0,
0,
0,
0,
0,
0,
0,
0,
0,
0,
0,
0,
0,
0,
0,
0,
0,
0,
0,
0,
0,
0,
0,
0,
0,
0,
0,
0,
0,
0,
0,
0,
0,
0,
0,
0,
0,
0,
0,
0,
0,
0,
0,
0,
0,
0,
0,
0,
0,
0,
0,
0,
0,
0,
0,
0,
0,
0,
0,
0,
0,
0,
0,
0,
0,
0,
0,
0,
0,
0,
0,
0,
0,
0,
0,
0,
0,
0,
0,
0,
0,
0,
0,
0,
0,
0,
0,
0,
0,
0,
0,
0,
0,
0,
0,
0,
0,
0,
0,
0,
0,
0,
0,
0,
0,
0,
0,
0,
0,
0,
0,
0,
0,
0,
0,
0,
0,
0,
0,
0,
0,
0,
0,
0,
0,
0,
0,
0,
0,
0,
0,
0,
0,
0,
0,
0,
0,
0,
0,
0,
0,
0,
0,
0,
0,
0,
0,
0,
0,
0,
0,
0,
0,
0,
0,
0,
0,
0,
0,
0,
0,
0,
0,
0,
0,
0,
0,
0,
0,
0,
0,
0,
0,
0,
0,
0,
0,
0,
0,
0,
0,
0,
0,
0,
0,
0,
0,
0,
0,
0,
0,
0,
0,
0,
0,
0,
0,
0,
0,
0,
0,
0,
0,
0,
0,
0,
0,
0,
0,
0,
0,
0,
0,
0,
0,
0,
0,
0,
0,
0,
0,
0,
0,
0,
0,
0,
0,
0,
0,
0,
0,
0,
0,
0,
0,
0,
0,
0,
0,
0,
0,
0,
0,
0,
0,
0,
0,
0,
0,
0,
0,
0,
0,
0,
0,
0,
0,
0,
0,
0,
0,
0,
0,
0,
0,
0,
0,
0,
0,
0,
0,
0,
0,
0,
0,
0,
0,
0,
0,
0,
0,
0,
0,
0,
0,
0,
0,
0,
0,
0,
0,
0,
0,
0,
0,
0,
0,
0,
0,
0,
0,
0,
0,
0,
0,
0,
0,
0,
0,
0,
0,
0,
0,
0,
0,
0,
0,
0,
0,
0,
0,
0,
0,
0,
0,
0,
0,
0,
0,
0,
0,
0,
0,
0,
0,
0,
0,
0,
#ENDOFDATA   :