File: N132962/Quantification/15 keV/Mengason MM2/MMM2 Willemite[2][4].msa
#FORMAT      : EMSA/MAS Spectral Data File
#VERSION     : 1.0
#TITLE       : MMM2 Willemite[2][all]
#DATE        : 28-SEP-2025
#TIME        : 23:45
#OWNER       : Unknown
#NPOINTS     : 4096
#NCOLUMNS    : 1
#XUNITS      : eV
#YUNITS      : counts
#DATATYPE    : Y
#XPERCHAN    : 9.99778
#OFFSET      : 1.69135
#BEAMKV      : 15
#SIGNALTYPE  : EDS
#ELEVANGLE   : 35
#AZIMANGLE   : 0
#LIVETIME    : 240.065
#REALTIME    : 258.088
#PROBECUR    : 1.21079
#TAUWIND     : 0
#TDEADLYR    : 0
#TACTLYR     : 0.045
#TALWIND     : 0.025
#CHOFFSET    : 0.0
#XLABEL      : Energy (eV)
#YLABEL      : Counts
#XPOSITION   : -11.52868
#YPOSITION   : 2.26098
#ZPOSITION   : 34.11879
#EDSDET      : SD
##SPECIMEN   : MMM2 Willemite[2][all]
##DET_HASH   : 12273538-fd48-a23f-0a19-f1e6fa85caef
##CALIB_HASH : 6abaa72c-aa41-8738-0be9-f592914732f3
##WORKING    : 15.0 mm
##DET_NAME   : EDAX All
##DET_MODE   : MediumLE
#SPECTRUM    :
19,
23,
5,
26,
139,
508,
1579,
5255,
14922,
19152,
9860,
5050,
5240,
6185,
9676,
27781,
94984,
177270,
128896,
37101,
9984,
9433,
8532,
6942,
6550,
6706,
7262,
9223,
15108,
23465,
25388,
30294,
85206,
213788,
264760,
152510,
45692,
11500,
5505,
4331,
4654,
5653,
6235,
5295,
4508,
4450,
4410,
4649,
4814,
5327,
5486,
5732,
5621,
5321,
5656,
9463,
27650,
65181,
87330,
62341,
27329,
11618,
6977,
5189,
4352,
4132,
4219,
4591,
4472,
4268,
4045,
3938,
3905,
4024,
4123,
4024,
3963,
4066,
3957,
3884,
3888,
3749,
3848,
3800,
3800,
3710,
3752,
3744,
3726,
3783,
3685,
3777,
4011,
3771,
3648,
3416,
3445,
3416,
3328,
3314,
3288,
3328,
3246,
3176,
3203,
3272,
3181,
3181,
3096,
3088,
3109,
3094,
3011,
3022,
3011,
2919,
2977,
2953,
2926,
2832,
2698,
2786,
2747,
2817,
2807,
2764,
2778,
2638,
2776,
2611,
2563,
2568,
2645,
2614,
2609,
2557,
2482,
2518,
2528,
2358,
2433,
2380,
2433,
2364,
2356,
2316,
2215,
2160,
2399,
2265,
2195,
2102,
2151,
2171,
2056,
2168,
2127,
2113,
2096,
2095,
2152,
2099,
2017,
2059,
1961,
1974,
1949,
1944,
1904,
1983,
1885,
1813,
1821,
1936,
1808,
1857,
1831,
1807,
1745,
1765,
1769,
1709,
1726,
1686,
1599,
1719,
1638,
1645,
1670,
1659,
1638,
1642,
1881,
2467,
3634,
5111,
6425,
6402,
4997,
3501,
2374,
1722,
1562,
1423,
1403,
1444,
1397,
1419,
1508,
1398,
1431,
1383,
1493,
1543,
1734,
1957,
1983,
1938,
1679,
1550,
1350,
1263,
1219,
1148,
1229,
1200,
1229,
1266,
1187,
1289,
1201,
1176,
1142,
1147,
1129,
1082,
1131,
1113,
1108,
1037,
1072,
988,
1073,
1030,
1010,
1015,
955,
1042,
1019,
1042,
1048,
1014,
964,
935,
922,
959,
886,
919,
910,
947,
878,
855,
838,
865,
881,
858,
901,
863,
803,
830,
801,
735,
850,
848,
861,
830,
869,
865,
878,
787,
913,
1027,
1496,
2945,
5707,
9967,
14438,
17638,
18103,
14785,
10134,
5811,
3066,
1569,
973,
732,
724,
716,
668,
701,
711,
640,
717,
667,
643,
628,
667,
619,
625,
629,
611,
600,
670,
704,
879,
1173,
1655,
2351,
2825,
2964,
2642,
2004,
1476,
927,
729,
602,
533,
482,
500,
453,
467,
454,
459,
467,
455,
430,
450,
423,
447,
417,
467,
404,
435,
429,
424,
408,
416,
402,
371,
414,
370,
387,
361,
313,
356,
379,
384,
353,
389,
306,
358,
362,
351,
342,
345,
356,
348,
323,
289,
276,
299,
314,
297,
310,
295,
323,
274,
295,
308,
265,
269,
295,
258,
268,
270,
242,
287,
252,
256,
251,
239,
259,
217,
215,
217,
217,
222,
237,
217,
209,
224,
203,
201,
196,
207,
228,
184,
168,
185,
192,
178,
149,
180,
164,
186,
181,
160,
163,
154,
178,
151,
158,
156,
128,
123,
143,
147,
143,
134,
115,
109,
113,
132,
123,
110,
129,
101,
99,
94,
96,
109,
121,
96,
98,
103,
93,
77,
92,
93,
100,
93,
79,
66,
73,
68,
71,
58,
75,
51,
65,
58,
65,
62,
44,
53,
58,
41,
65,
54,
42,
53,
44,
40,
28,
35,
29,
32,
26,
34,
35,
29,
32,
26,
29,
18,
29,
22,
17,
20,
14,
14,
14,
13,
13,
9,
9,
8,
7,
6,
3,
2,
2,
1,
4,
1,
1,
0,
1,
1,
1,
1,
2,
0,
0,
0,
3,
0,
2,
1,
2,
1,
0,
0,
0,
1,
1,
1,
0,
1,
3,
1,
2,
1,
0,
0,
0,
0,
1,
0,
0,
0,
2,
0,
0,
2,
1,
1,
0,
0,
2,
1,
0,
0,
0,
0,
0,
0,
1,
2,
0,
0,
0,
0,
1,
1,
0,
2,
0,
2,
1,
0,
0,
0,
2,
0,
2,
0,
0,
3,
2,
2,
1,
0,
0,
0,
0,
0,
0,
1,
0,
2,
0,
0,
1,
0,
0,
0,
0,
0,
0,
0,
0,
0,
0,
1,
1,
1,
0,
0,
0,
2,
2,
1,
0,
0,
1,
0,
1,
0,
1,
0,
1,
1,
0,
0,
0,
0,
1,
0,
0,
0,
0,
0,
0,
0,
1,
0,
0,
0,
0,
0,
0,
0,
0,
0,
0,
0,
1,
1,
0,
0,
0,
0,
0,
0,
1,
1,
0,
0,
0,
0,
0,
1,
0,
0,
1,
0,
0,
0,
0,
0,
0,
0,
0,
0,
0,
1,
0,
0,
0,
1,
0,
0,
0,
0,
0,
0,
0,
0,
0,
0,
0,
0,
0,
0,
0,
0,
0,
0,
0,
0,
0,
0,
0,
0,
0,
0,
0,
0,
0,
0,
0,
0,
0,
0,
0,
0,
0,
0,
0,
0,
0,
0,
0,
0,
0,
0,
0,
0,
0,
0,
0,
0,
0,
0,
0,
0,
1,
0,
0,
0,
0,
0,
0,
0,
0,
0,
0,
0,
0,
0,
0,
0,
0,
0,
0,
0,
0,
0,
0,
0,
0,
0,
0,
0,
0,
0,
0,
0,
0,
0,
0,
0,
0,
0,
1,
0,
0,
0,
0,
0,
0,
0,
0,
0,
0,
0,
0,
0,
0,
0,
0,
0,
0,
0,
0,
0,
0,
0,
0,
0,
0,
0,
0,
0,
0,
0,
0,
0,
0,
0,
0,
0,
0,
0,
0,
0,
0,
0,
0,
0,
0,
0,
0,
0,
0,
0,
0,
0,
0,
0,
0,
0,
0,
0,
0,
0,
0,
0,
0,
0,
0,
0,
0,
0,
0,
0,
0,
0,
0,
0,
0,
0,
0,
0,
0,
0,
0,
0,
0,
0,
0,
0,
0,
0,
0,
0,
0,
0,
0,
0,
0,
0,
0,
0,
0,
0,
0,
0,
0,
0,
0,
0,
0,
0,
0,
0,
0,
0,
0,
0,
0,
0,
0,
0,
0,
0,
0,
0,
0,
0,
0,
0,
0,
0,
0,
0,
0,
0,
0,
0,
0,
0,
0,
0,
0,
0,
0,
0,
0,
0,
0,
0,
0,
0,
0,
0,
0,
0,
0,
0,
0,
0,
0,
0,
0,
0,
0,
0,
0,
0,
0,
0,
0,
0,
0,
0,
0,
0,
0,
0,
0,
0,
0,
0,
0,
0,
0,
0,
0,
0,
0,
0,
0,
0,
0,
0,
0,
0,
0,
0,
0,
0,
0,
0,
0,
0,
0,
0,
0,
0,
0,
0,
0,
0,
0,
0,
0,
0,
0,
0,
0,
0,
0,
0,
0,
0,
0,
0,
0,
0,
0,
0,
0,
0,
0,
0,
0,
0,
0,
0,
0,
0,
0,
0,
0,
0,
0,
0,
0,
0,
0,
0,
0,
0,
0,
0,
0,
0,
0,
0,
0,
0,
0,
0,
0,
0,
0,
0,
0,
0,
0,
0,
0,
0,
0,
0,
0,
0,
0,
0,
0,
0,
0,
0,
0,
0,
0,
0,
0,
0,
0,
0,
0,
0,
0,
0,
0,
0,
0,
0,
0,
0,
0,
0,
0,
0,
0,
0,
0,
0,
0,
0,
0,
0,
0,
0,
0,
0,
0,
0,
0,
0,
0,
0,
0,
0,
0,
0,
0,
0,
0,
0,
0,
0,
0,
0,
0,
0,
0,
0,
0,
0,
0,
0,
0,
0,
0,
0,
0,
0,
0,
0,
0,
0,
0,
0,
0,
0,
0,
0,
0,
0,
0,
0,
0,
0,
0,
0,
0,
0,
0,
0,
0,
0,
0,
0,
0,
0,
0,
0,
0,
0,
0,
0,
0,
0,
0,
0,
0,
0,
0,
0,
0,
0,
0,
0,
0,
0,
0,
0,
0,
0,
0,
0,
0,
0,
0,
0,
0,
0,
0,
0,
0,
0,
0,
0,
0,
0,
0,
0,
0,
0,
0,
0,
0,
0,
0,
0,
0,
0,
0,
0,
0,
0,
0,
0,
0,
0,
0,
0,
0,
0,
0,
0,
0,
0,
0,
0,
0,
0,
0,
0,
0,
0,
0,
0,
0,
0,
0,
0,
0,
0,
0,
0,
0,
0,
0,
0,
0,
0,
0,
0,
0,
0,
0,
0,
0,
0,
0,
0,
0,
0,
0,
0,
0,
0,
0,
0,
0,
0,
0,
0,
0,
0,
0,
0,
0,
0,
0,
0,
0,
0,
0,
0,
0,
0,
0,
0,
0,
0,
0,
0,
0,
0,
0,
0,
0,
0,
0,
0,
0,
0,
0,
0,
0,
0,
0,
0,
0,
0,
0,
0,
0,
0,
0,
0,
0,
0,
0,
0,
0,
0,
0,
0,
0,
0,
0,
0,
0,
0,
0,
0,
0,
0,
0,
0,
0,
0,
0,
0,
0,
0,
0,
0,
0,
0,
0,
0,
0,
0,
0,
0,
0,
0,
0,
0,
0,
0,
0,
0,
0,
0,
0,
0,
0,
0,
0,
0,
0,
0,
0,
0,
0,
0,
0,
#ENDOFDATA   :