File: N132962/Quantification/15 keV/Mengason MM2/MMM2 Sphene[1][4].msa
#FORMAT      : EMSA/MAS Spectral Data File
#VERSION     : 1.0
#TITLE       : MMM2 Sphene[1][all]
#DATE        : 28-SEP-2025
#TIME        : 22:00
#OWNER       : Unknown
#NPOINTS     : 4096
#NCOLUMNS    : 1
#XUNITS      : eV
#YUNITS      : counts
#DATATYPE    : Y
#XPERCHAN    : 9.99778
#OFFSET      : 1.69135
#BEAMKV      : 15
#SIGNALTYPE  : EDS
#ELEVANGLE   : 35
#AZIMANGLE   : 0
#LIVETIME    : 240.127
#REALTIME    : 253.3473
#PROBECUR    : 1.21223
#TAUWIND     : 0
#TDEADLYR    : 0
#TACTLYR     : 0.045
#TALWIND     : 0.025
#CHOFFSET    : 0.0
#XLABEL      : Energy (eV)
#YLABEL      : Counts
#XPOSITION   : -11.18987
#YPOSITION   : -1.89398
#ZPOSITION   : 34.11879
#EDSDET      : SD
##SPECIMEN   : MMM2 Sphene[1][all]
##DET_HASH   : 12273538-fd48-a23f-0a19-f1e6fa85caef
##CALIB_HASH : 6abaa72c-aa41-8738-0be9-f592914732f3
##WORKING    : 15.0 mm
##DET_NAME   : EDAX All
##DET_MODE   : MediumLE
#SPECTRUM    :
20,
20,
9,
19,
91,
400,
1469,
4864,
13825,
20246,
14321,
9097,
9251,
10767,
12061,
20117,
53182,
96384,
69925,
18854,
3752,
2486,
2879,
3336,
3204,
2971,
2976,
3069,
3363,
3494,
3523,
3656,
3852,
3985,
4102,
4321,
4360,
4607,
4631,
4572,
4610,
4818,
4889,
4949,
4957,
5079,
5089,
5822,
7711,
10497,
10661,
8186,
6107,
5727,
6259,
11731,
37081,
90102,
121868,
86857,
36620,
13806,
7622,
5394,
4528,
4375,
4181,
3906,
3572,
3589,
3602,
3706,
3813,
3695,
3736,
3747,
3630,
3525,
3412,
3267,
3252,
3186,
3147,
3168,
3084,
2932,
3078,
2992,
2956,
3004,
3125,
3069,
3272,
3183,
2929,
2793,
2787,
2831,
2672,
2579,
2634,
2538,
2545,
2630,
2655,
2549,
2509,
2518,
2553,
2474,
2449,
2442,
2322,
2341,
2390,
2441,
2598,
2901,
3227,
5240,
12689,
30870,
56142,
71273,
60035,
34195,
13756,
5003,
2727,
2491,
2871,
4144,
6610,
9400,
10164,
8206,
5220,
3044,
2165,
1755,
1800,
1790,
1680,
1855,
1896,
2263,
3754,
8458,
19815,
36074,
47679,
44979,
29621,
14317,
5660,
2491,
1704,
1636,
1541,
1680,
1816,
2610,
4132,
5930,
7502,
7176,
5506,
3490,
2108,
1494,
1354,
1201,
1183,
1174,
1244,
1123,
1149,
1185,
1237,
1270,
1230,
1215,
1262,
1225,
1123,
1133,
1104,
1144,
1054,
1082,
1016,
995,
1050,
1037,
1034,
1086,
1070,
1019,
1014,
1032,
996,
968,
992,
958,
972,
920,
975,
962,
983,
982,
999,
1178,
1264,
1254,
1368,
1200,
1044,
948,
871,
879,
844,
822,
807,
864,
802,
806,
833,
771,
821,
786,
795,
792,
746,
783,
797,
813,
785,
708,
688,
668,
709,
688,
687,
728,
631,
712,
652,
653,
685,
657,
673,
673,
685,
592,
655,
651,
609,
601,
567,
622,
592,
644,
581,
588,
555,
580,
539,
555,
564,
546,
538,
596,
557,
539,
560,
505,
530,
563,
518,
567,
486,
507,
462,
524,
509,
526,
475,
483,
496,
523,
467,
443,
456,
449,
395,
427,
438,
427,
428,
452,
423,
410,
419,
435,
396,
390,
424,
417,
406,
380,
388,
377,
370,
350,
362,
365,
358,
345,
376,
357,
345,
369,
352,
321,
323,
351,
308,
314,
302,
326,
324,
342,
302,
308,
304,
299,
308,
303,
282,
309,
253,
299,
279,
276,
290,
271,
246,
279,
266,
239,
248,
277,
225,
226,
224,
237,
241,
227,
196,
247,
206,
225,
220,
241,
206,
216,
219,
199,
191,
203,
178,
209,
217,
214,
195,
181,
172,
187,
157,
179,
184,
176,
163,
160,
141,
151,
146,
163,
161,
169,
145,
137,
137,
148,
153,
125,
142,
135,
131,
133,
155,
136,
113,
156,
137,
124,
125,
133,
118,
97,
105,
100,
114,
96,
98,
110,
87,
85,
94,
100,
101,
87,
83,
97,
93,
75,
83,
85,
78,
68,
70,
88,
70,
71,
69,
70,
74,
64,
58,
75,
72,
69,
55,
51,
61,
66,
63,
51,
66,
47,
54,
45,
43,
43,
35,
42,
40,
27,
39,
44,
36,
34,
36,
31,
35,
29,
36,
34,
28,
22,
21,
22,
24,
21,
33,
20,
16,
16,
21,
16,
15,
14,
13,
14,
11,
11,
18,
12,
12,
11,
7,
9,
9,
7,
1,
3,
3,
1,
2,
0,
0,
1,
2,
0,
2,
0,
0,
1,
1,
1,
0,
0,
1,
0,
0,
0,
0,
0,
0,
1,
0,
0,
2,
0,
2,
0,
1,
1,
2,
0,
0,
0,
1,
0,
0,
0,
1,
0,
0,
0,
0,
1,
0,
1,
1,
0,
0,
1,
0,
0,
0,
0,
0,
0,
0,
0,
0,
0,
0,
0,
0,
0,
0,
0,
1,
0,
0,
0,
0,
0,
1,
0,
0,
1,
0,
0,
0,
0,
0,
1,
0,
0,
2,
0,
0,
0,
0,
0,
0,
0,
0,
0,
0,
0,
1,
0,
0,
0,
0,
0,
0,
0,
0,
0,
0,
1,
0,
1,
0,
0,
0,
0,
0,
0,
1,
0,
0,
1,
0,
0,
1,
1,
0,
0,
0,
0,
0,
0,
0,
0,
1,
0,
0,
0,
1,
0,
0,
0,
0,
0,
0,
0,
0,
0,
0,
0,
1,
0,
0,
0,
0,
0,
0,
0,
0,
0,
0,
0,
0,
0,
1,
0,
0,
0,
0,
0,
0,
0,
0,
0,
0,
0,
0,
0,
1,
0,
0,
0,
0,
0,
0,
0,
0,
0,
0,
0,
0,
0,
0,
0,
0,
0,
0,
0,
0,
0,
1,
0,
0,
0,
0,
0,
0,
0,
0,
0,
0,
0,
0,
0,
0,
0,
0,
0,
0,
0,
0,
0,
0,
0,
0,
0,
0,
0,
0,
0,
0,
0,
0,
0,
0,
0,
0,
0,
0,
0,
0,
0,
0,
0,
0,
0,
0,
0,
0,
0,
0,
0,
0,
0,
0,
0,
0,
0,
0,
0,
0,
0,
0,
0,
0,
0,
0,
0,
0,
0,
0,
0,
0,
0,
0,
0,
1,
0,
0,
0,
0,
0,
0,
0,
0,
0,
0,
0,
0,
0,
0,
0,
0,
0,
0,
0,
0,
0,
0,
0,
0,
0,
0,
0,
0,
0,
0,
0,
0,
0,
0,
0,
0,
0,
0,
0,
0,
0,
0,
0,
0,
0,
0,
0,
0,
0,
0,
0,
0,
0,
0,
0,
0,
0,
0,
0,
0,
0,
0,
0,
0,
0,
0,
0,
0,
0,
0,
0,
0,
0,
0,
0,
0,
0,
0,
0,
0,
0,
0,
0,
0,
0,
0,
0,
0,
0,
0,
0,
0,
0,
0,
0,
0,
0,
0,
0,
0,
0,
0,
0,
0,
0,
0,
0,
0,
0,
0,
0,
0,
0,
0,
0,
0,
0,
0,
0,
0,
0,
0,
0,
0,
0,
0,
0,
0,
0,
0,
0,
0,
0,
0,
0,
0,
0,
0,
0,
0,
0,
0,
0,
0,
0,
0,
0,
0,
0,
0,
0,
0,
0,
0,
0,
0,
0,
0,
0,
0,
0,
0,
0,
0,
0,
0,
0,
0,
0,
0,
0,
0,
0,
0,
0,
0,
0,
0,
0,
0,
0,
0,
0,
0,
0,
0,
0,
0,
0,
0,
0,
0,
0,
0,
0,
0,
0,
0,
0,
0,
0,
0,
0,
0,
0,
0,
0,
0,
0,
0,
0,
0,
0,
0,
0,
0,
0,
0,
0,
0,
0,
0,
0,
0,
0,
0,
0,
0,
0,
0,
0,
0,
0,
0,
0,
0,
0,
0,
0,
0,
0,
0,
0,
0,
0,
0,
0,
0,
0,
0,
0,
0,
0,
0,
0,
0,
0,
0,
0,
0,
0,
0,
0,
0,
0,
0,
0,
0,
0,
0,
0,
0,
0,
0,
0,
0,
0,
0,
0,
0,
0,
0,
0,
0,
0,
0,
0,
0,
0,
0,
0,
0,
0,
0,
0,
0,
0,
0,
0,
0,
0,
0,
0,
0,
0,
0,
0,
0,
0,
0,
0,
0,
0,
0,
0,
0,
0,
0,
0,
0,
0,
0,
0,
0,
0,
0,
0,
0,
0,
0,
0,
0,
0,
0,
0,
0,
0,
0,
0,
0,
0,
0,
0,
0,
0,
0,
0,
0,
0,
0,
0,
0,
0,
0,
0,
0,
0,
0,
0,
0,
0,
0,
0,
0,
0,
0,
0,
0,
0,
0,
0,
0,
0,
0,
0,
0,
0,
0,
0,
0,
0,
0,
0,
0,
0,
0,
0,
0,
0,
0,
0,
0,
0,
0,
0,
0,
0,
0,
0,
0,
0,
0,
0,
0,
0,
0,
0,
0,
0,
0,
0,
0,
0,
0,
0,
0,
0,
0,
0,
0,
0,
0,
0,
0,
0,
0,
0,
0,
0,
0,
0,
0,
0,
0,
0,
0,
0,
0,
0,
0,
0,
0,
0,
0,
0,
0,
0,
0,
0,
0,
0,
0,
0,
0,
0,
0,
0,
0,
0,
0,
0,
0,
0,
0,
0,
0,
0,
0,
0,
0,
0,
0,
0,
0,
0,
0,
0,
0,
0,
0,
0,
0,
0,
0,
0,
0,
0,
0,
0,
0,
0,
0,
0,
0,
0,
0,
0,
0,
0,
0,
0,
0,
0,
0,
0,
0,
0,
0,
0,
0,
0,
0,
0,
0,
0,
0,
0,
0,
0,
0,
0,
0,
0,
0,
0,
0,
0,
0,
0,
0,
0,
0,
0,
0,
0,
0,
0,
0,
0,
0,
0,
0,
0,
0,
0,
0,
0,
0,
0,
0,
0,
0,
0,
0,
0,
0,
0,
0,
0,
0,
0,
0,
0,
0,
0,
0,
0,
0,
0,
0,
0,
0,
0,
0,
0,
0,
0,
0,
0,
0,
0,
0,
0,
0,
0,
0,
0,
0,
0,
0,
0,
0,
0,
#ENDOFDATA   :