File: N132962/Quantification/15 keV/Mengason MM2/MMM2 Pentlandite[5][4].msa
#FORMAT      : EMSA/MAS Spectral Data File
#VERSION     : 1.0
#TITLE       : MMM2 Pentlandite[5][all]
#DATE        : 28-SEP-2025
#TIME        : 21:43
#OWNER       : Unknown
#NPOINTS     : 4096
#NCOLUMNS    : 1
#XUNITS      : eV
#YUNITS      : counts
#DATATYPE    : Y
#XPERCHAN    : 9.99778
#OFFSET      : 1.69135
#BEAMKV      : 15
#SIGNALTYPE  : EDS
#ELEVANGLE   : 35
#AZIMANGLE   : 0
#LIVETIME    : 240.265
#REALTIME    : 257.836
#PROBECUR    : 1.21217
#TAUWIND     : 0
#TDEADLYR    : 0
#TACTLYR     : 0.045
#TALWIND     : 0.025
#CHOFFSET    : 0.0
#XLABEL      : Energy (eV)
#YLABEL      : Counts
#XPOSITION   : -15.84654
#YPOSITION   : -2.40989
#ZPOSITION   : 34.11879
#EDSDET      : SD
##SPECIMEN   : MMM2 Pentlandite[5][all]
##DET_HASH   : 12273538-fd48-a23f-0a19-f1e6fa85caef
##CALIB_HASH : 6abaa72c-aa41-8738-0be9-f592914732f3
##WORKING    : 15.0 mm
##DET_NAME   : EDAX All
##DET_MODE   : MediumLE
#SPECTRUM    :
14,
29,
10,
44,
328,
848,
1610,
5073,
14106,
18120,
8990,
4097,
3750,
4136,
4785,
5706,
7549,
10280,
13361,
18389,
23846,
25391,
37621,
64084,
59639,
32987,
24568,
49497,
87436,
73546,
29265,
8978,
5301,
4522,
4312,
4292,
4574,
4519,
4856,
4951,
5168,
5163,
5342,
5498,
5656,
5609,
5695,
5805,
5861,
5992,
6103,
5965,
6046,
5999,
6078,
6077,
6221,
6694,
6907,
6804,
6665,
6059,
5822,
5666,
5544,
5524,
5793,
5729,
5927,
5822,
5897,
6551,
8472,
13472,
29376,
76314,
155033,
192455,
141218,
61998,
22535,
16504,
18032,
15191,
9830,
5747,
4386,
3975,
3830,
3852,
3834,
3777,
3843,
3788,
3706,
3664,
3906,
3730,
3784,
3794,
3783,
3779,
3656,
3769,
3673,
3716,
3706,
3552,
3488,
3362,
3504,
3407,
3384,
3361,
3200,
3345,
3187,
3218,
3124,
3129,
3168,
3049,
3089,
3097,
3093,
3072,
3001,
3055,
3020,
3012,
2954,
2921,
2894,
2965,
2817,
2874,
2805,
2731,
2825,
2754,
2802,
2761,
2660,
2648,
2619,
2600,
2633,
2560,
2660,
2521,
2593,
2543,
2624,
2707,
2747,
2762,
2617,
2557,
2435,
2455,
2318,
2310,
2314,
2402,
2254,
2282,
2266,
2156,
2268,
2152,
2155,
2175,
2238,
2158,
2156,
2119,
2074,
2041,
2014,
1975,
2099,
2071,
2009,
1946,
1961,
1975,
1891,
1910,
1864,
1990,
1987,
1909,
1960,
1930,
1828,
1831,
1837,
1771,
1730,
1778,
1747,
1777,
1669,
1764,
1695,
1717,
1822,
1989,
2571,
4641,
9824,
18778,
29077,
35407,
33135,
23999,
13746,
6544,
3148,
1926,
1540,
1483,
1518,
1540,
1471,
1461,
1541,
1532,
1612,
1840,
2040,
2519,
3117,
4264,
5494,
5730,
5157,
4044,
2897,
1988,
1521,
1337,
1383,
1605,
2533,
4766,
9302,
15320,
21483,
23750,
21123,
14832,
8837,
4453,
2306,
1480,
1157,
1157,
1111,
1044,
1045,
1021,
984,
1031,
1028,
1039,
1039,
1042,
1055,
1050,
1171,
1397,
1942,
2574,
3355,
3876,
3747,
3001,
2152,
1654,
1204,
965,
867,
822,
819,
839,
789,
866,
849,
770,
890,
815,
808,
834,
792,
779,
789,
734,
721,
700,
728,
711,
742,
668,
702,
693,
706,
728,
732,
683,
708,
720,
648,
670,
653,
594,
627,
652,
626,
628,
621,
617,
617,
598,
597,
615,
656,
574,
594,
561,
553,
565,
605,
529,
570,
584,
545,
514,
491,
499,
498,
494,
484,
461,
488,
481,
472,
493,
478,
513,
498,
403,
468,
460,
432,
437,
422,
420,
456,
408,
384,
397,
443,
385,
376,
436,
412,
374,
396,
341,
386,
349,
382,
332,
348,
335,
364,
350,
350,
357,
310,
277,
301,
287,
292,
313,
307,
313,
323,
281,
295,
266,
313,
274,
265,
252,
277,
259,
255,
235,
238,
270,
257,
231,
245,
242,
248,
194,
251,
212,
222,
221,
211,
190,
187,
216,
192,
201,
212,
193,
194,
173,
180,
172,
166,
173,
185,
155,
175,
142,
155,
156,
141,
145,
135,
151,
128,
161,
126,
154,
131,
109,
138,
107,
112,
108,
132,
101,
124,
86,
105,
114,
87,
96,
95,
86,
97,
88,
89,
79,
91,
80,
81,
80,
72,
53,
80,
66,
63,
56,
47,
59,
50,
43,
53,
40,
44,
55,
45,
39,
31,
35,
28,
32,
23,
20,
20,
30,
29,
22,
18,
14,
13,
17,
11,
12,
15,
11,
5,
4,
10,
1,
3,
3,
4,
4,
4,
0,
2,
3,
2,
4,
1,
2,
2,
4,
1,
2,
1,
1,
2,
3,
2,
1,
2,
3,
2,
2,
2,
2,
2,
3,
2,
0,
0,
1,
2,
2,
2,
4,
1,
0,
2,
0,
0,
0,
0,
2,
1,
1,
0,
1,
1,
2,
0,
1,
3,
1,
0,
1,
0,
0,
0,
0,
2,
3,
1,
0,
1,
0,
1,
1,
2,
1,
1,
0,
0,
1,
0,
0,
0,
1,
0,
1,
3,
1,
0,
1,
0,
2,
0,
0,
0,
1,
1,
2,
0,
0,
0,
2,
1,
0,
0,
0,
0,
1,
1,
1,
0,
1,
0,
0,
1,
0,
1,
0,
1,
1,
1,
0,
0,
0,
0,
0,
0,
0,
0,
0,
1,
0,
0,
0,
0,
0,
0,
1,
1,
0,
0,
1,
0,
0,
0,
0,
0,
0,
1,
0,
0,
0,
0,
0,
0,
1,
0,
0,
0,
1,
0,
0,
1,
0,
1,
0,
1,
1,
0,
0,
0,
0,
0,
0,
0,
0,
0,
1,
0,
2,
0,
0,
1,
1,
0,
0,
1,
0,
0,
0,
0,
0,
0,
0,
0,
0,
1,
0,
0,
1,
0,
0,
0,
0,
1,
0,
1,
0,
0,
1,
0,
0,
0,
0,
0,
0,
0,
0,
0,
0,
0,
0,
0,
0,
0,
0,
0,
0,
0,
0,
0,
0,
0,
0,
0,
0,
0,
0,
0,
0,
0,
0,
0,
0,
0,
0,
0,
0,
0,
0,
0,
0,
0,
0,
0,
0,
0,
0,
0,
0,
1,
0,
0,
0,
0,
0,
0,
0,
0,
0,
0,
0,
0,
0,
0,
0,
0,
0,
0,
0,
0,
0,
0,
0,
0,
0,
0,
0,
0,
0,
0,
0,
0,
0,
0,
0,
0,
0,
0,
0,
0,
0,
0,
0,
0,
0,
0,
0,
0,
0,
0,
0,
0,
0,
0,
0,
0,
0,
0,
0,
0,
0,
0,
0,
0,
0,
0,
0,
0,
0,
0,
0,
0,
0,
0,
0,
0,
0,
0,
0,
0,
0,
0,
0,
0,
0,
0,
0,
0,
0,
0,
0,
0,
0,
0,
0,
0,
0,
0,
0,
0,
0,
0,
0,
0,
0,
0,
0,
0,
0,
0,
0,
0,
0,
0,
0,
0,
0,
0,
0,
0,
0,
0,
0,
0,
0,
0,
0,
0,
0,
0,
0,
0,
0,
0,
0,
0,
0,
0,
0,
0,
0,
0,
0,
0,
0,
0,
0,
0,
0,
0,
0,
0,
0,
0,
0,
0,
0,
0,
0,
0,
0,
0,
0,
0,
0,
0,
0,
0,
0,
0,
0,
0,
0,
0,
0,
0,
0,
0,
0,
0,
0,
0,
0,
0,
0,
0,
0,
0,
0,
0,
0,
0,
0,
0,
0,
0,
0,
0,
0,
0,
0,
0,
0,
0,
0,
0,
0,
0,
0,
0,
0,
0,
0,
0,
0,
0,
0,
0,
0,
0,
0,
0,
0,
0,
0,
0,
0,
0,
0,
0,
0,
0,
0,
0,
0,
0,
0,
0,
0,
0,
0,
0,
0,
0,
0,
0,
0,
0,
0,
0,
0,
0,
0,
0,
0,
0,
0,
0,
0,
0,
0,
0,
0,
0,
0,
0,
0,
0,
0,
0,
0,
0,
0,
0,
0,
0,
0,
0,
0,
0,
0,
0,
0,
0,
0,
0,
0,
0,
0,
0,
0,
0,
0,
0,
0,
0,
0,
0,
0,
0,
0,
0,
0,
0,
0,
0,
0,
0,
0,
0,
0,
0,
0,
0,
0,
0,
0,
0,
0,
0,
0,
0,
0,
0,
0,
0,
0,
0,
0,
0,
0,
0,
0,
0,
0,
0,
0,
0,
0,
0,
0,
0,
0,
0,
0,
0,
0,
0,
0,
0,
0,
0,
0,
0,
0,
0,
0,
0,
0,
0,
0,
0,
0,
0,
0,
0,
0,
0,
0,
0,
0,
0,
0,
0,
0,
0,
0,
0,
0,
0,
0,
0,
0,
0,
0,
0,
0,
0,
0,
0,
0,
0,
0,
0,
0,
0,
0,
0,
0,
0,
0,
0,
0,
0,
0,
0,
0,
0,
0,
0,
0,
0,
0,
0,
0,
0,
0,
0,
0,
0,
0,
0,
0,
0,
0,
0,
0,
0,
0,
0,
0,
0,
0,
0,
0,
0,
0,
0,
0,
0,
0,
0,
0,
0,
0,
0,
0,
0,
0,
0,
0,
0,
0,
0,
0,
0,
0,
0,
0,
0,
0,
0,
0,
0,
0,
0,
0,
0,
0,
0,
0,
0,
0,
0,
0,
0,
0,
0,
0,
0,
0,
0,
0,
0,
0,
0,
0,
0,
0,
0,
0,
0,
0,
0,
0,
0,
0,
0,
0,
0,
0,
0,
0,
0,
0,
0,
0,
0,
0,
0,
0,
0,
0,
0,
0,
0,
0,
0,
0,
0,
0,
0,
0,
0,
0,
0,
0,
0,
0,
0,
0,
0,
0,
0,
0,
0,
0,
0,
0,
0,
0,
0,
0,
0,
0,
0,
0,
0,
0,
0,
0,
0,
0,
0,
0,
0,
0,
0,
0,
0,
0,
0,
0,
0,
0,
0,
0,
0,
0,
0,
0,
0,
0,
0,
0,
0,
0,
0,
0,
0,
0,
0,
0,
0,
0,
0,
0,
0,
0,
0,
0,
0,
0,
0,
0,
0,
0,
0,
0,
0,
0,
0,
0,
0,
0,
0,
0,
#ENDOFDATA   :