File: N132962/Quantification/15 keV/Mengason MM2/MMM2 MgAl2O4[0][4].msa
#FORMAT      : EMSA/MAS Spectral Data File
#VERSION     : 1.0
#TITLE       : MMM2 MgAl2O4[0][all]
#DATE        : 28-SEP-2025
#TIME        : 21:17
#OWNER       : Unknown
#NPOINTS     : 4096
#NCOLUMNS    : 1
#XUNITS      : eV
#YUNITS      : counts
#DATATYPE    : Y
#XPERCHAN    : 9.99778
#OFFSET      : 1.69135
#BEAMKV      : 15
#SIGNALTYPE  : EDS
#ELEVANGLE   : 35
#AZIMANGLE   : 0
#LIVETIME    : 240.474
#REALTIME    : 258.984
#PROBECUR    : 1.21217
#TAUWIND     : 0
#TDEADLYR    : 0
#TACTLYR     : 0.045
#TALWIND     : 0.025
#CHOFFSET    : 0.0
#XLABEL      : Energy (eV)
#YLABEL      : Counts
#XPOSITION   : -21.70278
#YPOSITION   : -2.76488
#ZPOSITION   : 34.11879
#EDSDET      : SD
##SPECIMEN   : MMM2 MgAl2O4[0][all]
##D2STDCMP   : MgAl2O4,(O:44.9839),(Mg:17.0844),(Al:37.9316)
##DET_HASH   : 12273538-fd48-a23f-0a19-f1e6fa85caef
##CALIB_HASH : 6abaa72c-aa41-8738-0be9-f592914732f3
##WORKING    : 15.0 mm
##DET_NAME   : EDAX All
##DET_MODE   : MediumLE
#SPECTRUM    :
25,
37,
7,
15,
94,
351,
1155,
3437,
10019,
12974,
6969,
3744,
3940,
5429,
10501,
39757,
152251,
289652,
209761,
54710,
7042,
2562,
2595,
2934,
3192,
3247,
3534,
3707,
3966,
4106,
4200,
4347,
4582,
5226,
5665,
5775,
5928,
6196,
7721,
15883,
54899,
134459,
160538,
91567,
28305,
9635,
10127,
35143,
130466,
269163,
272104,
138001,
40089,
10676,
4274,
2910,
2690,
2894,
3281,
3494,
3249,
2709,
2504,
2353,
2551,
2870,
3279,
3495,
3193,
2608,
2394,
2338,
2269,
2311,
2260,
2252,
2289,
2203,
2334,
2155,
2186,
2281,
2314,
2396,
2381,
2341,
2119,
2129,
2146,
2193,
2427,
2598,
2620,
2368,
2160,
2026,
1970,
2043,
2281,
2490,
2308,
2103,
1898,
1910,
1866,
1791,
1834,
1676,
1809,
1783,
1725,
1722,
1691,
1663,
1657,
1616,
1653,
1543,
1672,
1553,
1540,
1598,
1492,
1567,
1511,
1524,
1371,
1471,
1504,
1507,
1361,
1392,
1436,
1395,
1388,
1335,
1352,
1378,
1288,
1300,
1263,
1301,
1299,
1233,
1244,
1199,
1246,
1188,
1194,
1239,
1097,
1160,
1160,
1181,
1103,
1130,
1070,
1131,
1083,
1095,
1097,
1043,
1081,
1056,
1057,
1019,
1040,
964,
1036,
1029,
922,
961,
953,
918,
963,
1012,
960,
907,
888,
917,
873,
887,
899,
901,
835,
789,
803,
824,
768,
824,
843,
789,
857,
769,
807,
693,
792,
753,
746,
797,
742,
726,
705,
691,
758,
666,
734,
694,
665,
696,
686,
728,
684,
705,
681,
679,
642,
644,
641,
611,
643,
595,
644,
605,
554,
565,
511,
581,
613,
567,
563,
605,
543,
554,
529,
551,
569,
506,
523,
527,
481,
515,
496,
511,
475,
477,
479,
510,
493,
525,
494,
454,
466,
439,
464,
469,
430,
427,
444,
419,
440,
458,
456,
423,
436,
399,
389,
412,
394,
420,
411,
377,
382,
370,
304,
374,
359,
414,
364,
344,
357,
352,
339,
355,
314,
367,
367,
296,
311,
337,
333,
361,
294,
305,
279,
324,
311,
294,
313,
289,
263,
310,
282,
285,
243,
261,
312,
274,
235,
293,
280,
271,
246,
254,
251,
244,
221,
272,
242,
235,
225,
208,
235,
230,
245,
196,
200,
223,
233,
208,
186,
235,
210,
207,
221,
194,
190,
207,
213,
217,
183,
182,
186,
199,
198,
160,
171,
166,
165,
176,
170,
180,
161,
171,
173,
172,
175,
160,
169,
163,
132,
169,
144,
147,
158,
152,
135,
134,
148,
136,
127,
141,
139,
125,
115,
109,
132,
125,
120,
117,
114,
104,
103,
108,
120,
111,
115,
93,
101,
107,
105,
100,
83,
104,
98,
88,
101,
90,
84,
91,
65,
83,
87,
73,
87,
79,
75,
70,
76,
70,
66,
74,
70,
71,
78,
71,
60,
65,
65,
57,
71,
75,
58,
64,
50,
62,
58,
57,
56,
46,
35,
51,
45,
52,
47,
37,
44,
30,
39,
36,
38,
43,
37,
46,
37,
47,
28,
36,
22,
32,
31,
27,
34,
29,
31,
37,
27,
23,
25,
35,
15,
23,
23,
22,
16,
12,
18,
21,
16,
17,
16,
14,
14,
14,
18,
15,
9,
11,
10,
15,
15,
10,
8,
10,
7,
7,
9,
5,
8,
4,
10,
3,
8,
3,
2,
8,
2,
1,
2,
1,
0,
0,
0,
0,
0,
0,
1,
1,
0,
0,
0,
0,
0,
1,
0,
0,
0,
0,
0,
0,
0,
0,
0,
0,
0,
0,
0,
0,
0,
0,
0,
0,
0,
0,
0,
0,
1,
0,
0,
0,
0,
0,
0,
0,
0,
0,
0,
0,
0,
0,
0,
0,
0,
0,
0,
0,
0,
0,
1,
0,
0,
0,
0,
0,
0,
0,
0,
0,
0,
0,
0,
0,
0,
0,
0,
1,
0,
0,
0,
0,
0,
0,
0,
0,
0,
1,
0,
0,
0,
0,
0,
0,
0,
0,
0,
0,
0,
0,
0,
0,
0,
0,
0,
0,
0,
0,
0,
0,
0,
1,
0,
0,
0,
0,
0,
0,
0,
0,
0,
0,
0,
0,
0,
0,
0,
0,
0,
1,
0,
0,
0,
0,
0,
0,
0,
0,
0,
0,
0,
0,
0,
0,
0,
0,
0,
0,
0,
0,
0,
0,
0,
0,
0,
0,
0,
0,
0,
0,
0,
0,
0,
0,
0,
0,
0,
0,
0,
0,
0,
0,
0,
0,
0,
0,
0,
0,
0,
0,
0,
0,
0,
0,
0,
0,
0,
0,
0,
0,
0,
0,
0,
0,
0,
0,
0,
0,
0,
0,
0,
0,
0,
0,
0,
0,
0,
0,
0,
0,
0,
0,
0,
0,
0,
0,
0,
0,
0,
0,
0,
0,
0,
0,
0,
0,
0,
0,
0,
0,
0,
0,
0,
0,
0,
0,
0,
0,
0,
0,
0,
0,
0,
0,
0,
0,
0,
0,
0,
0,
0,
0,
0,
0,
0,
0,
0,
0,
0,
0,
0,
0,
0,
0,
0,
0,
0,
0,
0,
0,
0,
0,
0,
0,
0,
0,
0,
0,
0,
0,
0,
0,
0,
0,
0,
0,
0,
0,
0,
0,
0,
0,
0,
0,
0,
0,
0,
0,
0,
0,
0,
0,
0,
0,
0,
0,
0,
0,
0,
0,
0,
0,
0,
0,
0,
0,
0,
0,
0,
0,
0,
0,
0,
0,
0,
0,
0,
0,
0,
0,
0,
0,
0,
0,
0,
0,
0,
0,
0,
0,
0,
0,
0,
0,
0,
0,
0,
0,
0,
0,
0,
0,
0,
0,
0,
0,
0,
0,
0,
0,
0,
0,
0,
0,
0,
0,
0,
0,
0,
0,
0,
0,
0,
0,
0,
0,
0,
0,
0,
0,
0,
0,
0,
0,
0,
0,
0,
0,
0,
0,
0,
0,
0,
0,
0,
0,
0,
0,
0,
0,
0,
0,
0,
0,
0,
0,
0,
0,
0,
0,
0,
0,
0,
0,
0,
0,
0,
0,
0,
0,
0,
0,
0,
0,
0,
0,
0,
0,
0,
0,
0,
0,
0,
0,
0,
0,
0,
0,
0,
0,
0,
0,
0,
0,
0,
0,
0,
0,
0,
0,
0,
0,
0,
0,
0,
0,
0,
0,
0,
0,
0,
0,
0,
0,
0,
0,
0,
0,
0,
0,
0,
0,
0,
0,
0,
0,
0,
0,
0,
0,
0,
0,
0,
0,
0,
0,
0,
0,
0,
0,
0,
0,
0,
0,
0,
0,
0,
0,
0,
0,
0,
0,
0,
0,
0,
0,
0,
0,
0,
0,
0,
0,
0,
0,
0,
0,
0,
0,
0,
0,
0,
0,
0,
0,
0,
0,
0,
0,
0,
0,
0,
0,
0,
0,
0,
0,
0,
0,
0,
0,
0,
0,
0,
0,
0,
0,
0,
0,
0,
0,
0,
0,
0,
0,
0,
0,
0,
0,
0,
0,
0,
0,
0,
0,
0,
0,
0,
0,
0,
0,
0,
0,
0,
0,
0,
0,
0,
0,
0,
0,
0,
0,
0,
0,
0,
0,
0,
0,
0,
0,
0,
0,
0,
0,
0,
0,
0,
0,
0,
0,
0,
0,
0,
0,
0,
0,
0,
0,
0,
0,
0,
0,
0,
0,
0,
0,
0,
0,
0,
0,
0,
0,
0,
0,
0,
0,
0,
0,
0,
0,
0,
0,
0,
0,
0,
0,
0,
0,
0,
0,
0,
0,
0,
0,
0,
0,
0,
0,
0,
0,
0,
0,
0,
0,
0,
0,
0,
0,
0,
0,
0,
0,
0,
0,
0,
0,
0,
0,
0,
0,
0,
0,
0,
0,
0,
0,
0,
0,
0,
0,
0,
0,
0,
0,
0,
0,
0,
0,
0,
0,
0,
0,
0,
0,
0,
0,
0,
0,
0,
0,
0,
0,
0,
0,
0,
0,
0,
0,
0,
0,
0,
0,
0,
0,
0,
0,
0,
0,
0,
0,
0,
0,
0,
0,
0,
0,
0,
0,
0,
0,
0,
0,
0,
0,
0,
0,
0,
0,
0,
0,
0,
0,
0,
0,
0,
0,
0,
0,
0,
0,
0,
0,
0,
0,
0,
0,
0,
0,
0,
0,
0,
0,
0,
0,
0,
0,
0,
0,
0,
0,
0,
0,
0,
0,
0,
0,
0,
0,
0,
0,
0,
0,
0,
0,
0,
0,
0,
0,
0,
0,
0,
0,
0,
0,
0,
0,
0,
0,
0,
0,
0,
0,
0,
0,
0,
0,
0,
0,
0,
0,
0,
0,
0,
0,
0,
0,
0,
0,
0,
0,
0,
0,
0,
0,
0,
0,
0,
0,
0,
0,
0,
0,
0,
0,
0,
0,
0,
0,
0,
0,
0,
0,
0,
0,
0,
0,
0,
0,
0,
0,
0,
0,
0,
0,
0,
0,
0,
0,
0,
0,
0,
0,
0,
0,
0,
0,
0,
0,
#ENDOFDATA   :