File: N132962/Quantification/15 keV/Mengason MM2/MMM2 Plagioclaise[7][4].msa
#FORMAT      : EMSA/MAS Spectral Data File
#VERSION     : 1.0
#TITLE       : MMM2 Plagioclaise[7][all]
#DATE        : 28-SEP-2025
#TIME        : 23:19
#OWNER       : Unknown
#NPOINTS     : 4096
#NCOLUMNS    : 1
#XUNITS      : eV
#YUNITS      : counts
#DATATYPE    : Y
#XPERCHAN    : 9.99778
#OFFSET      : 1.69135
#BEAMKV      : 15
#SIGNALTYPE  : EDS
#ELEVANGLE   : 35
#AZIMANGLE   : 0
#LIVETIME    : 240.281
#REALTIME    : 256.486
#PROBECUR    : 1.2132
#TAUWIND     : 0
#TDEADLYR    : 0
#TACTLYR     : 0.045
#TALWIND     : 0.025
#CHOFFSET    : 0.0
#XLABEL      : Energy (eV)
#YLABEL      : Counts
#XPOSITION   : -18.59428
#YPOSITION   : 1.98377
#ZPOSITION   : 34.11879
#EDSDET      : SD
##SPECIMEN   : MMM2 Plagioclaise[7][all]
##DET_HASH   : 12273538-fd48-a23f-0a19-f1e6fa85caef
##CALIB_HASH : 6abaa72c-aa41-8738-0be9-f592914732f3
##WORKING    : 15.0 mm
##DET_NAME   : EDAX All
##DET_MODE   : MediumLE
#SPECTRUM    :
19,
31,
6,
14,
78,
390,
1147,
3763,
10748,
14730,
8475,
4394,
4040,
4436,
8067,
29094,
110287,
209819,
152514,
39759,
5749,
2535,
2694,
3063,
3251,
3162,
3259,
3548,
3688,
3736,
4126,
4515,
5847,
12163,
23693,
25845,
14491,
6487,
4736,
4584,
4912,
5313,
5398,
5410,
5476,
5960,
7570,
19596,
64076,
128270,
129198,
67148,
22706,
8852,
6617,
14636,
54877,
140228,
190448,
133945,
54715,
19160,
8969,
4961,
3437,
3132,
3016,
3006,
2878,
2643,
2476,
2433,
2518,
2697,
2905,
3085,
2951,
2781,
2518,
2441,
2397,
2369,
2443,
2304,
2429,
2377,
2255,
2321,
2237,
2208,
2231,
2273,
2204,
2204,
2265,
2191,
2176,
2204,
2172,
2172,
2099,
2132,
2046,
1990,
2038,
2058,
2248,
2340,
2582,
2757,
3037,
2914,
2560,
2124,
1921,
2037,
2186,
2173,
2417,
3141,
5998,
12938,
23269,
28773,
24282,
14175,
6230,
2781,
1826,
1635,
1891,
2348,
3246,
4375,
4663,
4051,
2837,
1918,
1471,
1486,
1402,
1360,
1396,
1335,
1357,
1288,
1291,
1232,
1241,
1329,
1311,
1348,
1247,
1269,
1192,
1161,
1197,
1218,
1152,
1185,
1147,
1095,
1149,
1085,
1122,
1113,
1068,
1115,
1040,
1055,
1098,
1100,
1104,
1063,
1076,
1004,
981,
1002,
989,
1023,
971,
1012,
959,
956,
986,
922,
903,
906,
905,
853,
891,
935,
917,
869,
819,
826,
810,
920,
775,
793,
819,
749,
804,
772,
775,
781,
736,
782,
737,
795,
842,
886,
958,
1007,
966,
928,
852,
725,
693,
712,
711,
641,
682,
700,
657,
628,
658,
630,
612,
609,
574,
619,
596,
613,
600,
609,
600,
618,
542,
529,
550,
554,
531,
546,
562,
550,
551,
501,
533,
541,
518,
535,
499,
536,
497,
498,
484,
484,
478,
488,
458,
430,
437,
508,
458,
465,
476,
500,
440,
439,
444,
430,
446,
385,
437,
411,
395,
370,
377,
413,
382,
404,
376,
392,
354,
343,
360,
358,
355,
366,
340,
356,
370,
354,
342,
326,
342,
319,
330,
324,
353,
316,
323,
330,
328,
339,
343,
282,
318,
292,
267,
257,
262,
296,
301,
258,
251,
271,
276,
284,
265,
266,
263,
268,
281,
231,
265,
219,
263,
255,
236,
273,
222,
246,
223,
215,
260,
211,
229,
241,
219,
223,
213,
222,
215,
191,
225,
225,
185,
201,
194,
184,
184,
174,
171,
181,
182,
178,
199,
163,
173,
172,
177,
171,
168,
162,
160,
156,
158,
137,
146,
152,
153,
143,
126,
126,
135,
137,
140,
148,
151,
123,
124,
115,
119,
104,
123,
103,
106,
119,
127,
108,
107,
124,
111,
104,
98,
106,
86,
88,
91,
90,
92,
104,
86,
85,
91,
69,
87,
76,
95,
72,
70,
79,
70,
93,
70,
80,
67,
68,
60,
59,
54,
76,
72,
64,
67,
68,
63,
48,
63,
68,
61,
51,
50,
41,
51,
54,
50,
50,
34,
42,
42,
41,
41,
40,
41,
33,
26,
30,
43,
33,
34,
23,
23,
40,
36,
33,
26,
22,
24,
31,
28,
27,
20,
18,
20,
25,
24,
17,
15,
11,
18,
16,
12,
10,
14,
14,
16,
8,
12,
13,
14,
9,
6,
9,
8,
8,
10,
3,
7,
8,
7,
10,
4,
5,
2,
1,
1,
4,
0,
0,
0,
1,
0,
0,
1,
0,
0,
1,
0,
0,
1,
0,
0,
0,
1,
1,
1,
0,
0,
0,
0,
0,
0,
0,
0,
0,
0,
0,
0,
0,
0,
1,
0,
0,
0,
0,
0,
0,
0,
0,
0,
0,
0,
0,
0,
0,
0,
0,
0,
0,
0,
0,
0,
0,
0,
0,
0,
0,
0,
0,
0,
0,
0,
0,
1,
0,
0,
0,
0,
0,
1,
0,
0,
0,
0,
0,
0,
0,
0,
0,
0,
0,
0,
0,
0,
1,
0,
0,
0,
0,
0,
1,
1,
0,
0,
0,
1,
0,
1,
0,
1,
0,
0,
0,
0,
0,
0,
0,
0,
0,
0,
0,
0,
0,
0,
0,
0,
0,
0,
0,
0,
0,
0,
0,
0,
0,
0,
0,
0,
0,
0,
0,
0,
0,
0,
1,
0,
1,
0,
0,
0,
0,
0,
0,
0,
0,
0,
0,
0,
0,
0,
0,
0,
0,
0,
0,
0,
0,
0,
0,
0,
0,
0,
0,
0,
0,
0,
0,
0,
0,
0,
0,
0,
0,
0,
0,
0,
0,
0,
0,
0,
0,
0,
0,
0,
0,
0,
0,
0,
0,
0,
0,
0,
0,
0,
0,
0,
0,
0,
0,
0,
0,
0,
0,
0,
0,
0,
0,
0,
0,
0,
0,
0,
0,
0,
0,
0,
0,
0,
0,
0,
0,
0,
0,
0,
0,
0,
0,
0,
0,
0,
0,
0,
0,
0,
0,
0,
0,
0,
0,
0,
0,
0,
0,
0,
0,
0,
0,
0,
0,
0,
0,
0,
0,
0,
0,
0,
0,
0,
0,
0,
0,
0,
0,
0,
0,
0,
0,
0,
0,
0,
0,
0,
0,
0,
0,
0,
0,
0,
0,
0,
0,
0,
0,
0,
0,
0,
0,
0,
0,
0,
0,
0,
0,
0,
0,
0,
0,
0,
0,
0,
0,
0,
0,
0,
0,
0,
0,
0,
0,
0,
0,
0,
0,
0,
0,
0,
0,
0,
0,
0,
0,
0,
0,
0,
0,
0,
0,
0,
0,
0,
0,
0,
0,
0,
0,
0,
0,
0,
0,
0,
0,
0,
0,
0,
0,
0,
0,
0,
0,
0,
0,
0,
0,
0,
0,
0,
0,
0,
0,
0,
0,
0,
0,
0,
0,
0,
0,
0,
0,
0,
0,
0,
0,
0,
0,
0,
0,
0,
0,
0,
0,
0,
0,
0,
0,
0,
0,
0,
0,
0,
0,
0,
0,
0,
0,
0,
0,
0,
0,
0,
0,
0,
0,
0,
0,
0,
0,
0,
0,
0,
0,
0,
0,
0,
0,
0,
0,
0,
0,
0,
0,
0,
0,
0,
0,
0,
0,
0,
0,
0,
0,
0,
0,
0,
0,
0,
0,
0,
0,
0,
0,
0,
0,
0,
0,
0,
0,
0,
0,
0,
0,
0,
0,
0,
0,
0,
0,
0,
0,
0,
0,
0,
0,
0,
0,
0,
0,
0,
0,
0,
0,
0,
0,
0,
0,
0,
0,
0,
0,
0,
0,
0,
0,
0,
0,
0,
0,
0,
0,
0,
0,
0,
0,
0,
0,
0,
0,
0,
0,
0,
0,
0,
0,
0,
0,
0,
0,
0,
0,
0,
0,
0,
0,
0,
0,
0,
0,
0,
0,
0,
0,
0,
0,
0,
0,
0,
0,
0,
0,
0,
0,
0,
0,
0,
0,
0,
0,
0,
0,
0,
0,
0,
0,
0,
0,
0,
0,
0,
0,
0,
0,
0,
0,
0,
0,
0,
0,
0,
0,
0,
0,
0,
0,
0,
0,
0,
0,
0,
0,
0,
0,
0,
0,
0,
0,
0,
0,
0,
0,
0,
0,
0,
0,
0,
0,
0,
0,
0,
0,
0,
0,
0,
0,
0,
0,
0,
0,
0,
0,
0,
0,
0,
0,
0,
0,
0,
0,
0,
0,
0,
0,
0,
0,
0,
0,
0,
0,
0,
0,
0,
0,
0,
0,
0,
0,
0,
0,
0,
0,
0,
0,
0,
0,
0,
0,
0,
0,
0,
0,
0,
0,
0,
0,
0,
0,
0,
0,
0,
0,
0,
0,
0,
0,
0,
0,
0,
0,
0,
0,
0,
0,
0,
0,
0,
0,
0,
0,
0,
0,
0,
0,
0,
0,
0,
0,
0,
0,
0,
0,
0,
0,
0,
0,
0,
0,
0,
0,
0,
0,
0,
0,
0,
0,
0,
0,
0,
0,
0,
0,
0,
0,
0,
0,
0,
0,
0,
0,
0,
0,
0,
0,
0,
0,
0,
0,
0,
0,
0,
0,
0,
0,
0,
0,
0,
0,
0,
0,
0,
0,
0,
0,
0,
0,
0,
0,
0,
0,
0,
0,
0,
0,
0,
0,
0,
0,
0,
0,
0,
0,
0,
0,
0,
0,
0,
0,
0,
0,
0,
0,
0,
0,
0,
0,
0,
0,
0,
0,
0,
0,
0,
0,
0,
0,
0,
0,
0,
0,
0,
0,
0,
0,
0,
0,
0,
0,
0,
0,
0,
0,
0,
0,
0,
0,
0,
0,
0,
0,
0,
0,
0,
0,
0,
0,
0,
0,
0,
0,
0,
0,
0,
0,
0,
0,
0,
0,
0,
0,
0,
0,
0,
0,
0,
0,
0,
0,
0,
0,
0,
0,
0,
0,
0,
0,
0,
0,
0,
0,
0,
0,
0,
0,
0,
0,
0,
0,
0,
0,
0,
0,
0,
0,
0,
0,
0,
0,
0,
0,
0,
0,
0,
0,
0,
0,
#ENDOFDATA   :