File: N132962/Quantification/15 keV/Mengason MM2/MMM2 Wollastonite[2][4].msa
#FORMAT      : EMSA/MAS Spectral Data File
#VERSION     : 1.0
#TITLE       : MMM2 Wollastonite[2][all]
#DATE        : 29-SEP-2025
#TIME        : 00:05
#OWNER       : Unknown
#NPOINTS     : 4096
#NCOLUMNS    : 1
#XUNITS      : eV
#YUNITS      : counts
#DATATYPE    : Y
#XPERCHAN    : 9.99778
#OFFSET      : 1.69135
#BEAMKV      : 15
#SIGNALTYPE  : EDS
#ELEVANGLE   : 35
#AZIMANGLE   : 0
#LIVETIME    : 240.32
#REALTIME    : 255.019
#PROBECUR    : 1.21151
#TAUWIND     : 0
#TDEADLYR    : 0
#TACTLYR     : 0.045
#TALWIND     : 0.025
#CHOFFSET    : 0.0
#XLABEL      : Energy (eV)
#YLABEL      : Counts
#XPOSITION   : -12.48892
#YPOSITION   : 4.59721
#ZPOSITION   : 34.11879
#EDSDET      : SD
##SPECIMEN   : MMM2 Wollastonite[2][all]
##DET_HASH   : 12273538-fd48-a23f-0a19-f1e6fa85caef
##CALIB_HASH : 6abaa72c-aa41-8738-0be9-f592914732f3
##WORKING    : 15.0 mm
##DET_NAME   : EDAX All
##DET_MODE   : MediumLE
#SPECTRUM    :
20,
24,
12,
24,
94,
367,
1307,
4599,
13898,
21383,
15310,
8131,
4457,
3416,
4861,
15228,
56508,
108656,
78288,
21208,
3834,
2379,
2617,
2807,
3052,
2965,
3264,
3409,
3623,
3765,
3834,
3862,
4248,
4328,
4479,
4673,
4725,
4634,
4734,
4830,
4945,
4976,
5092,
5020,
5214,
5294,
5386,
5454,
5691,
5685,
5929,
5963,
5915,
6001,
7246,
16643,
60631,
155126,
210403,
149177,
59530,
20824,
10214,
6055,
4683,
4635,
4153,
3586,
3357,
3282,
3246,
3167,
3147,
3323,
3346,
3437,
3427,
3273,
3012,
2974,
2987,
2995,
2883,
2855,
2869,
2816,
2871,
2842,
2761,
2727,
2795,
2771,
2752,
2760,
2559,
2548,
2638,
2572,
2607,
2431,
2576,
2503,
2384,
2479,
2384,
2347,
2402,
2423,
2415,
2400,
2301,
2287,
2230,
2185,
2274,
2517,
2823,
3088,
4044,
7215,
18723,
47784,
89777,
112973,
94949,
53395,
20679,
6589,
2917,
2587,
3133,
5308,
9092,
13805,
15240,
12055,
7085,
3714,
2100,
1700,
1644,
1623,
1582,
1499,
1431,
1463,
1454,
1396,
1368,
1302,
1366,
1426,
1357,
1379,
1335,
1325,
1363,
1298,
1310,
1384,
1268,
1299,
1275,
1286,
1227,
1207,
1245,
1177,
1270,
1129,
1162,
1174,
1204,
1177,
1222,
1114,
1166,
1131,
1218,
1294,
1326,
1398,
1253,
1229,
1116,
1103,
1090,
996,
1043,
1048,
1034,
1043,
1037,
1006,
1030,
1021,
955,
1021,
946,
984,
943,
955,
900,
919,
885,
901,
929,
904,
857,
878,
874,
898,
882,
876,
883,
890,
853,
807,
847,
773,
793,
817,
780,
754,
765,
778,
790,
753,
680,
729,
730,
725,
704,
714,
712,
719,
674,
673,
666,
679,
687,
686,
718,
690,
685,
683,
686,
689,
673,
639,
638,
625,
607,
598,
616,
612,
580,
591,
604,
572,
557,
533,
590,
535,
557,
551,
579,
506,
555,
527,
521,
544,
523,
534,
487,
505,
473,
496,
424,
498,
428,
480,
476,
488,
442,
450,
448,
421,
455,
448,
446,
451,
412,
394,
402,
394,
422,
394,
408,
376,
382,
370,
389,
398,
347,
365,
350,
380,
355,
374,
333,
361,
350,
353,
344,
339,
348,
352,
334,
296,
310,
299,
305,
304,
310,
319,
282,
287,
307,
315,
288,
291,
295,
288,
266,
301,
279,
262,
267,
264,
268,
251,
252,
276,
261,
245,
247,
252,
252,
258,
239,
255,
242,
192,
211,
216,
214,
211,
196,
234,
216,
215,
205,
205,
200,
200,
191,
168,
186,
203,
175,
173,
171,
187,
208,
171,
183,
167,
170,
145,
152,
157,
172,
150,
160,
161,
174,
163,
152,
141,
154,
147,
133,
144,
114,
132,
115,
117,
105,
129,
127,
124,
105,
115,
106,
118,
110,
94,
86,
91,
108,
95,
96,
98,
106,
101,
82,
95,
103,
95,
88,
100,
100,
65,
90,
77,
87,
67,
56,
55,
83,
70,
62,
73,
71,
71,
60,
64,
64,
64,
60,
61,
56,
53,
52,
45,
49,
50,
55,
50,
35,
36,
43,
43,
29,
54,
37,
25,
32,
35,
37,
40,
42,
40,
33,
33,
29,
27,
32,
18,
23,
14,
18,
23,
16,
20,
20,
16,
15,
17,
18,
13,
12,
15,
14,
15,
13,
7,
11,
9,
6,
7,
6,
3,
5,
4,
5,
5,
2,
3,
1,
1,
1,
0,
1,
0,
0,
0,
3,
0,
0,
2,
0,
0,
0,
0,
0,
0,
1,
0,
1,
0,
1,
0,
0,
1,
0,
1,
0,
0,
0,
0,
1,
0,
0,
2,
0,
1,
0,
1,
0,
0,
0,
0,
0,
1,
0,
0,
0,
0,
0,
0,
0,
0,
0,
0,
0,
1,
1,
0,
0,
0,
0,
0,
0,
0,
0,
0,
0,
0,
0,
0,
0,
0,
0,
0,
0,
0,
0,
0,
0,
0,
0,
0,
0,
0,
0,
0,
0,
0,
0,
0,
0,
0,
0,
0,
0,
0,
0,
0,
0,
0,
0,
0,
2,
0,
0,
0,
0,
0,
0,
0,
0,
0,
0,
0,
0,
0,
0,
0,
0,
0,
0,
0,
0,
0,
0,
0,
0,
0,
0,
0,
0,
0,
0,
0,
0,
0,
0,
0,
1,
0,
0,
0,
0,
1,
0,
0,
1,
0,
0,
0,
0,
0,
0,
0,
0,
0,
0,
0,
0,
0,
0,
0,
0,
0,
0,
0,
0,
0,
0,
0,
0,
0,
0,
0,
0,
0,
0,
0,
0,
0,
0,
0,
0,
0,
0,
0,
0,
0,
0,
0,
0,
0,
0,
0,
0,
0,
0,
0,
0,
0,
0,
0,
0,
0,
0,
0,
0,
0,
0,
0,
0,
0,
0,
0,
0,
1,
0,
0,
0,
0,
0,
0,
0,
0,
0,
0,
0,
0,
0,
0,
0,
0,
0,
0,
0,
0,
0,
0,
0,
0,
0,
0,
0,
0,
0,
0,
0,
0,
0,
0,
0,
0,
0,
0,
0,
0,
0,
0,
0,
0,
0,
0,
0,
0,
0,
0,
0,
0,
0,
0,
0,
0,
0,
0,
0,
0,
0,
0,
0,
0,
0,
0,
0,
0,
0,
0,
0,
0,
0,
0,
0,
0,
0,
0,
0,
0,
0,
0,
0,
0,
0,
0,
0,
0,
0,
0,
0,
0,
0,
0,
0,
0,
0,
0,
0,
0,
0,
0,
0,
0,
0,
0,
0,
0,
0,
0,
0,
0,
0,
0,
0,
0,
0,
0,
0,
0,
0,
0,
0,
0,
0,
0,
0,
0,
0,
0,
0,
0,
0,
0,
0,
0,
0,
0,
0,
0,
0,
0,
0,
0,
0,
0,
0,
0,
0,
0,
0,
0,
0,
0,
0,
0,
0,
0,
0,
0,
0,
0,
0,
0,
0,
0,
0,
0,
0,
0,
0,
0,
0,
0,
0,
0,
0,
0,
0,
0,
0,
0,
0,
0,
0,
0,
0,
0,
0,
0,
0,
0,
0,
0,
0,
0,
0,
0,
0,
0,
0,
0,
0,
0,
0,
0,
0,
0,
0,
0,
0,
0,
0,
0,
0,
0,
0,
0,
0,
0,
0,
0,
0,
0,
0,
0,
0,
0,
0,
0,
0,
0,
0,
0,
0,
0,
0,
0,
0,
0,
0,
0,
0,
0,
0,
0,
0,
0,
0,
0,
0,
0,
0,
0,
0,
0,
0,
0,
0,
0,
0,
0,
0,
0,
0,
0,
0,
0,
0,
0,
0,
0,
0,
0,
0,
0,
0,
0,
0,
0,
0,
0,
0,
0,
0,
0,
0,
0,
0,
0,
0,
0,
0,
0,
0,
0,
0,
0,
0,
0,
0,
0,
0,
0,
0,
0,
0,
0,
0,
0,
0,
0,
0,
0,
0,
0,
0,
0,
0,
0,
0,
0,
0,
0,
0,
0,
0,
0,
0,
0,
0,
0,
0,
0,
0,
0,
0,
0,
0,
0,
0,
0,
0,
0,
0,
0,
0,
0,
0,
0,
0,
0,
0,
0,
0,
0,
0,
0,
0,
0,
0,
0,
0,
0,
0,
0,
0,
0,
0,
0,
0,
0,
0,
0,
0,
0,
0,
0,
0,
0,
0,
0,
0,
0,
0,
0,
0,
0,
0,
0,
0,
0,
0,
0,
0,
0,
0,
0,
0,
0,
0,
0,
0,
0,
0,
0,
0,
0,
0,
0,
0,
0,
0,
0,
0,
0,
0,
0,
0,
0,
0,
0,
0,
0,
0,
0,
0,
0,
0,
0,
0,
0,
0,
0,
0,
0,
0,
0,
0,
0,
0,
0,
0,
0,
0,
0,
0,
0,
0,
0,
0,
0,
0,
0,
0,
0,
0,
0,
0,
0,
0,
0,
0,
0,
0,
0,
0,
0,
0,
0,
0,
0,
0,
0,
0,
0,
0,
0,
0,
0,
0,
0,
0,
0,
0,
0,
0,
0,
0,
0,
0,
0,
0,
0,
0,
0,
0,
0,
0,
0,
0,
0,
0,
0,
0,
0,
0,
0,
0,
0,
0,
0,
0,
0,
0,
0,
0,
0,
0,
0,
0,
0,
0,
0,
0,
0,
0,
0,
0,
0,
0,
0,
0,
0,
0,
0,
0,
0,
0,
0,
0,
0,
0,
0,
0,
0,
0,
0,
0,
0,
0,
0,
0,
0,
0,
0,
0,
0,
0,
0,
0,
0,
0,
0,
0,
0,
0,
0,
0,
0,
0,
0,
0,
0,
0,
0,
0,
0,
0,
0,
0,
0,
0,
0,
0,
0,
0,
0,
0,
0,
0,
0,
0,
0,
0,
0,
0,
0,
0,
0,
0,
0,
0,
0,
0,
0,
0,
0,
0,
0,
0,
0,
0,
0,
0,
0,
0,
0,
0,
0,
0,
0,
0,
0,
0,
0,
0,
0,
0,
0,
0,
0,
0,
0,
0,
0,
0,
0,
0,
0,
0,
0,
0,
0,
0,
0,
0,
0,
#ENDOFDATA   :