File: N132962/Quantification/15 keV/Mengason MM2/MMM2 Olivine[7][4].msa
#FORMAT      : EMSA/MAS Spectral Data File
#VERSION     : 1.0
#TITLE       : MMM2 Olivine[7][all]
#DATE        : 28-SEP-2025
#TIME        : 23:09
#OWNER       : Unknown
#NPOINTS     : 4096
#NCOLUMNS    : 1
#XUNITS      : eV
#YUNITS      : counts
#DATATYPE    : Y
#XPERCHAN    : 9.99778
#OFFSET      : 1.69135
#BEAMKV      : 15
#SIGNALTYPE  : EDS
#ELEVANGLE   : 35
#AZIMANGLE   : 0
#LIVETIME    : 240.152
#REALTIME    : 257.961
#PROBECUR    : 1.2132
#TAUWIND     : 0
#TDEADLYR    : 0
#TACTLYR     : 0.045
#TALWIND     : 0.025
#CHOFFSET    : 0.0
#XLABEL      : Energy (eV)
#YLABEL      : Counts
#XPOSITION   : -21.33621
#YPOSITION   : 2.52716
#ZPOSITION   : 34.11879
#EDSDET      : SD
##SPECIMEN   : MMM2 Olivine[7][all]
##DET_HASH   : 12273538-fd48-a23f-0a19-f1e6fa85caef
##CALIB_HASH : 6abaa72c-aa41-8738-0be9-f592914732f3
##WORKING    : 15.0 mm
##DET_NAME   : EDAX All
##DET_MODE   : MediumLE
#SPECTRUM    :
26,
31,
7,
17,
112,
398,
1156,
3741,
10271,
13159,
7030,
3907,
4146,
5649,
10419,
38574,
147220,
280936,
203693,
53634,
8256,
4508,
6028,
10036,
9972,
6022,
4065,
4094,
4538,
4652,
4399,
4196,
4536,
4865,
5472,
5778,
5940,
6762,
8913,
22085,
85967,
215960,
260925,
144611,
40804,
8827,
4000,
3509,
3529,
3684,
3791,
3860,
3960,
4066,
4934,
11172,
40790,
103067,
139721,
98820,
40614,
14450,
7148,
4262,
2922,
2560,
2547,
2513,
2505,
2526,
2573,
2472,
2558,
2640,
2823,
2981,
2876,
2688,
2503,
2424,
2381,
2500,
2639,
2713,
2805,
2651,
2293,
2296,
2331,
2203,
2205,
2216,
2102,
2173,
2210,
2194,
2177,
2117,
2278,
2472,
2507,
2327,
2157,
2118,
1978,
1887,
1934,
1906,
1885,
1873,
1842,
1861,
1778,
1746,
1868,
1845,
1812,
1811,
1736,
1721,
1673,
1656,
1648,
1625,
1677,
1636,
1531,
1569,
1503,
1505,
1486,
1453,
1524,
1448,
1459,
1477,
1482,
1405,
1491,
1381,
1319,
1359,
1384,
1352,
1253,
1311,
1328,
1304,
1334,
1204,
1215,
1227,
1269,
1226,
1241,
1274,
1196,
1211,
1213,
1214,
1227,
1175,
1078,
1114,
1111,
1109,
1066,
1097,
1123,
1047,
1135,
1067,
1014,
1007,
1063,
1038,
1038,
1012,
961,
1004,
1013,
953,
986,
930,
876,
910,
882,
929,
826,
926,
830,
877,
878,
862,
902,
986,
912,
950,
908,
840,
811,
833,
811,
788,
776,
798,
772,
784,
923,
1319,
2155,
3552,
5477,
6552,
6113,
4573,
2873,
1584,
970,
750,
709,
656,
703,
595,
643,
648,
670,
647,
653,
662,
743,
802,
942,
1063,
1277,
1359,
1221,
1037,
854,
669,
639,
586,
543,
519,
544,
550,
597,
651,
649,
716,
643,
650,
562,
562,
518,
495,
503,
486,
474,
443,
480,
434,
472,
439,
438,
484,
411,
451,
457,
429,
434,
424,
487,
436,
447,
428,
441,
444,
410,
467,
388,
403,
367,
379,
368,
362,
377,
360,
347,
349,
360,
374,
334,
346,
334,
316,
340,
340,
341,
315,
315,
312,
326,
308,
324,
293,
322,
335,
273,
276,
279,
286,
307,
263,
270,
276,
272,
281,
295,
277,
255,
227,
257,
220,
245,
263,
268,
250,
233,
216,
227,
214,
221,
261,
239,
242,
230,
222,
228,
196,
225,
196,
199,
198,
203,
178,
197,
181,
176,
168,
191,
180,
205,
188,
196,
188,
182,
194,
168,
177,
179,
153,
179,
169,
175,
154,
171,
179,
154,
134,
149,
139,
135,
125,
146,
130,
164,
159,
139,
114,
140,
150,
129,
119,
121,
115,
122,
107,
99,
106,
118,
101,
111,
116,
88,
122,
124,
104,
107,
107,
107,
97,
93,
99,
88,
82,
104,
84,
104,
72,
71,
81,
85,
78,
61,
79,
81,
70,
84,
84,
55,
66,
68,
72,
60,
58,
60,
77,
59,
62,
52,
59,
55,
50,
58,
41,
57,
36,
44,
49,
42,
35,
36,
44,
38,
47,
54,
35,
34,
34,
36,
33,
30,
29,
29,
29,
33,
33,
38,
28,
24,
36,
22,
29,
20,
22,
24,
22,
26,
15,
25,
21,
18,
15,
15,
22,
11,
16,
16,
16,
12,
13,
6,
16,
10,
5,
10,
3,
5,
4,
6,
9,
5,
2,
4,
3,
3,
0,
3,
0,
1,
1,
0,
0,
0,
0,
0,
0,
1,
0,
0,
1,
0,
0,
0,
0,
0,
0,
0,
0,
0,
0,
0,
1,
0,
0,
0,
0,
0,
0,
0,
1,
0,
0,
0,
0,
0,
0,
0,
0,
0,
0,
1,
0,
1,
0,
0,
0,
0,
0,
0,
0,
0,
0,
1,
0,
0,
0,
0,
0,
0,
0,
0,
0,
0,
0,
0,
0,
0,
0,
0,
0,
0,
0,
0,
0,
0,
0,
1,
0,
0,
0,
0,
0,
0,
0,
0,
0,
0,
1,
0,
0,
1,
0,
0,
0,
0,
0,
0,
0,
0,
0,
0,
0,
0,
0,
0,
0,
0,
0,
0,
0,
0,
0,
0,
0,
0,
0,
0,
0,
0,
0,
0,
0,
0,
0,
1,
0,
0,
0,
0,
0,
0,
0,
0,
0,
0,
0,
0,
0,
0,
0,
0,
0,
0,
0,
0,
0,
0,
0,
0,
0,
0,
0,
0,
0,
0,
0,
0,
0,
0,
0,
0,
0,
0,
0,
0,
0,
0,
0,
0,
0,
0,
0,
0,
0,
0,
0,
0,
0,
0,
0,
0,
0,
0,
0,
0,
0,
0,
0,
0,
0,
0,
0,
0,
0,
0,
0,
0,
0,
0,
0,
0,
0,
0,
0,
0,
0,
0,
0,
0,
0,
0,
0,
0,
0,
0,
0,
0,
0,
0,
0,
0,
0,
0,
0,
0,
0,
0,
0,
0,
0,
0,
0,
0,
0,
0,
0,
0,
0,
0,
0,
0,
0,
0,
0,
0,
0,
0,
0,
0,
0,
0,
0,
0,
0,
0,
0,
0,
0,
0,
0,
0,
0,
0,
0,
0,
0,
0,
0,
0,
0,
0,
0,
0,
0,
0,
0,
0,
0,
0,
0,
0,
0,
0,
0,
0,
0,
0,
0,
0,
0,
0,
0,
0,
0,
0,
0,
0,
0,
0,
0,
0,
0,
0,
0,
0,
0,
0,
0,
0,
0,
0,
0,
0,
0,
0,
0,
0,
0,
0,
0,
0,
0,
0,
0,
0,
0,
0,
0,
0,
0,
0,
0,
0,
0,
0,
0,
0,
0,
0,
0,
0,
0,
0,
0,
0,
0,
0,
0,
0,
0,
0,
0,
0,
0,
0,
0,
0,
0,
0,
0,
0,
0,
0,
0,
0,
0,
0,
0,
0,
0,
0,
0,
0,
0,
0,
0,
0,
0,
0,
0,
0,
0,
0,
0,
0,
0,
0,
0,
0,
0,
0,
0,
0,
0,
0,
0,
0,
0,
0,
0,
0,
0,
0,
0,
0,
0,
0,
0,
0,
0,
0,
0,
0,
0,
0,
0,
0,
0,
0,
0,
0,
0,
0,
0,
0,
0,
0,
0,
0,
0,
0,
0,
0,
0,
0,
0,
0,
0,
0,
0,
0,
0,
0,
0,
0,
0,
0,
0,
0,
0,
0,
0,
0,
0,
0,
0,
0,
0,
0,
0,
0,
0,
0,
0,
0,
0,
0,
0,
0,
0,
0,
0,
0,
0,
0,
0,
0,
0,
0,
0,
0,
0,
0,
0,
0,
0,
0,
0,
0,
0,
0,
0,
0,
0,
0,
0,
0,
0,
0,
0,
0,
0,
0,
0,
0,
0,
0,
0,
0,
0,
0,
0,
0,
0,
0,
0,
0,
0,
0,
0,
0,
0,
0,
0,
0,
0,
0,
0,
0,
0,
0,
0,
0,
0,
0,
0,
0,
0,
0,
0,
0,
0,
0,
0,
0,
0,
0,
0,
0,
0,
0,
0,
0,
0,
0,
0,
0,
0,
0,
0,
0,
0,
0,
0,
0,
0,
0,
0,
0,
0,
0,
0,
0,
0,
0,
0,
0,
0,
0,
0,
0,
0,
0,
0,
0,
0,
0,
0,
0,
0,
0,
0,
0,
0,
0,
0,
0,
0,
0,
0,
0,
0,
0,
0,
0,
0,
0,
0,
0,
0,
0,
0,
0,
0,
0,
0,
0,
0,
0,
0,
0,
0,
0,
0,
0,
0,
0,
0,
0,
0,
0,
0,
0,
0,
0,
0,
0,
0,
0,
0,
0,
0,
0,
0,
0,
0,
0,
0,
0,
0,
0,
0,
0,
0,
0,
0,
0,
0,
0,
0,
0,
0,
0,
0,
0,
0,
0,
0,
0,
0,
0,
0,
0,
0,
0,
0,
0,
0,
0,
0,
0,
0,
0,
0,
0,
0,
0,
0,
0,
0,
0,
0,
0,
0,
0,
0,
0,
0,
0,
0,
0,
0,
0,
0,
0,
0,
0,
0,
0,
0,
0,
0,
0,
0,
0,
0,
0,
0,
0,
0,
0,
0,
0,
0,
0,
0,
0,
0,
0,
0,
0,
0,
0,
0,
0,
0,
0,
0,
0,
0,
0,
0,
0,
0,
0,
0,
0,
0,
0,
0,
0,
0,
0,
0,
0,
0,
0,
0,
0,
0,
0,
0,
0,
0,
0,
0,
0,
0,
0,
0,
0,
0,
0,
0,
0,
0,
0,
0,
0,
0,
0,
0,
0,
0,
0,
0,
0,
0,
0,
0,
0,
0,
0,
0,
0,
0,
0,
0,
0,
0,
0,
0,
0,
0,
0,
0,
0,
0,
0,
0,
0,
0,
0,
0,
0,
0,
0,
0,
0,
0,
0,
0,
0,
0,
0,
0,
0,
0,
0,
0,
0,
0,
0,
0,
0,
0,
0,
0,
0,
0,
0,
0,
0,
0,
0,
0,
0,
0,
0,
0,
0,
0,
0,
0,
0,
0,
0,
0,
0,
0,
0,
0,
0,
0,
#ENDOFDATA   :