File: N132962/Quantification/15 keV/Mengason MM2/MMM2 Pentlandite[0][4].msa
#FORMAT      : EMSA/MAS Spectral Data File
#VERSION     : 1.0
#TITLE       : MMM2 Pentlandite[0][all]
#DATE        : 28-SEP-2025
#TIME        : 21:38
#OWNER       : Unknown
#NPOINTS     : 4096
#NCOLUMNS    : 1
#XUNITS      : eV
#YUNITS      : counts
#DATATYPE    : Y
#XPERCHAN    : 9.99778
#OFFSET      : 1.69135
#BEAMKV      : 15
#SIGNALTYPE  : EDS
#ELEVANGLE   : 35
#AZIMANGLE   : 0
#LIVETIME    : 240.252
#REALTIME    : 257.835
#PROBECUR    : 1.21217
#TAUWIND     : 0
#TDEADLYR    : 0
#TACTLYR     : 0.045
#TALWIND     : 0.025
#CHOFFSET    : 0.0
#XLABEL      : Energy (eV)
#YLABEL      : Counts
#XPOSITION   : -15.82754
#YPOSITION   : -2.34693
#ZPOSITION   : 34.11879
#EDSDET      : SD
##SPECIMEN   : MMM2 Pentlandite[0][all]
##DET_HASH   : 12273538-fd48-a23f-0a19-f1e6fa85caef
##CALIB_HASH : 6abaa72c-aa41-8738-0be9-f592914732f3
##WORKING    : 15.0 mm
##DET_NAME   : EDAX All
##DET_MODE   : MediumLE
#SPECTRUM    :
30,
23,
9,
69,
287,
856,
1633,
4973,
14126,
17736,
9075,
4063,
3813,
4243,
4729,
5696,
7273,
10119,
13548,
18483,
23599,
25502,
38063,
63424,
59648,
32915,
24365,
49838,
87767,
73815,
29312,
9232,
5358,
4551,
4301,
4387,
4534,
4652,
4701,
4967,
4976,
5287,
5377,
5469,
5737,
5598,
5739,
5841,
6069,
6002,
6137,
5921,
6102,
6038,
6034,
6146,
6282,
6703,
6927,
6772,
6605,
6349,
5761,
5456,
5639,
5788,
5729,
5824,
5769,
5847,
5936,
6462,
8462,
13530,
29253,
76993,
154384,
192671,
140268,
62150,
22778,
16420,
18389,
15541,
9570,
5843,
4462,
4085,
3809,
3810,
3788,
3905,
3858,
3687,
3711,
3845,
3847,
3860,
3797,
3722,
3843,
3853,
3759,
3669,
3736,
3747,
3699,
3592,
3465,
3518,
3551,
3436,
3391,
3338,
3406,
3314,
3246,
3270,
3247,
3155,
3169,
3164,
3148,
3103,
3116,
3109,
2950,
3035,
2974,
2925,
2950,
2845,
2872,
2924,
2893,
2790,
2832,
2836,
2736,
2714,
2730,
2676,
2716,
2679,
2675,
2584,
2628,
2635,
2602,
2587,
2587,
2556,
2688,
2683,
2714,
2718,
2679,
2494,
2435,
2360,
2276,
2374,
2260,
2335,
2218,
2269,
2129,
2208,
2226,
2234,
2162,
2161,
2187,
2103,
2031,
2041,
2039,
2092,
2035,
2094,
1978,
2062,
1937,
2015,
1946,
1946,
1929,
1872,
1880,
1967,
1954,
1877,
1842,
1906,
1831,
1758,
1808,
1760,
1795,
1723,
1743,
1647,
1744,
1700,
1691,
1734,
1792,
2060,
2558,
4614,
9843,
18923,
29686,
35475,
33118,
24296,
13874,
6582,
3169,
1933,
1614,
1443,
1523,
1441,
1468,
1458,
1474,
1543,
1623,
1824,
2150,
2565,
3218,
4232,
5203,
5707,
5177,
4156,
2858,
1947,
1577,
1392,
1440,
1568,
2508,
4756,
9362,
15556,
21116,
23497,
21148,
14993,
8561,
4510,
2272,
1454,
1212,
1110,
1089,
1050,
1128,
1008,
1023,
1023,
993,
1033,
1042,
1033,
1052,
1158,
1164,
1488,
1875,
2654,
3279,
3952,
3581,
2970,
2313,
1636,
1193,
956,
882,
823,
802,
786,
825,
841,
811,
892,
867,
822,
855,
787,
748,
767,
778,
771,
731,
714,
746,
758,
711,
715,
688,
698,
713,
619,
662,
644,
660,
691,
637,
633,
665,
666,
672,
639,
624,
628,
649,
642,
628,
644,
638,
674,
631,
652,
630,
578,
586,
529,
581,
523,
577,
562,
574,
513,
515,
506,
510,
539,
524,
517,
492,
506,
514,
438,
458,
507,
463,
460,
473,
450,
477,
438,
430,
420,
396,
423,
388,
411,
412,
392,
390,
363,
418,
391,
391,
374,
383,
398,
344,
337,
386,
348,
335,
342,
343,
319,
322,
313,
337,
290,
353,
306,
304,
296,
303,
314,
267,
243,
279,
262,
278,
285,
263,
304,
234,
250,
207,
266,
251,
219,
227,
246,
233,
231,
226,
219,
229,
221,
195,
221,
208,
204,
195,
229,
195,
193,
208,
163,
159,
170,
181,
173,
163,
164,
170,
180,
163,
156,
140,
127,
144,
126,
146,
137,
142,
122,
152,
109,
137,
132,
106,
110,
116,
106,
101,
104,
110,
89,
81,
80,
81,
79,
91,
79,
97,
96,
69,
80,
86,
92,
81,
72,
74,
79,
81,
49,
52,
44,
57,
50,
46,
46,
44,
39,
43,
43,
45,
43,
29,
29,
24,
35,
35,
24,
16,
19,
23,
17,
22,
16,
15,
16,
10,
1,
8,
5,
2,
3,
3,
2,
0,
2,
2,
0,
4,
1,
3,
1,
2,
3,
2,
2,
2,
2,
3,
2,
2,
0,
1,
1,
2,
2,
2,
2,
1,
2,
0,
2,
0,
0,
3,
1,
2,
2,
0,
3,
0,
1,
0,
1,
4,
0,
1,
0,
2,
0,
2,
0,
2,
0,
1,
1,
1,
0,
1,
0,
0,
1,
0,
0,
1,
2,
3,
3,
0,
0,
2,
1,
1,
2,
1,
0,
1,
1,
1,
2,
1,
1,
2,
2,
0,
0,
0,
1,
0,
2,
1,
0,
1,
0,
0,
0,
1,
0,
0,
1,
1,
1,
1,
1,
0,
1,
1,
2,
0,
1,
1,
0,
0,
1,
0,
1,
0,
1,
0,
0,
0,
1,
0,
1,
0,
2,
0,
1,
0,
0,
1,
1,
0,
0,
2,
0,
1,
0,
0,
0,
0,
0,
0,
0,
1,
0,
0,
0,
0,
0,
0,
1,
0,
0,
0,
1,
1,
0,
0,
0,
0,
0,
0,
0,
0,
0,
0,
1,
0,
0,
0,
0,
1,
1,
0,
0,
0,
0,
1,
0,
0,
0,
0,
0,
1,
0,
0,
0,
0,
1,
0,
0,
0,
0,
0,
0,
1,
0,
0,
0,
0,
0,
1,
0,
0,
0,
0,
0,
0,
0,
0,
0,
0,
0,
0,
0,
1,
0,
0,
0,
0,
0,
0,
0,
0,
0,
0,
0,
0,
0,
0,
0,
0,
0,
0,
0,
0,
0,
0,
0,
0,
0,
0,
0,
0,
0,
0,
0,
0,
0,
0,
0,
0,
0,
0,
0,
0,
0,
0,
0,
0,
0,
0,
0,
0,
0,
0,
0,
0,
0,
1,
0,
0,
0,
0,
0,
0,
0,
0,
0,
0,
0,
0,
0,
0,
0,
0,
0,
0,
0,
0,
0,
0,
0,
0,
0,
0,
0,
0,
0,
0,
0,
0,
0,
0,
0,
0,
0,
0,
0,
0,
0,
0,
0,
0,
0,
0,
0,
0,
0,
0,
0,
0,
0,
0,
0,
0,
0,
0,
0,
0,
0,
0,
0,
0,
0,
0,
0,
0,
0,
0,
0,
0,
0,
0,
0,
0,
0,
0,
0,
0,
0,
0,
0,
0,
0,
0,
0,
0,
0,
0,
0,
0,
0,
0,
0,
0,
0,
0,
0,
0,
0,
0,
0,
0,
0,
0,
0,
0,
0,
0,
0,
0,
0,
0,
0,
0,
0,
0,
0,
0,
0,
0,
0,
0,
0,
0,
0,
0,
0,
0,
0,
0,
0,
0,
0,
0,
0,
0,
0,
0,
0,
0,
0,
0,
0,
0,
0,
0,
0,
0,
0,
0,
0,
0,
0,
0,
0,
0,
0,
0,
0,
0,
0,
0,
0,
0,
0,
0,
0,
0,
0,
0,
0,
0,
0,
0,
0,
0,
0,
0,
0,
0,
0,
0,
0,
0,
0,
0,
0,
0,
0,
0,
0,
0,
0,
0,
0,
0,
0,
0,
0,
0,
0,
0,
0,
0,
0,
0,
0,
0,
0,
0,
0,
0,
0,
0,
0,
0,
0,
0,
0,
0,
0,
0,
0,
0,
0,
0,
0,
0,
0,
0,
0,
0,
0,
0,
0,
0,
0,
0,
0,
0,
0,
0,
0,
0,
0,
0,
0,
0,
0,
0,
0,
0,
0,
0,
0,
0,
0,
0,
0,
0,
0,
0,
0,
0,
0,
0,
0,
0,
0,
0,
0,
0,
0,
0,
0,
0,
0,
0,
0,
0,
0,
0,
0,
0,
0,
0,
0,
0,
0,
0,
0,
0,
0,
0,
0,
0,
0,
0,
0,
0,
0,
0,
0,
0,
0,
0,
0,
0,
0,
0,
0,
0,
0,
0,
0,
0,
0,
0,
0,
0,
0,
0,
0,
0,
0,
0,
0,
0,
0,
0,
0,
0,
0,
0,
0,
0,
0,
0,
0,
0,
0,
0,
0,
0,
0,
0,
0,
0,
0,
0,
0,
0,
0,
0,
0,
0,
0,
0,
0,
0,
0,
0,
0,
0,
0,
0,
0,
0,
0,
0,
0,
0,
0,
0,
0,
0,
0,
0,
0,
0,
0,
0,
0,
0,
0,
0,
0,
0,
0,
0,
0,
0,
0,
0,
0,
0,
0,
0,
0,
0,
0,
0,
0,
0,
0,
0,
0,
0,
0,
0,
0,
0,
0,
0,
0,
0,
0,
0,
0,
0,
0,
0,
0,
0,
0,
0,
0,
0,
0,
0,
0,
0,
0,
0,
0,
0,
0,
0,
0,
0,
0,
0,
0,
0,
0,
0,
0,
0,
0,
0,
0,
0,
0,
0,
0,
0,
0,
0,
0,
0,
0,
0,
0,
0,
0,
0,
0,
0,
0,
0,
0,
0,
0,
0,
0,
0,
0,
0,
0,
0,
0,
0,
0,
0,
0,
0,
0,
0,
0,
0,
0,
0,
0,
0,
0,
0,
0,
0,
0,
0,
0,
0,
0,
0,
0,
0,
0,
0,
0,
0,
0,
0,
0,
0,
0,
0,
0,
0,
0,
0,
0,
0,
0,
0,
0,
0,
0,
0,
0,
0,
0,
0,
0,
0,
0,
0,
0,
0,
0,
0,
0,
0,
0,
0,
0,
0,
0,
0,
0,
0,
0,
0,
0,
0,
0,
0,
0,
0,
0,
0,
0,
0,
0,
0,
0,
0,
0,
0,
0,
0,
0,
0,
0,
0,
0,
0,
0,
0,
0,
0,
0,
0,
0,
0,
0,
0,
0,
0,
0,
0,
0,
0,
0,
#ENDOFDATA   :