File: N132962/Quantification/15 keV/Mengason MM2/MMM2 Pentlandite[3][4].msa
#FORMAT      : EMSA/MAS Spectral Data File
#VERSION     : 1.0
#TITLE       : MMM2 Pentlandite[3][all]
#DATE        : 28-SEP-2025
#TIME        : 21:41
#OWNER       : Unknown
#NPOINTS     : 4096
#NCOLUMNS    : 1
#XUNITS      : eV
#YUNITS      : counts
#DATATYPE    : Y
#XPERCHAN    : 9.99778
#OFFSET      : 1.69135
#BEAMKV      : 15
#SIGNALTYPE  : EDS
#ELEVANGLE   : 35
#AZIMANGLE   : 0
#LIVETIME    : 240.193
#REALTIME    : 257.764
#PROBECUR    : 1.21217
#TAUWIND     : 0
#TDEADLYR    : 0
#TACTLYR     : 0.045
#TALWIND     : 0.025
#CHOFFSET    : 0.0
#XLABEL      : Energy (eV)
#YLABEL      : Counts
#XPOSITION   : -15.88893
#YPOSITION   : -2.34929
#ZPOSITION   : 34.11879
#EDSDET      : SD
##SPECIMEN   : MMM2 Pentlandite[3][all]
##DET_HASH   : 12273538-fd48-a23f-0a19-f1e6fa85caef
##CALIB_HASH : 6abaa72c-aa41-8738-0be9-f592914732f3
##WORKING    : 15.0 mm
##DET_NAME   : EDAX All
##DET_MODE   : MediumLE
#SPECTRUM    :
27,
31,
7,
46,
323,
770,
1648,
4821,
14152,
18196,
9041,
4026,
3873,
4125,
4860,
5788,
7617,
10431,
13543,
18274,
23685,
25308,
37855,
63722,
59487,
32776,
24476,
49734,
87415,
73746,
29308,
9074,
5274,
4565,
4296,
4382,
4515,
4677,
4929,
4925,
5072,
5231,
5372,
5543,
5593,
5651,
5837,
5774,
5838,
6182,
6148,
6185,
6055,
6122,
6047,
5957,
6324,
6568,
6926,
6854,
6541,
6242,
5740,
5610,
5791,
5591,
5696,
5659,
5803,
5891,
5832,
6515,
8525,
13428,
29135,
76144,
154658,
193240,
140725,
62075,
22641,
16492,
18164,
15508,
9929,
5750,
4391,
3978,
3822,
3841,
3876,
3722,
3815,
3791,
3684,
3742,
3822,
3817,
3827,
3797,
3979,
3776,
3728,
3647,
3743,
3806,
3799,
3602,
3607,
3519,
3480,
3416,
3351,
3280,
3407,
3391,
3280,
3158,
3293,
3197,
3173,
3158,
3141,
3100,
3050,
2952,
3127,
2999,
2925,
2991,
2962,
2975,
2946,
2908,
2866,
2762,
2782,
2788,
2815,
2705,
2749,
2677,
2677,
2728,
2546,
2634,
2603,
2621,
2728,
2518,
2685,
2572,
2735,
2722,
2817,
2758,
2715,
2600,
2448,
2406,
2423,
2328,
2316,
2303,
2250,
2293,
2199,
2235,
2201,
2170,
2163,
2128,
2113,
2211,
2173,
2097,
2003,
2066,
2037,
2025,
1949,
2015,
2045,
1964,
1902,
1937,
1901,
1948,
1959,
1962,
1876,
1897,
1920,
1837,
1774,
1826,
1727,
1762,
1702,
1701,
1757,
1727,
1722,
1719,
1733,
1776,
1881,
2018,
2646,
4703,
9684,
18795,
28896,
35223,
33172,
23995,
13655,
6822,
3106,
2004,
1663,
1475,
1530,
1464,
1458,
1426,
1468,
1544,
1691,
1795,
2068,
2470,
3160,
4178,
5196,
5695,
5224,
4058,
2835,
1994,
1539,
1374,
1371,
1679,
2544,
4868,
9060,
15432,
21305,
23698,
20875,
15045,
8729,
4383,
2194,
1512,
1235,
1091,
1095,
1115,
1041,
1041,
1015,
1105,
1059,
960,
1067,
983,
1047,
1056,
1153,
1448,
1849,
2654,
3357,
3865,
3796,
3059,
2372,
1638,
1159,
950,
838,
861,
838,
828,
881,
830,
816,
843,
870,
832,
820,
773,
752,
724,
768,
791,
733,
803,
712,
764,
690,
765,
722,
694,
661,
688,
688,
648,
662,
657,
671,
583,
647,
673,
670,
659,
643,
644,
644,
554,
611,
636,
644,
634,
664,
613,
585,
580,
562,
569,
598,
578,
568,
567,
534,
544,
505,
482,
503,
494,
496,
491,
528,
518,
493,
481,
453,
453,
460,
476,
493,
471,
461,
441,
444,
471,
441,
420,
405,
421,
418,
398,
365,
417,
406,
401,
357,
349,
367,
387,
362,
363,
357,
347,
356,
348,
341,
327,
333,
331,
301,
337,
328,
282,
327,
301,
296,
283,
325,
286,
304,
283,
292,
269,
292,
289,
275,
248,
261,
249,
259,
245,
255,
227,
229,
235,
217,
216,
216,
194,
230,
216,
198,
199,
207,
186,
225,
194,
205,
170,
162,
179,
167,
175,
176,
177,
161,
150,
145,
167,
155,
132,
158,
126,
128,
136,
136,
121,
126,
115,
135,
127,
123,
135,
106,
108,
117,
82,
109,
91,
83,
99,
91,
102,
82,
86,
89,
78,
83,
81,
65,
69,
59,
79,
71,
57,
59,
50,
59,
54,
51,
53,
49,
53,
47,
49,
49,
30,
34,
26,
38,
31,
27,
31,
27,
21,
26,
34,
15,
16,
15,
8,
18,
14,
10,
6,
7,
5,
12,
4,
2,
4,
0,
1,
0,
3,
1,
2,
3,
1,
2,
4,
2,
0,
0,
0,
1,
2,
1,
0,
3,
3,
1,
4,
3,
1,
2,
0,
2,
3,
1,
0,
3,
1,
0,
0,
2,
2,
1,
2,
0,
1,
0,
1,
2,
2,
0,
1,
1,
3,
1,
0,
2,
0,
1,
1,
1,
1,
0,
2,
0,
1,
1,
1,
1,
2,
1,
3,
2,
1,
0,
0,
1,
0,
1,
0,
0,
1,
3,
1,
1,
2,
2,
1,
2,
1,
2,
1,
2,
0,
0,
1,
1,
1,
0,
1,
1,
1,
3,
2,
0,
1,
0,
2,
0,
1,
0,
1,
1,
1,
0,
0,
0,
0,
0,
0,
0,
1,
1,
1,
2,
0,
0,
0,
1,
1,
1,
1,
0,
0,
0,
1,
1,
0,
0,
1,
1,
1,
1,
0,
0,
0,
1,
0,
0,
0,
0,
0,
0,
1,
0,
0,
0,
3,
1,
0,
1,
0,
0,
1,
0,
1,
0,
0,
0,
0,
0,
1,
0,
0,
0,
0,
1,
0,
0,
0,
0,
0,
0,
0,
0,
0,
0,
1,
0,
0,
0,
0,
0,
1,
0,
0,
0,
0,
1,
0,
1,
0,
0,
0,
0,
1,
0,
1,
0,
0,
0,
0,
0,
0,
1,
0,
0,
0,
0,
0,
0,
0,
0,
0,
0,
0,
0,
0,
0,
0,
0,
1,
0,
0,
0,
0,
0,
0,
0,
0,
0,
0,
0,
0,
0,
0,
0,
0,
0,
0,
0,
0,
0,
0,
0,
0,
0,
0,
0,
0,
0,
0,
0,
0,
0,
0,
1,
0,
0,
0,
0,
0,
0,
0,
0,
0,
0,
0,
0,
0,
0,
0,
0,
0,
0,
0,
0,
0,
0,
0,
0,
0,
0,
1,
0,
0,
0,
0,
0,
0,
0,
0,
0,
0,
0,
0,
0,
0,
0,
0,
0,
0,
0,
0,
0,
0,
0,
0,
0,
0,
0,
0,
0,
0,
0,
0,
0,
0,
0,
0,
0,
0,
0,
0,
0,
0,
0,
0,
0,
0,
0,
0,
0,
0,
0,
0,
0,
0,
0,
0,
0,
0,
0,
0,
0,
0,
0,
0,
0,
0,
0,
0,
0,
0,
0,
0,
0,
0,
0,
0,
0,
0,
0,
0,
0,
0,
0,
0,
0,
0,
0,
0,
0,
0,
0,
0,
0,
0,
0,
0,
0,
0,
0,
0,
0,
0,
0,
0,
0,
0,
0,
0,
0,
0,
0,
0,
0,
0,
0,
0,
0,
0,
0,
0,
0,
0,
0,
0,
0,
0,
0,
0,
0,
0,
0,
0,
0,
0,
0,
0,
0,
0,
0,
0,
0,
0,
0,
0,
0,
0,
0,
0,
0,
0,
0,
0,
0,
0,
0,
0,
0,
0,
0,
0,
0,
0,
0,
0,
0,
0,
0,
0,
0,
0,
0,
0,
0,
0,
0,
0,
0,
0,
0,
0,
0,
0,
0,
0,
0,
0,
0,
0,
0,
0,
0,
0,
0,
0,
0,
0,
0,
0,
0,
0,
0,
0,
0,
0,
0,
0,
0,
0,
0,
0,
0,
0,
0,
0,
0,
0,
0,
0,
0,
0,
0,
0,
0,
0,
0,
0,
0,
0,
0,
0,
0,
0,
0,
0,
0,
0,
0,
0,
0,
0,
0,
0,
0,
0,
0,
0,
0,
0,
0,
0,
0,
0,
0,
0,
0,
0,
0,
0,
0,
0,
0,
0,
0,
0,
0,
0,
0,
0,
0,
0,
0,
0,
0,
0,
0,
0,
0,
0,
0,
0,
0,
0,
0,
0,
0,
0,
0,
0,
0,
0,
0,
0,
0,
0,
0,
0,
0,
0,
0,
0,
0,
0,
0,
0,
0,
0,
0,
0,
0,
0,
0,
0,
0,
0,
0,
0,
0,
0,
0,
0,
0,
0,
0,
0,
0,
0,
0,
0,
0,
0,
0,
0,
0,
0,
0,
0,
0,
0,
0,
0,
0,
0,
0,
0,
0,
0,
0,
0,
0,
0,
0,
0,
0,
0,
0,
0,
0,
0,
0,
0,
0,
0,
0,
0,
0,
0,
0,
0,
0,
0,
0,
0,
0,
0,
0,
0,
0,
0,
0,
0,
0,
0,
0,
0,
0,
0,
0,
0,
0,
0,
0,
0,
0,
0,
0,
0,
0,
0,
0,
0,
0,
0,
0,
0,
0,
0,
0,
0,
0,
0,
0,
0,
0,
0,
0,
0,
0,
0,
0,
0,
0,
0,
0,
0,
0,
0,
0,
0,
0,
0,
0,
0,
0,
0,
0,
0,
0,
0,
0,
0,
0,
0,
0,
0,
0,
0,
0,
0,
0,
0,
0,
0,
0,
0,
0,
0,
0,
0,
0,
0,
0,
0,
0,
0,
0,
0,
0,
0,
0,
0,
0,
0,
0,
0,
0,
0,
0,
0,
0,
0,
0,
0,
0,
0,
0,
0,
0,
0,
0,
0,
0,
0,
0,
0,
0,
0,
0,
0,
0,
0,
0,
0,
0,
0,
0,
0,
0,
0,
0,
0,
0,
0,
0,
0,
0,
0,
0,
0,
0,
0,
0,
0,
0,
0,
0,
0,
0,
0,
0,
0,
0,
0,
0,
0,
0,
0,
0,
0,
0,
0,
0,
0,
0,
0,
0,
0,
0,
0,
0,
0,
0,
0,
0,
0,
0,
0,
0,
0,
0,
0,
0,
0,
0,
0,
0,
0,
0,
0,
0,
0,
0,
0,
0,
0,
#ENDOFDATA   :