File: N132962/Quantification/15 keV/Mengason MM2/MMM2 Pyrite[6][4].msa
#FORMAT      : EMSA/MAS Spectral Data File
#VERSION     : 1.0
#TITLE       : MMM2 Pyrite[6][all]
#DATE        : 28-SEP-2025
#TIME        : 20:53
#OWNER       : Unknown
#NPOINTS     : 4096
#NCOLUMNS    : 1
#XUNITS      : eV
#YUNITS      : counts
#DATATYPE    : Y
#XPERCHAN    : 9.99778
#OFFSET      : 1.69135
#BEAMKV      : 15
#SIGNALTYPE  : EDS
#ELEVANGLE   : 35
#AZIMANGLE   : 0
#LIVETIME    : 240.179
#REALTIME    : 258.991
#PROBECUR    : 1.21333
#TAUWIND     : 0
#TDEADLYR    : 0
#TACTLYR     : 0.045
#TALWIND     : 0.025
#CHOFFSET    : 0.0
#XLABEL      : Energy (eV)
#YLABEL      : Counts
#XPOSITION   : -11.68033
#YPOSITION   : -4.30169
#ZPOSITION   : 34.11879
#EDSDET      : SD
##SPECIMEN   : MMM2 Pyrite[6][all]
##D2STDCMP   : Pyrite,(S:53.4528),(Fe:46.5472)
##DET_HASH   : 12273538-fd48-a23f-0a19-f1e6fa85caef
##CALIB_HASH : 6abaa72c-aa41-8738-0be9-f592914732f3
##WORKING    : 15.0 mm
##DET_NAME   : EDAX All
##DET_MODE   : MediumLE
#SPECTRUM    :
32,
24,
20,
80,
550,
1179,
1751,
4613,
12995,
16652,
8220,
3254,
3110,
3422,
3768,
4728,
6942,
10558,
15201,
21532,
26326,
28621,
47338,
81198,
68218,
25919,
8246,
5406,
4826,
4636,
4596,
4720,
4662,
4798,
5013,
5242,
5426,
5581,
5540,
5499,
5970,
6045,
6031,
6162,
6210,
6448,
6447,
6491,
6542,
6701,
6484,
6561,
6448,
6447,
6386,
6448,
6597,
7003,
7394,
7215,
6909,
6339,
6039,
5923,
5914,
5944,
6048,
6014,
6197,
6130,
6305,
7387,
10738,
19169,
46360,
126195,
259145,
325459,
235381,
101204,
34650,
23573,
26271,
22280,
12759,
6194,
3919,
3309,
3250,
3155,
3231,
3159,
3177,
3220,
3262,
3308,
3340,
3314,
3385,
3427,
3482,
3376,
3251,
3247,
3058,
3086,
3084,
2935,
3023,
2969,
2950,
2835,
2862,
2854,
2852,
2847,
2736,
2859,
2806,
2786,
2824,
2815,
2732,
2701,
2665,
2769,
2670,
2739,
2609,
2528,
2475,
2541,
2482,
2582,
2513,
2511,
2504,
2450,
2364,
2469,
2349,
2322,
2367,
2365,
2272,
2300,
2234,
2244,
2329,
2323,
2241,
2378,
2564,
2696,
2846,
2767,
2587,
2398,
2229,
2103,
2193,
2066,
2066,
2061,
1934,
1945,
1992,
1952,
1958,
1879,
1953,
1847,
1926,
1795,
1880,
1789,
1800,
1759,
1787,
1701,
1789,
1720,
1783,
1796,
1757,
1778,
1641,
1647,
1609,
1654,
1636,
1653,
1650,
1561,
1579,
1583,
1561,
1583,
1549,
1502,
1585,
1554,
1532,
1566,
1583,
1521,
1625,
1884,
2892,
5842,
12933,
25561,
39984,
48401,
45396,
32828,
18540,
8491,
3601,
1913,
1417,
1312,
1335,
1299,
1320,
1250,
1285,
1325,
1360,
1374,
1530,
2202,
3264,
4790,
6548,
7134,
6673,
5035,
3289,
2026,
1336,
1158,
985,
977,
960,
1016,
971,
1003,
976,
1033,
948,
921,
963,
911,
961,
971,
960,
891,
891,
874,
947,
835,
822,
816,
854,
867,
850,
795,
888,
843,
796,
843,
788,
820,
771,
803,
757,
787,
758,
779,
776,
767,
739,
737,
724,
702,
769,
725,
784,
790,
856,
818,
798,
700,
708,
715,
677,
657,
666,
648,
605,
654,
595,
627,
650,
593,
628,
571,
598,
566,
599,
601,
592,
557,
657,
586,
589,
557,
614,
506,
555,
546,
550,
486,
511,
513,
504,
492,
529,
509,
495,
488,
479,
469,
432,
431,
446,
476,
429,
458,
435,
438,
457,
452,
415,
429,
419,
403,
374,
411,
426,
372,
440,
407,
391,
348,
353,
341,
361,
340,
345,
362,
335,
387,
330,
323,
327,
313,
344,
362,
298,
330,
334,
298,
326,
260,
301,
319,
279,
274,
274,
259,
251,
269,
259,
273,
246,
249,
269,
264,
245,
231,
239,
221,
228,
208,
264,
230,
224,
210,
202,
200,
217,
230,
197,
198,
164,
170,
195,
193,
162,
193,
186,
196,
184,
191,
166,
175,
147,
162,
150,
182,
160,
170,
149,
146,
171,
143,
135,
157,
118,
136,
127,
126,
116,
118,
117,
111,
93,
116,
105,
92,
105,
118,
100,
73,
97,
96,
86,
92,
80,
86,
97,
86,
75,
73,
74,
81,
55,
74,
66,
40,
52,
61,
52,
54,
42,
50,
50,
44,
49,
55,
51,
43,
40,
35,
27,
32,
36,
25,
38,
27,
30,
25,
22,
22,
16,
18,
15,
18,
15,
8,
13,
10,
17,
9,
4,
4,
6,
3,
1,
3,
5,
1,
2,
1,
1,
1,
2,
0,
1,
0,
1,
2,
1,
0,
2,
0,
0,
1,
2,
1,
0,
1,
2,
0,
1,
0,
2,
1,
2,
0,
4,
2,
1,
0,
3,
2,
0,
1,
1,
2,
1,
0,
1,
1,
1,
1,
0,
2,
0,
1,
1,
0,
1,
0,
1,
0,
1,
0,
0,
1,
1,
0,
1,
0,
0,
0,
0,
1,
1,
0,
0,
0,
0,
0,
1,
0,
0,
0,
2,
0,
0,
0,
0,
1,
1,
0,
0,
0,
0,
0,
0,
0,
2,
1,
0,
0,
1,
1,
0,
1,
0,
0,
0,
0,
0,
0,
1,
0,
0,
0,
0,
0,
0,
0,
0,
1,
0,
0,
0,
0,
0,
1,
1,
0,
1,
3,
0,
0,
0,
0,
0,
0,
0,
1,
1,
0,
0,
0,
1,
0,
0,
0,
0,
0,
0,
0,
0,
0,
0,
2,
1,
0,
0,
0,
0,
0,
0,
0,
0,
0,
0,
0,
0,
1,
0,
0,
0,
0,
0,
0,
0,
0,
0,
0,
0,
0,
0,
0,
0,
0,
0,
0,
0,
0,
0,
0,
0,
0,
0,
0,
0,
0,
0,
0,
0,
0,
0,
0,
0,
0,
1,
0,
0,
0,
0,
0,
0,
0,
0,
0,
0,
0,
0,
0,
0,
0,
0,
0,
0,
0,
0,
0,
0,
0,
0,
0,
0,
0,
0,
0,
0,
0,
0,
0,
0,
0,
0,
0,
0,
0,
0,
0,
0,
0,
0,
0,
0,
0,
0,
0,
0,
0,
1,
0,
0,
0,
0,
0,
0,
0,
0,
0,
0,
0,
0,
0,
0,
0,
0,
0,
0,
0,
0,
0,
0,
0,
0,
0,
0,
0,
0,
0,
0,
0,
0,
0,
0,
0,
0,
0,
0,
0,
0,
0,
0,
0,
0,
0,
0,
0,
0,
0,
0,
0,
0,
0,
0,
0,
0,
0,
0,
0,
0,
0,
0,
0,
0,
0,
0,
0,
0,
0,
1,
0,
0,
0,
0,
0,
0,
0,
0,
0,
0,
0,
0,
0,
0,
0,
0,
0,
0,
0,
0,
0,
0,
0,
0,
0,
0,
0,
0,
0,
0,
0,
0,
0,
0,
0,
0,
0,
0,
0,
0,
0,
0,
0,
0,
0,
0,
0,
0,
0,
0,
0,
0,
0,
0,
0,
0,
0,
0,
0,
0,
0,
0,
0,
0,
0,
0,
0,
0,
0,
0,
0,
0,
0,
0,
0,
0,
0,
0,
0,
0,
0,
0,
0,
0,
0,
0,
0,
0,
0,
0,
0,
0,
0,
0,
0,
0,
0,
0,
0,
0,
0,
0,
0,
0,
0,
0,
0,
0,
0,
0,
0,
0,
0,
0,
0,
0,
0,
0,
0,
0,
0,
0,
0,
0,
0,
0,
0,
0,
0,
0,
0,
0,
0,
0,
0,
0,
0,
0,
0,
0,
0,
0,
0,
0,
0,
0,
0,
0,
0,
0,
0,
0,
0,
0,
0,
0,
0,
0,
0,
0,
0,
0,
0,
0,
0,
0,
0,
0,
0,
0,
0,
0,
0,
0,
0,
0,
0,
0,
0,
0,
0,
0,
0,
0,
0,
0,
0,
0,
0,
0,
0,
0,
0,
0,
0,
0,
0,
0,
0,
0,
0,
0,
0,
0,
0,
0,
0,
0,
0,
0,
0,
0,
0,
0,
0,
0,
0,
0,
0,
0,
0,
0,
0,
0,
0,
0,
0,
0,
0,
0,
0,
0,
0,
0,
0,
0,
0,
0,
0,
0,
0,
0,
0,
0,
0,
0,
0,
0,
0,
0,
0,
0,
0,
0,
0,
0,
0,
0,
0,
0,
0,
0,
0,
0,
0,
0,
0,
0,
0,
0,
0,
0,
0,
0,
0,
0,
0,
0,
0,
0,
0,
0,
0,
0,
0,
0,
0,
0,
0,
0,
0,
0,
0,
0,
0,
0,
0,
0,
0,
0,
0,
0,
0,
0,
0,
0,
0,
0,
0,
0,
0,
0,
0,
0,
0,
0,
0,
0,
0,
0,
0,
0,
0,
0,
0,
0,
0,
0,
0,
0,
0,
0,
0,
0,
0,
0,
0,
0,
0,
0,
0,
0,
0,
0,
0,
0,
0,
0,
0,
0,
0,
0,
0,
0,
0,
0,
0,
0,
0,
0,
0,
0,
0,
0,
0,
0,
0,
0,
0,
0,
0,
0,
0,
0,
0,
0,
0,
0,
0,
0,
0,
0,
0,
0,
0,
0,
0,
0,
0,
0,
0,
0,
0,
0,
0,
0,
0,
0,
0,
0,
0,
0,
0,
0,
0,
0,
0,
0,
0,
0,
0,
0,
0,
0,
0,
0,
0,
0,
0,
0,
0,
0,
0,
0,
0,
0,
0,
0,
0,
0,
0,
0,
0,
0,
0,
0,
0,
0,
0,
0,
0,
0,
0,
0,
0,
0,
0,
0,
0,
0,
0,
0,
0,
0,
0,
0,
0,
0,
0,
0,
0,
0,
0,
0,
0,
0,
0,
0,
0,
0,
0,
0,
0,
0,
0,
0,
0,
0,
0,
0,
0,
0,
0,
0,
0,
0,
0,
0,
0,
0,
0,
0,
0,
0,
0,
0,
0,
0,
0,
0,
0,
0,
0,
0,
0,
0,
0,
0,
0,
0,
0,
0,
0,
0,
0,
0,
0,
0,
0,
0,
0,
0,
0,
0,
0,
0,
0,
0,
0,
0,
0,
0,
0,
0,
0,
0,
0,
0,
0,
0,
0,
#ENDOFDATA   :