File: N132962/Quantification/15 keV/Mengason MM2/MMM2 Plagioclaise[0][4].msa
#FORMAT      : EMSA/MAS Spectral Data File
#VERSION     : 1.0
#TITLE       : MMM2 Plagioclaise[0][all]
#DATE        : 28-SEP-2025
#TIME        : 23:11
#OWNER       : Unknown
#NPOINTS     : 4096
#NCOLUMNS    : 1
#XUNITS      : eV
#YUNITS      : counts
#DATATYPE    : Y
#XPERCHAN    : 9.99778
#OFFSET      : 1.69135
#BEAMKV      : 15
#SIGNALTYPE  : EDS
#ELEVANGLE   : 35
#AZIMANGLE   : 0
#LIVETIME    : 240.289
#REALTIME    : 256.485
#PROBECUR    : 1.2132
#TAUWIND     : 0
#TDEADLYR    : 0
#TACTLYR     : 0.045
#TALWIND     : 0.025
#CHOFFSET    : 0.0
#XLABEL      : Energy (eV)
#YLABEL      : Counts
#XPOSITION   : -18.60386
#YPOSITION   : 2.00153
#ZPOSITION   : 34.11879
#EDSDET      : SD
##SPECIMEN   : MMM2 Plagioclaise[0][all]
##DET_HASH   : 12273538-fd48-a23f-0a19-f1e6fa85caef
##CALIB_HASH : 6abaa72c-aa41-8738-0be9-f592914732f3
##WORKING    : 15.0 mm
##DET_NAME   : EDAX All
##DET_MODE   : MediumLE
#SPECTRUM    :
27,
25,
9,
21,
79,
353,
1166,
3751,
10968,
14665,
8548,
4377,
3860,
4352,
7799,
28702,
110406,
210184,
152632,
39687,
5499,
2527,
2651,
3094,
3178,
3181,
3251,
3462,
3757,
3834,
4004,
4328,
5779,
11866,
23617,
26072,
14339,
6539,
4815,
4682,
4807,
5207,
5608,
5453,
5526,
5871,
7490,
19225,
64210,
128886,
130241,
67851,
22238,
8795,
6601,
14623,
54567,
139905,
190537,
134191,
54019,
18519,
8965,
5034,
3325,
3117,
3118,
3144,
2745,
2662,
2533,
2626,
2554,
2727,
2842,
3032,
2993,
2686,
2497,
2435,
2391,
2372,
2351,
2336,
2355,
2398,
2289,
2339,
2280,
2220,
2276,
2191,
2198,
2289,
2201,
2192,
2112,
2186,
2183,
2145,
2174,
2144,
1982,
1988,
2015,
2036,
2066,
2299,
2492,
2794,
3070,
2948,
2380,
2132,
2030,
2039,
2172,
2205,
2310,
3106,
5826,
12967,
23043,
28739,
24184,
14490,
6217,
2781,
1859,
1775,
1917,
2321,
3308,
4364,
4713,
3930,
2821,
1890,
1553,
1500,
1484,
1356,
1375,
1328,
1327,
1258,
1316,
1298,
1313,
1302,
1376,
1354,
1290,
1223,
1182,
1185,
1180,
1198,
1136,
1142,
1106,
1197,
1157,
1133,
1101,
1125,
1081,
1010,
1016,
1047,
980,
1075,
1043,
1023,
1039,
988,
1095,
951,
1078,
1022,
1032,
998,
1012,
992,
967,
909,
906,
906,
878,
839,
836,
896,
883,
884,
805,
857,
799,
865,
869,
796,
763,
777,
778,
743,
801,
786,
737,
766,
721,
751,
797,
867,
907,
1033,
915,
881,
810,
724,
734,
643,
687,
670,
686,
675,
612,
608,
598,
611,
628,
604,
656,
647,
631,
618,
588,
645,
595,
628,
552,
579,
551,
563,
591,
502,
578,
559,
536,
528,
541,
486,
522,
517,
472,
495,
437,
503,
522,
463,
476,
467,
470,
463,
449,
491,
476,
438,
466,
468,
454,
399,
421,
421,
443,
436,
402,
408,
407,
415,
396,
348,
382,
432,
389,
375,
383,
375,
374,
352,
340,
379,
359,
368,
347,
346,
323,
332,
376,
314,
334,
337,
339,
310,
331,
305,
330,
312,
286,
277,
310,
314,
303,
296,
280,
280,
275,
263,
291,
303,
260,
290,
278,
264,
268,
260,
228,
264,
242,
286,
246,
248,
231,
236,
227,
231,
211,
214,
210,
230,
210,
221,
224,
205,
232,
217,
212,
225,
204,
183,
191,
175,
195,
188,
182,
167,
188,
208,
163,
165,
154,
165,
203,
154,
164,
146,
146,
156,
153,
151,
120,
161,
146,
152,
145,
140,
134,
159,
137,
117,
108,
126,
146,
130,
128,
146,
120,
110,
121,
112,
133,
115,
124,
118,
112,
138,
115,
110,
104,
105,
94,
120,
83,
106,
76,
100,
82,
106,
96,
80,
85,
66,
86,
86,
99,
68,
82,
79,
77,
72,
69,
82,
64,
64,
66,
52,
75,
64,
59,
61,
61,
58,
44,
51,
46,
57,
60,
56,
52,
46,
43,
45,
46,
50,
37,
51,
44,
31,
46,
44,
33,
35,
35,
35,
32,
38,
29,
34,
26,
23,
26,
25,
20,
34,
26,
22,
20,
18,
22,
31,
16,
13,
16,
18,
16,
18,
13,
14,
23,
20,
8,
17,
8,
16,
12,
10,
6,
7,
5,
10,
8,
7,
6,
2,
6,
5,
5,
3,
4,
2,
0,
2,
0,
0,
1,
0,
0,
0,
1,
0,
0,
0,
1,
0,
0,
1,
1,
0,
0,
0,
0,
0,
0,
0,
0,
1,
0,
1,
0,
1,
0,
0,
0,
0,
0,
0,
0,
0,
0,
0,
0,
0,
0,
0,
0,
0,
1,
1,
0,
0,
0,
0,
0,
0,
0,
0,
0,
0,
0,
0,
0,
0,
0,
0,
0,
1,
0,
0,
0,
0,
0,
0,
0,
0,
0,
0,
0,
0,
0,
0,
0,
0,
1,
0,
0,
0,
0,
0,
0,
0,
0,
0,
0,
0,
0,
0,
0,
0,
0,
0,
0,
0,
0,
0,
0,
0,
0,
0,
0,
0,
0,
0,
0,
0,
0,
0,
0,
0,
0,
0,
0,
0,
0,
0,
0,
0,
0,
1,
0,
0,
0,
0,
0,
0,
0,
0,
0,
0,
0,
0,
0,
0,
0,
0,
0,
0,
0,
0,
0,
0,
0,
0,
0,
0,
0,
0,
0,
0,
0,
0,
0,
1,
0,
0,
0,
0,
0,
0,
0,
1,
0,
1,
0,
0,
0,
0,
0,
0,
0,
0,
0,
0,
0,
0,
0,
0,
0,
0,
0,
0,
0,
0,
0,
0,
0,
0,
0,
0,
0,
0,
0,
0,
0,
0,
0,
0,
0,
0,
0,
0,
0,
0,
0,
0,
0,
0,
0,
0,
0,
0,
0,
0,
0,
0,
0,
0,
0,
0,
0,
0,
0,
0,
0,
0,
0,
0,
0,
0,
0,
0,
0,
0,
0,
0,
0,
0,
0,
0,
0,
0,
0,
0,
0,
0,
0,
0,
0,
0,
0,
0,
0,
0,
0,
0,
0,
0,
0,
0,
0,
0,
0,
0,
0,
0,
0,
0,
0,
0,
0,
0,
0,
0,
0,
0,
0,
0,
0,
0,
0,
0,
0,
0,
0,
0,
0,
0,
0,
0,
0,
0,
0,
0,
0,
0,
0,
0,
0,
0,
0,
0,
0,
0,
0,
0,
0,
0,
0,
0,
0,
0,
0,
0,
0,
0,
0,
0,
0,
0,
0,
0,
0,
0,
0,
0,
0,
0,
0,
0,
0,
0,
0,
0,
0,
0,
0,
0,
0,
0,
0,
0,
0,
0,
0,
0,
0,
0,
0,
0,
0,
0,
0,
0,
0,
0,
0,
0,
0,
0,
0,
0,
0,
0,
0,
0,
0,
0,
0,
0,
0,
0,
0,
0,
0,
0,
0,
0,
0,
0,
0,
0,
0,
0,
0,
0,
0,
0,
0,
0,
0,
0,
0,
0,
0,
0,
0,
0,
0,
0,
0,
0,
0,
0,
0,
0,
0,
0,
0,
0,
0,
0,
0,
0,
0,
0,
0,
0,
0,
0,
0,
0,
0,
0,
0,
0,
0,
0,
0,
0,
0,
0,
0,
0,
0,
0,
0,
0,
0,
0,
0,
0,
0,
0,
0,
0,
0,
0,
0,
0,
0,
0,
0,
0,
0,
0,
0,
0,
0,
0,
0,
0,
0,
0,
0,
0,
0,
0,
0,
0,
0,
0,
0,
0,
0,
0,
0,
0,
0,
0,
0,
0,
0,
0,
0,
0,
0,
0,
0,
0,
0,
0,
0,
0,
0,
0,
0,
0,
0,
0,
0,
0,
0,
0,
0,
0,
0,
0,
0,
0,
0,
0,
0,
0,
0,
0,
0,
0,
0,
0,
0,
0,
0,
0,
0,
0,
0,
0,
0,
0,
0,
0,
0,
0,
0,
0,
0,
0,
0,
0,
0,
0,
0,
0,
0,
0,
0,
0,
0,
0,
0,
0,
0,
0,
0,
0,
0,
0,
0,
0,
0,
0,
0,
0,
0,
0,
0,
0,
0,
0,
0,
0,
0,
0,
0,
0,
0,
0,
0,
0,
0,
0,
0,
0,
0,
0,
0,
0,
0,
0,
0,
0,
0,
0,
0,
0,
0,
0,
0,
0,
0,
0,
0,
0,
0,
0,
0,
0,
0,
0,
0,
0,
0,
0,
0,
0,
0,
0,
0,
0,
0,
0,
0,
0,
0,
0,
0,
0,
0,
0,
0,
0,
0,
0,
0,
0,
0,
0,
0,
0,
0,
0,
0,
0,
0,
0,
0,
0,
0,
0,
0,
0,
0,
0,
0,
0,
0,
0,
0,
0,
0,
0,
0,
0,
0,
0,
0,
0,
0,
0,
0,
0,
0,
0,
0,
0,
0,
0,
0,
0,
0,
0,
0,
0,
0,
0,
0,
0,
0,
0,
0,
0,
0,
0,
0,
0,
0,
0,
0,
0,
0,
0,
0,
0,
0,
0,
0,
0,
0,
0,
0,
0,
0,
0,
0,
0,
0,
0,
0,
0,
0,
0,
0,
0,
0,
0,
0,
0,
0,
0,
0,
0,
0,
0,
0,
0,
0,
0,
0,
0,
0,
0,
0,
0,
0,
0,
0,
0,
0,
0,
0,
0,
0,
0,
0,
0,
0,
0,
0,
0,
0,
0,
0,
0,
0,
0,
0,
0,
0,
0,
0,
0,
0,
0,
0,
0,
0,
0,
0,
0,
0,
0,
0,
0,
0,
0,
0,
0,
0,
0,
0,
0,
0,
0,
0,
0,
0,
0,
0,
0,
0,
0,
0,
0,
0,
0,
0,
0,
0,
0,
0,
0,
0,
0,
0,
0,
0,
0,
0,
0,
0,
0,
0,
0,
0,
0,
0,
0,
0,
0,
0,
0,
0,
0,
0,
0,
0,
0,
0,
0,
0,
0,
0,
0,
0,
0,
0,
0,
0,
0,
0,
0,
0,
0,
0,
0,
0,
0,
0,
0,
#ENDOFDATA   :