File: N132962/Quantification/15 keV/Mengason MM2/MMM2 C[8][4].msa
#FORMAT      : EMSA/MAS Spectral Data File
#VERSION     : 1.0
#TITLE       : MMM2 C[8][all]
#DATE        : 29-SEP-2025
#TIME        : 00:02
#OWNER       : Unknown
#NPOINTS     : 4096
#NCOLUMNS    : 1
#XUNITS      : eV
#YUNITS      : counts
#DATATYPE    : Y
#XPERCHAN    : 9.99778
#OFFSET      : 1.69135
#BEAMKV      : 15
#SIGNALTYPE  : EDS
#ELEVANGLE   : 35
#AZIMANGLE   : 0
#LIVETIME    : 240.5
#REALTIME    : 253.934
#PROBECUR    : 1.21151
#TAUWIND     : 0
#TDEADLYR    : 0
#TACTLYR     : 0.045
#TALWIND     : 0.025
#CHOFFSET    : 0.0
#XLABEL      : Energy (eV)
#YLABEL      : Counts
#XPOSITION   : -8.7805
#YPOSITION   : 3.07998
#ZPOSITION   : 34.11879
#EDSDET      : SD
##SPECIMEN   : MMM2 C[8][all]
##D2STDCMP   : C,(C:100.0)
##DET_HASH   : 12273538-fd48-a23f-0a19-f1e6fa85caef
##CALIB_HASH : 6abaa72c-aa41-8738-0be9-f592914732f3
##WORKING    : 15.0 mm
##DET_NAME   : EDAX All
##DET_MODE   : MediumLE
#SPECTRUM    :
17,
32,
14,
89,
489,
2543,
17513,
133285,
510475,
666067,
266375,
33483,
2152,
860,
887,
1223,
2824,
5362,
5294,
2877,
1573,
1459,
1576,
1650,
1852,
1847,
2052,
2151,
2217,
2217,
2385,
2405,
2440,
2561,
2730,
2583,
2799,
2767,
2791,
2825,
2765,
2862,
2752,
2677,
2742,
2783,
2787,
2777,
2626,
2657,
2740,
2566,
2660,
2535,
2443,
2435,
2492,
2502,
2515,
2604,
2327,
2280,
2039,
2037,
1925,
1901,
1817,
1823,
1766,
1746,
1847,
1689,
1653,
1638,
1569,
1535,
1629,
1608,
1562,
1522,
1476,
1517,
1403,
1400,
1350,
1331,
1347,
1324,
1321,
1255,
1248,
1236,
1203,
1256,
1089,
1126,
1084,
1154,
1089,
1113,
1119,
1024,
995,
1068,
1013,
981,
1037,
945,
976,
959,
972,
861,
910,
906,
921,
872,
907,
839,
892,
859,
799,
855,
832,
786,
833,
782,
725,
753,
732,
748,
777,
727,
705,
672,
708,
671,
682,
690,
662,
665,
652,
630,
618,
646,
596,
636,
596,
622,
637,
591,
573,
561,
585,
534,
557,
500,
545,
521,
510,
549,
507,
515,
509,
550,
480,
474,
475,
531,
444,
471,
491,
457,
451,
489,
456,
446,
444,
464,
408,
455,
439,
415,
415,
403,
405,
361,
379,
414,
414,
399,
342,
400,
365,
388,
346,
358,
347,
341,
353,
339,
361,
344,
331,
337,
347,
339,
335,
319,
301,
286,
304,
298,
344,
313,
334,
277,
276,
295,
288,
268,
292,
270,
279,
269,
270,
259,
252,
236,
244,
249,
259,
280,
260,
255,
273,
255,
257,
208,
239,
238,
228,
203,
243,
205,
235,
249,
240,
226,
198,
233,
200,
195,
197,
212,
191,
203,
207,
210,
192,
193,
201,
181,
186,
172,
196,
197,
157,
168,
175,
184,
163,
191,
165,
169,
178,
158,
185,
160,
162,
164,
147,
148,
147,
150,
142,
133,
157,
143,
154,
151,
127,
121,
139,
135,
117,
111,
122,
138,
129,
138,
125,
128,
139,
118,
129,
120,
134,
117,
128,
112,
107,
104,
108,
110,
94,
96,
90,
96,
99,
96,
109,
103,
89,
88,
100,
90,
99,
83,
93,
98,
84,
94,
87,
85,
70,
101,
76,
92,
79,
79,
90,
69,
76,
82,
78,
77,
72,
76,
66,
73,
65,
71,
57,
72,
65,
54,
68,
55,
71,
69,
62,
63,
52,
55,
49,
57,
48,
51,
62,
58,
46,
54,
50,
57,
53,
56,
42,
65,
53,
50,
35,
48,
44,
45,
36,
39,
38,
41,
30,
66,
44,
35,
39,
36,
39,
31,
46,
37,
32,
38,
44,
28,
36,
27,
24,
28,
34,
34,
29,
27,
28,
22,
34,
30,
24,
31,
33,
18,
25,
30,
23,
25,
34,
22,
13,
21,
18,
13,
23,
16,
15,
20,
15,
21,
20,
10,
13,
20,
13,
14,
12,
25,
14,
10,
14,
17,
26,
14,
19,
10,
8,
13,
14,
12,
8,
8,
12,
9,
12,
5,
17,
9,
5,
5,
10,
7,
5,
10,
4,
4,
5,
6,
2,
4,
8,
3,
10,
4,
4,
4,
6,
1,
6,
3,
2,
3,
4,
1,
2,
5,
0,
3,
2,
1,
0,
0,
0,
0,
1,
1,
0,
1,
0,
0,
0,
0,
0,
0,
0,
0,
0,
0,
0,
0,
0,
0,
0,
0,
0,
0,
0,
0,
0,
0,
0,
0,
0,
0,
0,
0,
0,
0,
0,
0,
0,
0,
0,
0,
0,
0,
0,
0,
0,
0,
0,
0,
0,
0,
0,
0,
0,
0,
0,
0,
0,
0,
0,
0,
0,
0,
0,
0,
0,
0,
0,
0,
0,
0,
0,
0,
0,
0,
0,
0,
1,
0,
0,
0,
0,
0,
0,
0,
0,
0,
0,
0,
0,
0,
0,
0,
0,
0,
0,
1,
0,
0,
0,
0,
0,
0,
0,
0,
0,
0,
0,
0,
0,
0,
0,
0,
0,
0,
0,
0,
0,
0,
0,
0,
0,
0,
0,
0,
0,
0,
0,
0,
0,
0,
0,
0,
0,
0,
0,
0,
0,
0,
0,
0,
0,
0,
0,
0,
0,
0,
0,
0,
0,
0,
0,
0,
0,
0,
0,
0,
0,
0,
0,
0,
0,
0,
0,
0,
0,
0,
0,
0,
0,
0,
0,
0,
0,
0,
0,
0,
0,
0,
0,
0,
0,
0,
0,
0,
0,
0,
0,
0,
0,
0,
0,
0,
0,
0,
0,
0,
0,
0,
0,
0,
0,
0,
0,
0,
0,
0,
0,
0,
0,
0,
0,
0,
0,
0,
0,
0,
0,
0,
0,
0,
0,
0,
0,
0,
0,
0,
0,
0,
0,
0,
0,
0,
0,
0,
0,
0,
0,
0,
0,
0,
0,
0,
0,
0,
0,
0,
0,
0,
0,
0,
0,
0,
0,
0,
0,
0,
0,
0,
0,
0,
0,
0,
0,
0,
0,
0,
0,
0,
0,
0,
0,
0,
0,
0,
0,
0,
0,
0,
0,
0,
0,
0,
0,
0,
0,
0,
0,
0,
0,
0,
0,
0,
0,
0,
0,
0,
0,
0,
0,
0,
0,
0,
0,
0,
0,
0,
0,
0,
0,
0,
0,
0,
0,
0,
0,
0,
0,
0,
0,
0,
0,
0,
0,
0,
0,
0,
0,
0,
0,
0,
0,
0,
0,
0,
0,
0,
0,
0,
0,
0,
0,
0,
0,
0,
0,
0,
0,
0,
0,
0,
0,
0,
0,
0,
0,
0,
0,
0,
0,
0,
0,
0,
0,
0,
0,
0,
0,
0,
0,
0,
0,
0,
0,
0,
0,
0,
0,
0,
0,
0,
0,
0,
0,
0,
0,
0,
0,
0,
0,
0,
0,
0,
0,
0,
0,
0,
0,
0,
0,
0,
0,
0,
0,
0,
0,
0,
0,
0,
0,
0,
0,
0,
0,
0,
0,
0,
0,
0,
0,
0,
0,
0,
0,
0,
0,
0,
0,
0,
0,
0,
0,
0,
0,
0,
0,
0,
0,
0,
0,
0,
0,
0,
0,
0,
0,
0,
0,
0,
0,
0,
0,
0,
0,
0,
0,
0,
0,
0,
0,
0,
0,
0,
0,
0,
0,
0,
0,
0,
0,
0,
0,
0,
0,
0,
0,
0,
0,
0,
0,
0,
0,
0,
0,
0,
0,
0,
0,
0,
0,
0,
0,
0,
0,
0,
0,
0,
0,
0,
0,
0,
0,
0,
0,
0,
0,
0,
0,
0,
0,
0,
0,
0,
0,
0,
0,
0,
0,
0,
0,
0,
0,
0,
0,
0,
0,
0,
0,
0,
0,
0,
0,
0,
0,
0,
0,
0,
0,
0,
0,
0,
0,
0,
0,
0,
0,
0,
0,
0,
0,
0,
0,
0,
0,
0,
0,
0,
0,
0,
0,
0,
0,
0,
0,
0,
0,
0,
0,
0,
0,
0,
0,
0,
0,
0,
0,
0,
0,
0,
0,
0,
0,
0,
0,
0,
0,
0,
0,
0,
0,
0,
0,
0,
0,
0,
0,
0,
0,
0,
0,
0,
0,
0,
0,
0,
0,
0,
0,
0,
0,
0,
0,
0,
0,
0,
0,
0,
0,
0,
0,
0,
0,
0,
0,
0,
0,
0,
0,
0,
0,
0,
0,
0,
0,
0,
0,
0,
0,
0,
0,
0,
0,
0,
0,
0,
0,
0,
0,
0,
0,
0,
0,
0,
0,
0,
0,
0,
0,
0,
0,
0,
0,
0,
0,
0,
0,
0,
0,
0,
0,
0,
0,
0,
0,
0,
0,
0,
0,
0,
0,
0,
0,
0,
0,
0,
0,
0,
0,
0,
0,
0,
0,
0,
0,
0,
0,
0,
0,
0,
0,
0,
0,
0,
0,
0,
0,
0,
0,
0,
0,
0,
0,
0,
0,
0,
0,
0,
0,
0,
0,
0,
0,
0,
0,
0,
0,
0,
0,
0,
0,
0,
0,
0,
0,
0,
0,
0,
0,
0,
0,
0,
0,
0,
0,
0,
0,
0,
0,
0,
0,
0,
0,
0,
0,
0,
0,
0,
0,
0,
0,
0,
0,
0,
0,
0,
0,
0,
0,
0,
0,
0,
0,
0,
0,
0,
0,
0,
0,
0,
0,
0,
0,
0,
0,
0,
0,
0,
0,
0,
0,
0,
0,
0,
0,
0,
0,
0,
0,
0,
0,
0,
0,
0,
0,
0,
0,
0,
0,
0,
0,
0,
0,
0,
0,
0,
0,
0,
0,
0,
0,
0,
0,
0,
0,
0,
0,
0,
0,
0,
0,
0,
0,
0,
0,
0,
0,
0,
0,
0,
0,
0,
0,
0,
0,
0,
0,
0,
0,
0,
0,
0,
0,
0,
0,
0,
0,
0,
0,
0,
0,
0,
0,
0,
0,
0,
0,
0,
0,
0,
#ENDOFDATA   :