File: N132962/Quantification/15 keV/Mengason MM2/MMM2 Rhodonite[3][4].msa
#FORMAT      : EMSA/MAS Spectral Data File
#VERSION     : 1.0
#TITLE       : MMM2 Rhodonite[3][all]
#DATE        : 28-SEP-2025
#TIME        : 23:25
#OWNER       : Unknown
#NPOINTS     : 4096
#NCOLUMNS    : 1
#XUNITS      : eV
#YUNITS      : counts
#DATATYPE    : Y
#XPERCHAN    : 9.99778
#OFFSET      : 1.69135
#BEAMKV      : 15
#SIGNALTYPE  : EDS
#ELEVANGLE   : 35
#AZIMANGLE   : 0
#LIVETIME    : 240.241
#REALTIME    : 256.113
#PROBECUR    : 1.21079
#TAUWIND     : 0
#TDEADLYR    : 0
#TACTLYR     : 0.045
#TALWIND     : 0.025
#CHOFFSET    : 0.0
#XLABEL      : Energy (eV)
#YLABEL      : Counts
#XPOSITION   : -16.63213
#YPOSITION   : 1.80371
#ZPOSITION   : 34.11879
#EDSDET      : SD
##SPECIMEN   : MMM2 Rhodonite[3][all]
##DET_HASH   : 12273538-fd48-a23f-0a19-f1e6fa85caef
##CALIB_HASH : 6abaa72c-aa41-8738-0be9-f592914732f3
##WORKING    : 15.0 mm
##DET_NAME   : EDAX All
##DET_MODE   : MediumLE
#SPECTRUM    :
17,
27,
4,
16,
113,
414,
1455,
4635,
13083,
16536,
9556,
5376,
5113,
6277,
10583,
35319,
127997,
241910,
178875,
52409,
19914,
24031,
18906,
10324,
6753,
4180,
3241,
3067,
3189,
3279,
3435,
3477,
3682,
3980,
4220,
4386,
4432,
4271,
4597,
5100,
6998,
10862,
12358,
8991,
6064,
5084,
4983,
5118,
5243,
5501,
5598,
5588,
5646,
5629,
6773,
14857,
52373,
131861,
178478,
126025,
51286,
18700,
9223,
5651,
4073,
3538,
3487,
3474,
3414,
3444,
3305,
3420,
3421,
3577,
3745,
3913,
3851,
3603,
3393,
3286,
3342,
3210,
3229,
3150,
3067,
3008,
3030,
3114,
3080,
3045,
2967,
3015,
2996,
2892,
2813,
2843,
2737,
2769,
2856,
2722,
2757,
2760,
2752,
2683,
2594,
2605,
2557,
2563,
2545,
2560,
2519,
2473,
2446,
2419,
2489,
2525,
2564,
2621,
2618,
2755,
4002,
6927,
11139,
13221,
11537,
7427,
4068,
2579,
2191,
2214,
2196,
2380,
2861,
3226,
3373,
3137,
2588,
2300,
2146,
2007,
1963,
1871,
1916,
1825,
1851,
1771,
1706,
1784,
1768,
1768,
1682,
1773,
1700,
1614,
1669,
1660,
1565,
1610,
1597,
1622,
1644,
1640,
1529,
1473,
1497,
1552,
1583,
1394,
1452,
1418,
1420,
1443,
1397,
1366,
1398,
1342,
1367,
1323,
1351,
1370,
1338,
1359,
1293,
1311,
1316,
1325,
1248,
1318,
1305,
1434,
1528,
1970,
3641,
8295,
17999,
30637,
40435,
39715,
29614,
16928,
7627,
3303,
1587,
1279,
1111,
1104,
1090,
1133,
1233,
1445,
2008,
3160,
4648,
5910,
7204,
7577,
7249,
6106,
4457,
2760,
1706,
1107,
998,
926,
812,
866,
797,
876,
826,
880,
896,
883,
1002,
1085,
1190,
1197,
1254,
1035,
943,
825,
819,
738,
786,
733,
701,
673,
731,
704,
701,
753,
763,
727,
728,
715,
726,
739,
755,
709,
654,
653,
609,
646,
634,
583,
608,
628,
589,
583,
572,
574,
622,
610,
584,
613,
582,
587,
575,
532,
580,
541,
548,
513,
499,
521,
535,
496,
511,
515,
468,
515,
525,
490,
496,
498,
428,
493,
489,
448,
458,
444,
405,
436,
418,
429,
422,
466,
455,
437,
449,
411,
436,
413,
434,
410,
442,
403,
385,
399,
413,
379,
368,
413,
429,
382,
387,
350,
376,
352,
369,
351,
332,
351,
364,
372,
306,
315,
306,
354,
338,
284,
335,
300,
294,
342,
310,
300,
300,
289,
268,
297,
270,
281,
260,
266,
247,
267,
245,
253,
246,
257,
269,
244,
254,
218,
252,
234,
232,
226,
230,
194,
231,
231,
209,
199,
195,
211,
207,
213,
183,
182,
229,
220,
201,
173,
180,
161,
169,
187,
171,
169,
181,
191,
182,
188,
191,
187,
178,
150,
133,
155,
137,
137,
161,
124,
130,
151,
144,
116,
142,
105,
119,
124,
128,
130,
124,
104,
111,
108,
109,
106,
102,
103,
117,
116,
98,
94,
85,
104,
85,
84,
85,
82,
88,
79,
78,
72,
84,
76,
61,
67,
73,
73,
62,
71,
73,
60,
50,
53,
45,
51,
57,
50,
56,
67,
48,
46,
40,
56,
52,
50,
50,
40,
45,
41,
31,
42,
39,
39,
34,
33,
29,
18,
32,
22,
26,
36,
21,
24,
22,
23,
19,
13,
15,
9,
13,
13,
14,
10,
12,
6,
12,
7,
3,
3,
5,
10,
2,
3,
4,
2,
2,
0,
1,
1,
0,
3,
1,
0,
0,
1,
1,
0,
0,
1,
3,
0,
0,
0,
0,
0,
1,
1,
0,
0,
1,
2,
0,
2,
0,
0,
0,
0,
1,
0,
0,
0,
0,
1,
0,
0,
0,
0,
0,
0,
0,
0,
0,
0,
0,
1,
0,
1,
0,
0,
0,
0,
0,
0,
1,
0,
1,
1,
0,
0,
0,
1,
0,
1,
0,
0,
1,
0,
1,
1,
0,
0,
0,
1,
0,
0,
0,
0,
0,
0,
1,
0,
0,
2,
1,
0,
0,
0,
1,
0,
0,
0,
0,
0,
0,
0,
1,
0,
0,
0,
0,
0,
0,
0,
0,
0,
0,
0,
1,
0,
0,
0,
0,
0,
0,
0,
0,
0,
0,
0,
0,
1,
0,
0,
1,
0,
0,
0,
0,
0,
0,
0,
0,
0,
1,
0,
0,
0,
0,
1,
2,
1,
0,
0,
0,
0,
0,
0,
0,
0,
0,
0,
0,
0,
0,
0,
0,
0,
0,
0,
0,
0,
0,
0,
0,
0,
0,
0,
0,
0,
0,
0,
0,
0,
0,
0,
0,
0,
0,
0,
0,
0,
0,
0,
0,
0,
0,
2,
0,
0,
0,
0,
0,
0,
0,
0,
0,
0,
0,
0,
0,
0,
0,
0,
0,
0,
0,
0,
0,
0,
0,
0,
0,
0,
0,
0,
0,
0,
0,
0,
0,
0,
0,
0,
0,
0,
0,
0,
0,
0,
0,
0,
0,
0,
0,
0,
0,
0,
0,
0,
0,
0,
0,
0,
0,
0,
0,
0,
0,
0,
0,
0,
0,
0,
0,
0,
0,
0,
0,
0,
0,
0,
0,
0,
0,
0,
0,
0,
0,
0,
0,
0,
0,
0,
0,
0,
0,
0,
0,
0,
0,
0,
0,
0,
0,
0,
0,
0,
0,
0,
0,
0,
0,
0,
0,
0,
0,
0,
0,
0,
0,
0,
0,
0,
0,
0,
0,
0,
0,
0,
0,
0,
0,
0,
0,
0,
0,
0,
0,
0,
0,
0,
0,
0,
0,
0,
0,
0,
0,
0,
0,
0,
0,
0,
0,
0,
0,
0,
0,
0,
0,
0,
0,
0,
0,
0,
0,
0,
0,
0,
0,
0,
0,
0,
0,
0,
0,
0,
0,
0,
0,
0,
0,
0,
0,
0,
0,
0,
0,
0,
0,
0,
0,
0,
0,
0,
0,
0,
0,
0,
0,
0,
0,
0,
0,
0,
0,
0,
0,
0,
0,
0,
0,
0,
0,
0,
0,
0,
0,
0,
0,
0,
0,
0,
0,
0,
0,
0,
0,
0,
0,
0,
0,
0,
0,
0,
0,
0,
0,
0,
0,
0,
0,
0,
0,
0,
0,
0,
0,
0,
0,
0,
0,
0,
0,
0,
0,
0,
0,
0,
0,
0,
0,
0,
0,
0,
0,
0,
0,
0,
0,
0,
0,
0,
0,
0,
0,
0,
0,
0,
0,
0,
0,
0,
0,
0,
0,
0,
0,
0,
0,
0,
0,
0,
0,
0,
0,
0,
0,
0,
0,
0,
0,
0,
0,
0,
0,
0,
0,
0,
0,
0,
0,
0,
0,
0,
0,
0,
0,
0,
0,
0,
0,
0,
0,
0,
0,
0,
0,
0,
0,
0,
0,
0,
0,
0,
0,
0,
0,
0,
0,
0,
0,
0,
0,
0,
0,
0,
0,
0,
0,
0,
0,
0,
0,
0,
0,
0,
0,
0,
0,
0,
0,
0,
0,
0,
0,
0,
0,
0,
0,
0,
0,
0,
0,
0,
0,
0,
0,
0,
0,
0,
0,
0,
0,
0,
0,
0,
0,
0,
0,
0,
0,
0,
0,
0,
0,
0,
0,
0,
0,
0,
0,
0,
0,
0,
0,
0,
0,
0,
0,
0,
0,
0,
0,
0,
0,
0,
0,
0,
0,
0,
0,
0,
0,
0,
0,
0,
0,
0,
0,
0,
0,
0,
0,
0,
0,
0,
0,
0,
0,
0,
0,
0,
0,
0,
0,
0,
0,
0,
0,
0,
0,
0,
0,
0,
0,
0,
0,
0,
0,
0,
0,
0,
0,
0,
0,
0,
0,
0,
0,
0,
0,
0,
0,
0,
0,
0,
0,
0,
0,
0,
0,
0,
0,
0,
0,
0,
0,
0,
0,
0,
0,
0,
0,
0,
0,
0,
0,
0,
0,
0,
0,
0,
0,
0,
0,
0,
0,
0,
0,
0,
0,
0,
0,
0,
0,
0,
0,
0,
0,
0,
0,
0,
0,
0,
0,
0,
0,
0,
0,
0,
0,
0,
0,
0,
0,
0,
0,
0,
0,
0,
0,
0,
0,
0,
0,
0,
0,
0,
0,
0,
0,
0,
0,
0,
0,
0,
0,
0,
0,
0,
0,
0,
0,
0,
0,
0,
0,
0,
0,
0,
0,
0,
0,
0,
0,
0,
0,
0,
0,
0,
0,
0,
0,
0,
0,
0,
0,
0,
0,
0,
0,
0,
0,
0,
0,
0,
0,
0,
0,
0,
0,
0,
0,
0,
0,
0,
0,
0,
0,
0,
0,
0,
0,
0,
0,
0,
0,
0,
0,
0,
0,
0,
0,
0,
0,
0,
0,
0,
0,
0,
0,
0,
0,
0,
0,
0,
0,
0,
0,
0,
0,
0,
0,
0,
0,
0,
0,
0,
0,
0,
0,
0,
0,
0,
0,
0,
0,
0,
0,
0,
0,
0,
0,
0,
0,
0,
0,
0,
0,
0,
0,
0,
0,
0,
0,
0,
0,
0,
0,
0,
#ENDOFDATA   :