File: N132962/Quantification/15 keV/Mengason MM2/MMM2 MgAl2O4[1][4].msa
#FORMAT      : EMSA/MAS Spectral Data File
#VERSION     : 1.0
#TITLE       : MMM2 MgAl2O4[1][all]
#DATE        : 28-SEP-2025
#TIME        : 21:18
#OWNER       : Unknown
#NPOINTS     : 4096
#NCOLUMNS    : 1
#XUNITS      : eV
#YUNITS      : counts
#DATATYPE    : Y
#XPERCHAN    : 9.99778
#OFFSET      : 1.69135
#BEAMKV      : 15
#SIGNALTYPE  : EDS
#ELEVANGLE   : 35
#AZIMANGLE   : 0
#LIVETIME    : 240.37
#REALTIME    : 258.853
#PROBECUR    : 1.21217
#TAUWIND     : 0
#TDEADLYR    : 0
#TACTLYR     : 0.045
#TALWIND     : 0.025
#CHOFFSET    : 0.0
#XLABEL      : Energy (eV)
#YLABEL      : Counts
#XPOSITION   : -21.73566
#YPOSITION   : -2.74463
#ZPOSITION   : 34.11879
#EDSDET      : SD
##SPECIMEN   : MMM2 MgAl2O4[1][all]
##D2STDCMP   : MgAl2O4,(O:44.9839),(Mg:17.0844),(Al:37.9316)
##DET_HASH   : 12273538-fd48-a23f-0a19-f1e6fa85caef
##CALIB_HASH : 6abaa72c-aa41-8738-0be9-f592914732f3
##WORKING    : 15.0 mm
##DET_NAME   : EDAX All
##DET_MODE   : MediumLE
#SPECTRUM    :
23,
26,
16,
18,
91,
349,
1128,
3517,
10122,
12845,
6848,
3713,
3836,
5327,
10382,
39851,
152405,
288680,
209082,
54990,
6937,
2568,
2652,
2933,
3125,
3184,
3525,
3758,
3835,
4040,
4269,
4321,
4657,
5076,
5469,
5693,
5900,
6281,
7772,
15957,
55302,
133812,
160762,
90941,
28316,
9677,
10231,
35591,
130655,
267928,
271324,
138308,
40370,
10615,
4253,
2816,
2767,
2969,
3365,
3455,
3279,
2747,
2472,
2452,
2435,
2854,
3301,
3294,
3018,
2499,
2360,
2357,
2355,
2219,
2242,
2228,
2206,
2170,
2255,
2304,
2182,
2237,
2205,
2243,
2325,
2199,
2218,
2146,
2113,
2319,
2456,
2656,
2682,
2356,
2118,
2047,
2006,
2097,
2317,
2450,
2396,
2126,
1945,
1897,
1811,
1813,
1694,
1763,
1839,
1618,
1737,
1684,
1651,
1613,
1661,
1660,
1659,
1625,
1625,
1623,
1519,
1533,
1562,
1546,
1552,
1475,
1470,
1424,
1410,
1451,
1483,
1416,
1324,
1406,
1343,
1254,
1356,
1244,
1306,
1326,
1275,
1282,
1247,
1242,
1186,
1223,
1220,
1165,
1214,
1187,
1214,
1127,
1236,
1204,
1101,
1094,
1115,
1060,
1087,
1116,
1035,
1025,
1009,
1079,
1089,
987,
1002,
1031,
946,
995,
949,
987,
960,
972,
1020,
943,
931,
876,
861,
895,
907,
866,
893,
852,
867,
842,
880,
843,
896,
828,
839,
774,
782,
763,
797,
782,
784,
805,
754,
778,
751,
723,
691,
771,
695,
703,
695,
702,
701,
641,
729,
628,
710,
742,
697,
685,
690,
638,
672,
608,
625,
643,
598,
589,
616,
595,
569,
600,
605,
575,
589,
558,
571,
550,
548,
527,
538,
542,
486,
523,
503,
515,
443,
500,
488,
498,
537,
496,
504,
501,
457,
464,
421,
427,
444,
448,
461,
446,
462,
454,
434,
427,
433,
426,
409,
408,
406,
394,
372,
420,
405,
406,
402,
387,
386,
343,
317,
386,
366,
342,
359,
342,
351,
368,
338,
338,
311,
336,
276,
317,
369,
350,
321,
298,
322,
324,
311,
276,
314,
332,
256,
293,
296,
292,
282,
258,
286,
267,
280,
260,
245,
260,
252,
245,
256,
268,
242,
233,
254,
235,
238,
226,
254,
237,
205,
224,
207,
231,
251,
221,
227,
219,
228,
207,
231,
220,
196,
209,
192,
209,
173,
191,
187,
177,
175,
199,
180,
165,
172,
192,
158,
179,
148,
161,
202,
174,
155,
156,
165,
136,
156,
150,
152,
135,
149,
158,
157,
124,
130,
151,
133,
135,
115,
125,
115,
127,
127,
126,
121,
94,
119,
116,
128,
100,
111,
125,
111,
91,
128,
111,
93,
84,
74,
105,
86,
88,
94,
83,
78,
82,
84,
75,
94,
80,
70,
88,
69,
69,
77,
80,
83,
61,
81,
78,
87,
62,
67,
62,
61,
54,
60,
62,
66,
65,
53,
72,
53,
51,
51,
40,
39,
51,
56,
51,
41,
41,
40,
49,
45,
43,
38,
44,
29,
27,
43,
32,
31,
32,
20,
35,
34,
30,
23,
31,
27,
33,
21,
23,
32,
24,
21,
27,
22,
28,
25,
24,
19,
14,
23,
18,
14,
16,
14,
20,
19,
16,
16,
13,
8,
8,
11,
11,
11,
5,
8,
14,
11,
5,
7,
6,
11,
5,
5,
2,
6,
4,
0,
1,
1,
0,
0,
0,
1,
0,
1,
0,
0,
0,
0,
0,
1,
0,
0,
0,
1,
0,
0,
0,
0,
0,
0,
0,
0,
1,
0,
1,
0,
1,
0,
0,
0,
0,
0,
0,
0,
0,
2,
1,
0,
1,
0,
0,
1,
0,
0,
0,
0,
0,
0,
0,
0,
0,
0,
0,
0,
0,
0,
0,
0,
0,
0,
0,
0,
0,
1,
0,
0,
0,
0,
0,
0,
0,
0,
0,
0,
0,
0,
0,
0,
0,
0,
0,
0,
0,
0,
0,
0,
0,
0,
0,
0,
0,
0,
0,
0,
0,
0,
0,
0,
0,
0,
0,
1,
0,
0,
0,
0,
0,
0,
0,
0,
0,
0,
0,
0,
1,
0,
0,
0,
0,
0,
0,
0,
0,
0,
0,
0,
0,
0,
0,
1,
0,
0,
0,
0,
0,
0,
0,
0,
0,
0,
0,
0,
0,
0,
0,
0,
0,
1,
0,
0,
0,
0,
0,
0,
0,
0,
0,
0,
0,
0,
0,
0,
0,
0,
0,
0,
0,
0,
0,
0,
0,
0,
0,
0,
0,
0,
0,
0,
0,
0,
0,
0,
0,
0,
0,
0,
0,
0,
0,
0,
0,
0,
0,
0,
0,
0,
0,
0,
0,
0,
0,
0,
0,
0,
0,
0,
0,
0,
0,
0,
0,
0,
0,
1,
0,
0,
0,
0,
0,
0,
0,
0,
0,
0,
0,
0,
0,
0,
0,
0,
0,
0,
0,
0,
0,
0,
0,
0,
0,
0,
0,
1,
0,
0,
0,
0,
0,
0,
0,
0,
0,
0,
0,
0,
0,
0,
0,
0,
0,
0,
0,
0,
0,
0,
0,
0,
0,
0,
0,
0,
0,
0,
0,
0,
0,
0,
0,
0,
0,
0,
0,
0,
0,
0,
0,
0,
0,
0,
0,
0,
0,
0,
0,
0,
0,
0,
0,
0,
0,
0,
0,
0,
0,
0,
0,
0,
0,
0,
0,
0,
0,
0,
0,
0,
0,
0,
0,
0,
0,
0,
0,
0,
0,
0,
0,
0,
0,
0,
0,
0,
0,
0,
0,
0,
0,
0,
0,
0,
0,
0,
0,
0,
0,
0,
0,
0,
0,
0,
0,
0,
0,
0,
0,
0,
0,
0,
0,
0,
0,
0,
0,
0,
0,
0,
0,
0,
0,
0,
0,
0,
0,
0,
0,
0,
0,
0,
0,
0,
0,
0,
0,
0,
0,
0,
0,
0,
0,
0,
0,
0,
0,
0,
0,
0,
0,
0,
0,
0,
0,
0,
0,
0,
0,
0,
0,
0,
0,
0,
0,
0,
0,
0,
0,
0,
0,
0,
0,
0,
0,
0,
0,
0,
0,
0,
0,
0,
0,
0,
0,
0,
0,
0,
0,
0,
0,
0,
0,
0,
0,
0,
0,
0,
0,
0,
0,
0,
0,
0,
0,
0,
0,
0,
0,
0,
0,
0,
0,
0,
0,
0,
0,
0,
0,
0,
0,
0,
0,
0,
0,
0,
0,
0,
0,
0,
0,
0,
0,
0,
0,
0,
0,
0,
0,
0,
0,
0,
0,
0,
0,
0,
0,
0,
0,
0,
0,
0,
0,
0,
0,
0,
0,
0,
0,
0,
0,
0,
0,
0,
0,
0,
0,
0,
0,
0,
0,
0,
0,
0,
0,
0,
0,
0,
0,
0,
0,
0,
0,
0,
0,
0,
0,
0,
0,
0,
0,
0,
0,
0,
0,
0,
0,
0,
0,
0,
0,
0,
0,
0,
0,
0,
0,
0,
0,
0,
0,
0,
0,
0,
0,
0,
0,
0,
0,
0,
0,
0,
0,
0,
0,
0,
0,
0,
0,
0,
0,
0,
0,
0,
0,
0,
0,
0,
0,
0,
0,
0,
0,
0,
0,
0,
0,
0,
0,
0,
0,
0,
0,
0,
0,
0,
0,
0,
0,
0,
0,
0,
0,
0,
0,
0,
0,
0,
0,
0,
0,
0,
0,
0,
0,
0,
0,
0,
0,
0,
0,
0,
0,
0,
0,
0,
0,
0,
0,
0,
0,
0,
0,
0,
0,
0,
0,
0,
0,
0,
0,
0,
0,
0,
0,
0,
0,
0,
0,
0,
0,
0,
0,
0,
0,
0,
0,
0,
0,
0,
0,
0,
0,
0,
0,
0,
0,
0,
0,
0,
0,
0,
0,
0,
0,
0,
0,
0,
0,
0,
0,
0,
0,
0,
0,
0,
0,
0,
0,
0,
0,
0,
0,
0,
0,
0,
0,
0,
0,
0,
0,
0,
0,
0,
0,
0,
0,
0,
0,
0,
0,
0,
0,
0,
0,
0,
0,
0,
0,
0,
0,
0,
0,
0,
0,
0,
0,
0,
0,
0,
0,
0,
0,
0,
0,
0,
0,
0,
0,
0,
0,
0,
0,
0,
0,
0,
0,
0,
0,
0,
0,
0,
0,
0,
0,
0,
0,
0,
0,
0,
0,
0,
0,
0,
0,
0,
0,
0,
0,
0,
0,
0,
0,
0,
0,
0,
0,
0,
0,
0,
0,
0,
0,
0,
0,
0,
0,
0,
0,
0,
0,
0,
0,
0,
0,
0,
0,
0,
0,
0,
0,
0,
0,
0,
0,
0,
0,
0,
0,
0,
0,
0,
0,
0,
0,
0,
0,
0,
0,
0,
0,
0,
0,
0,
0,
0,
0,
0,
0,
0,
0,
0,
0,
0,
0,
0,
0,
0,
0,
0,
0,
0,
0,
0,
0,
0,
0,
0,
0,
0,
0,
0,
0,
0,
0,
0,
0,
0,
0,
0,
0,
#ENDOFDATA   :