File: N132962/Quantification/15 keV/Mengason MM2/MMM2 Orthoclaise[7][4].msa
#FORMAT      : EMSA/MAS Spectral Data File
#VERSION     : 1.0
#TITLE       : MMM2 Orthoclaise[7][all]
#DATE        : 28-SEP-2025
#TIME        : 21:04
#OWNER       : Unknown
#NPOINTS     : 4096
#NCOLUMNS    : 1
#XUNITS      : eV
#YUNITS      : counts
#DATATYPE    : Y
#XPERCHAN    : 9.99778
#OFFSET      : 1.69135
#BEAMKV      : 15
#SIGNALTYPE  : EDS
#ELEVANGLE   : 35
#AZIMANGLE   : 0
#LIVETIME    : 240.248
#REALTIME    : 256.293
#PROBECUR    : 1.21333
#TAUWIND     : 0
#TDEADLYR    : 0
#TACTLYR     : 0.045
#TALWIND     : 0.025
#CHOFFSET    : 0.0
#XLABEL      : Energy (eV)
#YLABEL      : Counts
#XPOSITION   : -14.1203
#YPOSITION   : -3.83896
#ZPOSITION   : 34.11879
#EDSDET      : SD
##SPECIMEN   : MMM2 Orthoclaise[7][all]
##DET_HASH   : 12273538-fd48-a23f-0a19-f1e6fa85caef
##CALIB_HASH : 6abaa72c-aa41-8738-0be9-f592914732f3
##WORKING    : 15.0 mm
##DET_NAME   : EDAX All
##DET_MODE   : MediumLE
#SPECTRUM    :
28,
27,
13,
14,
99,
370,
1262,
4764,
12947,
15081,
7293,
3205,
3245,
3862,
7135,
25982,
97761,
186426,
134505,
35722,
5638,
3010,
3698,
4998,
4911,
3982,
3404,
3408,
3677,
3816,
3841,
4046,
4264,
4864,
5802,
5923,
5290,
4775,
4796,
5002,
4906,
4989,
5074,
5245,
5276,
5605,
6523,
13451,
37864,
73327,
74380,
40305,
15765,
8199,
7701,
18316,
70736,
181227,
245998,
172864,
68659,
23180,
10624,
5395,
3305,
2727,
2774,
2836,
2807,
2635,
2505,
2577,
2609,
2773,
2954,
3181,
3162,
2697,
2545,
2589,
2542,
2503,
2425,
2434,
2324,
2368,
2444,
2460,
2390,
2399,
2245,
2374,
2302,
2186,
2286,
2247,
2241,
2202,
2261,
2247,
2220,
2242,
2143,
2166,
2347,
2691,
3372,
6050,
14235,
30552,
46645,
46700,
30761,
13695,
5265,
2902,
2887,
3401,
5022,
6842,
6972,
5534,
3556,
2308,
1786,
1585,
1615,
1695,
1686,
1595,
1543,
1468,
1491,
1442,
1460,
1501,
1423,
1411,
1416,
1402,
1379,
1361,
1306,
1336,
1379,
1336,
1249,
1376,
1335,
1324,
1329,
1250,
1252,
1269,
1281,
1262,
1293,
1226,
1200,
1171,
1231,
1159,
1184,
1228,
1139,
1146,
1126,
1240,
1212,
1204,
1186,
1133,
1060,
1058,
1077,
986,
1016,
1054,
1056,
1033,
1007,
1018,
935,
932,
964,
973,
885,
897,
908,
858,
889,
893,
911,
848,
880,
929,
830,
822,
829,
836,
894,
839,
835,
779,
843,
805,
829,
777,
854,
937,
1176,
1700,
2252,
2560,
2456,
1953,
1479,
916,
828,
745,
712,
710,
693,
631,
700,
721,
686,
659,
664,
687,
713,
665,
737,
763,
824,
897,
821,
741,
711,
614,
593,
565,
569,
548,
590,
571,
548,
564,
528,
529,
523,
521,
554,
550,
498,
586,
534,
506,
463,
497,
499,
501,
508,
490,
463,
469,
439,
450,
484,
469,
420,
459,
458,
448,
433,
445,
420,
436,
408,
404,
431,
374,
413,
423,
367,
391,
378,
361,
404,
387,
381,
374,
378,
362,
368,
335,
358,
354,
354,
358,
337,
333,
362,
331,
328,
286,
339,
323,
342,
301,
297,
285,
280,
301,
296,
277,
340,
305,
307,
271,
288,
250,
274,
296,
299,
258,
271,
249,
265,
253,
239,
265,
245,
238,
262,
236,
222,
221,
215,
210,
213,
214,
197,
225,
222,
208,
184,
204,
200,
212,
202,
202,
209,
210,
176,
175,
183,
175,
222,
179,
197,
176,
174,
153,
154,
186,
151,
138,
176,
160,
168,
146,
148,
127,
151,
145,
127,
137,
117,
160,
163,
125,
134,
117,
120,
103,
109,
134,
147,
130,
110,
110,
102,
111,
128,
123,
110,
117,
88,
86,
98,
109,
114,
89,
93,
106,
83,
87,
82,
85,
69,
96,
76,
96,
81,
80,
67,
71,
83,
69,
67,
78,
70,
79,
74,
59,
71,
51,
79,
67,
63,
61,
65,
53,
58,
55,
49,
59,
58,
39,
52,
53,
41,
44,
50,
49,
38,
35,
26,
38,
30,
36,
41,
39,
39,
31,
21,
34,
33,
32,
30,
29,
21,
15,
21,
23,
24,
26,
14,
28,
25,
19,
14,
20,
10,
17,
9,
12,
16,
14,
8,
17,
8,
14,
13,
8,
8,
6,
6,
6,
5,
1,
8,
6,
2,
2,
2,
1,
1,
2,
0,
1,
0,
0,
0,
0,
0,
0,
0,
0,
0,
0,
1,
0,
1,
1,
0,
0,
0,
0,
1,
0,
0,
0,
1,
2,
1,
1,
1,
1,
0,
0,
1,
0,
1,
0,
0,
0,
1,
1,
0,
0,
0,
0,
0,
0,
0,
0,
0,
0,
1,
0,
0,
0,
0,
0,
0,
0,
0,
0,
0,
0,
0,
0,
0,
0,
0,
0,
0,
0,
0,
0,
0,
0,
0,
0,
0,
0,
0,
0,
0,
0,
0,
0,
1,
0,
0,
0,
0,
0,
0,
0,
0,
0,
0,
0,
2,
0,
0,
0,
0,
0,
0,
0,
0,
0,
0,
0,
0,
0,
0,
0,
0,
0,
0,
0,
0,
0,
0,
0,
0,
0,
0,
0,
0,
0,
0,
0,
0,
0,
0,
0,
0,
0,
0,
0,
0,
0,
0,
0,
1,
0,
0,
0,
0,
0,
0,
0,
0,
0,
0,
0,
0,
0,
0,
0,
0,
0,
0,
0,
0,
0,
0,
0,
0,
0,
0,
0,
0,
0,
0,
0,
0,
0,
0,
0,
0,
0,
0,
0,
0,
0,
0,
0,
0,
0,
0,
0,
0,
0,
0,
0,
0,
0,
0,
0,
0,
0,
0,
0,
0,
0,
0,
0,
0,
0,
0,
0,
0,
0,
0,
0,
0,
0,
0,
0,
0,
0,
0,
0,
0,
0,
0,
0,
0,
0,
0,
0,
0,
0,
1,
0,
0,
0,
0,
0,
0,
0,
0,
0,
0,
0,
0,
0,
0,
0,
0,
0,
0,
0,
0,
0,
0,
0,
0,
0,
0,
0,
0,
0,
0,
0,
0,
0,
0,
0,
0,
0,
0,
0,
0,
0,
0,
0,
0,
0,
0,
0,
0,
0,
0,
0,
0,
0,
0,
0,
0,
0,
0,
0,
0,
0,
0,
0,
0,
0,
0,
0,
0,
0,
0,
0,
0,
0,
0,
0,
0,
0,
0,
0,
0,
0,
0,
0,
0,
0,
0,
0,
0,
0,
0,
0,
0,
0,
0,
0,
0,
0,
0,
0,
0,
0,
0,
0,
0,
0,
0,
0,
0,
0,
0,
0,
0,
0,
0,
0,
0,
0,
0,
0,
0,
0,
0,
0,
0,
0,
0,
0,
0,
0,
0,
0,
0,
0,
0,
0,
0,
0,
0,
0,
0,
0,
0,
0,
0,
0,
0,
0,
0,
0,
0,
0,
0,
0,
0,
0,
0,
0,
0,
0,
0,
0,
0,
0,
0,
0,
0,
0,
0,
0,
0,
0,
0,
0,
0,
0,
0,
0,
0,
0,
0,
0,
0,
0,
0,
0,
0,
0,
0,
0,
0,
0,
0,
0,
0,
0,
0,
0,
0,
0,
0,
0,
0,
0,
0,
0,
0,
0,
0,
0,
0,
0,
0,
0,
0,
0,
0,
0,
0,
0,
0,
0,
0,
0,
0,
0,
0,
0,
0,
0,
0,
0,
0,
0,
0,
0,
0,
0,
0,
0,
0,
0,
0,
0,
0,
0,
0,
0,
0,
0,
0,
0,
0,
0,
0,
0,
0,
0,
0,
0,
0,
0,
0,
0,
0,
0,
0,
0,
0,
0,
0,
0,
0,
0,
0,
0,
0,
0,
0,
0,
0,
0,
0,
0,
0,
0,
0,
0,
0,
0,
0,
0,
0,
0,
0,
0,
0,
0,
0,
0,
0,
0,
0,
0,
0,
0,
0,
0,
0,
0,
0,
0,
0,
0,
0,
0,
0,
0,
0,
0,
0,
0,
0,
0,
0,
0,
0,
0,
0,
0,
0,
0,
0,
0,
0,
0,
0,
0,
0,
0,
0,
0,
0,
0,
0,
0,
0,
0,
0,
0,
0,
0,
0,
0,
0,
0,
0,
0,
0,
0,
0,
0,
0,
0,
0,
0,
0,
0,
0,
0,
0,
0,
0,
0,
0,
0,
0,
0,
0,
0,
0,
0,
0,
0,
0,
0,
0,
0,
0,
0,
0,
0,
0,
0,
0,
0,
0,
0,
0,
0,
0,
0,
0,
0,
0,
0,
0,
0,
0,
0,
0,
0,
0,
0,
0,
0,
0,
0,
0,
0,
0,
0,
0,
0,
0,
0,
0,
0,
0,
0,
0,
0,
0,
0,
0,
0,
0,
0,
0,
0,
0,
0,
0,
0,
0,
0,
0,
0,
0,
0,
0,
0,
0,
0,
0,
0,
0,
0,
0,
0,
0,
0,
0,
0,
0,
0,
0,
0,
0,
0,
0,
0,
0,
0,
0,
0,
0,
0,
0,
0,
0,
0,
0,
0,
0,
0,
0,
0,
0,
0,
0,
0,
0,
0,
0,
0,
0,
0,
0,
0,
0,
0,
0,
0,
0,
0,
0,
0,
0,
0,
0,
0,
0,
0,
0,
0,
0,
0,
0,
0,
0,
0,
0,
0,
0,
0,
0,
0,
0,
0,
0,
0,
0,
0,
0,
0,
0,
0,
0,
0,
0,
0,
0,
0,
0,
0,
0,
0,
0,
0,
0,
0,
0,
0,
0,
0,
0,
0,
0,
0,
0,
0,
0,
0,
0,
0,
0,
0,
0,
0,
0,
0,
0,
0,
0,
0,
0,
0,
0,
0,
0,
0,
0,
0,
0,
0,
0,
0,
0,
0,
0,
0,
0,
0,
0,
0,
0,
0,
0,
0,
0,
0,
0,
0,
0,
0,
0,
0,
0,
0,
0,
0,
0,
0,
0,
0,
0,
0,
0,
0,
0,
0,
0,
0,
0,
0,
0,
0,
0,
0,
0,
0,
0,
0,
0,
0,
#ENDOFDATA   :