File: N132962/Quantification/15 keV/Mengason MM2/MMM2 Plagioclaise[4][4].msa
#FORMAT      : EMSA/MAS Spectral Data File
#VERSION     : 1.0
#TITLE       : MMM2 Plagioclaise[4][all]
#DATE        : 28-SEP-2025
#TIME        : 23:16
#OWNER       : Unknown
#NPOINTS     : 4096
#NCOLUMNS    : 1
#XUNITS      : eV
#YUNITS      : counts
#DATATYPE    : Y
#XPERCHAN    : 9.99778
#OFFSET      : 1.69135
#BEAMKV      : 15
#SIGNALTYPE  : EDS
#ELEVANGLE   : 35
#AZIMANGLE   : 0
#LIVETIME    : 240.245
#REALTIME    : 256.433
#PROBECUR    : 1.2132
#TAUWIND     : 0
#TDEADLYR    : 0
#TACTLYR     : 0.045
#TALWIND     : 0.025
#CHOFFSET    : 0.0
#XLABEL      : Energy (eV)
#YLABEL      : Counts
#XPOSITION   : -18.61802
#YPOSITION   : 2.00438
#ZPOSITION   : 34.11879
#EDSDET      : SD
##SPECIMEN   : MMM2 Plagioclaise[4][all]
##DET_HASH   : 12273538-fd48-a23f-0a19-f1e6fa85caef
##CALIB_HASH : 6abaa72c-aa41-8738-0be9-f592914732f3
##WORKING    : 15.0 mm
##DET_NAME   : EDAX All
##DET_MODE   : MediumLE
#SPECTRUM    :
27,
28,
5,
21,
93,
356,
1104,
3808,
10850,
14489,
8394,
4525,
3907,
4423,
8033,
28934,
109656,
209826,
152093,
40055,
5664,
2624,
2738,
3126,
3150,
3215,
3263,
3555,
3653,
3798,
3996,
4337,
5894,
11749,
23582,
25812,
14642,
6574,
4739,
4635,
4788,
5327,
5449,
5435,
5522,
5878,
7578,
19485,
64219,
128251,
130191,
67433,
22398,
8690,
6735,
14384,
54995,
140487,
190320,
133070,
54161,
18997,
8996,
4908,
3312,
3102,
3029,
3108,
2809,
2587,
2617,
2506,
2561,
2604,
2785,
3038,
2993,
2570,
2507,
2470,
2533,
2396,
2331,
2470,
2345,
2319,
2296,
2296,
2284,
2295,
2283,
2196,
2280,
2210,
2139,
2175,
2111,
2213,
2198,
2261,
2165,
2142,
1999,
1976,
1998,
2138,
2132,
2351,
2496,
2692,
3054,
2924,
2439,
2137,
1977,
2030,
2092,
2240,
2259,
3129,
5847,
13104,
22963,
29219,
24321,
14316,
6249,
2793,
1890,
1724,
1912,
2446,
3356,
4339,
4785,
3914,
2835,
1975,
1534,
1480,
1465,
1479,
1432,
1338,
1278,
1283,
1317,
1279,
1308,
1384,
1345,
1352,
1245,
1216,
1117,
1183,
1179,
1169,
1143,
1136,
1134,
1142,
1107,
1120,
1136,
1107,
1036,
1127,
1087,
1086,
1059,
1029,
1053,
1009,
1052,
1050,
1003,
989,
1030,
960,
1021,
1037,
970,
983,
940,
930,
888,
894,
896,
849,
905,
835,
887,
816,
823,
843,
820,
802,
777,
844,
749,
869,
844,
734,
759,
737,
828,
732,
725,
780,
810,
858,
976,
987,
956,
877,
806,
741,
697,
677,
684,
664,
658,
649,
651,
682,
630,
625,
646,
622,
584,
646,
603,
620,
643,
605,
600,
592,
590,
555,
545,
552,
550,
565,
555,
553,
560,
561,
546,
546,
524,
513,
506,
491,
495,
498,
503,
474,
478,
490,
461,
456,
463,
470,
444,
491,
414,
429,
434,
447,
456,
414,
412,
454,
402,
438,
422,
399,
376,
384,
402,
369,
385,
433,
364,
338,
374,
383,
339,
373,
375,
340,
391,
330,
350,
327,
331,
320,
322,
321,
331,
335,
281,
303,
332,
304,
318,
283,
266,
281,
280,
267,
278,
287,
272,
283,
276,
261,
263,
268,
284,
284,
283,
252,
242,
255,
236,
233,
209,
263,
260,
251,
239,
195,
227,
238,
178,
233,
205,
212,
213,
224,
210,
222,
208,
205,
179,
207,
203,
203,
200,
201,
185,
175,
185,
172,
154,
191,
164,
155,
142,
159,
151,
154,
164,
156,
176,
165,
153,
119,
163,
146,
143,
149,
150,
135,
131,
135,
150,
126,
126,
129,
147,
118,
109,
121,
124,
112,
112,
112,
113,
97,
110,
97,
94,
115,
108,
109,
134,
87,
107,
88,
97,
77,
74,
87,
89,
85,
101,
77,
93,
91,
77,
73,
79,
77,
74,
72,
71,
82,
65,
59,
70,
55,
73,
57,
68,
58,
62,
44,
55,
70,
63,
63,
47,
55,
54,
57,
60,
39,
46,
51,
44,
37,
49,
36,
44,
36,
43,
41,
52,
30,
29,
47,
29,
45,
26,
24,
26,
38,
29,
32,
29,
25,
21,
21,
16,
25,
23,
19,
18,
15,
11,
29,
14,
13,
10,
14,
12,
14,
14,
15,
11,
12,
13,
12,
8,
8,
7,
6,
8,
1,
7,
8,
4,
1,
1,
2,
1,
1,
0,
0,
1,
0,
0,
0,
0,
0,
0,
1,
0,
0,
0,
0,
0,
0,
0,
0,
0,
1,
0,
0,
0,
0,
0,
0,
0,
1,
0,
0,
0,
0,
0,
0,
0,
1,
1,
0,
0,
0,
0,
0,
0,
0,
0,
0,
0,
0,
0,
0,
0,
0,
1,
0,
0,
0,
0,
0,
0,
0,
0,
0,
0,
0,
0,
0,
0,
0,
0,
0,
0,
0,
0,
0,
0,
0,
0,
0,
0,
0,
0,
0,
0,
0,
0,
0,
0,
0,
0,
0,
0,
0,
0,
0,
0,
0,
0,
0,
0,
0,
0,
0,
0,
0,
0,
0,
0,
0,
0,
0,
0,
0,
0,
0,
0,
2,
0,
0,
0,
0,
0,
0,
0,
0,
0,
0,
0,
0,
0,
0,
0,
0,
0,
0,
0,
0,
0,
0,
0,
0,
0,
0,
0,
0,
0,
0,
0,
0,
0,
0,
0,
0,
0,
0,
0,
0,
0,
0,
0,
0,
0,
0,
0,
0,
0,
0,
0,
0,
0,
0,
0,
0,
0,
0,
0,
0,
0,
0,
0,
0,
0,
0,
0,
0,
0,
0,
0,
0,
0,
0,
0,
0,
0,
0,
0,
0,
0,
0,
1,
0,
0,
0,
0,
0,
0,
0,
0,
0,
0,
0,
0,
0,
0,
0,
0,
0,
0,
0,
0,
0,
0,
0,
0,
0,
0,
0,
0,
0,
0,
0,
0,
0,
0,
0,
0,
0,
0,
0,
0,
0,
0,
0,
0,
0,
0,
0,
0,
0,
0,
0,
0,
0,
0,
0,
0,
0,
0,
0,
0,
0,
0,
0,
0,
0,
0,
0,
0,
0,
0,
0,
0,
0,
0,
0,
0,
0,
0,
0,
0,
0,
0,
0,
0,
0,
0,
0,
0,
0,
0,
0,
0,
0,
0,
0,
0,
0,
0,
0,
0,
0,
0,
0,
0,
0,
0,
0,
0,
0,
0,
0,
0,
0,
0,
0,
0,
0,
0,
0,
0,
0,
0,
0,
0,
0,
0,
0,
0,
0,
0,
0,
0,
0,
0,
0,
0,
0,
0,
0,
0,
0,
0,
0,
0,
0,
0,
0,
0,
0,
0,
0,
1,
0,
0,
0,
0,
0,
0,
0,
0,
0,
0,
0,
0,
0,
0,
0,
0,
0,
0,
0,
0,
0,
0,
0,
0,
0,
0,
0,
0,
0,
0,
0,
0,
0,
0,
0,
0,
0,
0,
0,
0,
0,
0,
0,
0,
0,
0,
0,
0,
0,
0,
0,
0,
0,
0,
0,
0,
0,
0,
0,
0,
0,
0,
0,
0,
0,
0,
0,
0,
0,
0,
0,
0,
0,
0,
0,
0,
0,
0,
0,
0,
0,
0,
0,
0,
0,
0,
0,
0,
0,
0,
0,
0,
0,
0,
0,
0,
0,
0,
0,
0,
0,
0,
0,
0,
0,
0,
0,
0,
0,
0,
0,
0,
0,
0,
0,
0,
0,
0,
0,
0,
0,
0,
0,
0,
0,
0,
0,
0,
0,
0,
0,
0,
0,
0,
0,
0,
0,
0,
0,
0,
0,
0,
0,
0,
0,
0,
0,
0,
0,
0,
0,
0,
0,
0,
0,
0,
0,
0,
0,
0,
0,
0,
0,
0,
0,
0,
0,
0,
0,
0,
0,
0,
0,
0,
0,
0,
0,
0,
0,
0,
0,
0,
0,
0,
0,
0,
0,
0,
0,
0,
0,
0,
0,
0,
0,
0,
0,
0,
0,
0,
0,
0,
0,
0,
0,
0,
0,
0,
0,
0,
0,
0,
0,
0,
0,
0,
0,
0,
0,
0,
0,
0,
0,
0,
0,
0,
0,
0,
0,
0,
0,
0,
0,
0,
0,
0,
0,
0,
0,
0,
0,
0,
0,
0,
0,
0,
0,
0,
0,
0,
0,
0,
0,
0,
0,
0,
0,
0,
0,
0,
0,
0,
0,
0,
0,
0,
0,
0,
0,
0,
0,
0,
0,
0,
0,
0,
0,
0,
0,
0,
0,
0,
0,
0,
0,
0,
0,
0,
0,
0,
0,
0,
0,
0,
0,
0,
0,
0,
0,
0,
0,
0,
0,
0,
0,
0,
0,
0,
0,
0,
0,
0,
0,
0,
0,
0,
0,
0,
0,
0,
0,
0,
0,
0,
0,
0,
0,
0,
0,
0,
0,
0,
0,
0,
0,
0,
0,
0,
0,
0,
0,
0,
0,
0,
0,
0,
0,
0,
0,
0,
0,
0,
0,
0,
0,
0,
0,
0,
0,
0,
0,
0,
0,
0,
0,
0,
0,
0,
0,
0,
0,
0,
0,
0,
0,
0,
0,
0,
0,
0,
0,
0,
0,
0,
0,
0,
0,
0,
0,
0,
0,
0,
0,
0,
0,
0,
0,
0,
0,
0,
0,
0,
0,
0,
0,
0,
0,
0,
0,
0,
0,
0,
0,
0,
0,
0,
0,
0,
0,
0,
0,
0,
0,
0,
0,
0,
0,
0,
0,
0,
0,
0,
0,
0,
0,
0,
0,
0,
0,
0,
0,
0,
0,
0,
0,
0,
0,
0,
0,
0,
0,
0,
0,
0,
0,
0,
0,
0,
0,
0,
0,
0,
0,
0,
0,
0,
0,
0,
0,
0,
0,
0,
0,
0,
0,
0,
0,
0,
0,
0,
0,
0,
0,
0,
0,
0,
0,
0,
0,
0,
0,
0,
0,
0,
0,
0,
0,
0,
0,
0,
0,
0,
0,
0,
0,
0,
0,
0,
0,
0,
0,
0,
0,
0,
0,
#ENDOFDATA   :