File: N132962/Quantification/15 keV/Mengason MM2/MMM2 Scheelite[0][4].msa
#FORMAT      : EMSA/MAS Spectral Data File
#VERSION     : 1.0
#TITLE       : MMM2 Scheelite[0][all]
#DATE        : 29-SEP-2025
#TIME        : 00:23
#OWNER       : Unknown
#NPOINTS     : 4096
#NCOLUMNS    : 1
#XUNITS      : eV
#YUNITS      : counts
#DATATYPE    : Y
#XPERCHAN    : 9.99778
#OFFSET      : 1.69135
#BEAMKV      : 15
#SIGNALTYPE  : EDS
#ELEVANGLE   : 35
#AZIMANGLE   : 0
#LIVETIME    : 240.258
#REALTIME    : 260.571
#PROBECUR    : 1.21186
#TAUWIND     : 0
#TDEADLYR    : 0
#TACTLYR     : 0.045
#TALWIND     : 0.025
#CHOFFSET    : 0.0
#XLABEL      : Energy (eV)
#YLABEL      : Counts
#XPOSITION   : -17.52537
#YPOSITION   : 4.48409
#ZPOSITION   : 34.11879
#EDSDET      : SD
##SPECIMEN   : MMM2 Scheelite[0][all]
##DET_HASH   : 12273538-fd48-a23f-0a19-f1e6fa85caef
##CALIB_HASH : 6abaa72c-aa41-8738-0be9-f592914732f3
##WORKING    : 15.0 mm
##DET_NAME   : EDAX All
##DET_MODE   : MediumLE
#SPECTRUM    :
24,
34,
20,
51,
273,
1125,
3620,
9246,
20387,
25853,
15869,
8266,
6035,
5592,
6724,
14292,
42714,
75886,
57219,
18425,
6227,
5417,
5861,
6570,
6844,
6775,
6967,
7364,
7842,
7796,
7971,
8144,
8127,
8590,
8715,
8846,
8853,
9133,
9342,
9531,
9581,
9894,
9995,
10964,
13551,
19997,
24259,
20446,
14677,
11731,
11072,
10399,
10353,
10630,
11376,
13502,
21567,
55265,
135896,
214757,
210653,
150889,
84577,
34438,
12262,
7949,
8823,
10189,
10365,
8574,
6518,
5727,
5539,
5633,
5759,
6105,
6627,
6935,
6777,
6078,
5676,
5338,
5285,
5207,
5109,
5247,
5025,
4943,
4964,
5085,
4984,
4971,
5096,
5135,
5118,
4953,
4964,
4846,
4850,
4951,
4819,
4947,
4856,
4885,
4868,
4928,
4732,
4845,
4805,
4807,
4692,
4728,
4606,
4671,
4720,
4742,
4809,
5152,
5673,
6947,
12066,
24562,
41730,
51730,
44191,
26618,
12676,
6558,
4922,
4637,
4990,
5681,
7635,
9504,
10092,
8619,
6439,
4951,
4296,
4002,
3941,
3979,
4053,
3858,
3835,
3925,
3790,
3809,
3755,
3707,
3771,
3735,
3623,
3766,
3664,
3623,
3574,
3622,
3576,
3620,
3529,
3541,
3559,
3522,
3493,
3568,
3421,
3535,
3413,
3525,
3317,
3368,
3233,
3334,
3278,
3349,
3285,
3101,
3277,
3243,
3232,
3224,
3280,
3201,
3209,
3130,
3019,
3108,
3065,
3061,
3080,
2938,
3080,
2906,
2977,
2957,
2900,
2881,
2817,
2785,
2843,
2682,
2777,
2801,
2641,
2787,
2671,
2688,
2659,
2672,
2750,
2706,
2743,
2695,
2656,
2665,
2530,
2641,
2649,
2441,
2458,
2553,
2438,
2453,
2424,
2391,
2340,
2301,
2346,
2322,
2437,
2273,
2294,
2275,
2248,
2200,
2289,
2227,
2231,
2204,
2165,
2153,
2210,
2257,
2450,
2521,
2547,
2604,
2439,
2221,
2162,
2108,
2033,
2064,
2001,
1949,
1875,
1943,
1949,
1897,
1882,
1832,
1875,
1787,
1898,
1813,
1814,
1861,
1755,
1757,
1739,
1780,
1776,
1878,
2303,
3089,
4498,
6881,
9155,
10984,
11247,
9633,
7137,
4598,
3004,
2185,
1731,
1660,
1670,
1620,
1607,
1591,
1495,
1473,
1490,
1432,
1513,
1375,
1449,
1406,
1348,
1364,
1393,
1306,
1258,
1364,
1300,
1296,
1270,
1361,
1287,
1262,
1339,
1378,
1363,
1382,
1587,
1708,
1969,
2404,
3048,
3392,
3707,
3537,
3181,
2517,
2132,
1883,
1976,
2211,
2567,
2834,
2732,
2523,
2207,
1730,
1436,
1196,
1165,
1106,
1071,
1030,
1005,
1004,
933,
942,
1015,
853,
895,
876,
927,
878,
885,
852,
875,
862,
811,
806,
868,
823,
857,
771,
804,
772,
734,
783,
784,
828,
750,
757,
760,
765,
812,
928,
1029,
1086,
1107,
1067,
973,
799,
748,
684,
767,
650,
675,
734,
735,
676,
704,
688,
616,
609,
604,
585,
565,
518,
501,
516,
542,
503,
535,
529,
517,
463,
515,
495,
484,
471,
456,
444,
434,
439,
430,
435,
448,
404,
387,
378,
395,
409,
373,
406,
393,
396,
376,
351,
346,
317,
340,
355,
327,
331,
312,
326,
316,
263,
305,
275,
284,
281,
284,
276,
281,
274,
248,
261,
273,
233,
223,
203,
250,
218,
207,
216,
212,
206,
172,
196,
164,
159,
189,
183,
142,
146,
164,
149,
152,
136,
137,
139,
133,
107,
126,
102,
118,
119,
98,
115,
111,
85,
86,
85,
92,
72,
67,
47,
63,
59,
47,
40,
40,
36,
34,
45,
39,
30,
25,
12,
17,
12,
9,
5,
6,
5,
3,
5,
3,
1,
6,
0,
3,
2,
1,
5,
5,
2,
2,
2,
5,
1,
1,
4,
2,
3,
1,
2,
2,
4,
3,
1,
2,
1,
3,
3,
2,
1,
1,
1,
1,
1,
1,
1,
0,
3,
1,
1,
4,
4,
4,
1,
1,
1,
1,
2,
1,
4,
2,
3,
0,
4,
2,
5,
3,
4,
3,
5,
1,
0,
2,
3,
1,
3,
0,
0,
2,
0,
0,
1,
1,
1,
1,
4,
2,
0,
0,
1,
2,
3,
5,
2,
0,
0,
4,
0,
1,
1,
2,
5,
2,
1,
0,
3,
0,
4,
2,
1,
4,
1,
0,
3,
1,
0,
1,
2,
0,
1,
1,
0,
2,
1,
0,
1,
0,
0,
0,
0,
1,
0,
0,
0,
0,
2,
0,
0,
0,
1,
1,
1,
0,
1,
2,
2,
0,
0,
0,
1,
2,
0,
0,
1,
2,
1,
0,
1,
0,
0,
0,
1,
1,
0,
2,
0,
1,
0,
0,
0,
1,
2,
0,
1,
0,
0,
0,
0,
0,
1,
0,
0,
1,
0,
1,
0,
3,
0,
0,
1,
1,
1,
1,
0,
0,
0,
0,
1,
0,
0,
0,
0,
0,
1,
0,
0,
0,
0,
1,
0,
0,
0,
0,
0,
0,
0,
0,
0,
1,
1,
0,
0,
0,
0,
0,
1,
0,
0,
0,
0,
0,
0,
1,
0,
0,
1,
0,
0,
0,
0,
1,
1,
0,
0,
1,
1,
0,
0,
0,
0,
0,
0,
0,
1,
0,
0,
0,
0,
0,
1,
0,
0,
0,
0,
1,
0,
0,
0,
0,
0,
1,
0,
0,
0,
0,
0,
0,
0,
0,
0,
0,
0,
0,
0,
0,
0,
0,
0,
0,
0,
0,
0,
1,
0,
0,
0,
0,
0,
0,
0,
0,
0,
0,
0,
0,
0,
0,
0,
0,
0,
0,
0,
0,
0,
1,
0,
0,
0,
0,
0,
0,
0,
0,
0,
0,
0,
0,
0,
0,
0,
0,
0,
0,
0,
0,
0,
0,
0,
0,
0,
0,
0,
0,
0,
1,
0,
1,
0,
0,
0,
0,
0,
0,
0,
0,
0,
0,
0,
0,
0,
0,
0,
0,
0,
0,
0,
0,
1,
0,
0,
0,
0,
0,
0,
0,
0,
0,
0,
0,
0,
0,
0,
0,
0,
0,
0,
0,
0,
0,
0,
0,
1,
0,
0,
0,
0,
0,
0,
0,
0,
0,
0,
0,
0,
0,
0,
0,
0,
0,
0,
0,
0,
0,
0,
0,
0,
0,
0,
0,
0,
0,
0,
0,
0,
0,
0,
0,
0,
0,
0,
0,
0,
0,
0,
0,
0,
0,
0,
0,
0,
0,
0,
0,
0,
0,
0,
0,
0,
0,
0,
0,
0,
0,
0,
0,
0,
0,
0,
0,
0,
0,
0,
0,
0,
0,
0,
0,
0,
0,
0,
0,
0,
0,
0,
0,
0,
0,
0,
0,
0,
0,
0,
0,
0,
0,
0,
0,
0,
0,
0,
0,
0,
0,
0,
0,
0,
0,
0,
0,
0,
0,
0,
0,
0,
0,
0,
0,
0,
0,
0,
0,
0,
0,
0,
0,
0,
0,
0,
0,
0,
0,
0,
0,
0,
0,
0,
0,
0,
0,
0,
0,
0,
0,
0,
0,
0,
0,
0,
0,
0,
0,
0,
0,
0,
0,
0,
0,
0,
0,
0,
0,
0,
0,
0,
0,
0,
0,
0,
0,
0,
0,
0,
0,
0,
0,
0,
0,
0,
0,
0,
0,
0,
0,
0,
0,
0,
0,
0,
0,
0,
0,
0,
0,
0,
0,
0,
0,
0,
0,
0,
0,
0,
0,
0,
0,
0,
0,
0,
0,
0,
0,
0,
0,
0,
0,
0,
0,
0,
0,
0,
0,
0,
0,
0,
0,
0,
0,
0,
0,
0,
0,
0,
0,
0,
0,
0,
0,
0,
0,
0,
0,
0,
0,
0,
0,
0,
0,
0,
0,
0,
0,
0,
0,
0,
0,
0,
0,
0,
0,
0,
0,
0,
0,
0,
0,
0,
0,
0,
0,
0,
0,
0,
0,
0,
0,
0,
0,
0,
0,
0,
0,
0,
0,
0,
0,
0,
0,
0,
0,
0,
0,
0,
0,
0,
0,
0,
0,
0,
0,
0,
0,
0,
0,
0,
0,
0,
0,
0,
0,
0,
0,
0,
0,
0,
0,
0,
0,
0,
0,
0,
0,
0,
0,
0,
0,
0,
0,
0,
0,
0,
0,
0,
0,
0,
0,
0,
0,
0,
0,
0,
0,
0,
0,
0,
0,
0,
0,
0,
0,
0,
0,
0,
0,
0,
0,
0,
0,
0,
0,
0,
0,
0,
0,
0,
0,
0,
0,
0,
0,
0,
0,
0,
0,
0,
0,
0,
0,
0,
0,
0,
0,
0,
0,
0,
0,
0,
0,
0,
0,
0,
0,
0,
0,
0,
0,
0,
0,
0,
0,
0,
0,
0,
0,
0,
0,
0,
0,
0,
0,
0,
0,
0,
0,
0,
0,
0,
0,
0,
0,
0,
0,
0,
0,
0,
0,
0,
0,
0,
0,
0,
0,
0,
0,
0,
0,
0,
0,
0,
0,
0,
0,
0,
0,
0,
0,
0,
0,
0,
0,
0,
0,
0,
0,
0,
0,
0,
0,
0,
0,
0,
0,
0,
0,
0,
0,
0,
0,
0,
0,
0,
0,
0,
0,
0,
0,
0,
0,
0,
0,
0,
#ENDOFDATA   :