File: N132962/Quantification/15 keV/Mengason MM2/MMM2 Willemite[4][4].msa
#FORMAT      : EMSA/MAS Spectral Data File
#VERSION     : 1.0
#TITLE       : MMM2 Willemite[4][all]
#DATE        : 28-SEP-2025
#TIME        : 23:47
#OWNER       : Unknown
#NPOINTS     : 4096
#NCOLUMNS    : 1
#XUNITS      : eV
#YUNITS      : counts
#DATATYPE    : Y
#XPERCHAN    : 9.99778
#OFFSET      : 1.69135
#BEAMKV      : 15
#SIGNALTYPE  : EDS
#ELEVANGLE   : 35
#AZIMANGLE   : 0
#LIVETIME    : 240.25
#REALTIME    : 257.958
#PROBECUR    : 1.21079
#TAUWIND     : 0
#TDEADLYR    : 0
#TACTLYR     : 0.045
#TALWIND     : 0.025
#CHOFFSET    : 0.0
#XLABEL      : Energy (eV)
#YLABEL      : Counts
#XPOSITION   : -11.58855
#YPOSITION   : 2.25291
#ZPOSITION   : 34.11879
#EDSDET      : SD
##SPECIMEN   : MMM2 Willemite[4][all]
##DET_HASH   : 12273538-fd48-a23f-0a19-f1e6fa85caef
##CALIB_HASH : 6abaa72c-aa41-8738-0be9-f592914732f3
##WORKING    : 15.0 mm
##DET_NAME   : EDAX All
##DET_MODE   : MediumLE
#SPECTRUM    :
20,
27,
17,
19,
133,
505,
1551,
4964,
13805,
17537,
9256,
4860,
4883,
5977,
9140,
26863,
92165,
172201,
125800,
36336,
10014,
9564,
8571,
6940,
6231,
6481,
7035,
8885,
14656,
22712,
24783,
29370,
83193,
208190,
257750,
147700,
44301,
11078,
5275,
3982,
4061,
4751,
4993,
4639,
4159,
4133,
4236,
4563,
4586,
4888,
5292,
5608,
5434,
5325,
5473,
9393,
27420,
64377,
86763,
62247,
27002,
11328,
6787,
5037,
4188,
4084,
4033,
4428,
4512,
4214,
4033,
3853,
3816,
3984,
4071,
4143,
4075,
4040,
3909,
3715,
3915,
3685,
3849,
3693,
3750,
3807,
3705,
3749,
3755,
3645,
3806,
3828,
3918,
3773,
3612,
3580,
3420,
3421,
3491,
3472,
3367,
3315,
3279,
3255,
3152,
3189,
3205,
3138,
3202,
3093,
3134,
3089,
3045,
3076,
3064,
3039,
2981,
2882,
2986,
2930,
2853,
2870,
2712,
2827,
2793,
2723,
2724,
2655,
2706,
2670,
2613,
2590,
2519,
2567,
2566,
2615,
2569,
2478,
2382,
2498,
2465,
2347,
2474,
2451,
2318,
2373,
2335,
2316,
2220,
2229,
2290,
2240,
2222,
2213,
2150,
2141,
2105,
2114,
2086,
2071,
2084,
2021,
2041,
1961,
1967,
1940,
1933,
1962,
1997,
1973,
1864,
1880,
1898,
1833,
1828,
1810,
1751,
1858,
1776,
1753,
1760,
1768,
1806,
1707,
1694,
1622,
1729,
1638,
1645,
1677,
1593,
1769,
2046,
2571,
4101,
5895,
7138,
7265,
5651,
3820,
2524,
1885,
1551,
1417,
1445,
1468,
1384,
1409,
1450,
1434,
1468,
1481,
1532,
1632,
1779,
1971,
2040,
1945,
1810,
1503,
1389,
1274,
1267,
1247,
1232,
1250,
1192,
1200,
1203,
1191,
1201,
1224,
1209,
1170,
1151,
1163,
1108,
1110,
1085,
1093,
1136,
1143,
1059,
1095,
1034,
1018,
991,
1080,
1041,
1021,
964,
988,
977,
988,
963,
890,
939,
893,
931,
959,
876,
921,
883,
925,
841,
824,
851,
837,
869,
867,
822,
806,
841,
831,
831,
812,
858,
837,
836,
772,
889,
1025,
1594,
2935,
5419,
9834,
14529,
17729,
17957,
14855,
10125,
5792,
3099,
1585,
941,
763,
686,
742,
662,
646,
647,
619,
682,
666,
644,
670,
627,
610,
637,
632,
630,
611,
651,
715,
897,
1234,
1677,
2397,
2756,
2813,
2612,
2032,
1393,
1029,
777,
595,
513,
474,
474,
490,
480,
414,
464,
505,
466,
451,
464,
440,
458,
477,
427,
427,
459,
421,
423,
403,
437,
422,
419,
446,
406,
364,
398,
378,
355,
337,
351,
346,
391,
347,
379,
353,
356,
323,
324,
314,
353,
332,
328,
296,
294,
323,
295,
316,
268,
340,
273,
295,
291,
272,
291,
279,
267,
283,
274,
233,
259,
254,
271,
215,
243,
241,
223,
240,
243,
216,
217,
217,
219,
228,
203,
204,
186,
173,
180,
176,
182,
179,
177,
187,
195,
186,
157,
167,
186,
173,
146,
150,
173,
158,
147,
146,
148,
150,
148,
143,
113,
158,
128,
115,
137,
110,
116,
135,
135,
107,
119,
128,
104,
102,
118,
110,
111,
87,
89,
92,
92,
85,
89,
64,
93,
78,
97,
78,
69,
57,
75,
61,
69,
61,
66,
49,
67,
70,
52,
60,
56,
36,
40,
30,
56,
41,
45,
48,
41,
30,
36,
31,
31,
22,
27,
27,
21,
28,
22,
31,
10,
28,
23,
7,
14,
16,
11,
17,
11,
7,
9,
7,
4,
1,
3,
0,
3,
0,
2,
2,
1,
1,
1,
2,
1,
0,
1,
2,
2,
1,
1,
0,
0,
1,
0,
1,
0,
0,
1,
0,
0,
0,
0,
0,
2,
1,
2,
0,
0,
1,
1,
0,
2,
1,
0,
0,
1,
0,
0,
3,
0,
1,
1,
0,
1,
2,
1,
1,
1,
0,
1,
0,
1,
1,
0,
0,
2,
0,
1,
0,
0,
3,
0,
1,
0,
1,
1,
2,
3,
2,
4,
3,
0,
3,
1,
1,
0,
0,
0,
0,
1,
0,
2,
2,
0,
0,
0,
1,
0,
0,
0,
1,
0,
2,
0,
0,
0,
0,
0,
0,
0,
2,
1,
1,
1,
0,
2,
0,
0,
0,
0,
0,
1,
1,
1,
0,
1,
1,
0,
1,
1,
1,
0,
0,
0,
0,
0,
0,
0,
0,
0,
0,
0,
0,
0,
0,
0,
0,
0,
0,
0,
1,
0,
0,
0,
0,
0,
0,
0,
0,
0,
0,
0,
1,
1,
1,
0,
0,
0,
1,
0,
0,
0,
0,
0,
0,
0,
0,
0,
0,
0,
0,
0,
1,
0,
0,
0,
0,
0,
0,
0,
1,
0,
0,
0,
0,
0,
0,
0,
0,
0,
0,
0,
0,
0,
1,
0,
0,
0,
0,
0,
0,
0,
0,
0,
0,
0,
0,
0,
0,
0,
0,
0,
0,
0,
0,
1,
0,
0,
0,
0,
0,
0,
0,
0,
0,
0,
0,
0,
0,
0,
0,
0,
0,
0,
0,
0,
0,
0,
0,
0,
0,
0,
0,
0,
0,
0,
0,
0,
0,
0,
0,
0,
0,
0,
0,
0,
0,
0,
0,
0,
0,
0,
0,
0,
0,
0,
0,
0,
0,
0,
0,
0,
0,
0,
0,
0,
0,
0,
0,
0,
0,
0,
0,
0,
0,
0,
0,
0,
0,
0,
0,
0,
0,
0,
0,
0,
0,
0,
0,
0,
0,
0,
0,
0,
0,
0,
0,
0,
0,
0,
0,
0,
0,
0,
0,
0,
0,
0,
0,
0,
0,
0,
0,
0,
0,
0,
0,
0,
0,
0,
0,
0,
0,
0,
0,
0,
0,
0,
0,
0,
0,
0,
0,
0,
0,
0,
0,
0,
0,
0,
0,
0,
0,
0,
0,
0,
0,
0,
0,
0,
0,
0,
0,
0,
0,
0,
0,
0,
0,
0,
0,
0,
0,
0,
0,
0,
0,
0,
0,
0,
0,
0,
0,
0,
0,
0,
0,
0,
0,
0,
0,
0,
0,
0,
0,
0,
0,
0,
0,
0,
0,
0,
0,
0,
0,
0,
0,
0,
0,
0,
0,
0,
0,
0,
0,
0,
0,
0,
0,
0,
0,
0,
0,
0,
0,
0,
0,
0,
0,
0,
0,
0,
0,
0,
0,
0,
0,
0,
0,
0,
0,
0,
0,
0,
0,
0,
0,
0,
0,
0,
0,
0,
0,
0,
0,
0,
0,
0,
0,
0,
0,
0,
0,
0,
0,
0,
0,
0,
0,
0,
0,
0,
0,
0,
0,
0,
0,
0,
0,
0,
0,
0,
0,
0,
0,
0,
0,
0,
0,
0,
0,
0,
0,
0,
0,
0,
0,
0,
0,
0,
0,
0,
0,
0,
0,
0,
0,
0,
0,
0,
0,
0,
0,
0,
0,
0,
0,
0,
0,
0,
0,
0,
0,
0,
0,
0,
0,
0,
0,
0,
0,
0,
0,
0,
0,
0,
0,
0,
0,
0,
0,
0,
0,
0,
0,
0,
0,
0,
0,
0,
0,
0,
0,
0,
0,
0,
0,
0,
0,
0,
0,
0,
0,
0,
0,
0,
0,
0,
0,
0,
0,
0,
0,
0,
0,
0,
0,
0,
0,
0,
0,
0,
0,
0,
0,
0,
0,
0,
0,
0,
0,
0,
0,
0,
0,
0,
0,
0,
0,
0,
0,
0,
0,
0,
0,
0,
0,
0,
0,
0,
0,
0,
0,
0,
0,
0,
0,
0,
0,
0,
0,
0,
0,
0,
0,
0,
0,
0,
0,
0,
0,
0,
0,
0,
0,
0,
0,
0,
0,
0,
0,
0,
0,
0,
0,
0,
0,
0,
0,
0,
0,
0,
0,
0,
0,
0,
0,
0,
0,
0,
0,
0,
0,
0,
0,
0,
0,
0,
0,
0,
0,
0,
0,
0,
0,
0,
0,
0,
0,
0,
0,
0,
0,
0,
0,
0,
0,
0,
0,
0,
0,
0,
0,
0,
0,
0,
0,
0,
0,
0,
0,
0,
0,
0,
0,
0,
0,
0,
0,
0,
0,
0,
0,
0,
0,
0,
0,
0,
0,
0,
0,
0,
0,
0,
0,
0,
0,
0,
0,
0,
0,
0,
0,
0,
0,
0,
0,
0,
0,
0,
0,
0,
0,
0,
0,
0,
0,
0,
0,
0,
0,
0,
0,
0,
0,
0,
0,
0,
0,
0,
0,
0,
0,
0,
0,
0,
0,
0,
0,
0,
0,
0,
0,
0,
0,
0,
0,
0,
0,
0,
0,
0,
0,
0,
0,
0,
0,
0,
0,
0,
0,
0,
0,
0,
0,
0,
0,
0,
0,
0,
0,
0,
0,
0,
0,
0,
0,
0,
0,
0,
0,
0,
0,
0,
0,
0,
0,
0,
0,
0,
0,
0,
0,
0,
0,
0,
0,
0,
0,
0,
0,
0,
0,
0,
0,
0,
0,
0,
0,
0,
0,
0,
0,
0,
0,
0,
0,
0,
0,
0,
0,
0,
0,
0,
0,
0,
0,
0,
0,
#ENDOFDATA   :