File: N132962/Quantification/15 keV/Mengason MM2/MMM2 Pyrope[4][4].msa
#FORMAT      : EMSA/MAS Spectral Data File
#VERSION     : 1.0
#TITLE       : MMM2 Pyrope[4][all]
#DATE        : 28-SEP-2025
#TIME        : 21:53
#OWNER       : Unknown
#NPOINTS     : 4096
#NCOLUMNS    : 1
#XUNITS      : eV
#YUNITS      : counts
#DATATYPE    : Y
#XPERCHAN    : 9.99778
#OFFSET      : 1.69135
#BEAMKV      : 15
#SIGNALTYPE  : EDS
#ELEVANGLE   : 35
#AZIMANGLE   : 0
#LIVETIME    : 240.414
#REALTIME    : 256.738
#PROBECUR    : 1.21223
#TAUWIND     : 0
#TDEADLYR    : 0
#TACTLYR     : 0.045
#TALWIND     : 0.025
#CHOFFSET    : 0.0
#XLABEL      : Energy (eV)
#YLABEL      : Counts
#XPOSITION   : -13.92934
#YPOSITION   : -1.87544
#ZPOSITION   : 34.11879
#EDSDET      : SD
##SPECIMEN   : MMM2 Pyrope[4][all]
##D2STDCMP   : Pyrope,(O:47.6258),(Mg:18.0873),(Al:13.3861),(Si:20.9007),5.0
##DET_HASH   : 12273538-fd48-a23f-0a19-f1e6fa85caef
##CALIB_HASH : 6abaa72c-aa41-8738-0be9-f592914732f3
##WORKING    : 15.0 mm
##DET_NAME   : EDAX All
##DET_MODE   : MediumLE
#SPECTRUM    :
22,
21,
13,
22,
102,
417,
1244,
4253,
13006,
16898,
8786,
4363,
4148,
5151,
9364,
34008,
128553,
242865,
175221,
46458,
7690,
4563,
6104,
9871,
9924,
5939,
3847,
3568,
3591,
3860,
3748,
3873,
4173,
4561,
5140,
5424,
5247,
5265,
6155,
11353,
36106,
86555,
103766,
59449,
18988,
7130,
6224,
13497,
42104,
84512,
85959,
44711,
15624,
6763,
5638,
11789,
41942,
105394,
143961,
101240,
41623,
14860,
7297,
4362,
3203,
2817,
3008,
3136,
2903,
2757,
2582,
2640,
2669,
2713,
2981,
3078,
2944,
2792,
2647,
2462,
2508,
2451,
2504,
2580,
2424,
2281,
2325,
2434,
2289,
2391,
2426,
2321,
2258,
2326,
2216,
2238,
2135,
2260,
2303,
2383,
2371,
2266,
2109,
2056,
2141,
2038,
2123,
2114,
2164,
1980,
1969,
1922,
1825,
1837,
1930,
1983,
1963,
1943,
1937,
2274,
3367,
5794,
9339,
11625,
9911,
6165,
3343,
2042,
1697,
1627,
1713,
1843,
2219,
2575,
2729,
2412,
1972,
1600,
1554,
1453,
1517,
1458,
1418,
1365,
1389,
1389,
1362,
1464,
1578,
1803,
2053,
1953,
1668,
1405,
1314,
1284,
1220,
1265,
1218,
1215,
1172,
1225,
1246,
1221,
1285,
1273,
1259,
1102,
1137,
1102,
1025,
1095,
1051,
1060,
1038,
1053,
1099,
1180,
1494,
1863,
2215,
2124,
1699,
1414,
1157,
961,
951,
889,
958,
919,
903,
1013,
913,
942,
982,
1110,
1245,
1348,
1190,
1111,
960,
880,
865,
809,
808,
840,
803,
845,
1006,
1375,
2359,
4066,
5921,
7150,
6614,
5040,
3138,
1734,
1068,
814,
717,
705,
681,
662,
659,
663,
683,
687,
673,
656,
729,
835,
908,
1128,
1345,
1410,
1431,
1076,
919,
720,
622,
585,
602,
565,
558,
561,
568,
584,
552,
501,
543,
510,
540,
494,
566,
521,
486,
525,
512,
517,
469,
466,
437,
486,
457,
446,
452,
429,
452,
447,
471,
487,
466,
452,
411,
417,
445,
449,
428,
379,
376,
359,
384,
408,
406,
386,
374,
378,
374,
372,
362,
346,
368,
392,
334,
351,
339,
390,
311,
317,
380,
298,
319,
342,
308,
296,
290,
311,
311,
303,
301,
299,
290,
302,
268,
305,
268,
279,
289,
277,
262,
277,
277,
299,
270,
272,
257,
245,
276,
263,
239,
262,
271,
233,
246,
256,
255,
221,
209,
243,
214,
230,
206,
211,
209,
229,
202,
198,
204,
199,
222,
184,
198,
208,
183,
188,
195,
184,
212,
185,
189,
166,
160,
204,
198,
167,
144,
173,
158,
152,
172,
172,
150,
141,
163,
159,
131,
164,
151,
131,
142,
121,
126,
114,
153,
148,
110,
119,
126,
119,
111,
137,
109,
104,
116,
108,
114,
102,
119,
93,
92,
111,
115,
103,
88,
86,
81,
94,
71,
111,
76,
101,
93,
68,
82,
86,
81,
81,
83,
82,
81,
68,
74,
73,
77,
75,
58,
71,
49,
73,
52,
63,
65,
48,
57,
61,
65,
57,
54,
44,
39,
36,
35,
40,
43,
47,
43,
40,
46,
47,
47,
41,
37,
31,
28,
30,
19,
26,
30,
35,
34,
27,
31,
19,
19,
19,
25,
21,
21,
17,
17,
29,
23,
21,
18,
7,
19,
13,
10,
11,
14,
3,
10,
9,
10,
9,
7,
3,
10,
6,
6,
5,
5,
2,
3,
5,
3,
0,
0,
1,
1,
1,
0,
0,
1,
1,
0,
0,
0,
1,
1,
0,
0,
0,
0,
2,
0,
0,
0,
0,
1,
0,
1,
0,
0,
0,
0,
0,
0,
0,
0,
0,
0,
0,
0,
1,
0,
0,
1,
0,
0,
0,
0,
0,
0,
0,
0,
1,
0,
1,
0,
0,
0,
0,
0,
1,
0,
0,
0,
0,
0,
0,
0,
0,
1,
0,
0,
0,
1,
0,
0,
0,
0,
0,
0,
0,
0,
0,
1,
0,
0,
0,
0,
0,
0,
0,
0,
1,
0,
0,
0,
0,
0,
0,
0,
0,
1,
0,
0,
1,
0,
0,
1,
0,
1,
0,
0,
0,
0,
0,
0,
0,
0,
0,
0,
0,
0,
0,
0,
0,
0,
0,
0,
0,
0,
0,
0,
0,
0,
0,
0,
0,
0,
0,
0,
0,
0,
0,
0,
0,
0,
0,
0,
0,
0,
1,
0,
0,
0,
0,
0,
0,
0,
0,
0,
0,
0,
0,
0,
0,
0,
0,
0,
0,
0,
0,
0,
0,
0,
0,
1,
0,
0,
0,
0,
0,
0,
0,
0,
0,
0,
0,
0,
0,
0,
0,
0,
0,
0,
0,
0,
0,
0,
0,
0,
0,
0,
0,
0,
0,
0,
0,
0,
0,
0,
0,
0,
0,
0,
0,
0,
0,
0,
0,
0,
0,
0,
0,
0,
0,
0,
0,
0,
0,
0,
0,
0,
0,
0,
0,
0,
0,
0,
0,
0,
0,
0,
0,
0,
0,
0,
0,
0,
0,
0,
0,
0,
0,
0,
0,
0,
0,
0,
0,
0,
0,
0,
0,
0,
0,
0,
0,
0,
0,
0,
0,
0,
0,
0,
0,
0,
0,
0,
0,
0,
0,
0,
0,
0,
0,
0,
0,
0,
0,
0,
0,
0,
0,
0,
0,
0,
0,
0,
0,
0,
0,
0,
0,
0,
0,
0,
0,
0,
0,
0,
0,
0,
0,
0,
0,
0,
0,
0,
0,
0,
0,
0,
0,
0,
0,
0,
0,
0,
0,
0,
0,
0,
0,
0,
0,
0,
0,
0,
0,
0,
0,
0,
0,
0,
0,
0,
0,
0,
0,
0,
0,
0,
0,
0,
0,
0,
0,
0,
0,
0,
0,
0,
0,
0,
0,
0,
0,
0,
0,
0,
0,
0,
0,
0,
0,
0,
0,
0,
0,
0,
0,
0,
0,
0,
0,
0,
0,
0,
0,
0,
0,
0,
0,
0,
0,
0,
0,
0,
0,
0,
0,
0,
0,
0,
0,
0,
0,
0,
0,
0,
0,
0,
0,
0,
0,
0,
0,
0,
0,
0,
0,
0,
0,
0,
0,
0,
0,
0,
0,
0,
0,
0,
0,
0,
0,
0,
0,
0,
0,
0,
0,
0,
0,
0,
0,
0,
0,
0,
0,
0,
0,
0,
0,
0,
0,
0,
0,
0,
0,
0,
0,
0,
0,
0,
0,
0,
0,
0,
0,
0,
0,
0,
0,
0,
0,
0,
0,
0,
0,
0,
0,
0,
0,
0,
0,
0,
0,
0,
0,
0,
0,
0,
0,
0,
0,
0,
0,
0,
0,
0,
0,
0,
0,
0,
0,
0,
0,
0,
0,
0,
0,
0,
0,
0,
0,
0,
0,
0,
0,
0,
0,
0,
0,
0,
0,
0,
0,
0,
0,
0,
0,
0,
0,
0,
0,
0,
0,
0,
0,
0,
0,
0,
0,
0,
0,
0,
0,
0,
0,
0,
0,
0,
0,
0,
0,
0,
0,
0,
0,
0,
0,
0,
0,
0,
0,
0,
0,
0,
0,
0,
0,
0,
0,
0,
0,
0,
0,
0,
0,
0,
0,
0,
0,
0,
0,
0,
0,
0,
0,
0,
0,
0,
0,
0,
0,
0,
0,
0,
0,
0,
0,
0,
0,
0,
0,
0,
0,
0,
0,
0,
0,
0,
0,
0,
0,
0,
0,
0,
0,
0,
0,
0,
0,
0,
0,
0,
0,
0,
0,
0,
0,
0,
0,
0,
0,
0,
0,
0,
0,
0,
0,
0,
0,
0,
0,
0,
0,
0,
0,
0,
0,
0,
0,
0,
0,
0,
0,
0,
0,
0,
0,
0,
0,
0,
0,
0,
0,
0,
0,
0,
0,
0,
0,
0,
0,
0,
0,
0,
0,
0,
0,
0,
0,
0,
0,
0,
0,
0,
0,
0,
0,
0,
0,
0,
0,
0,
0,
0,
0,
0,
0,
0,
0,
0,
0,
0,
0,
0,
0,
0,
0,
0,
0,
0,
0,
0,
0,
0,
0,
0,
0,
0,
0,
0,
0,
0,
0,
0,
0,
0,
0,
0,
0,
0,
0,
0,
0,
0,
0,
0,
0,
0,
0,
0,
0,
0,
0,
0,
0,
0,
0,
0,
0,
0,
0,
0,
0,
0,
0,
0,
0,
0,
0,
0,
0,
0,
0,
0,
0,
0,
0,
0,
0,
0,
0,
0,
0,
0,
0,
0,
0,
0,
0,
0,
0,
0,
0,
0,
0,
0,
0,
0,
0,
0,
0,
0,
0,
0,
0,
0,
0,
0,
0,
0,
0,
0,
0,
0,
0,
0,
0,
0,
0,
0,
0,
0,
0,
0,
0,
0,
0,
0,
0,
0,
0,
0,
0,
0,
0,
0,
0,
0,
0,
0,
0,
0,
0,
0,
0,
0,
0,
0,
0,
0,
0,
0,
0,
0,
0,
0,
0,
0,
0,
0,
0,
0,
0,
0,
0,
0,
0,
0,
0,
0,
0,
0,
0,
0,
0,
0,
0,
#ENDOFDATA   :