File: N132962/Quantification/15 keV/Mengason MM2/MMM2 Sphene[0][4].msa
#FORMAT      : EMSA/MAS Spectral Data File
#VERSION     : 1.0
#TITLE       : MMM2 Sphene[0][all]
#DATE        : 28-SEP-2025
#TIME        : 21:59
#OWNER       : Unknown
#NPOINTS     : 4096
#NCOLUMNS    : 1
#XUNITS      : eV
#YUNITS      : counts
#DATATYPE    : Y
#XPERCHAN    : 9.99778
#OFFSET      : 1.69135
#BEAMKV      : 15
#SIGNALTYPE  : EDS
#ELEVANGLE   : 35
#AZIMANGLE   : 0
#LIVETIME    : 240.124
#REALTIME    : 253.353
#PROBECUR    : 1.21223
#TAUWIND     : 0
#TDEADLYR    : 0
#TACTLYR     : 0.045
#TALWIND     : 0.025
#CHOFFSET    : 0.0
#XLABEL      : Energy (eV)
#YLABEL      : Counts
#XPOSITION   : -11.19725
#YPOSITION   : -1.86227
#ZPOSITION   : 34.11879
#EDSDET      : SD
##SPECIMEN   : MMM2 Sphene[0][all]
##DET_HASH   : 12273538-fd48-a23f-0a19-f1e6fa85caef
##CALIB_HASH : 6abaa72c-aa41-8738-0be9-f592914732f3
##WORKING    : 15.0 mm
##DET_NAME   : EDAX All
##DET_MODE   : MediumLE
#SPECTRUM    :
22,
28,
6,
28,
113,
445,
1471,
4719,
13804,
20050,
14311,
9204,
9389,
10812,
12187,
19892,
53109,
96135,
69640,
19087,
3724,
2370,
2891,
3282,
3163,
2980,
2949,
3095,
3267,
3374,
3584,
3684,
3849,
3980,
4287,
4330,
4295,
4429,
4602,
4786,
4614,
4759,
4804,
4910,
4955,
4960,
5139,
5800,
7647,
10557,
10762,
7967,
6183,
5593,
6348,
11601,
37100,
90475,
121886,
86501,
36364,
14182,
7800,
5189,
4428,
4573,
4267,
3850,
3712,
3667,
3570,
3720,
3786,
3828,
3684,
3644,
3745,
3522,
3376,
3326,
3211,
3180,
3109,
3181,
3091,
2986,
3064,
3050,
3023,
3083,
3111,
3145,
3283,
3079,
3014,
2760,
2729,
2826,
2718,
2713,
2673,
2672,
2588,
2700,
2612,
2499,
2588,
2519,
2490,
2492,
2465,
2409,
2337,
2435,
2395,
2444,
2749,
2831,
3281,
5282,
12614,
30708,
56729,
70943,
60044,
34134,
13841,
5013,
2671,
2416,
2743,
4115,
6597,
9305,
10264,
8249,
5236,
2871,
2120,
1740,
1767,
1671,
1817,
1815,
1947,
2368,
3603,
8532,
19737,
36356,
47736,
44712,
29699,
14199,
5667,
2418,
1661,
1541,
1600,
1632,
1895,
2526,
4005,
5911,
7464,
7232,
5465,
3510,
2128,
1500,
1291,
1261,
1217,
1290,
1192,
1150,
1258,
1242,
1200,
1197,
1212,
1269,
1235,
1159,
1067,
1165,
1053,
1064,
1069,
1046,
1075,
1092,
1048,
1008,
1049,
1054,
984,
1066,
1109,
1001,
1008,
928,
940,
966,
979,
991,
930,
978,
1000,
1018,
1069,
1187,
1265,
1331,
1290,
1186,
969,
949,
871,
867,
804,
856,
843,
843,
803,
767,
741,
785,
796,
753,
764,
778,
800,
764,
774,
809,
797,
807,
750,
731,
697,
694,
680,
676,
719,
661,
695,
702,
659,
695,
649,
632,
651,
640,
624,
622,
628,
606,
625,
634,
602,
601,
562,
580,
600,
545,
604,
566,
527,
563,
559,
567,
584,
583,
587,
544,
546,
536,
510,
468,
534,
496,
506,
487,
485,
501,
477,
476,
462,
479,
488,
529,
432,
433,
460,
470,
469,
413,
447,
440,
427,
418,
408,
415,
401,
403,
413,
375,
412,
360,
411,
372,
396,
387,
388,
364,
376,
385,
381,
336,
341,
348,
374,
358,
326,
332,
324,
323,
332,
290,
310,
313,
308,
327,
291,
283,
298,
294,
285,
301,
317,
293,
268,
303,
273,
258,
284,
265,
233,
254,
241,
259,
240,
244,
241,
222,
214,
227,
215,
239,
216,
253,
243,
219,
211,
202,
196,
227,
190,
210,
201,
196,
205,
209,
185,
204,
191,
215,
167,
165,
187,
154,
195,
165,
165,
180,
161,
156,
155,
162,
157,
137,
140,
165,
130,
131,
156,
131,
130,
144,
123,
154,
116,
119,
125,
121,
117,
122,
115,
135,
111,
110,
111,
104,
94,
111,
100,
89,
83,
88,
101,
105,
79,
85,
85,
86,
78,
88,
73,
79,
71,
80,
80,
78,
70,
71,
64,
84,
63,
64,
61,
61,
52,
54,
45,
56,
66,
66,
46,
47,
48,
56,
37,
51,
48,
50,
37,
33,
39,
31,
39,
38,
35,
29,
42,
34,
32,
22,
28,
25,
22,
25,
25,
28,
15,
19,
13,
16,
21,
10,
15,
20,
12,
18,
9,
9,
13,
7,
7,
7,
9,
11,
4,
7,
3,
6,
3,
3,
2,
3,
1,
2,
1,
2,
0,
3,
0,
1,
1,
1,
0,
0,
1,
0,
0,
0,
1,
0,
0,
0,
0,
0,
0,
0,
2,
1,
1,
0,
2,
0,
0,
1,
0,
1,
0,
1,
1,
1,
0,
0,
0,
0,
1,
2,
0,
0,
0,
0,
0,
0,
0,
0,
0,
0,
0,
0,
1,
0,
0,
0,
0,
2,
0,
0,
0,
1,
1,
0,
0,
0,
1,
0,
0,
0,
0,
0,
0,
1,
0,
0,
0,
0,
0,
0,
0,
1,
0,
1,
0,
0,
0,
0,
0,
0,
0,
0,
0,
1,
0,
0,
0,
0,
1,
0,
0,
0,
1,
0,
0,
0,
0,
0,
0,
1,
0,
0,
1,
1,
0,
0,
0,
0,
0,
0,
0,
0,
0,
0,
0,
0,
0,
0,
0,
0,
0,
0,
0,
0,
0,
0,
0,
0,
0,
0,
0,
0,
0,
0,
0,
0,
0,
0,
0,
0,
0,
0,
0,
0,
0,
0,
0,
0,
0,
0,
0,
0,
0,
0,
0,
0,
0,
0,
0,
0,
0,
0,
0,
0,
0,
0,
0,
0,
0,
0,
0,
0,
0,
0,
0,
0,
0,
0,
1,
0,
0,
0,
0,
1,
0,
0,
0,
0,
0,
0,
0,
0,
0,
0,
0,
0,
0,
0,
0,
1,
0,
0,
0,
0,
0,
0,
0,
0,
0,
0,
0,
0,
0,
0,
0,
0,
0,
0,
0,
0,
0,
0,
0,
0,
0,
0,
0,
0,
0,
0,
0,
0,
0,
0,
0,
0,
0,
0,
0,
0,
0,
0,
0,
0,
0,
0,
0,
0,
0,
0,
0,
0,
0,
0,
0,
0,
0,
0,
0,
0,
0,
0,
0,
0,
0,
0,
0,
0,
0,
0,
0,
0,
0,
0,
0,
0,
0,
0,
0,
0,
0,
0,
0,
0,
0,
0,
0,
0,
0,
0,
0,
0,
0,
0,
0,
0,
0,
0,
0,
0,
0,
0,
0,
0,
0,
0,
0,
0,
0,
0,
0,
0,
0,
0,
0,
0,
0,
0,
0,
0,
0,
0,
0,
0,
0,
0,
0,
0,
0,
0,
0,
0,
0,
0,
0,
0,
0,
0,
0,
0,
0,
0,
0,
0,
0,
0,
0,
0,
0,
0,
0,
0,
0,
0,
0,
0,
0,
0,
0,
0,
0,
0,
0,
0,
0,
0,
0,
0,
0,
0,
0,
0,
0,
0,
0,
0,
0,
0,
0,
0,
0,
0,
0,
0,
0,
0,
0,
0,
0,
0,
0,
0,
0,
0,
0,
0,
0,
0,
0,
0,
0,
0,
0,
0,
0,
0,
0,
0,
0,
0,
0,
0,
0,
0,
0,
0,
0,
0,
0,
0,
0,
0,
0,
0,
0,
0,
0,
0,
0,
0,
0,
0,
0,
0,
0,
0,
0,
0,
0,
0,
0,
0,
0,
0,
0,
0,
0,
0,
0,
0,
0,
0,
0,
0,
0,
0,
0,
0,
0,
0,
0,
0,
0,
0,
0,
0,
0,
0,
0,
0,
0,
0,
0,
0,
0,
0,
0,
0,
0,
0,
0,
0,
0,
0,
0,
0,
0,
0,
0,
0,
0,
0,
0,
0,
0,
0,
0,
0,
0,
0,
0,
0,
0,
0,
0,
0,
0,
0,
0,
0,
0,
0,
0,
0,
0,
0,
0,
0,
0,
0,
0,
0,
0,
0,
0,
0,
0,
0,
0,
0,
0,
0,
0,
0,
0,
0,
0,
0,
0,
0,
0,
0,
0,
0,
0,
0,
0,
0,
0,
0,
0,
0,
0,
0,
0,
0,
0,
0,
0,
0,
0,
0,
0,
0,
0,
0,
0,
0,
0,
0,
0,
0,
0,
0,
0,
0,
0,
0,
0,
0,
0,
0,
0,
0,
0,
0,
0,
0,
0,
0,
0,
0,
0,
0,
0,
0,
0,
0,
0,
0,
0,
0,
0,
0,
0,
0,
0,
0,
0,
0,
0,
0,
0,
0,
0,
0,
0,
0,
0,
0,
0,
0,
0,
0,
0,
0,
0,
0,
0,
0,
0,
0,
0,
0,
0,
0,
0,
0,
0,
0,
0,
0,
0,
0,
0,
0,
0,
0,
0,
0,
0,
0,
0,
0,
0,
0,
0,
0,
0,
0,
0,
0,
0,
0,
0,
0,
0,
0,
0,
0,
0,
0,
0,
0,
0,
0,
0,
0,
0,
0,
0,
0,
0,
0,
0,
0,
0,
0,
0,
0,
0,
0,
0,
0,
0,
0,
0,
0,
0,
0,
0,
0,
0,
0,
0,
0,
0,
0,
0,
0,
0,
0,
0,
0,
0,
0,
0,
0,
0,
0,
0,
0,
0,
0,
0,
0,
0,
0,
0,
0,
0,
0,
0,
0,
0,
0,
0,
0,
0,
0,
0,
0,
0,
0,
0,
0,
0,
0,
0,
0,
0,
0,
0,
0,
0,
0,
0,
0,
0,
0,
0,
0,
0,
0,
0,
0,
0,
0,
0,
0,
0,
0,
0,
0,
0,
0,
0,
0,
0,
0,
0,
0,
0,
0,
0,
0,
0,
0,
0,
0,
0,
0,
0,
0,
0,
0,
0,
0,
0,
0,
0,
0,
0,
0,
0,
0,
0,
0,
0,
0,
0,
0,
0,
0,
0,
0,
0,
0,
0,
0,
0,
0,
0,
0,
0,
0,
0,
0,
0,
0,
0,
0,
0,
0,
0,
0,
0,
0,
0,
0,
0,
0,
0,
0,
0,
0,
0,
0,
0,
0,
0,
0,
#ENDOFDATA   :