File: N132962/Quantification/15 keV/Mengason MM2/MMM2 Rhodonite[6][4].msa
#FORMAT      : EMSA/MAS Spectral Data File
#VERSION     : 1.0
#TITLE       : MMM2 Rhodonite[6][all]
#DATE        : 28-SEP-2025
#TIME        : 23:28
#OWNER       : Unknown
#NPOINTS     : 4096
#NCOLUMNS    : 1
#XUNITS      : eV
#YUNITS      : counts
#DATATYPE    : Y
#XPERCHAN    : 9.99778
#OFFSET      : 1.69135
#BEAMKV      : 15
#SIGNALTYPE  : EDS
#ELEVANGLE   : 35
#AZIMANGLE   : 0
#LIVETIME    : 240.289
#REALTIME    : 256.165
#PROBECUR    : 1.21079
#TAUWIND     : 0
#TDEADLYR    : 0
#TACTLYR     : 0.045
#TALWIND     : 0.025
#CHOFFSET    : 0.0
#XLABEL      : Energy (eV)
#YLABEL      : Counts
#XPOSITION   : -16.69494
#YPOSITION   : 1.75835
#ZPOSITION   : 34.11879
#EDSDET      : SD
##SPECIMEN   : MMM2 Rhodonite[6][all]
##DET_HASH   : 12273538-fd48-a23f-0a19-f1e6fa85caef
##CALIB_HASH : 6abaa72c-aa41-8738-0be9-f592914732f3
##WORKING    : 15.0 mm
##DET_NAME   : EDAX All
##DET_MODE   : MediumLE
#SPECTRUM    :
23,
25,
17,
25,
115,
455,
1498,
4631,
12829,
16339,
9288,
5242,
5256,
6210,
10797,
35321,
128726,
243068,
178704,
52963,
20053,
24243,
19076,
10192,
6841,
4310,
3174,
3046,
3310,
3342,
3389,
3501,
3741,
4005,
4267,
4384,
4364,
4509,
4559,
5100,
6854,
10981,
12261,
8997,
5791,
5037,
5000,
5007,
5201,
5368,
5478,
5539,
5616,
5714,
6666,
14941,
51899,
131052,
178414,
126000,
51705,
18600,
9217,
5489,
3892,
3601,
3537,
3585,
3564,
3484,
3350,
3324,
3432,
3458,
3773,
3922,
3823,
3519,
3361,
3348,
3181,
3152,
3174,
3035,
3168,
3119,
3079,
3079,
3142,
2970,
2894,
2864,
2895,
2944,
2834,
2802,
2816,
2837,
2756,
2751,
2714,
2752,
2707,
2586,
2589,
2523,
2569,
2545,
2578,
2593,
2505,
2493,
2471,
2519,
2429,
2491,
2573,
2573,
2617,
2767,
3851,
6720,
11090,
13292,
11302,
7162,
4096,
2559,
2189,
2053,
2178,
2371,
2758,
3194,
3366,
2971,
2664,
2109,
2142,
2087,
2003,
1904,
1891,
1831,
1784,
1694,
1747,
1624,
1719,
1749,
1821,
1703,
1686,
1619,
1656,
1702,
1668,
1570,
1638,
1666,
1577,
1495,
1562,
1510,
1514,
1509,
1474,
1506,
1397,
1436,
1364,
1376,
1387,
1440,
1397,
1380,
1384,
1350,
1372,
1348,
1335,
1312,
1283,
1302,
1296,
1295,
1328,
1271,
1333,
1405,
1493,
1909,
3666,
8342,
17968,
30713,
40187,
39715,
30116,
17384,
7904,
3279,
1667,
1197,
1238,
1126,
1099,
1115,
1271,
1468,
2003,
3192,
4423,
5892,
6996,
7712,
7297,
6247,
4441,
2769,
1654,
1162,
902,
862,
854,
870,
827,
838,
867,
830,
870,
899,
963,
1066,
1110,
1217,
1180,
1109,
942,
838,
757,
761,
719,
706,
763,
685,
717,
716,
696,
762,
735,
747,
687,
783,
785,
749,
705,
659,
620,
651,
621,
652,
589,
625,
596,
628,
569,
573,
615,
630,
618,
617,
607,
596,
554,
595,
536,
636,
529,
557,
533,
536,
523,
512,
496,
547,
538,
531,
530,
509,
488,
503,
506,
489,
486,
465,
470,
458,
484,
454,
447,
462,
455,
465,
495,
413,
441,
475,
464,
427,
393,
395,
378,
389,
382,
396,
416,
386,
395,
410,
411,
386,
396,
353,
413,
366,
319,
323,
371,
374,
360,
350,
349,
343,
334,
330,
325,
318,
336,
344,
308,
311,
335,
277,
289,
273,
292,
314,
255,
304,
286,
274,
272,
293,
277,
254,
282,
257,
264,
258,
251,
250,
258,
257,
227,
238,
248,
201,
263,
222,
216,
195,
203,
237,
211,
209,
192,
208,
223,
181,
185,
176,
188,
205,
172,
180,
201,
171,
192,
179,
174,
211,
178,
177,
176,
146,
157,
159,
157,
144,
152,
146,
145,
116,
127,
138,
146,
139,
134,
97,
122,
122,
115,
108,
130,
108,
98,
112,
92,
110,
114,
113,
112,
124,
84,
98,
89,
95,
93,
84,
89,
81,
95,
78,
90,
95,
80,
71,
74,
80,
62,
67,
54,
82,
66,
74,
72,
52,
54,
48,
49,
53,
62,
45,
59,
46,
47,
55,
52,
39,
43,
55,
41,
47,
41,
35,
35,
31,
30,
28,
33,
21,
24,
32,
30,
24,
29,
19,
11,
26,
21,
24,
13,
16,
16,
17,
10,
10,
18,
9,
8,
7,
10,
6,
9,
0,
6,
5,
3,
2,
1,
2,
4,
1,
1,
0,
0,
0,
1,
1,
0,
2,
0,
1,
0,
0,
1,
0,
0,
0,
1,
1,
1,
0,
0,
1,
2,
1,
0,
0,
0,
0,
0,
0,
0,
1,
0,
1,
0,
1,
1,
2,
0,
0,
0,
1,
0,
0,
0,
0,
2,
0,
0,
1,
0,
0,
1,
1,
0,
0,
0,
0,
0,
1,
0,
0,
0,
1,
0,
1,
0,
1,
0,
1,
0,
0,
1,
0,
1,
0,
1,
0,
0,
0,
0,
1,
0,
0,
1,
0,
0,
0,
0,
1,
0,
0,
0,
0,
0,
0,
1,
0,
0,
0,
1,
0,
2,
0,
0,
0,
1,
0,
0,
0,
0,
0,
0,
0,
0,
0,
0,
0,
1,
1,
0,
0,
0,
0,
1,
0,
1,
0,
0,
0,
0,
0,
0,
0,
1,
0,
1,
1,
0,
0,
0,
0,
0,
0,
0,
0,
0,
0,
0,
0,
0,
0,
0,
0,
0,
0,
0,
0,
0,
0,
0,
1,
0,
0,
0,
0,
0,
1,
0,
0,
0,
0,
0,
0,
0,
0,
1,
0,
0,
0,
0,
0,
0,
0,
0,
0,
0,
0,
0,
0,
0,
0,
0,
0,
0,
0,
0,
0,
0,
0,
0,
0,
0,
0,
0,
0,
0,
0,
0,
0,
0,
0,
0,
0,
0,
0,
0,
0,
0,
0,
0,
0,
0,
0,
0,
0,
0,
0,
0,
0,
0,
0,
0,
0,
0,
0,
0,
0,
0,
0,
0,
0,
0,
0,
0,
0,
0,
0,
0,
0,
0,
0,
0,
0,
0,
0,
0,
0,
0,
0,
0,
0,
0,
0,
0,
0,
0,
0,
0,
0,
0,
0,
0,
0,
0,
0,
0,
0,
0,
0,
0,
0,
0,
0,
0,
0,
0,
0,
0,
0,
0,
0,
0,
0,
0,
0,
0,
0,
0,
0,
0,
0,
0,
0,
0,
0,
0,
0,
0,
0,
0,
0,
0,
0,
0,
0,
0,
0,
0,
0,
0,
0,
0,
0,
0,
0,
0,
0,
0,
0,
0,
0,
0,
0,
0,
0,
0,
0,
0,
0,
0,
0,
0,
0,
0,
0,
0,
0,
0,
0,
0,
0,
0,
0,
0,
0,
0,
0,
0,
0,
0,
0,
0,
0,
0,
0,
0,
0,
0,
0,
0,
0,
0,
0,
0,
0,
0,
0,
0,
0,
0,
0,
0,
0,
0,
0,
0,
0,
0,
0,
0,
0,
0,
0,
0,
0,
0,
0,
0,
0,
0,
0,
0,
0,
0,
0,
0,
0,
0,
0,
0,
0,
0,
0,
0,
0,
0,
0,
0,
0,
0,
0,
0,
0,
0,
0,
0,
0,
0,
0,
0,
0,
0,
0,
0,
0,
0,
0,
0,
0,
0,
0,
0,
0,
0,
0,
0,
0,
0,
0,
0,
0,
0,
0,
0,
0,
0,
0,
0,
0,
0,
0,
0,
0,
0,
0,
0,
0,
0,
0,
0,
0,
0,
0,
0,
0,
0,
0,
0,
0,
0,
0,
0,
0,
0,
0,
0,
0,
0,
0,
0,
0,
0,
0,
0,
0,
0,
0,
0,
0,
0,
0,
0,
0,
0,
0,
0,
0,
0,
0,
0,
0,
0,
0,
0,
0,
0,
0,
0,
0,
0,
0,
0,
0,
0,
0,
0,
0,
0,
0,
0,
0,
0,
0,
0,
0,
0,
0,
0,
0,
0,
0,
0,
0,
0,
0,
0,
0,
0,
0,
0,
0,
0,
0,
0,
0,
0,
0,
0,
0,
0,
0,
0,
0,
0,
0,
0,
0,
0,
0,
0,
0,
0,
0,
0,
0,
0,
0,
0,
0,
0,
0,
0,
0,
0,
0,
0,
0,
0,
0,
0,
0,
0,
0,
0,
0,
0,
0,
0,
0,
0,
0,
0,
0,
0,
0,
0,
0,
0,
0,
0,
0,
0,
0,
0,
0,
0,
0,
0,
0,
0,
0,
0,
0,
0,
0,
0,
0,
0,
0,
0,
0,
0,
0,
0,
0,
0,
0,
0,
0,
0,
0,
0,
0,
0,
0,
0,
0,
0,
0,
0,
0,
0,
0,
0,
0,
0,
0,
0,
0,
0,
0,
0,
0,
0,
0,
0,
0,
0,
0,
0,
0,
0,
0,
0,
0,
0,
0,
0,
0,
0,
0,
0,
0,
0,
0,
0,
0,
0,
0,
0,
0,
0,
0,
0,
0,
0,
0,
0,
0,
0,
0,
0,
0,
0,
0,
0,
0,
0,
0,
0,
0,
0,
0,
0,
0,
0,
0,
0,
0,
0,
0,
0,
0,
0,
0,
0,
0,
0,
0,
0,
0,
0,
0,
0,
0,
0,
0,
0,
0,
0,
0,
0,
0,
0,
0,
0,
0,
0,
0,
0,
0,
0,
0,
0,
0,
0,
0,
0,
0,
0,
0,
0,
0,
0,
0,
0,
0,
0,
0,
0,
0,
0,
0,
0,
0,
0,
0,
0,
0,
0,
0,
0,
0,
0,
0,
0,
0,
0,
0,
0,
0,
0,
0,
0,
0,
0,
0,
0,
0,
0,
0,
0,
0,
0,
0,
0,
0,
0,
0,
0,
0,
0,
0,
0,
0,
0,
0,
0,
0,
0,
0,
0,
0,
0,
0,
0,
0,
0,
0,
0,
0,
0,
0,
0,
0,
0,
0,
0,
0,
0,
0,
0,
0,
0,
0,
0,
0,
0,
0,
0,
0,
0,
0,
0,
0,
0,
0,
0,
0,
0,
0,
#ENDOFDATA   :