File: N132962/Quantification/15 keV/Mengason MM2/MMM2 Spessartine[0][4].msa
#FORMAT      : EMSA/MAS Spectral Data File
#VERSION     : 1.0
#TITLE       : MMM2 Spessartine[0][all]
#DATE        : 29-SEP-2025
#TIME        : 00:44
#OWNER       : Unknown
#NPOINTS     : 4096
#NCOLUMNS    : 1
#XUNITS      : eV
#YUNITS      : counts
#DATATYPE    : Y
#XPERCHAN    : 9.99778
#OFFSET      : 1.69135
#BEAMKV      : 15
#SIGNALTYPE  : EDS
#ELEVANGLE   : 35
#AZIMANGLE   : 0
#LIVETIME    : 240.312
#REALTIME    : 256.751
#PROBECUR    : 1.21186
#TAUWIND     : 0
#TDEADLYR    : 0
#TACTLYR     : 0.045
#TALWIND     : 0.025
#CHOFFSET    : 0.0
#XLABEL      : Energy (eV)
#YLABEL      : Counts
#XPOSITION   : -19.75068
#YPOSITION   : 6.71662
#ZPOSITION   : 34.11879
#EDSDET      : SD
##SPECIMEN   : MMM2 Spessartine[0][all]
##DET_HASH   : 12273538-fd48-a23f-0a19-f1e6fa85caef
##CALIB_HASH : 6abaa72c-aa41-8738-0be9-f592914732f3
##WORKING    : 15.0 mm
##DET_NAME   : EDAX All
##DET_MODE   : MediumLE
#SPECTRUM    :
18,
28,
7,
19,
121,
446,
1352,
4320,
11980,
15251,
8390,
4759,
5109,
6619,
11640,
39542,
145705,
275155,
202747,
58825,
20606,
25267,
20490,
10104,
5231,
3523,
3099,
3083,
3230,
3374,
3379,
3503,
3620,
4091,
4421,
4605,
4437,
4449,
4459,
4668,
4761,
4719,
4903,
5132,
5402,
5621,
6747,
14103,
41948,
82148,
83217,
44582,
16315,
7446,
6323,
11520,
38051,
94082,
126534,
90077,
37339,
14293,
7539,
4811,
3784,
3592,
3701,
3854,
3603,
3400,
3283,
3311,
3187,
3473,
3521,
3650,
3714,
3385,
3228,
3139,
3098,
3080,
3100,
3064,
3083,
3017,
2912,
2968,
2918,
2789,
2843,
2869,
2803,
2804,
2883,
2796,
2649,
2672,
2766,
2756,
2711,
2646,
2647,
2538,
2535,
2500,
2473,
2613,
2481,
2534,
2474,
2366,
2300,
2413,
2455,
2505,
2461,
2367,
2252,
2266,
2264,
2541,
2842,
3099,
2850,
2482,
2206,
2133,
2053,
2105,
1999,
1975,
2010,
2044,
2065,
2007,
1988,
1922,
2091,
2012,
1891,
1977,
1828,
1700,
1781,
1706,
1751,
1702,
1831,
1779,
1746,
1637,
1623,
1588,
1615,
1627,
1631,
1627,
1551,
1491,
1485,
1576,
1527,
1547,
1443,
1421,
1497,
1384,
1386,
1452,
1432,
1462,
1319,
1389,
1366,
1313,
1195,
1304,
1360,
1255,
1303,
1259,
1218,
1353,
1285,
1280,
1239,
1265,
1284,
1410,
1494,
1905,
3546,
8243,
17988,
30502,
40210,
39902,
29706,
17081,
7735,
3207,
1630,
1199,
1084,
1061,
1067,
1085,
1140,
1214,
1428,
1811,
2471,
3479,
4835,
5846,
6465,
5617,
4253,
2667,
1726,
1168,
929,
865,
822,
836,
839,
793,
757,
792,
788,
811,
827,
824,
890,
949,
900,
853,
830,
708,
743,
748,
772,
704,
682,
780,
751,
732,
706,
709,
741,
707,
680,
704,
666,
728,
665,
655,
601,
638,
583,
634,
648,
633,
586,
625,
573,
613,
573,
581,
563,
572,
585,
552,
571,
557,
546,
574,
539,
537,
510,
533,
521,
530,
472,
493,
520,
494,
507,
524,
474,
488,
495,
470,
472,
474,
462,
475,
462,
434,
436,
443,
436,
405,
434,
420,
408,
438,
426,
415,
416,
437,
420,
385,
403,
390,
420,
392,
358,
335,
334,
366,
348,
372,
367,
345,
364,
345,
335,
335,
328,
332,
316,
309,
316,
316,
305,
276,
307,
290,
283,
326,
304,
308,
287,
299,
291,
300,
264,
281,
245,
297,
246,
230,
287,
236,
252,
272,
267,
227,
255,
241,
232,
248,
225,
207,
212,
210,
224,
214,
215,
220,
202,
211,
221,
220,
211,
191,
173,
203,
209,
185,
192,
190,
171,
165,
177,
157,
174,
154,
185,
151,
168,
170,
158,
147,
152,
165,
145,
161,
134,
107,
141,
123,
128,
106,
124,
132,
134,
138,
122,
114,
115,
105,
131,
89,
109,
107,
113,
117,
114,
100,
93,
104,
102,
90,
82,
65,
82,
83,
86,
86,
82,
86,
77,
83,
75,
73,
74,
71,
77,
63,
60,
57,
51,
53,
52,
57,
67,
59,
63,
53,
52,
42,
46,
47,
52,
52,
36,
28,
40,
41,
38,
33,
43,
30,
35,
45,
28,
34,
28,
36,
27,
26,
32,
19,
27,
22,
14,
17,
24,
12,
17,
13,
14,
9,
18,
9,
12,
7,
12,
7,
5,
4,
5,
1,
7,
1,
6,
3,
1,
1,
2,
0,
1,
1,
1,
1,
1,
2,
1,
0,
1,
2,
0,
2,
2,
0,
1,
0,
0,
1,
0,
1,
0,
1,
0,
0,
0,
1,
0,
0,
0,
2,
0,
1,
0,
1,
1,
0,
1,
1,
1,
0,
0,
0,
1,
0,
1,
1,
1,
0,
3,
0,
0,
1,
1,
0,
0,
0,
1,
0,
0,
0,
0,
0,
0,
0,
0,
0,
0,
0,
0,
0,
0,
0,
0,
0,
0,
0,
0,
0,
0,
0,
0,
1,
0,
1,
0,
0,
1,
0,
0,
1,
0,
0,
0,
0,
0,
0,
0,
0,
1,
0,
0,
0,
0,
0,
0,
0,
1,
0,
0,
0,
0,
0,
1,
0,
0,
0,
0,
0,
1,
0,
0,
0,
0,
0,
2,
0,
0,
0,
0,
0,
0,
0,
0,
0,
1,
0,
0,
0,
0,
0,
1,
0,
0,
0,
0,
1,
0,
0,
0,
0,
0,
0,
0,
0,
0,
0,
0,
0,
0,
0,
0,
0,
0,
0,
0,
0,
0,
0,
0,
0,
0,
0,
0,
0,
0,
0,
0,
0,
0,
0,
0,
0,
0,
0,
0,
0,
0,
0,
0,
0,
0,
0,
1,
0,
0,
0,
0,
0,
0,
0,
0,
0,
0,
0,
0,
0,
0,
0,
0,
0,
0,
0,
0,
0,
0,
0,
0,
0,
0,
0,
0,
0,
0,
0,
0,
0,
0,
0,
0,
0,
0,
0,
0,
0,
0,
0,
0,
0,
0,
0,
0,
0,
0,
0,
0,
0,
0,
0,
0,
0,
0,
0,
0,
0,
0,
0,
0,
0,
0,
0,
0,
0,
0,
0,
0,
0,
0,
0,
0,
0,
0,
0,
0,
0,
0,
0,
0,
0,
0,
0,
0,
0,
0,
0,
0,
0,
0,
0,
0,
0,
0,
0,
0,
0,
0,
0,
0,
0,
0,
0,
0,
0,
0,
0,
0,
0,
0,
0,
0,
0,
0,
0,
0,
0,
0,
0,
0,
0,
0,
0,
0,
0,
0,
0,
0,
0,
0,
0,
0,
0,
0,
0,
0,
0,
0,
0,
0,
0,
0,
0,
0,
0,
0,
0,
0,
0,
0,
0,
0,
0,
0,
0,
0,
0,
0,
0,
0,
0,
0,
0,
0,
0,
0,
0,
0,
0,
0,
0,
0,
0,
0,
0,
0,
0,
0,
0,
0,
0,
0,
0,
0,
0,
0,
0,
0,
0,
0,
0,
0,
0,
0,
0,
0,
0,
0,
0,
0,
0,
0,
0,
0,
0,
0,
0,
0,
0,
0,
0,
0,
0,
0,
0,
0,
0,
0,
0,
0,
0,
0,
0,
0,
0,
0,
0,
0,
0,
0,
0,
0,
0,
0,
0,
0,
0,
0,
0,
0,
0,
0,
0,
0,
0,
0,
0,
0,
0,
0,
0,
0,
0,
0,
0,
0,
0,
0,
0,
0,
0,
0,
0,
0,
0,
0,
0,
0,
0,
0,
0,
0,
0,
0,
0,
0,
0,
0,
0,
0,
0,
0,
0,
0,
0,
0,
0,
0,
0,
0,
0,
0,
0,
0,
0,
0,
0,
0,
0,
0,
0,
0,
0,
0,
0,
0,
0,
0,
0,
0,
0,
0,
0,
0,
0,
0,
0,
0,
0,
0,
0,
0,
0,
0,
0,
0,
0,
0,
0,
0,
0,
0,
0,
0,
0,
0,
0,
0,
0,
0,
0,
0,
0,
0,
0,
0,
0,
0,
0,
0,
0,
0,
0,
0,
0,
0,
0,
0,
0,
0,
0,
0,
0,
0,
0,
0,
0,
0,
0,
0,
0,
0,
0,
0,
0,
0,
0,
0,
0,
0,
0,
0,
0,
0,
0,
0,
0,
0,
0,
0,
0,
0,
0,
0,
0,
0,
0,
0,
0,
0,
0,
0,
0,
0,
0,
0,
0,
0,
0,
0,
0,
0,
0,
0,
0,
0,
0,
0,
0,
0,
0,
0,
0,
0,
0,
0,
0,
0,
0,
0,
0,
0,
0,
0,
0,
0,
0,
0,
0,
0,
0,
0,
0,
0,
0,
0,
0,
0,
0,
0,
0,
0,
0,
0,
0,
0,
0,
0,
0,
0,
0,
0,
0,
0,
0,
0,
0,
0,
0,
0,
0,
0,
0,
0,
0,
0,
0,
0,
0,
0,
0,
0,
0,
0,
0,
0,
0,
0,
0,
0,
0,
0,
0,
0,
0,
0,
0,
0,
0,
0,
0,
0,
0,
0,
0,
0,
0,
0,
0,
0,
0,
0,
0,
0,
0,
0,
0,
0,
0,
0,
0,
0,
0,
0,
0,
0,
0,
0,
0,
0,
0,
0,
0,
0,
0,
0,
0,
0,
0,
0,
0,
0,
0,
0,
0,
0,
0,
0,
0,
0,
0,
0,
0,
0,
0,
0,
0,
0,
0,
0,
0,
0,
0,
0,
0,
0,
0,
0,
0,
0,
0,
0,
0,
0,
0,
0,
0,
0,
0,
0,
0,
0,
0,
0,
0,
0,
0,
0,
0,
0,
0,
0,
0,
0,
0,
0,
0,
0,
0,
0,
0,
0,
0,
0,
0,
0,
0,
0,
0,
0,
0,
0,
0,
0,
0,
0,
0,
0,
0,
0,
0,
0,
0,
0,
0,
0,
0,
0,
0,
0,
0,
0,
0,
0,
0,
0,
0,
0,
0,
0,
0,
0,
0,
0,
0,
0,
0,
0,
0,
0,
0,
0,
0,
0,
0,
0,
0,
0,
0,
0,
0,
0,
0,
0,
0,
#ENDOFDATA   :