File: N132962/Quantification/15 keV/Mengason MM2/MMM2 Zircon-2[1][4].msa
#FORMAT      : EMSA/MAS Spectral Data File
#VERSION     : 1.0
#TITLE       : MMM2 Zircon-2[1][all]
#DATE        : 29-SEP-2025
#TIME        : 01:17
#OWNER       : Unknown
#NPOINTS     : 4096
#NCOLUMNS    : 1
#XUNITS      : eV
#YUNITS      : counts
#DATATYPE    : Y
#XPERCHAN    : 9.99778
#OFFSET      : 1.69135
#BEAMKV      : 15
#SIGNALTYPE  : EDS
#ELEVANGLE   : 35
#AZIMANGLE   : 0
#LIVETIME    : 240.265
#REALTIME    : 257.134
#PROBECUR    : 1.21248
#TAUWIND     : 0
#TDEADLYR    : 0
#TACTLYR     : 0.045
#TALWIND     : 0.025
#CHOFFSET    : 0.0
#XLABEL      : Energy (eV)
#YLABEL      : Counts
#XPOSITION   : -14.67784
#YPOSITION   : 7.58205
#ZPOSITION   : 34.11879
#EDSDET      : SD
##SPECIMEN   : MMM2 Zircon-2[1][all]
##DET_HASH   : 12273538-fd48-a23f-0a19-f1e6fa85caef
##CALIB_HASH : 6abaa72c-aa41-8738-0be9-f592914732f3
##WORKING    : 15.0 mm
##DET_NAME   : EDAX All
##DET_MODE   : MediumLE
#SPECTRUM    :
33,
27,
18,
69,
547,
1293,
2223,
5296,
14544,
19727,
12110,
5772,
4707,
5302,
6428,
17206,
57954,
107739,
79264,
22343,
5263,
3662,
4048,
4407,
4630,
4724,
4802,
5319,
5547,
5649,
5773,
5983,
6125,
6274,
6483,
6557,
6850,
6793,
6888,
6990,
7234,
7376,
7377,
7543,
7603,
7582,
7723,
7766,
7913,
7907,
8117,
7991,
8257,
8687,
10471,
17885,
48420,
112957,
151307,
112650,
53274,
23861,
14482,
11217,
12143,
20472,
48421,
102722,
142012,
127142,
94089,
72771,
49484,
28503,
16603,
10126,
6618,
4795,
4299,
3587,
3465,
3686,
3856,
4291,
4278,
4081,
3582,
3354,
3406,
3214,
3234,
3174,
3151,
3234,
3118,
3184,
3128,
3070,
3137,
3081,
3032,
3201,
3241,
3072,
2982,
3143,
3050,
2983,
3118,
3089,
3016,
2952,
2907,
2967,
3027,
3041,
3128,
3077,
2993,
2883,
2820,
2798,
2917,
2808,
3024,
2941,
2993,
2937,
2802,
2814,
2832,
2829,
2745,
2732,
2673,
2742,
2685,
2691,
2676,
2661,
2560,
2493,
2480,
2380,
2415,
2475,
2469,
2332,
2394,
2390,
2387,
2365,
2371,
2255,
2209,
2240,
2239,
2307,
2150,
2200,
2096,
2083,
2192,
2121,
2093,
2096,
2060,
2041,
2125,
2007,
2045,
2025,
1959,
1935,
2021,
1926,
1918,
1920,
1980,
1864,
1974,
1890,
1896,
1726,
1783,
1832,
1871,
1725,
1770,
1734,
1669,
1711,
1775,
1778,
1717,
1654,
1630,
1676,
1671,
1655,
1675,
1589,
1546,
1589,
1541,
1538,
1555,
1533,
1556,
1528,
1522,
1524,
1483,
1533,
1485,
1583,
1484,
1447,
1507,
1415,
1452,
1379,
1392,
1361,
1362,
1364,
1343,
1349,
1287,
1270,
1331,
1262,
1322,
1257,
1219,
1257,
1212,
1183,
1249,
1240,
1167,
1178,
1236,
1193,
1142,
1112,
1182,
1171,
1096,
1141,
1175,
1109,
1141,
1031,
1081,
1032,
1010,
1031,
1078,
1079,
1111,
1108,
1140,
1072,
1045,
976,
1024,
967,
953,
981,
974,
897,
942,
915,
874,
913,
914,
885,
893,
882,
881,
814,
824,
888,
824,
820,
781,
816,
801,
819,
828,
781,
762,
733,
776,
777,
780,
747,
740,
759,
753,
767,
762,
740,
736,
678,
699,
711,
706,
705,
703,
650,
653,
652,
635,
662,
637,
643,
638,
618,
623,
620,
573,
550,
589,
553,
564,
595,
553,
568,
554,
504,
506,
516,
533,
525,
519,
521,
546,
521,
525,
508,
507,
479,
485,
444,
415,
452,
462,
455,
486,
458,
423,
463,
464,
411,
400,
420,
423,
384,
437,
422,
398,
370,
366,
381,
357,
365,
336,
373,
368,
349,
376,
358,
364,
293,
310,
318,
334,
307,
297,
332,
305,
285,
314,
324,
309,
291,
256,
288,
262,
288,
281,
251,
243,
273,
264,
259,
258,
259,
264,
223,
257,
262,
243,
275,
220,
233,
232,
218,
218,
186,
209,
200,
183,
167,
179,
189,
201,
186,
170,
174,
166,
167,
168,
153,
140,
148,
161,
157,
158,
142,
131,
124,
135,
152,
126,
144,
99,
131,
111,
135,
111,
107,
95,
109,
108,
105,
88,
90,
82,
98,
86,
79,
86,
78,
101,
82,
88,
82,
63,
79,
59,
65,
61,
68,
62,
59,
48,
53,
51,
54,
45,
55,
44,
49,
40,
37,
35,
32,
36,
41,
29,
34,
28,
26,
18,
12,
16,
16,
15,
16,
14,
9,
14,
9,
6,
11,
5,
3,
2,
3,
1,
0,
1,
3,
0,
1,
1,
1,
1,
0,
1,
0,
3,
1,
1,
2,
1,
0,
0,
2,
0,
0,
2,
1,
0,
0,
1,
1,
1,
0,
1,
1,
0,
1,
0,
2,
0,
1,
0,
0,
0,
1,
1,
0,
0,
0,
1,
1,
2,
0,
0,
0,
0,
1,
1,
0,
0,
1,
0,
0,
0,
0,
2,
0,
0,
0,
2,
0,
1,
1,
0,
1,
0,
0,
0,
1,
0,
1,
0,
0,
0,
0,
0,
0,
0,
0,
1,
0,
0,
1,
0,
0,
0,
0,
1,
0,
0,
2,
1,
0,
0,
0,
1,
0,
0,
0,
0,
0,
0,
0,
0,
0,
0,
0,
0,
0,
0,
0,
0,
0,
0,
0,
0,
0,
0,
0,
0,
0,
0,
0,
0,
0,
1,
0,
0,
0,
0,
0,
1,
0,
0,
0,
0,
0,
0,
0,
0,
0,
0,
1,
0,
0,
0,
0,
0,
0,
0,
0,
2,
0,
0,
0,
0,
0,
0,
0,
0,
0,
2,
2,
0,
0,
0,
0,
0,
0,
0,
0,
0,
0,
0,
0,
0,
0,
0,
0,
0,
0,
0,
0,
0,
0,
0,
0,
0,
0,
0,
0,
0,
1,
0,
0,
0,
0,
0,
0,
0,
0,
0,
1,
0,
0,
0,
0,
0,
0,
0,
0,
0,
0,
0,
0,
0,
0,
0,
0,
0,
0,
0,
0,
0,
0,
0,
0,
0,
0,
0,
0,
0,
0,
0,
0,
0,
0,
0,
0,
0,
0,
0,
0,
0,
0,
0,
0,
0,
0,
0,
0,
0,
0,
0,
0,
0,
0,
0,
1,
0,
0,
0,
0,
0,
0,
0,
0,
0,
0,
0,
0,
0,
0,
0,
0,
0,
0,
0,
0,
0,
0,
0,
0,
0,
0,
0,
0,
0,
0,
0,
0,
0,
0,
0,
0,
0,
0,
0,
0,
0,
0,
0,
0,
0,
0,
0,
0,
0,
0,
0,
0,
0,
0,
0,
0,
0,
0,
0,
0,
0,
0,
0,
0,
0,
0,
0,
0,
0,
0,
0,
0,
0,
0,
0,
0,
0,
0,
0,
0,
0,
0,
0,
0,
0,
0,
0,
0,
0,
0,
0,
0,
0,
0,
0,
0,
0,
0,
0,
0,
0,
0,
0,
0,
0,
0,
0,
0,
0,
0,
0,
0,
0,
0,
0,
0,
0,
0,
0,
0,
0,
0,
0,
0,
0,
0,
0,
0,
0,
0,
0,
0,
0,
0,
0,
0,
0,
0,
0,
0,
0,
0,
0,
0,
0,
0,
0,
0,
0,
0,
0,
0,
0,
0,
0,
0,
0,
0,
0,
0,
0,
0,
0,
0,
0,
0,
0,
0,
0,
0,
0,
0,
0,
0,
0,
0,
0,
0,
0,
0,
0,
0,
0,
0,
0,
0,
0,
0,
0,
0,
0,
0,
0,
0,
0,
0,
0,
0,
0,
0,
0,
0,
0,
0,
0,
0,
0,
0,
0,
0,
0,
0,
0,
0,
0,
0,
0,
0,
0,
0,
0,
0,
0,
0,
0,
0,
0,
0,
0,
0,
0,
0,
0,
0,
0,
0,
0,
0,
0,
0,
0,
0,
0,
0,
0,
0,
0,
0,
0,
0,
0,
0,
0,
0,
0,
0,
0,
0,
0,
0,
0,
0,
0,
0,
0,
0,
0,
0,
0,
0,
0,
0,
0,
0,
0,
0,
0,
0,
0,
0,
0,
0,
0,
0,
0,
0,
0,
0,
0,
0,
0,
0,
0,
0,
0,
0,
0,
0,
0,
0,
0,
0,
0,
0,
0,
0,
0,
0,
0,
0,
0,
0,
0,
0,
0,
0,
0,
0,
0,
0,
0,
0,
0,
0,
0,
0,
0,
0,
0,
0,
0,
0,
0,
0,
0,
0,
0,
0,
0,
0,
0,
0,
0,
0,
0,
0,
0,
0,
0,
0,
0,
0,
0,
0,
0,
0,
0,
0,
0,
0,
0,
0,
0,
0,
0,
0,
0,
0,
0,
0,
0,
0,
0,
0,
0,
0,
0,
0,
0,
0,
0,
0,
0,
0,
0,
0,
0,
0,
0,
0,
0,
0,
0,
0,
0,
0,
0,
0,
0,
0,
0,
0,
0,
0,
0,
0,
0,
0,
0,
0,
0,
0,
0,
0,
0,
0,
0,
0,
0,
0,
0,
0,
0,
0,
0,
0,
0,
0,
0,
0,
0,
0,
0,
0,
0,
0,
0,
0,
0,
0,
0,
0,
0,
0,
0,
0,
0,
0,
0,
0,
0,
0,
0,
0,
0,
0,
0,
0,
0,
0,
0,
0,
0,
0,
0,
0,
0,
0,
0,
0,
0,
0,
0,
0,
0,
0,
0,
0,
0,
0,
0,
0,
0,
0,
0,
0,
0,
0,
0,
0,
0,
0,
0,
0,
0,
0,
0,
0,
0,
0,
0,
0,
0,
0,
0,
0,
0,
0,
0,
0,
0,
0,
0,
0,
0,
0,
0,
0,
0,
0,
0,
0,
0,
0,
0,
0,
0,
0,
0,
0,
0,
0,
0,
0,
0,
0,
0,
0,
0,
0,
0,
0,
0,
0,
0,
0,
0,
0,
0,
0,
0,
0,
0,
0,
0,
0,
0,
0,
0,
0,
0,
0,
0,
0,
0,
0,
0,
0,
0,
0,
0,
0,
0,
0,
0,
0,
0,
0,
0,
0,
0,
0,
0,
0,
0,
0,
0,
0,
0,
0,
0,
0,
0,
0,
0,
0,
0,
0,
#ENDOFDATA   :