File: N132962/Quantification/15 keV/Mengason MM2/MMM2 Willemite[7][4].msa
#FORMAT      : EMSA/MAS Spectral Data File
#VERSION     : 1.0
#TITLE       : MMM2 Willemite[7][all]
#DATE        : 28-SEP-2025
#TIME        : 23:50
#OWNER       : Unknown
#NPOINTS     : 4096
#NCOLUMNS    : 1
#XUNITS      : eV
#YUNITS      : counts
#DATATYPE    : Y
#XPERCHAN    : 9.99778
#OFFSET      : 1.69135
#BEAMKV      : 15
#SIGNALTYPE  : EDS
#ELEVANGLE   : 35
#AZIMANGLE   : 0
#LIVETIME    : 240.279
#REALTIME    : 257.96
#PROBECUR    : 1.21079
#TAUWIND     : 0
#TDEADLYR    : 0
#TACTLYR     : 0.045
#TALWIND     : 0.025
#CHOFFSET    : 0.0
#XLABEL      : Energy (eV)
#YLABEL      : Counts
#XPOSITION   : -11.62873
#YPOSITION   : 2.22014
#ZPOSITION   : 34.11879
#EDSDET      : SD
##SPECIMEN   : MMM2 Willemite[7][all]
##DET_HASH   : 12273538-fd48-a23f-0a19-f1e6fa85caef
##CALIB_HASH : 6abaa72c-aa41-8738-0be9-f592914732f3
##WORKING    : 15.0 mm
##DET_NAME   : EDAX All
##DET_MODE   : MediumLE
#SPECTRUM    :
32,
20,
6,
23,
119,
509,
1482,
4956,
13931,
17781,
9281,
4767,
4780,
5960,
9185,
26629,
92654,
172344,
125965,
36037,
10057,
9821,
8781,
6774,
6321,
6355,
7076,
8817,
14565,
22627,
24585,
29333,
82507,
206856,
257025,
148302,
43869,
10893,
5382,
4098,
4261,
4724,
4991,
4646,
4108,
4071,
4264,
4369,
4680,
4914,
5368,
5516,
5483,
5263,
5602,
9487,
27566,
64402,
86126,
61982,
26831,
11167,
6791,
4949,
4176,
3969,
4225,
4351,
4428,
4198,
4159,
3876,
3939,
3905,
4029,
4156,
4088,
3966,
3808,
3945,
3813,
3804,
3824,
3626,
3774,
3733,
3771,
3659,
3785,
3580,
3666,
3807,
3844,
3730,
3689,
3480,
3470,
3474,
3329,
3387,
3374,
3471,
3314,
3246,
3295,
3273,
3224,
3122,
3090,
3126,
3081,
3090,
3105,
3085,
3114,
3009,
3016,
2994,
2910,
2985,
2855,
2872,
2873,
2730,
2800,
2798,
2709,
2742,
2635,
2645,
2698,
2684,
2646,
2619,
2578,
2496,
2536,
2524,
2578,
2500,
2467,
2475,
2429,
2422,
2304,
2385,
2270,
2345,
2273,
2252,
2259,
2234,
2247,
2198,
2031,
2085,
2085,
2081,
2130,
2128,
1992,
2103,
1970,
1965,
2009,
1945,
1988,
1898,
1964,
1894,
1909,
1886,
1844,
1859,
1710,
1878,
1800,
1785,
1711,
1713,
1743,
1878,
1736,
1739,
1688,
1748,
1731,
1636,
1664,
1596,
1689,
1719,
1928,
2637,
4036,
5946,
7314,
7389,
5855,
3874,
2415,
1853,
1579,
1566,
1504,
1435,
1388,
1463,
1359,
1367,
1452,
1415,
1557,
1695,
1806,
2053,
2069,
2047,
1826,
1567,
1301,
1296,
1263,
1226,
1221,
1232,
1212,
1192,
1232,
1160,
1284,
1186,
1149,
1121,
1116,
1111,
1113,
1084,
1139,
1042,
1093,
1045,
1061,
1018,
1057,
1028,
1036,
1051,
1034,
1009,
984,
928,
975,
978,
940,
960,
928,
913,
929,
900,
918,
945,
854,
923,
884,
854,
815,
849,
832,
887,
908,
876,
812,
756,
810,
850,
835,
807,
821,
798,
881,
1040,
1581,
2896,
5577,
9660,
14405,
17632,
17878,
14777,
9910,
5833,
2949,
1585,
922,
747,
743,
685,
708,
632,
682,
683,
707,
638,
639,
658,
635,
683,
679,
608,
646,
621,
673,
699,
848,
1176,
1635,
2195,
2729,
2951,
2611,
2120,
1411,
1009,
692,
531,
514,
482,
498,
442,
476,
461,
482,
430,
475,
483,
421,
461,
460,
414,
455,
408,
373,
414,
420,
417,
387,
413,
403,
424,
369,
377,
384,
405,
409,
357,
379,
339,
335,
340,
322,
343,
320,
347,
330,
352,
334,
315,
315,
318,
320,
300,
295,
293,
281,
308,
313,
282,
275,
279,
248,
267,
266,
263,
268,
242,
257,
258,
230,
251,
221,
258,
236,
218,
222,
243,
225,
205,
205,
222,
199,
200,
206,
199,
205,
209,
190,
181,
146,
174,
191,
186,
169,
159,
175,
171,
152,
165,
136,
133,
168,
161,
164,
147,
113,
136,
143,
132,
149,
127,
120,
109,
125,
107,
135,
116,
116,
107,
95,
101,
106,
90,
101,
92,
96,
95,
86,
67,
83,
81,
80,
105,
76,
90,
73,
79,
77,
58,
66,
56,
60,
71,
56,
58,
53,
58,
56,
46,
43,
39,
59,
47,
51,
51,
39,
28,
33,
34,
34,
34,
32,
28,
30,
26,
25,
22,
16,
17,
15,
23,
14,
13,
12,
8,
10,
8,
5,
5,
8,
10,
3,
3,
2,
1,
0,
1,
1,
1,
1,
0,
0,
0,
0,
0,
1,
3,
0,
2,
0,
1,
0,
2,
0,
1,
0,
0,
0,
1,
0,
2,
2,
2,
1,
0,
1,
1,
1,
1,
2,
0,
0,
0,
2,
1,
1,
2,
1,
2,
2,
0,
0,
0,
0,
3,
0,
0,
1,
0,
2,
1,
1,
1,
2,
2,
0,
0,
0,
1,
0,
2,
1,
0,
0,
1,
2,
3,
2,
1,
2,
0,
0,
1,
1,
0,
0,
0,
0,
0,
1,
0,
0,
0,
0,
2,
1,
0,
1,
0,
0,
0,
0,
1,
2,
2,
0,
2,
1,
3,
2,
1,
2,
0,
1,
0,
3,
1,
0,
1,
0,
1,
1,
0,
1,
0,
1,
1,
0,
1,
2,
0,
0,
0,
0,
0,
1,
0,
0,
0,
1,
0,
0,
0,
1,
0,
1,
0,
0,
0,
0,
0,
0,
0,
0,
0,
0,
0,
1,
0,
0,
0,
0,
0,
0,
0,
0,
0,
0,
0,
0,
0,
0,
0,
0,
0,
1,
0,
0,
0,
0,
0,
0,
0,
1,
0,
0,
1,
0,
0,
1,
0,
0,
0,
0,
0,
0,
0,
0,
1,
0,
0,
0,
0,
0,
0,
0,
0,
0,
0,
0,
1,
0,
0,
0,
0,
0,
0,
0,
0,
0,
0,
0,
0,
0,
0,
0,
0,
0,
0,
0,
0,
0,
0,
0,
0,
0,
0,
0,
0,
0,
0,
0,
0,
0,
0,
0,
0,
0,
0,
0,
0,
0,
0,
0,
0,
0,
0,
0,
0,
0,
0,
0,
0,
0,
0,
0,
0,
0,
0,
0,
0,
0,
0,
0,
0,
0,
0,
0,
0,
0,
0,
0,
0,
0,
0,
0,
0,
0,
0,
0,
0,
0,
0,
0,
0,
0,
0,
0,
0,
0,
0,
0,
0,
0,
0,
0,
0,
0,
0,
0,
0,
0,
0,
0,
0,
0,
0,
0,
0,
0,
0,
0,
0,
0,
0,
0,
0,
0,
0,
0,
0,
0,
0,
0,
0,
0,
0,
0,
0,
0,
0,
0,
0,
0,
0,
0,
0,
0,
0,
0,
0,
0,
0,
0,
0,
0,
0,
0,
0,
0,
0,
0,
0,
0,
0,
0,
0,
0,
0,
0,
0,
0,
0,
0,
0,
0,
0,
0,
0,
0,
0,
0,
0,
0,
0,
0,
0,
0,
0,
0,
0,
0,
0,
0,
0,
0,
0,
0,
0,
0,
0,
0,
0,
0,
0,
0,
0,
0,
0,
0,
0,
0,
0,
0,
0,
0,
0,
0,
0,
0,
0,
0,
0,
0,
0,
0,
0,
0,
0,
0,
0,
0,
0,
0,
0,
0,
0,
0,
0,
0,
0,
0,
0,
0,
0,
0,
0,
0,
0,
0,
0,
0,
0,
0,
0,
0,
0,
0,
0,
0,
0,
0,
0,
0,
0,
0,
0,
0,
0,
0,
0,
0,
0,
0,
0,
0,
0,
0,
0,
0,
0,
0,
0,
0,
0,
0,
0,
0,
0,
0,
0,
0,
0,
0,
0,
0,
0,
0,
0,
0,
0,
0,
0,
0,
0,
0,
0,
0,
0,
0,
0,
0,
0,
0,
0,
0,
0,
0,
0,
0,
0,
0,
0,
0,
0,
0,
0,
0,
0,
0,
0,
0,
0,
0,
0,
0,
0,
0,
0,
0,
0,
0,
0,
0,
0,
0,
0,
0,
0,
0,
0,
0,
0,
0,
0,
0,
0,
0,
0,
0,
0,
0,
0,
0,
0,
0,
0,
0,
0,
0,
0,
0,
0,
0,
0,
0,
0,
0,
0,
0,
0,
0,
0,
0,
0,
0,
0,
0,
0,
0,
0,
0,
0,
0,
0,
0,
0,
0,
0,
0,
0,
0,
0,
0,
0,
0,
0,
0,
0,
0,
0,
0,
0,
0,
0,
0,
0,
0,
0,
0,
0,
0,
0,
0,
0,
0,
0,
0,
0,
0,
0,
0,
0,
0,
0,
0,
0,
0,
0,
0,
0,
0,
0,
0,
0,
0,
0,
0,
0,
0,
0,
0,
0,
0,
0,
0,
0,
0,
0,
0,
0,
0,
0,
0,
0,
0,
0,
0,
0,
0,
0,
0,
0,
0,
0,
0,
0,
0,
0,
0,
0,
0,
0,
0,
0,
0,
0,
0,
0,
0,
0,
0,
0,
0,
0,
0,
0,
0,
0,
0,
0,
0,
0,
0,
0,
0,
0,
0,
0,
0,
0,
0,
0,
0,
0,
0,
0,
0,
0,
0,
0,
0,
0,
0,
0,
0,
0,
0,
0,
0,
0,
0,
0,
0,
0,
0,
0,
0,
0,
0,
0,
0,
0,
0,
0,
0,
0,
0,
0,
0,
0,
0,
0,
0,
0,
0,
0,
0,
0,
0,
0,
0,
0,
0,
0,
0,
0,
0,
0,
0,
0,
0,
0,
0,
0,
0,
0,
0,
0,
0,
0,
0,
0,
0,
0,
0,
0,
0,
0,
0,
0,
0,
0,
0,
0,
0,
0,
0,
0,
0,
0,
0,
0,
0,
0,
0,
0,
0,
0,
0,
0,
0,
0,
0,
0,
0,
0,
0,
0,
0,
0,
0,
0,
0,
0,
0,
0,
0,
0,
0,
0,
0,
0,
0,
0,
0,
0,
0,
0,
0,
0,
0,
0,
0,
0,
0,
0,
0,
0,
0,
0,
0,
0,
0,
0,
0,
0,
0,
0,
0,
0,
0,
0,
0,
0,
0,
0,
#ENDOFDATA   :