File: N132962/Quantification/15 keV/Mengason MM2/MMM2 Stibnite[7][4].msa
#FORMAT      : EMSA/MAS Spectral Data File
#VERSION     : 1.0
#TITLE       : MMM2 Stibnite[7][all]
#DATE        : 28-SEP-2025
#TIME        : 23:40
#OWNER       : Unknown
#NPOINTS     : 4096
#NCOLUMNS    : 1
#XUNITS      : eV
#YUNITS      : counts
#DATATYPE    : Y
#XPERCHAN    : 9.99778
#OFFSET      : 1.69135
#BEAMKV      : 15
#SIGNALTYPE  : EDS
#ELEVANGLE   : 35
#AZIMANGLE   : 0
#LIVETIME    : 240.204
#REALTIME    : 260.393
#PROBECUR    : 1.21079
#TAUWIND     : 0
#TDEADLYR    : 0
#TACTLYR     : 0.045
#TALWIND     : 0.025
#CHOFFSET    : 0.0
#XLABEL      : Energy (eV)
#YLABEL      : Counts
#XPOSITION   : -14.45327
#YPOSITION   : 2.21107
#ZPOSITION   : 34.11879
#EDSDET      : SD
##SPECIMEN   : MMM2 Stibnite[7][all]
##DET_HASH   : 12273538-fd48-a23f-0a19-f1e6fa85caef
##CALIB_HASH : 6abaa72c-aa41-8738-0be9-f592914732f3
##WORKING    : 15.0 mm
##DET_NAME   : EDAX All
##DET_MODE   : MediumLE
#SPECTRUM    :
23,
33,
14,
240,
1501,
3088,
3294,
6819,
17894,
22446,
11839,
6364,
8935,
18115,
23536,
16818,
11359,
11851,
11912,
9812,
6941,
5658,
5768,
6751,
8072,
8140,
7161,
6479,
6347,
6033,
5878,
5768,
5982,
6009,
6280,
6424,
6743,
6641,
6822,
7014,
7254,
7414,
7427,
7474,
7847,
7709,
8028,
8067,
8124,
8557,
8346,
8340,
8249,
8268,
8356,
8430,
8742,
9163,
9655,
9586,
9395,
9281,
9148,
8648,
7891,
7801,
7476,
7933,
7963,
8285,
8474,
8911,
10552,
15232,
29702,
74254,
148615,
183135,
133906,
59922,
23395,
17453,
18993,
16881,
11279,
7428,
6056,
5711,
5547,
5598,
5614,
5469,
5553,
5464,
5396,
5320,
5377,
5188,
5334,
5440,
5354,
5338,
5226,
5491,
6362,
7666,
8663,
8614,
7191,
6021,
5445,
5275,
5390,
5973,
6858,
7559,
9707,
18486,
42265,
79556,
104619,
92408,
55730,
25281,
11801,
12199,
21687,
38130,
50558,
49722,
38060,
25935,
17188,
11771,
10010,
12428,
16193,
17365,
14314,
9569,
5938,
4682,
4829,
6006,
7735,
8659,
7699,
5741,
4349,
3728,
3889,
4418,
5296,
5569,
5365,
4576,
3784,
3420,
3132,
3015,
2902,
2968,
2935,
2870,
2922,
2924,
2923,
2977,
2798,
2832,
2766,
2836,
2791,
2818,
2621,
2688,
2789,
2783,
2709,
2707,
2761,
2850,
2773,
2762,
2658,
2685,
2616,
2571,
2584,
2600,
2592,
2603,
2574,
2614,
2581,
2705,
2640,
2623,
2688,
2697,
2500,
2496,
2475,
2395,
2420,
2490,
2483,
2480,
2436,
2357,
2369,
2364,
2398,
2386,
2353,
2345,
2300,
2212,
2240,
2204,
2113,
2134,
2157,
2090,
2159,
2131,
2103,
2071,
2060,
2049,
1971,
2004,
2031,
2154,
1979,
1975,
1997,
1886,
2060,
1977,
1934,
1932,
1894,
2021,
1876,
1845,
1933,
1870,
1837,
1895,
1898,
1824,
1851,
1830,
1799,
1804,
1816,
1649,
1758,
1639,
1723,
1670,
1678,
1646,
1669,
1558,
1650,
1622,
1518,
1520,
1573,
1572,
1551,
1498,
1489,
1488,
1447,
1478,
1498,
1515,
1413,
1394,
1462,
1359,
1405,
1427,
1358,
1381,
1380,
1381,
1379,
1391,
1350,
1327,
1271,
1331,
1273,
1273,
1237,
1243,
1286,
1184,
1251,
1199,
1171,
1156,
1219,
1143,
1193,
1203,
1174,
1121,
1087,
1200,
1084,
1041,
1118,
1097,
1101,
1137,
1140,
1121,
1046,
1016,
1016,
999,
1020,
1016,
947,
975,
953,
979,
938,
935,
965,
922,
948,
926,
879,
841,
818,
905,
858,
851,
878,
827,
822,
803,
778,
780,
809,
840,
792,
788,
785,
804,
695,
786,
721,
723,
728,
805,
739,
757,
727,
691,
669,
705,
680,
669,
684,
661,
660,
629,
643,
626,
641,
626,
612,
599,
583,
524,
575,
559,
505,
533,
549,
565,
485,
548,
515,
518,
481,
515,
471,
486,
460,
466,
461,
431,
416,
450,
422,
410,
390,
431,
402,
403,
432,
423,
385,
380,
371,
375,
353,
381,
366,
323,
388,
346,
312,
343,
334,
328,
348,
314,
324,
293,
285,
293,
301,
273,
275,
284,
267,
240,
260,
220,
239,
264,
210,
245,
207,
231,
214,
191,
206,
208,
219,
203,
212,
193,
202,
194,
171,
179,
158,
141,
146,
151,
131,
153,
146,
163,
142,
123,
134,
110,
121,
110,
107,
124,
109,
86,
95,
93,
90,
85,
69,
59,
82,
71,
74,
57,
44,
59,
65,
57,
39,
38,
42,
35,
21,
26,
15,
21,
18,
16,
5,
9,
4,
7,
10,
4,
0,
7,
2,
6,
2,
2,
3,
4,
2,
5,
2,
0,
5,
3,
2,
2,
1,
0,
1,
1,
3,
2,
2,
2,
0,
1,
3,
2,
2,
1,
4,
5,
2,
1,
4,
1,
4,
1,
3,
2,
1,
3,
0,
1,
1,
0,
2,
1,
0,
1,
2,
2,
0,
3,
1,
2,
1,
3,
0,
1,
1,
2,
0,
1,
5,
4,
3,
1,
1,
0,
2,
2,
3,
3,
3,
0,
2,
3,
2,
2,
2,
3,
2,
2,
1,
1,
1,
1,
4,
3,
2,
0,
2,
0,
0,
1,
1,
4,
0,
0,
1,
2,
0,
1,
2,
0,
3,
0,
1,
1,
0,
1,
0,
0,
0,
0,
1,
1,
0,
1,
1,
0,
1,
0,
0,
0,
0,
0,
0,
0,
1,
2,
0,
0,
0,
0,
1,
0,
0,
0,
0,
1,
0,
1,
0,
1,
0,
0,
0,
1,
0,
0,
0,
0,
0,
0,
0,
2,
0,
0,
0,
0,
0,
0,
0,
2,
0,
0,
0,
1,
0,
0,
0,
0,
0,
0,
0,
0,
1,
2,
0,
0,
0,
0,
0,
0,
0,
0,
0,
0,
0,
0,
0,
1,
0,
0,
0,
0,
0,
0,
1,
0,
0,
0,
1,
0,
0,
0,
0,
0,
0,
0,
0,
0,
0,
0,
0,
1,
0,
0,
0,
0,
0,
0,
0,
0,
0,
0,
0,
0,
0,
0,
0,
0,
0,
0,
0,
0,
0,
0,
0,
0,
0,
1,
0,
0,
1,
0,
0,
0,
0,
0,
0,
0,
0,
0,
0,
0,
0,
0,
0,
0,
0,
0,
0,
0,
0,
0,
0,
1,
0,
0,
0,
0,
0,
0,
0,
0,
0,
0,
0,
0,
0,
0,
0,
0,
0,
0,
0,
0,
0,
0,
0,
0,
0,
0,
0,
0,
0,
0,
0,
0,
0,
0,
0,
0,
0,
0,
0,
0,
0,
0,
0,
0,
0,
0,
0,
0,
0,
0,
0,
0,
0,
0,
0,
0,
0,
0,
0,
0,
0,
0,
0,
0,
0,
0,
0,
0,
0,
0,
0,
0,
0,
0,
0,
0,
0,
0,
0,
0,
0,
0,
0,
0,
0,
0,
0,
0,
0,
0,
0,
0,
0,
0,
0,
0,
0,
0,
0,
0,
0,
0,
0,
0,
0,
0,
0,
0,
0,
0,
0,
0,
0,
0,
0,
0,
0,
0,
0,
0,
0,
0,
0,
0,
0,
0,
0,
0,
0,
0,
0,
0,
0,
0,
0,
0,
0,
0,
0,
0,
0,
0,
0,
0,
0,
0,
0,
0,
0,
0,
0,
0,
0,
0,
0,
0,
0,
0,
0,
0,
0,
0,
0,
0,
0,
0,
0,
0,
0,
0,
0,
0,
0,
0,
0,
0,
0,
0,
0,
0,
0,
0,
0,
0,
0,
0,
0,
0,
0,
0,
0,
0,
0,
0,
0,
0,
0,
0,
0,
0,
0,
0,
0,
0,
0,
0,
0,
0,
0,
0,
0,
0,
0,
0,
0,
0,
0,
0,
0,
0,
0,
0,
0,
0,
0,
0,
0,
0,
0,
0,
0,
0,
0,
0,
0,
0,
0,
0,
0,
0,
0,
0,
0,
0,
0,
0,
0,
0,
0,
0,
0,
0,
0,
0,
0,
0,
0,
0,
0,
0,
0,
0,
0,
0,
0,
0,
0,
0,
0,
0,
0,
0,
0,
0,
0,
0,
0,
0,
0,
0,
0,
0,
0,
0,
0,
0,
0,
0,
0,
0,
0,
0,
0,
0,
0,
0,
0,
0,
0,
0,
0,
0,
0,
0,
0,
0,
0,
0,
0,
0,
0,
0,
0,
0,
0,
0,
0,
0,
0,
0,
0,
0,
0,
0,
0,
0,
0,
0,
0,
0,
0,
0,
0,
0,
0,
0,
0,
0,
0,
0,
0,
0,
0,
0,
0,
0,
0,
0,
0,
0,
0,
0,
0,
0,
0,
0,
0,
0,
0,
0,
0,
0,
0,
0,
0,
0,
0,
0,
0,
0,
0,
0,
0,
0,
0,
0,
0,
0,
0,
0,
0,
0,
0,
0,
0,
0,
0,
0,
0,
0,
0,
0,
0,
0,
0,
0,
0,
0,
0,
0,
0,
0,
0,
0,
0,
0,
0,
0,
0,
0,
0,
0,
0,
0,
0,
0,
0,
0,
0,
0,
0,
0,
0,
0,
0,
0,
0,
0,
0,
0,
0,
0,
0,
0,
0,
0,
0,
0,
0,
0,
0,
0,
0,
0,
0,
0,
0,
0,
0,
0,
0,
0,
0,
0,
0,
0,
0,
0,
0,
0,
0,
0,
0,
0,
0,
0,
0,
0,
0,
0,
0,
0,
0,
0,
0,
0,
0,
0,
0,
0,
0,
0,
0,
0,
0,
0,
0,
0,
0,
0,
0,
0,
0,
0,
0,
0,
0,
0,
0,
0,
0,
0,
0,
0,
0,
0,
0,
0,
0,
0,
0,
0,
0,
0,
0,
0,
0,
0,
0,
0,
0,
0,
0,
0,
0,
0,
0,
0,
0,
0,
0,
0,
0,
0,
0,
0,
0,
0,
0,
0,
0,
0,
0,
0,
0,
0,
0,
0,
0,
0,
0,
0,
0,
0,
0,
0,
0,
0,
0,
0,
0,
0,
0,
0,
0,
0,
0,
0,
0,
0,
0,
0,
0,
0,
0,
0,
0,
0,
0,
0,
0,
0,
0,
0,
0,
0,
0,
0,
0,
0,
0,
0,
#ENDOFDATA   :