File: N132962/Quantification/15 keV/Mengason MM2/MMM2 Scheelite[2][4].msa
#FORMAT      : EMSA/MAS Spectral Data File
#VERSION     : 1.0
#TITLE       : MMM2 Scheelite[2][all]
#DATE        : 29-SEP-2025
#TIME        : 00:26
#OWNER       : Unknown
#NPOINTS     : 4096
#NCOLUMNS    : 1
#XUNITS      : eV
#YUNITS      : counts
#DATATYPE    : Y
#XPERCHAN    : 9.99778
#OFFSET      : 1.69135
#BEAMKV      : 15
#SIGNALTYPE  : EDS
#ELEVANGLE   : 35
#AZIMANGLE   : 0
#LIVETIME    : 240.4
#REALTIME    : 260.777
#PROBECUR    : 1.21186
#TAUWIND     : 0
#TDEADLYR    : 0
#TACTLYR     : 0.045
#TALWIND     : 0.025
#CHOFFSET    : 0.0
#XLABEL      : Energy (eV)
#YLABEL      : Counts
#XPOSITION   : -17.54249
#YPOSITION   : 4.48534
#ZPOSITION   : 34.11879
#EDSDET      : SD
##SPECIMEN   : MMM2 Scheelite[2][all]
##DET_HASH   : 12273538-fd48-a23f-0a19-f1e6fa85caef
##CALIB_HASH : 6abaa72c-aa41-8738-0be9-f592914732f3
##WORKING    : 15.0 mm
##DET_NAME   : EDAX All
##DET_MODE   : MediumLE
#SPECTRUM    :
26,
31,
7,
63,
241,
1096,
3776,
9489,
20538,
26048,
16002,
8178,
6140,
5663,
6691,
14498,
42315,
77078,
57411,
18513,
6477,
5381,
5978,
6545,
6835,
6767,
7160,
7503,
7937,
7891,
7932,
8146,
8317,
8601,
8781,
9090,
9023,
9068,
9255,
9397,
9481,
9758,
9972,
10764,
13593,
20098,
24005,
20436,
14552,
11827,
10808,
10247,
10428,
10558,
11210,
13323,
21448,
54896,
136987,
215663,
212087,
151420,
84842,
34769,
12368,
7877,
8482,
10121,
10571,
8668,
6704,
5756,
5572,
5688,
5858,
5921,
6469,
6951,
6838,
6083,
5821,
5399,
5302,
5132,
5198,
5118,
5197,
5089,
5140,
5083,
5076,
5094,
5187,
5093,
5048,
4864,
4805,
5038,
4936,
4890,
4883,
4798,
4945,
4875,
4848,
4928,
4829,
4897,
4814,
4858,
4716,
4766,
4739,
4848,
4687,
4695,
4840,
5239,
5694,
7027,
12230,
24717,
41864,
52003,
44338,
26335,
12512,
6490,
4937,
4670,
4896,
5839,
7818,
9254,
10242,
8776,
6407,
4956,
4088,
4018,
3994,
4040,
3879,
3908,
3854,
3871,
3945,
3751,
3794,
3704,
3814,
3796,
3845,
3718,
3748,
3648,
3607,
3664,
3630,
3566,
3451,
3492,
3537,
3570,
3545,
3541,
3495,
3372,
3423,
3352,
3349,
3388,
3345,
3332,
3270,
3132,
3220,
3266,
3181,
3334,
3294,
3330,
3258,
3207,
3165,
3272,
3085,
2920,
2991,
2968,
3108,
3013,
2965,
2966,
2925,
3079,
2962,
2814,
2946,
2771,
2885,
2806,
2738,
2833,
2840,
2650,
2638,
2651,
2668,
2630,
2636,
2779,
2665,
2739,
2668,
2566,
2610,
2580,
2458,
2491,
2399,
2479,
2469,
2408,
2338,
2389,
2466,
2392,
2344,
2291,
2279,
2244,
2265,
2306,
2290,
2207,
2210,
2237,
2151,
2181,
2047,
2149,
2186,
2256,
2431,
2450,
2575,
2545,
2454,
2304,
2048,
2086,
2018,
1964,
1982,
1909,
1938,
1870,
1879,
1861,
1867,
1866,
1872,
1905,
1855,
1820,
1824,
1754,
1888,
1806,
1784,
1804,
1820,
1894,
2270,
3077,
4471,
6737,
8966,
10927,
11333,
9611,
7276,
4598,
3012,
2142,
1764,
1679,
1642,
1592,
1584,
1592,
1539,
1515,
1503,
1491,
1433,
1433,
1447,
1402,
1387,
1352,
1299,
1359,
1383,
1304,
1331,
1309,
1301,
1285,
1254,
1333,
1302,
1295,
1311,
1366,
1513,
1676,
2050,
2438,
3007,
3457,
3705,
3530,
2990,
2554,
2089,
1903,
1899,
2207,
2561,
2785,
2782,
2547,
2160,
1702,
1372,
1243,
1088,
1052,
1083,
1012,
954,
947,
957,
958,
847,
890,
882,
908,
910,
892,
884,
917,
850,
816,
852,
820,
823,
807,
807,
851,
730,
791,
769,
771,
768,
737,
746,
743,
737,
766,
878,
938,
1012,
1050,
1135,
1042,
879,
872,
709,
680,
713,
656,
670,
683,
695,
694,
722,
646,
721,
624,
626,
575,
559,
542,
575,
574,
525,
517,
526,
533,
552,
506,
510,
487,
468,
472,
483,
418,
398,
414,
369,
426,
403,
419,
410,
416,
389,
373,
348,
345,
382,
355,
377,
352,
342,
332,
349,
300,
316,
325,
310,
307,
327,
317,
298,
310,
279,
253,
263,
242,
242,
258,
268,
252,
250,
232,
214,
231,
225,
245,
216,
223,
166,
216,
185,
193,
191,
189,
201,
136,
165,
167,
168,
136,
145,
146,
114,
144,
142,
127,
113,
97,
97,
104,
91,
75,
76,
76,
109,
102,
83,
75,
67,
67,
62,
50,
48,
32,
42,
42,
26,
29,
17,
26,
24,
21,
9,
5,
7,
8,
6,
4,
2,
7,
1,
5,
3,
3,
2,
3,
1,
5,
2,
1,
7,
6,
5,
2,
5,
2,
4,
4,
2,
3,
3,
2,
7,
4,
2,
4,
2,
0,
2,
2,
4,
1,
1,
6,
5,
4,
0,
5,
4,
1,
0,
2,
0,
0,
2,
5,
0,
0,
0,
2,
1,
0,
2,
4,
0,
0,
4,
1,
2,
2,
1,
7,
1,
2,
2,
1,
4,
2,
1,
0,
0,
4,
1,
1,
2,
1,
3,
3,
1,
0,
1,
0,
0,
2,
3,
1,
3,
1,
2,
0,
0,
0,
2,
4,
1,
2,
0,
0,
2,
1,
0,
4,
1,
3,
1,
2,
3,
2,
1,
1,
0,
1,
0,
0,
0,
1,
2,
2,
2,
0,
1,
1,
1,
0,
0,
0,
3,
2,
2,
0,
1,
0,
0,
0,
0,
0,
2,
0,
2,
2,
1,
2,
0,
2,
1,
0,
1,
0,
3,
0,
0,
0,
1,
0,
1,
0,
1,
1,
2,
1,
0,
0,
0,
1,
0,
0,
1,
1,
0,
2,
1,
0,
2,
0,
0,
1,
1,
0,
0,
1,
0,
0,
1,
0,
0,
1,
0,
1,
0,
0,
0,
0,
0,
0,
1,
0,
0,
1,
1,
0,
0,
1,
0,
1,
0,
0,
0,
0,
0,
1,
1,
0,
1,
0,
0,
0,
0,
0,
0,
0,
2,
1,
0,
0,
1,
0,
0,
0,
0,
0,
1,
0,
0,
0,
0,
0,
0,
0,
0,
0,
0,
0,
0,
0,
0,
1,
0,
0,
0,
0,
0,
0,
0,
0,
0,
0,
0,
0,
0,
1,
0,
0,
0,
0,
0,
0,
0,
0,
0,
0,
0,
0,
0,
0,
0,
0,
0,
0,
0,
0,
0,
0,
0,
0,
0,
1,
0,
0,
0,
0,
0,
0,
0,
0,
0,
0,
0,
0,
0,
0,
1,
0,
0,
0,
0,
0,
0,
0,
0,
0,
0,
0,
0,
0,
0,
0,
0,
0,
0,
0,
1,
0,
0,
0,
0,
0,
0,
0,
0,
0,
0,
0,
0,
1,
0,
0,
0,
0,
0,
0,
0,
0,
0,
0,
0,
0,
0,
0,
0,
0,
0,
0,
0,
0,
0,
0,
0,
0,
0,
0,
0,
0,
0,
0,
0,
0,
0,
0,
0,
0,
0,
0,
0,
0,
0,
0,
0,
0,
0,
0,
0,
0,
0,
0,
0,
0,
0,
0,
0,
0,
0,
0,
0,
0,
0,
0,
0,
0,
0,
0,
0,
0,
0,
0,
0,
0,
0,
0,
0,
0,
0,
0,
0,
0,
0,
0,
0,
0,
0,
0,
0,
0,
0,
0,
0,
0,
0,
0,
0,
0,
0,
0,
0,
0,
0,
0,
0,
0,
0,
0,
0,
0,
0,
0,
0,
0,
0,
0,
0,
0,
0,
0,
0,
0,
0,
0,
0,
0,
0,
0,
0,
0,
0,
0,
0,
0,
0,
0,
0,
0,
0,
0,
0,
0,
0,
0,
0,
0,
0,
0,
0,
0,
0,
0,
0,
0,
0,
0,
0,
0,
0,
0,
0,
0,
0,
0,
0,
0,
0,
0,
0,
0,
0,
0,
0,
0,
0,
0,
0,
0,
0,
0,
0,
0,
0,
0,
0,
0,
0,
0,
0,
0,
0,
0,
0,
0,
0,
0,
0,
0,
0,
0,
0,
0,
0,
0,
0,
0,
0,
0,
0,
0,
0,
0,
0,
0,
0,
0,
0,
0,
0,
0,
0,
0,
0,
0,
0,
0,
0,
0,
0,
0,
0,
0,
0,
0,
0,
0,
0,
0,
0,
0,
0,
0,
0,
0,
0,
0,
0,
0,
0,
0,
0,
0,
0,
0,
0,
0,
0,
0,
0,
0,
0,
0,
0,
0,
0,
0,
0,
0,
0,
0,
0,
0,
0,
0,
0,
0,
0,
0,
0,
0,
0,
0,
0,
0,
0,
0,
0,
0,
0,
0,
0,
0,
0,
0,
0,
0,
0,
0,
0,
0,
0,
0,
0,
0,
0,
0,
0,
0,
0,
0,
0,
0,
0,
0,
0,
0,
0,
0,
0,
0,
0,
0,
0,
0,
0,
0,
0,
0,
0,
0,
0,
0,
0,
0,
0,
0,
0,
0,
0,
0,
0,
0,
0,
0,
0,
0,
0,
0,
0,
0,
0,
0,
0,
0,
0,
0,
0,
0,
0,
0,
0,
0,
0,
0,
0,
0,
0,
0,
0,
0,
0,
0,
0,
0,
0,
0,
0,
0,
0,
0,
0,
0,
0,
0,
0,
0,
0,
0,
0,
0,
0,
0,
0,
0,
0,
0,
0,
0,
0,
0,
0,
0,
0,
0,
0,
0,
0,
0,
0,
0,
0,
0,
0,
0,
0,
0,
0,
0,
0,
0,
0,
0,
0,
0,
0,
0,
0,
0,
0,
0,
0,
0,
0,
0,
0,
0,
0,
0,
0,
0,
0,
0,
0,
0,
0,
0,
0,
0,
0,
0,
0,
0,
0,
0,
0,
0,
0,
0,
0,
0,
0,
0,
0,
0,
0,
0,
0,
0,
0,
0,
0,
0,
0,
0,
0,
0,
0,
0,
0,
0,
0,
0,
0,
0,
0,
0,
0,
0,
0,
0,
0,
0,
0,
0,
0,
0,
0,
0,
0,
0,
0,
0,
0,
0,
0,
0,
0,
0,
0,
0,
0,
0,
0,
0,
0,
0,
0,
0,
0,
0,
0,
0,
0,
0,
0,
0,
0,
0,
#ENDOFDATA   :