File: N132962/Quantification/15 keV/Mengason MM2/MMM2 SrTiO3[6][4].msa
#FORMAT      : EMSA/MAS Spectral Data File
#VERSION     : 1.0
#TITLE       : MMM2 SrTiO3[6][all]
#DATE        : 29-SEP-2025
#TIME        : 00:20
#OWNER       : Unknown
#NPOINTS     : 4096
#NCOLUMNS    : 1
#XUNITS      : eV
#YUNITS      : counts
#DATATYPE    : Y
#XPERCHAN    : 9.99778
#OFFSET      : 1.69135
#BEAMKV      : 15
#SIGNALTYPE  : EDS
#ELEVANGLE   : 35
#AZIMANGLE   : 0
#LIVETIME    : 240.231
#REALTIME    : 256.624
#PROBECUR    : 1.21151
#TAUWIND     : 0
#TDEADLYR    : 0
#TACTLYR     : 0.045
#TALWIND     : 0.025
#CHOFFSET    : 0.0
#XLABEL      : Energy (eV)
#YLABEL      : Counts
#XPOSITION   : -15.17207
#YPOSITION   : 4.62676
#ZPOSITION   : 34.11879
#EDSDET      : SD
##SPECIMEN   : MMM2 SrTiO3[6][all]
##D2STDCMP   : SrTiO3,(O:26.1592),(Ti:26.0877),(Sr:47.7532)
##DET_HASH   : 12273538-fd48-a23f-0a19-f1e6fa85caef
##CALIB_HASH : 6abaa72c-aa41-8738-0be9-f592914732f3
##WORKING    : 15.0 mm
##DET_NAME   : EDAX All
##DET_MODE   : MediumLE
#SPECTRUM    :
19,
31,
8,
88,
343,
823,
2053,
5786,
14743,
18251,
9593,
5870,
8958,
11985,
13613,
18456,
38705,
65933,
48662,
14744,
4399,
3612,
3763,
4223,
4550,
4500,
4683,
5187,
5326,
5858,
5578,
5739,
6071,
6177,
6405,
6410,
6661,
6680,
6765,
6926,
7105,
7169,
7299,
7521,
7484,
7507,
7609,
7784,
7834,
7981,
8569,
10719,
14229,
15721,
14566,
12502,
11530,
16908,
47623,
125948,
199536,
189239,
131110,
79565,
41053,
19866,
10768,
6552,
4860,
4266,
4168,
4392,
4566,
4783,
4681,
4323,
4142,
4222,
4150,
4089,
3967,
3859,
3895,
3897,
3948,
3907,
3873,
3869,
3880,
3835,
3954,
4140,
4366,
4205,
3996,
3801,
3667,
3623,
3714,
3652,
3670,
3622,
3736,
3481,
3543,
3625,
3576,
3572,
3553,
3421,
3496,
3511,
3500,
3447,
3454,
3427,
3399,
3368,
3290,
3343,
3466,
3572,
3555,
3340,
3327,
3350,
3170,
3033,
3188,
3066,
3146,
2908,
3057,
2921,
2944,
2917,
2839,
2863,
2878,
2834,
2780,
2787,
2890,
2914,
3227,
3540,
5408,
11701,
26382,
48302,
63516,
58710,
39542,
19272,
7912,
3787,
2782,
2596,
2700,
2644,
2973,
3911,
5698,
8251,
10008,
9631,
7596,
4884,
3191,
2471,
2199,
2040,
2091,
2101,
1992,
2012,
2102,
1873,
1993,
2077,
2023,
2013,
1885,
1940,
1987,
1876,
1866,
1977,
1877,
1821,
1817,
1832,
1870,
1787,
1807,
1791,
1759,
1757,
1664,
1757,
1658,
1630,
1660,
1717,
1721,
1643,
1669,
1693,
1586,
1617,
1741,
1732,
1681,
1794,
1677,
1663,
1550,
1531,
1434,
1528,
1525,
1461,
1407,
1473,
1386,
1390,
1459,
1356,
1410,
1417,
1398,
1384,
1367,
1397,
1330,
1404,
1332,
1302,
1329,
1320,
1295,
1240,
1221,
1268,
1262,
1230,
1171,
1298,
1236,
1167,
1212,
1143,
1125,
1122,
1161,
1103,
1117,
1175,
1122,
1063,
1020,
1097,
1018,
1038,
1089,
1011,
1052,
1013,
995,
1064,
991,
992,
979,
1014,
951,
935,
987,
913,
941,
901,
900,
887,
923,
884,
913,
902,
909,
866,
844,
927,
849,
927,
851,
840,
793,
803,
826,
748,
856,
794,
790,
742,
788,
752,
780,
761,
719,
769,
775,
692,
752,
688,
719,
665,
741,
681,
729,
669,
670,
734,
640,
691,
663,
613,
599,
656,
626,
595,
577,
611,
631,
561,
643,
601,
611,
609,
566,
609,
505,
518,
548,
538,
517,
534,
555,
494,
527,
483,
543,
460,
500,
503,
491,
450,
477,
458,
451,
467,
424,
455,
426,
467,
416,
437,
395,
432,
397,
393,
400,
383,
382,
379,
381,
401,
379,
387,
343,
353,
359,
330,
331,
356,
342,
367,
326,
294,
345,
331,
283,
296,
301,
322,
341,
286,
256,
293,
301,
275,
289,
268,
305,
273,
249,
236,
272,
243,
207,
223,
218,
247,
215,
243,
246,
220,
225,
219,
219,
170,
186,
187,
178,
191,
182,
201,
184,
157,
173,
162,
156,
159,
160,
150,
159,
167,
161,
142,
135,
161,
118,
137,
127,
128,
133,
134,
132,
119,
137,
124,
103,
115,
103,
115,
116,
117,
92,
97,
105,
83,
87,
79,
90,
75,
81,
78,
65,
75,
73,
56,
69,
63,
58,
49,
42,
53,
57,
58,
35,
45,
34,
42,
48,
36,
32,
25,
42,
28,
30,
27,
17,
21,
17,
18,
14,
12,
10,
9,
5,
8,
10,
4,
3,
4,
2,
2,
3,
0,
0,
3,
1,
2,
2,
3,
1,
1,
0,
0,
0,
0,
1,
1,
3,
3,
0,
2,
1,
2,
0,
2,
1,
0,
1,
1,
1,
2,
3,
0,
0,
2,
0,
1,
0,
0,
0,
1,
1,
1,
0,
0,
1,
0,
2,
0,
1,
0,
1,
1,
0,
0,
0,
1,
1,
2,
1,
1,
0,
0,
3,
2,
1,
1,
1,
0,
2,
0,
0,
1,
3,
0,
2,
1,
2,
1,
1,
1,
0,
2,
1,
0,
1,
0,
0,
0,
1,
0,
1,
0,
0,
0,
1,
2,
1,
1,
2,
1,
0,
1,
0,
0,
3,
0,
0,
0,
0,
0,
0,
0,
0,
0,
1,
0,
0,
0,
1,
0,
0,
1,
1,
0,
1,
0,
0,
0,
0,
0,
0,
0,
1,
0,
0,
0,
0,
0,
0,
0,
0,
0,
0,
1,
1,
0,
0,
0,
1,
0,
0,
0,
0,
0,
0,
0,
0,
0,
0,
1,
0,
0,
0,
0,
0,
0,
0,
0,
0,
0,
0,
0,
0,
1,
0,
0,
0,
0,
0,
0,
0,
1,
0,
0,
0,
0,
0,
0,
1,
0,
0,
0,
0,
0,
0,
0,
0,
0,
0,
0,
0,
0,
0,
0,
0,
0,
0,
0,
0,
0,
0,
0,
0,
0,
0,
0,
0,
0,
0,
0,
0,
0,
0,
0,
0,
0,
0,
0,
0,
0,
0,
0,
0,
0,
0,
0,
0,
0,
0,
0,
0,
0,
0,
0,
0,
0,
0,
0,
0,
0,
0,
0,
0,
1,
0,
0,
0,
0,
0,
0,
0,
0,
0,
0,
0,
0,
0,
0,
0,
0,
0,
0,
0,
0,
0,
1,
0,
0,
0,
0,
0,
0,
0,
0,
0,
0,
0,
0,
0,
0,
0,
0,
0,
0,
0,
0,
0,
0,
0,
0,
0,
0,
0,
0,
0,
0,
0,
0,
0,
0,
0,
0,
0,
0,
0,
0,
0,
0,
0,
0,
0,
0,
0,
0,
0,
0,
0,
0,
0,
0,
0,
0,
0,
0,
0,
0,
0,
0,
0,
0,
0,
0,
0,
0,
0,
0,
0,
0,
0,
0,
0,
0,
0,
0,
0,
0,
0,
0,
0,
0,
0,
0,
0,
0,
0,
0,
0,
0,
0,
0,
0,
0,
0,
0,
0,
1,
0,
0,
0,
0,
0,
0,
0,
0,
0,
0,
0,
0,
0,
0,
0,
0,
0,
0,
0,
0,
0,
0,
0,
0,
0,
0,
0,
0,
0,
0,
0,
0,
0,
0,
0,
0,
0,
0,
0,
0,
0,
0,
0,
0,
0,
0,
0,
0,
0,
0,
0,
0,
0,
0,
0,
0,
0,
0,
0,
0,
0,
0,
0,
0,
0,
0,
0,
0,
0,
0,
0,
0,
0,
0,
0,
0,
0,
0,
0,
0,
0,
0,
0,
0,
0,
0,
0,
0,
0,
0,
0,
0,
0,
0,
0,
0,
0,
0,
0,
0,
0,
0,
0,
0,
0,
0,
0,
0,
0,
0,
0,
0,
0,
0,
0,
0,
0,
0,
0,
0,
0,
0,
0,
0,
0,
0,
0,
0,
0,
0,
0,
0,
0,
0,
0,
0,
0,
0,
0,
0,
0,
0,
0,
0,
0,
0,
0,
0,
0,
0,
0,
0,
0,
0,
0,
0,
0,
0,
0,
0,
0,
0,
0,
0,
0,
0,
0,
0,
0,
0,
0,
0,
0,
0,
0,
0,
0,
0,
0,
0,
0,
0,
0,
0,
0,
0,
0,
0,
0,
0,
0,
0,
0,
0,
0,
0,
0,
0,
0,
0,
0,
0,
0,
0,
0,
0,
0,
0,
0,
0,
0,
0,
0,
0,
0,
0,
0,
0,
0,
0,
0,
0,
0,
0,
0,
0,
0,
0,
0,
0,
0,
0,
0,
0,
0,
0,
0,
0,
0,
0,
0,
0,
0,
0,
0,
0,
0,
0,
0,
0,
0,
0,
0,
0,
0,
0,
0,
0,
0,
0,
0,
0,
0,
0,
0,
0,
0,
0,
0,
0,
0,
0,
0,
0,
0,
0,
0,
0,
0,
0,
0,
0,
0,
0,
0,
0,
0,
0,
0,
0,
0,
0,
0,
0,
0,
0,
0,
0,
0,
0,
0,
0,
0,
0,
0,
0,
0,
0,
0,
0,
0,
0,
0,
0,
0,
0,
0,
0,
0,
0,
0,
0,
0,
0,
0,
0,
0,
0,
0,
0,
0,
0,
0,
0,
0,
0,
0,
0,
0,
0,
0,
0,
0,
0,
0,
0,
0,
0,
0,
0,
0,
0,
0,
0,
0,
0,
0,
0,
0,
0,
0,
0,
0,
0,
0,
0,
0,
0,
0,
0,
0,
0,
0,
0,
0,
0,
0,
0,
0,
0,
0,
0,
0,
0,
0,
0,
0,
0,
0,
0,
0,
0,
0,
0,
0,
0,
0,
0,
0,
0,
0,
0,
0,
0,
0,
0,
0,
0,
0,
0,
0,
0,
0,
0,
0,
0,
0,
0,
0,
0,
0,
0,
0,
0,
0,
0,
0,
0,
0,
0,
0,
0,
0,
0,
0,
0,
0,
0,
0,
0,
0,
0,
0,
0,
0,
0,
0,
0,
0,
0,
0,
0,
0,
0,
0,
0,
0,
0,
0,
0,
0,
0,
0,
0,
0,
0,
0,
0,
0,
0,
0,
0,
0,
0,
0,
0,
0,
0,
0,
0,
0,
0,
0,
0,
0,
0,
#ENDOFDATA   :