File: N132962/Quantification/15 keV/Mengason MM2/MMM2 Uvarovite[6][4].msa
#FORMAT      : EMSA/MAS Spectral Data File
#VERSION     : 1.0
#TITLE       : MMM2 Uvarovite[6][all]
#DATE        : 28-SEP-2025
#TIME        : 22:15
#OWNER       : Unknown
#NPOINTS     : 4096
#NCOLUMNS    : 1
#XUNITS      : eV
#YUNITS      : counts
#DATATYPE    : Y
#XPERCHAN    : 9.99778
#OFFSET      : 1.69135
#BEAMKV      : 15
#SIGNALTYPE  : EDS
#ELEVANGLE   : 35
#AZIMANGLE   : 0
#LIVETIME    : 240.15
#REALTIME    : 254.311
#PROBECUR    : 1.21223
#TAUWIND     : 0
#TDEADLYR    : 0
#TACTLYR     : 0.045
#TALWIND     : 0.025
#CHOFFSET    : 0.0
#XLABEL      : Energy (eV)
#YLABEL      : Counts
#XPOSITION   : -9.33722
#YPOSITION   : -0.10485
#ZPOSITION   : 34.11879
#EDSDET      : SD
##SPECIMEN   : MMM2 Uvarovite[6][all]
##DET_HASH   : 12273538-fd48-a23f-0a19-f1e6fa85caef
##CALIB_HASH : 6abaa72c-aa41-8738-0be9-f592914732f3
##WORKING    : 15.0 mm
##DET_NAME   : EDAX All
##DET_MODE   : MediumLE
#SPECTRUM    :
25,
30,
5,
22,
102,
410,
1388,
4636,
13883,
20642,
13902,
7520,
4917,
4309,
6675,
20565,
71275,
133101,
97868,
29485,
6949,
3177,
3143,
3597,
3726,
3086,
3069,
3294,
3493,
3598,
3700,
3750,
3842,
4151,
4388,
4542,
4427,
4438,
4583,
4831,
4853,
4900,
5125,
5168,
5187,
5295,
5733,
7894,
16693,
29372,
29676,
17666,
8851,
6099,
6517,
12489,
42258,
104093,
141043,
99421,
41287,
15490,
8224,
5405,
4501,
4432,
4097,
3726,
3536,
3324,
3392,
3301,
3354,
3389,
3527,
3502,
3640,
3390,
3262,
3149,
3097,
3095,
3176,
2954,
3030,
2891,
2927,
2942,
2947,
2887,
2901,
2844,
2860,
2811,
2779,
2741,
2725,
2597,
2734,
2595,
2646,
2641,
2634,
2567,
2560,
2512,
2483,
2540,
2532,
2423,
2299,
2430,
2283,
2233,
2306,
2476,
2698,
2977,
3453,
5849,
14573,
35756,
66027,
82650,
69622,
39372,
15710,
5546,
2879,
2557,
2934,
4320,
7306,
10734,
11671,
9179,
5744,
3214,
2192,
1843,
1728,
1764,
1740,
1654,
1598,
1605,
1622,
1882,
2272,
2893,
3356,
3230,
2707,
2010,
1661,
1527,
1399,
1467,
1394,
1397,
1419,
1405,
1482,
1697,
1869,
1936,
1830,
1593,
1452,
1351,
1385,
1315,
1333,
1362,
1348,
1561,
2304,
4745,
9145,
15227,
19692,
18983,
13842,
7574,
3647,
1834,
1208,
1154,
1107,
1094,
1139,
1156,
1107,
1201,
1399,
1762,
2383,
2936,
3459,
3218,
2382,
1669,
1201,
999,
1008,
929,
915,
913,
974,
1032,
1088,
1390,
1581,
1736,
1724,
1479,
1207,
1009,
903,
827,
789,
871,
807,
860,
797,
743,
850,
774,
739,
756,
792,
810,
766,
802,
859,
861,
816,
792,
751,
772,
732,
723,
678,
670,
605,
723,
689,
758,
697,
681,
652,
642,
662,
609,
611,
616,
628,
605,
647,
637,
551,
555,
581,
574,
572,
583,
559,
543,
553,
567,
557,
525,
512,
582,
534,
535,
545,
519,
493,
520,
483,
498,
494,
531,
450,
467,
449,
506,
447,
464,
483,
463,
464,
445,
437,
457,
460,
408,
411,
433,
430,
451,
429,
414,
399,
397,
372,
393,
394,
408,
368,
369,
383,
382,
394,
385,
357,
320,
339,
367,
389,
348,
325,
324,
342,
315,
362,
327,
323,
322,
339,
302,
271,
277,
315,
298,
287,
231,
269,
266,
291,
262,
274,
273,
267,
260,
266,
261,
237,
252,
235,
231,
230,
274,
192,
226,
216,
278,
233,
225,
225,
198,
224,
209,
210,
223,
208,
205,
184,
203,
198,
204,
190,
184,
189,
190,
181,
158,
190,
194,
177,
164,
178,
149,
158,
147,
150,
177,
148,
135,
145,
146,
151,
135,
138,
139,
149,
154,
117,
118,
136,
120,
149,
111,
120,
101,
132,
104,
113,
132,
110,
128,
113,
107,
109,
110,
101,
84,
92,
78,
86,
109,
85,
84,
104,
89,
73,
73,
73,
74,
75,
67,
62,
79,
67,
52,
89,
84,
78,
71,
56,
62,
51,
60,
49,
58,
53,
48,
50,
48,
52,
46,
40,
47,
43,
36,
33,
56,
38,
39,
31,
42,
34,
20,
40,
36,
36,
27,
26,
27,
20,
21,
22,
30,
27,
26,
22,
20,
21,
12,
18,
13,
14,
21,
17,
17,
16,
12,
9,
11,
19,
6,
4,
4,
5,
7,
6,
4,
1,
2,
1,
2,
0,
1,
0,
1,
1,
0,
1,
1,
0,
2,
0,
0,
1,
0,
0,
1,
0,
0,
1,
0,
2,
0,
0,
0,
0,
1,
1,
0,
1,
1,
1,
0,
1,
0,
0,
0,
0,
0,
0,
0,
0,
0,
1,
0,
0,
0,
0,
1,
0,
2,
1,
0,
0,
0,
0,
1,
0,
0,
0,
0,
2,
0,
0,
0,
1,
1,
0,
0,
0,
0,
0,
0,
0,
0,
0,
0,
0,
0,
0,
0,
1,
0,
0,
1,
0,
0,
0,
0,
1,
0,
0,
0,
0,
0,
0,
0,
0,
0,
0,
0,
1,
0,
0,
0,
0,
0,
0,
0,
0,
1,
0,
0,
0,
0,
0,
0,
0,
0,
1,
0,
0,
0,
0,
1,
0,
0,
1,
0,
0,
0,
0,
0,
0,
0,
0,
0,
0,
0,
0,
0,
0,
0,
0,
0,
0,
0,
0,
0,
0,
0,
0,
0,
0,
0,
0,
0,
0,
0,
0,
0,
0,
0,
0,
0,
0,
0,
0,
0,
0,
0,
0,
0,
0,
0,
0,
0,
0,
0,
0,
0,
0,
0,
0,
0,
0,
0,
0,
0,
0,
0,
0,
0,
0,
0,
0,
0,
0,
0,
0,
0,
0,
0,
0,
0,
0,
0,
0,
0,
0,
0,
0,
0,
0,
0,
0,
0,
0,
0,
0,
0,
0,
0,
0,
0,
0,
0,
0,
0,
0,
0,
0,
0,
0,
0,
0,
0,
0,
0,
0,
0,
0,
0,
0,
0,
0,
0,
0,
0,
0,
0,
0,
0,
0,
0,
0,
0,
0,
0,
0,
0,
0,
0,
0,
0,
0,
0,
0,
0,
0,
0,
0,
0,
0,
0,
0,
0,
0,
0,
0,
0,
0,
0,
0,
0,
0,
0,
0,
0,
0,
0,
0,
0,
0,
0,
0,
0,
0,
0,
0,
0,
0,
0,
0,
0,
0,
0,
0,
0,
0,
0,
0,
0,
0,
0,
0,
0,
0,
0,
0,
0,
0,
0,
0,
0,
0,
0,
0,
0,
0,
0,
0,
0,
0,
0,
0,
0,
0,
0,
0,
0,
0,
0,
0,
0,
0,
0,
0,
0,
0,
0,
0,
0,
0,
0,
0,
0,
0,
0,
0,
0,
0,
0,
0,
0,
0,
0,
0,
0,
0,
0,
0,
0,
0,
0,
0,
0,
0,
0,
0,
0,
0,
0,
0,
0,
0,
0,
0,
0,
0,
0,
0,
0,
0,
0,
0,
0,
0,
0,
0,
0,
0,
0,
0,
0,
0,
0,
0,
0,
0,
0,
0,
0,
0,
0,
0,
0,
0,
0,
0,
0,
0,
0,
0,
0,
0,
0,
0,
0,
0,
0,
0,
0,
0,
0,
0,
0,
0,
0,
0,
0,
0,
0,
0,
0,
0,
0,
0,
0,
0,
0,
0,
0,
0,
0,
0,
0,
0,
0,
0,
0,
0,
0,
0,
0,
0,
0,
0,
0,
0,
0,
0,
0,
0,
0,
0,
0,
0,
0,
0,
0,
0,
0,
0,
0,
0,
0,
0,
0,
0,
0,
0,
0,
0,
0,
0,
0,
0,
0,
0,
0,
0,
0,
0,
0,
0,
0,
0,
0,
0,
0,
0,
0,
0,
0,
0,
0,
0,
0,
0,
0,
0,
0,
0,
0,
0,
0,
0,
0,
0,
0,
0,
0,
0,
0,
0,
0,
0,
0,
0,
0,
0,
0,
0,
0,
0,
0,
0,
0,
0,
0,
0,
0,
0,
0,
0,
0,
0,
0,
0,
0,
0,
0,
0,
0,
0,
0,
0,
0,
0,
0,
0,
0,
0,
0,
0,
0,
0,
0,
0,
0,
0,
0,
0,
0,
0,
0,
0,
0,
0,
0,
0,
0,
0,
0,
0,
0,
0,
0,
0,
0,
0,
0,
0,
0,
0,
0,
0,
0,
0,
0,
0,
0,
0,
0,
0,
0,
0,
0,
0,
0,
0,
0,
0,
0,
0,
0,
0,
0,
0,
0,
0,
0,
0,
0,
0,
0,
0,
0,
0,
0,
0,
0,
0,
0,
0,
0,
0,
0,
0,
0,
0,
0,
0,
0,
0,
0,
0,
0,
0,
0,
0,
0,
0,
0,
0,
0,
0,
0,
0,
0,
0,
0,
0,
0,
0,
0,
0,
0,
0,
0,
0,
0,
0,
0,
0,
0,
0,
0,
0,
0,
0,
0,
0,
0,
0,
0,
0,
0,
0,
0,
0,
0,
0,
0,
0,
0,
0,
0,
0,
0,
0,
0,
0,
0,
0,
0,
0,
0,
0,
0,
0,
0,
0,
0,
0,
0,
0,
0,
0,
0,
0,
0,
0,
0,
0,
0,
0,
0,
0,
0,
0,
0,
0,
0,
0,
0,
0,
0,
0,
0,
0,
0,
0,
0,
0,
0,
0,
0,
0,
0,
0,
0,
0,
0,
0,
0,
0,
0,
0,
0,
0,
0,
0,
0,
0,
0,
0,
0,
0,
0,
0,
0,
0,
0,
0,
0,
0,
0,
0,
0,
0,
0,
0,
0,
0,
0,
0,
0,
0,
0,
0,
0,
0,
0,
0,
0,
0,
0,
0,
0,
0,
0,
0,
0,
0,
0,
0,
0,
0,
0,
0,
0,
0,
0,
0,
0,
0,
0,
0,
0,
0,
0,
0,
0,
0,
0,
0,
0,
0,
0,
0,
0,
0,
0,
0,
0,
0,
0,
0,
0,
0,
0,
0,
0,
0,
0,
0,
0,
0,
0,
0,
0,
0,
0,
#ENDOFDATA   :