File: N132962/Quantification/15 keV/Mengason MM2/MMM2 Wollastonite[6][4].msa
#FORMAT      : EMSA/MAS Spectral Data File
#VERSION     : 1.0
#TITLE       : MMM2 Wollastonite[6][all]
#DATE        : 29-SEP-2025
#TIME        : 00:10
#OWNER       : Unknown
#NPOINTS     : 4096
#NCOLUMNS    : 1
#XUNITS      : eV
#YUNITS      : counts
#DATATYPE    : Y
#XPERCHAN    : 9.99778
#OFFSET      : 1.69135
#BEAMKV      : 15
#SIGNALTYPE  : EDS
#ELEVANGLE   : 35
#AZIMANGLE   : 0
#LIVETIME    : 240.2719
#REALTIME    : 254.9514
#PROBECUR    : 1.21151
#TAUWIND     : 0
#TDEADLYR    : 0
#TACTLYR     : 0.045
#TALWIND     : 0.025
#CHOFFSET    : 0.0
#XLABEL      : Energy (eV)
#YLABEL      : Counts
#XPOSITION   : -12.61346
#YPOSITION   : 4.55338
#ZPOSITION   : 34.11879
#EDSDET      : SD
##SPECIMEN   : MMM2 Wollastonite[6][all]
##DET_HASH   : 12273538-fd48-a23f-0a19-f1e6fa85caef
##CALIB_HASH : 6abaa72c-aa41-8738-0be9-f592914732f3
##WORKING    : 15.0 mm
##DET_NAME   : EDAX All
##DET_MODE   : MediumLE
#SPECTRUM    :
32,
24,
10,
22,
94,
398,
1308,
4570,
13961,
20957,
15169,
8069,
4526,
3517,
4980,
15427,
56381,
107231,
78702,
21322,
3942,
2359,
2682,
2873,
3062,
3065,
3163,
3384,
3629,
3722,
3716,
4085,
4101,
4166,
4415,
4449,
4514,
4667,
4817,
4928,
4913,
4915,
5061,
5124,
5196,
5223,
5173,
5421,
5473,
5689,
5734,
5849,
6044,
6209,
7408,
16737,
61315,
154608,
210001,
148678,
60489,
21052,
10286,
6015,
4917,
4536,
4201,
3546,
3236,
3273,
3111,
3178,
3144,
3191,
3422,
3505,
3449,
3275,
3087,
2977,
2888,
2871,
2908,
2919,
2849,
2909,
2812,
2918,
2663,
2734,
2697,
2685,
2661,
2680,
2576,
2524,
2505,
2513,
2493,
2460,
2491,
2481,
2459,
2457,
2373,
2424,
2408,
2419,
2340,
2337,
2319,
2317,
2261,
2229,
2416,
2593,
2780,
3194,
4056,
7188,
18878,
48047,
89611,
112831,
94825,
53520,
20981,
6606,
2968,
2572,
3167,
5137,
9219,
13774,
15008,
12020,
7189,
3635,
2039,
1705,
1674,
1601,
1615,
1516,
1439,
1481,
1433,
1393,
1424,
1352,
1390,
1444,
1353,
1352,
1364,
1339,
1333,
1286,
1293,
1241,
1373,
1256,
1241,
1251,
1254,
1265,
1177,
1233,
1203,
1166,
1134,
1148,
1174,
1106,
1178,
1193,
1177,
1126,
1208,
1216,
1345,
1336,
1375,
1195,
1171,
1074,
1071,
1034,
1014,
1013,
1021,
1004,
1083,
1025,
1046,
1040,
1022,
1007,
1000,
936,
911,
934,
904,
866,
837,
909,
872,
882,
870,
890,
913,
921,
918,
876,
911,
882,
854,
821,
808,
794,
767,
838,
802,
815,
760,
794,
798,
778,
795,
756,
743,
729,
733,
734,
723,
665,
741,
663,
687,
691,
643,
657,
666,
673,
732,
715,
671,
707,
711,
653,
627,
643,
615,
602,
615,
568,
604,
609,
561,
575,
559,
591,
540,
540,
524,
539,
572,
498,
522,
595,
499,
470,
530,
485,
462,
497,
495,
504,
464,
498,
454,
455,
459,
447,
425,
487,
435,
440,
453,
423,
434,
433,
432,
424,
395,
427,
394,
442,
400,
404,
384,
375,
395,
384,
374,
383,
367,
371,
369,
371,
373,
361,
325,
372,
342,
329,
332,
372,
308,
344,
326,
350,
334,
303,
316,
320,
274,
291,
264,
297,
278,
274,
264,
288,
299,
302,
276,
262,
283,
272,
241,
254,
260,
274,
277,
284,
244,
225,
255,
251,
241,
224,
229,
242,
228,
218,
236,
233,
241,
224,
233,
218,
225,
206,
205,
186,
193,
181,
201,
192,
183,
196,
182,
172,
164,
178,
177,
168,
159,
164,
154,
148,
173,
144,
161,
135,
135,
159,
140,
137,
134,
135,
108,
140,
143,
140,
135,
119,
112,
123,
113,
118,
129,
114,
130,
105,
112,
96,
108,
98,
112,
108,
101,
113,
93,
86,
90,
83,
91,
91,
62,
79,
91,
92,
75,
90,
87,
73,
72,
66,
67,
70,
74,
70,
72,
74,
62,
54,
66,
56,
66,
76,
42,
48,
53,
49,
46,
54,
56,
42,
54,
38,
41,
31,
37,
41,
52,
42,
39,
39,
49,
37,
46,
32,
27,
31,
35,
29,
33,
28,
25,
20,
26,
23,
16,
17,
28,
18,
15,
17,
13,
16,
17,
13,
11,
13,
14,
9,
7,
9,
11,
5,
7,
5,
4,
2,
6,
4,
4,
2,
1,
0,
1,
0,
2,
3,
1,
0,
1,
0,
1,
1,
0,
0,
0,
0,
0,
0,
0,
0,
1,
0,
2,
1,
0,
0,
0,
0,
0,
0,
0,
0,
1,
0,
0,
0,
1,
0,
0,
1,
0,
0,
1,
1,
0,
0,
0,
0,
0,
0,
0,
0,
2,
0,
0,
0,
0,
0,
0,
0,
0,
0,
1,
0,
0,
0,
0,
1,
0,
1,
0,
0,
0,
1,
1,
0,
1,
0,
1,
1,
0,
1,
1,
0,
0,
0,
1,
0,
0,
0,
0,
0,
0,
0,
0,
0,
0,
0,
1,
1,
0,
0,
0,
0,
0,
0,
0,
0,
0,
0,
0,
0,
1,
0,
0,
0,
0,
0,
0,
0,
0,
0,
0,
0,
0,
0,
0,
0,
0,
0,
0,
0,
0,
0,
0,
0,
0,
1,
0,
0,
0,
0,
0,
0,
0,
1,
0,
0,
0,
0,
0,
0,
0,
0,
0,
0,
0,
0,
0,
0,
0,
0,
0,
0,
0,
0,
0,
0,
0,
0,
0,
0,
0,
0,
0,
0,
0,
0,
0,
0,
0,
0,
0,
0,
0,
0,
0,
0,
0,
0,
0,
0,
0,
0,
0,
0,
0,
0,
0,
0,
0,
0,
1,
0,
0,
0,
0,
0,
0,
0,
0,
0,
0,
0,
0,
0,
0,
0,
0,
0,
0,
0,
0,
0,
0,
0,
0,
0,
0,
0,
0,
0,
0,
0,
0,
0,
0,
0,
0,
0,
0,
0,
0,
0,
0,
0,
0,
0,
0,
0,
0,
0,
0,
0,
0,
0,
0,
0,
0,
0,
0,
0,
0,
0,
0,
0,
0,
0,
0,
0,
0,
0,
0,
0,
0,
0,
0,
0,
0,
0,
0,
0,
0,
0,
0,
0,
0,
0,
0,
0,
0,
0,
0,
0,
0,
0,
0,
0,
0,
0,
0,
0,
0,
0,
0,
0,
0,
0,
0,
0,
0,
0,
0,
0,
0,
0,
0,
0,
0,
0,
0,
0,
0,
0,
0,
0,
0,
0,
0,
0,
0,
0,
0,
0,
0,
0,
0,
0,
0,
0,
0,
0,
0,
0,
0,
0,
0,
0,
0,
0,
0,
0,
0,
0,
0,
0,
0,
0,
0,
0,
0,
0,
0,
0,
0,
0,
0,
0,
0,
0,
0,
0,
0,
0,
0,
0,
0,
0,
0,
0,
0,
0,
0,
0,
0,
0,
0,
0,
0,
0,
0,
0,
0,
0,
0,
0,
0,
0,
0,
0,
0,
0,
0,
0,
0,
0,
0,
0,
0,
0,
0,
0,
0,
0,
0,
0,
0,
0,
0,
0,
0,
0,
0,
0,
0,
0,
0,
0,
0,
0,
0,
0,
0,
0,
0,
0,
0,
0,
0,
0,
0,
0,
0,
0,
0,
0,
0,
0,
0,
0,
0,
0,
0,
0,
0,
0,
0,
0,
0,
0,
0,
0,
0,
0,
0,
0,
0,
0,
0,
0,
0,
0,
0,
0,
0,
0,
0,
0,
0,
0,
0,
0,
0,
0,
0,
0,
0,
0,
0,
0,
0,
0,
0,
0,
0,
0,
0,
0,
0,
0,
0,
0,
0,
0,
0,
0,
0,
0,
0,
0,
0,
0,
0,
0,
0,
0,
0,
0,
0,
0,
0,
0,
0,
0,
0,
0,
0,
0,
0,
0,
0,
0,
0,
0,
0,
0,
0,
0,
0,
0,
0,
0,
0,
0,
0,
0,
0,
0,
0,
0,
0,
0,
0,
0,
0,
0,
0,
0,
0,
0,
0,
0,
0,
0,
0,
0,
0,
0,
0,
0,
0,
0,
0,
0,
0,
0,
0,
0,
0,
0,
0,
0,
0,
0,
0,
0,
0,
0,
0,
0,
0,
0,
0,
0,
0,
0,
0,
0,
0,
0,
0,
0,
0,
0,
0,
0,
0,
0,
0,
0,
0,
0,
0,
0,
0,
0,
0,
0,
0,
0,
0,
0,
0,
0,
0,
0,
0,
0,
0,
0,
0,
0,
0,
0,
0,
0,
0,
0,
0,
0,
0,
0,
0,
0,
0,
0,
0,
0,
0,
0,
0,
0,
0,
0,
0,
0,
0,
0,
0,
0,
0,
0,
0,
0,
0,
0,
0,
0,
0,
0,
0,
0,
0,
0,
0,
0,
0,
0,
0,
0,
0,
0,
0,
0,
0,
0,
0,
0,
0,
0,
0,
0,
0,
0,
0,
0,
0,
0,
0,
0,
0,
0,
0,
0,
0,
0,
0,
0,
0,
0,
0,
0,
0,
0,
0,
0,
0,
0,
0,
0,
0,
0,
0,
0,
0,
0,
0,
0,
0,
0,
0,
0,
0,
0,
0,
0,
0,
0,
0,
0,
0,
0,
0,
0,
0,
0,
0,
0,
0,
0,
0,
0,
0,
0,
0,
0,
0,
0,
0,
0,
0,
0,
0,
0,
0,
0,
0,
0,
0,
0,
0,
0,
0,
0,
0,
0,
0,
0,
0,
0,
0,
0,
0,
0,
0,
0,
0,
0,
0,
0,
0,
0,
0,
0,
0,
0,
0,
0,
0,
0,
0,
0,
0,
0,
0,
0,
0,
0,
0,
0,
0,
0,
0,
0,
0,
0,
0,
0,
0,
0,
0,
0,
0,
0,
0,
0,
0,
0,
0,
0,
0,
0,
0,
0,
0,
0,
0,
0,
0,
0,
0,
0,
0,
0,
0,
0,
0,
0,
0,
0,
0,
0,
0,
0,
0,
0,
0,
0,
0,
0,
0,
0,
0,
0,
0,
0,
#ENDOFDATA   :