File: N132962/Quantification/15 keV/Mengason MM2/MMM2 Pyrope[3][4].msa
#FORMAT      : EMSA/MAS Spectral Data File
#VERSION     : 1.0
#TITLE       : MMM2 Pyrope[3][all]
#DATE        : 28-SEP-2025
#TIME        : 21:52
#OWNER       : Unknown
#NPOINTS     : 4096
#NCOLUMNS    : 1
#XUNITS      : eV
#YUNITS      : counts
#DATATYPE    : Y
#XPERCHAN    : 9.99778
#OFFSET      : 1.69135
#BEAMKV      : 15
#SIGNALTYPE  : EDS
#ELEVANGLE   : 35
#AZIMANGLE   : 0
#LIVETIME    : 240.187
#REALTIME    : 256.626
#PROBECUR    : 1.21223
#TAUWIND     : 0
#TDEADLYR    : 0
#TACTLYR     : 0.045
#TALWIND     : 0.025
#CHOFFSET    : 0.0
#XLABEL      : Energy (eV)
#YLABEL      : Counts
#XPOSITION   : -13.92666
#YPOSITION   : -1.86168
#ZPOSITION   : 34.11879
#EDSDET      : SD
##SPECIMEN   : MMM2 Pyrope[3][all]
##D2STDCMP   : Pyrope,(O:47.6258),(Mg:18.0873),(Al:13.3861),(Si:20.9007),5.0
##DET_HASH   : 12273538-fd48-a23f-0a19-f1e6fa85caef
##CALIB_HASH : 6abaa72c-aa41-8738-0be9-f592914732f3
##WORKING    : 15.0 mm
##DET_NAME   : EDAX All
##DET_MODE   : MediumLE
#SPECTRUM    :
23,
25,
12,
16,
82,
394,
1190,
3942,
11171,
14850,
7957,
4252,
4058,
5234,
9514,
35364,
131672,
248928,
180135,
47705,
7839,
4507,
6149,
10154,
10076,
5985,
3845,
3554,
3613,
3670,
3756,
4002,
4208,
4585,
5090,
5276,
5253,
5288,
6265,
11315,
36267,
87128,
105078,
59971,
19044,
6891,
6277,
13523,
42169,
84797,
86018,
45483,
15771,
6817,
5705,
11811,
42144,
105576,
142816,
101486,
41381,
14800,
7296,
4176,
3124,
2836,
3081,
2952,
2817,
2621,
2617,
2648,
2625,
2789,
2924,
2994,
2923,
2753,
2510,
2464,
2471,
2454,
2556,
2530,
2565,
2421,
2370,
2383,
2270,
2355,
2357,
2337,
2353,
2347,
2241,
2248,
2165,
2249,
2239,
2324,
2366,
2244,
2149,
2079,
2087,
1997,
2112,
2038,
2117,
2038,
1912,
1978,
1860,
1882,
1885,
1964,
1973,
1951,
1992,
2227,
3125,
5671,
9378,
11335,
9653,
6087,
3176,
2137,
1667,
1624,
1734,
1885,
2279,
2579,
2645,
2401,
2042,
1632,
1541,
1450,
1482,
1444,
1403,
1433,
1397,
1338,
1346,
1356,
1635,
1773,
1955,
1943,
1691,
1438,
1339,
1275,
1287,
1249,
1260,
1241,
1282,
1150,
1159,
1291,
1259,
1279,
1223,
1163,
1157,
1079,
1142,
1091,
1013,
1098,
1065,
1077,
1100,
1189,
1504,
1956,
2227,
2136,
1732,
1413,
1118,
1013,
975,
972,
969,
925,
850,
902,
910,
965,
1078,
1062,
1258,
1178,
1221,
1099,
981,
912,
841,
801,
828,
791,
816,
852,
977,
1370,
2294,
4057,
5932,
7073,
6809,
5024,
3105,
1725,
1069,
732,
692,
676,
674,
726,
652,
649,
689,
681,
699,
724,
708,
784,
923,
1124,
1364,
1412,
1336,
1093,
898,
720,
584,
592,
565,
584,
603,
558,
553,
555,
574,
529,
539,
521,
548,
506,
518,
557,
503,
520,
506,
504,
504,
467,
502,
472,
473,
447,
477,
444,
483,
460,
439,
475,
487,
415,
442,
439,
461,
428,
436,
394,
414,
376,
382,
421,
388,
361,
374,
403,
342,
359,
384,
319,
352,
361,
340,
381,
336,
345,
349,
312,
336,
336,
325,
333,
305,
330,
328,
300,
287,
353,
311,
315,
305,
287,
309,
323,
334,
265,
290,
235,
279,
252,
288,
274,
257,
270,
270,
271,
253,
276,
254,
263,
223,
229,
247,
292,
236,
234,
228,
222,
224,
207,
200,
220,
206,
231,
185,
231,
201,
197,
196,
176,
176,
208,
187,
188,
203,
170,
176,
157,
170,
188,
189,
168,
164,
161,
165,
162,
166,
184,
135,
146,
136,
151,
156,
136,
168,
165,
147,
122,
127,
138,
140,
129,
108,
123,
120,
99,
117,
118,
113,
135,
127,
120,
99,
122,
92,
111,
97,
110,
96,
84,
106,
114,
100,
95,
94,
92,
92,
99,
85,
72,
83,
87,
109,
89,
86,
66,
60,
83,
67,
75,
82,
70,
76,
65,
49,
66,
68,
68,
54,
58,
59,
55,
37,
54,
60,
62,
42,
51,
44,
43,
38,
44,
47,
44,
39,
38,
36,
43,
46,
39,
41,
36,
26,
25,
30,
25,
34,
31,
29,
24,
29,
19,
28,
23,
31,
23,
30,
23,
22,
21,
20,
15,
16,
13,
15,
11,
13,
15,
8,
12,
8,
6,
9,
7,
7,
7,
8,
14,
7,
6,
3,
4,
4,
5,
3,
4,
1,
0,
0,
0,
2,
0,
0,
0,
0,
0,
0,
0,
1,
0,
0,
0,
0,
0,
0,
0,
0,
0,
0,
0,
0,
1,
0,
0,
1,
0,
0,
0,
0,
1,
0,
1,
0,
0,
1,
0,
1,
0,
0,
0,
0,
0,
0,
0,
0,
1,
0,
0,
0,
0,
0,
0,
0,
0,
0,
0,
0,
1,
0,
0,
0,
0,
0,
0,
0,
0,
0,
0,
0,
0,
0,
0,
0,
1,
0,
0,
0,
0,
1,
0,
0,
0,
0,
0,
0,
0,
0,
0,
0,
0,
0,
0,
0,
0,
0,
0,
0,
0,
0,
0,
0,
1,
0,
0,
0,
1,
0,
0,
0,
0,
0,
0,
0,
0,
0,
0,
0,
0,
0,
0,
0,
0,
0,
0,
0,
0,
1,
0,
0,
0,
0,
0,
0,
0,
0,
0,
0,
1,
0,
0,
0,
0,
0,
0,
0,
0,
0,
0,
0,
0,
0,
0,
0,
0,
0,
0,
0,
0,
0,
0,
0,
0,
0,
0,
0,
0,
0,
0,
0,
0,
0,
0,
0,
0,
0,
0,
0,
0,
0,
0,
0,
0,
0,
0,
0,
0,
0,
0,
0,
0,
0,
0,
0,
0,
0,
0,
0,
0,
0,
0,
0,
0,
0,
0,
0,
0,
0,
0,
0,
0,
0,
0,
0,
0,
0,
0,
0,
0,
0,
0,
0,
0,
0,
0,
0,
0,
0,
0,
0,
0,
0,
0,
0,
0,
0,
0,
0,
0,
0,
0,
0,
0,
0,
0,
0,
0,
0,
0,
0,
0,
0,
0,
0,
0,
0,
0,
0,
0,
0,
0,
0,
0,
0,
0,
0,
0,
0,
0,
0,
0,
0,
0,
0,
0,
0,
0,
0,
0,
0,
0,
0,
0,
0,
0,
0,
0,
0,
0,
0,
0,
0,
0,
0,
0,
0,
0,
0,
0,
0,
0,
0,
0,
0,
0,
0,
0,
0,
0,
0,
0,
0,
0,
0,
0,
0,
0,
0,
0,
0,
0,
0,
0,
0,
0,
0,
0,
0,
0,
0,
0,
0,
0,
0,
0,
0,
0,
0,
0,
0,
0,
0,
0,
0,
0,
0,
0,
0,
0,
0,
0,
0,
0,
0,
0,
0,
0,
0,
0,
0,
0,
0,
0,
0,
0,
0,
0,
0,
0,
0,
0,
0,
0,
0,
0,
0,
0,
0,
0,
0,
0,
0,
0,
0,
0,
0,
0,
0,
0,
0,
0,
0,
0,
0,
0,
0,
0,
0,
0,
0,
0,
0,
0,
0,
0,
0,
0,
0,
0,
0,
0,
0,
0,
0,
0,
0,
0,
0,
0,
0,
0,
0,
0,
0,
0,
0,
0,
0,
0,
0,
0,
0,
0,
0,
0,
0,
0,
0,
0,
0,
0,
0,
0,
0,
0,
0,
0,
0,
0,
0,
0,
0,
0,
0,
0,
0,
0,
0,
0,
0,
0,
0,
0,
0,
0,
0,
0,
0,
0,
0,
0,
0,
0,
0,
0,
0,
0,
0,
0,
0,
0,
0,
0,
0,
0,
0,
0,
0,
0,
0,
0,
0,
0,
0,
0,
0,
0,
0,
0,
0,
0,
0,
0,
0,
0,
0,
0,
0,
0,
0,
0,
0,
0,
0,
0,
0,
0,
0,
0,
0,
0,
0,
0,
0,
0,
0,
0,
0,
0,
0,
0,
0,
0,
0,
0,
0,
0,
0,
0,
0,
0,
0,
0,
0,
0,
0,
0,
0,
0,
0,
0,
0,
0,
0,
0,
0,
0,
0,
0,
0,
0,
0,
0,
0,
0,
0,
0,
0,
0,
0,
0,
0,
0,
0,
0,
0,
0,
0,
0,
0,
0,
0,
0,
0,
0,
0,
0,
0,
0,
0,
0,
0,
0,
0,
0,
0,
0,
0,
0,
0,
0,
0,
0,
0,
0,
0,
0,
0,
0,
0,
0,
0,
0,
0,
0,
0,
0,
0,
0,
0,
0,
0,
0,
0,
0,
0,
0,
0,
0,
0,
0,
0,
0,
0,
0,
0,
0,
0,
0,
0,
0,
0,
0,
0,
0,
0,
0,
0,
0,
0,
0,
0,
0,
0,
0,
0,
0,
0,
0,
0,
0,
0,
0,
0,
0,
0,
0,
0,
0,
0,
0,
0,
0,
0,
0,
0,
0,
0,
0,
0,
0,
0,
0,
0,
0,
0,
0,
0,
0,
0,
0,
0,
0,
0,
0,
0,
0,
0,
0,
0,
0,
0,
0,
0,
0,
0,
0,
0,
0,
0,
0,
0,
0,
0,
0,
0,
0,
0,
0,
0,
0,
0,
0,
0,
0,
0,
0,
0,
0,
0,
0,
0,
0,
0,
0,
0,
0,
0,
0,
0,
0,
0,
0,
0,
0,
0,
0,
0,
0,
0,
0,
0,
0,
0,
0,
0,
0,
0,
0,
0,
0,
0,
0,
0,
0,
0,
0,
0,
0,
0,
0,
0,
0,
0,
0,
0,
0,
0,
0,
0,
0,
0,
0,
0,
0,
0,
0,
0,
0,
0,
0,
0,
0,
0,
0,
0,
0,
0,
0,
0,
0,
0,
0,
0,
0,
0,
0,
0,
0,
0,
0,
0,
0,
0,
0,
0,
0,
0,
0,
0,
0,
0,
0,
0,
0,
0,
0,
0,
0,
0,
0,
0,
0,
0,
0,
0,
0,
0,
0,
0,
0,
0,
0,
0,
0,
0,
0,
0,
0,
0,
0,
0,
0,
0,
0,
0,
0,
0,
0,
0,
0,
0,
0,
0,
0,
#ENDOFDATA   :