File: N132962/Quantification/20 keV/MMM1/SPI MM1 Chlorite[0][4].msa
#FORMAT      : EMSA/MAS Spectral Data File
#VERSION     : 1.0
#TITLE       : SPI MM1dup Chlorite[0][all]
#DATE        : 12-MAR-2025
#TIME        : 14:18
#OWNER       : Unknown
#NPOINTS     : 4096
#NCOLUMNS    : 1
#XUNITS      : eV
#YUNITS      : counts
#DATATYPE    : Y
#XPERCHAN    : 9.99778
#OFFSET      : 1.69135
#BEAMKV      : 20
#SIGNALTYPE  : EDS
#ELEVANGLE   : 35
#AZIMANGLE   : 0
#LIVETIME    : 239.83
#REALTIME    : 254.695
#PROBECUR    : 1.02867
#TAUWIND     : 0
#TDEADLYR    : 0
#TACTLYR     : 0.045
#TALWIND     : 0.025
#CHOFFSET    : 0.0
#XLABEL      : Energy (eV)
#YLABEL      : Counts
#XPOSITION   : 6.09054
#YPOSITION   : -0.41586
#ZPOSITION   : 31.03608
#EDSDET      : SD
##SPECIMEN   : SPI MM1dup Chlorite[0][all]
##DET_HASH   : 12273538-fd48-a23f-0a19-f1e6fa85caef
##CALIB_HASH : 6abaa72c-aa41-8738-0be9-f592914732f3
##WORKING    : 15.0 mm
##DET_NAME   : EDAX All
##DET_MODE   : MediumLE
#SPECTRUM    :
17,
30,
7,
8,
84,
271,
857,
2569,
7437,
10055,
5285,
2686,
3076,
3923,
7637,
29949,
123526,
242900,
177893,
46290,
6107,
2239,
2705,
4070,
3923,
2776,
2218,
2385,
2747,
2818,
2800,
2776,
2935,
3312,
3734,
3989,
4135,
4395,
5624,
12977,
49868,
125183,
151054,
84756,
24821,
6498,
4251,
9282,
28405,
57719,
58689,
31001,
11022,
4808,
3830,
7942,
28335,
71733,
98085,
69354,
29057,
10366,
5336,
3215,
2375,
2229,
2334,
2357,
2369,
2141,
2192,
2173,
2178,
2294,
2369,
2527,
2374,
2289,
2222,
2175,
2239,
2194,
2298,
2325,
2341,
2207,
2188,
2253,
2248,
2022,
2224,
2264,
2106,
2087,
2031,
2192,
2102,
2068,
2189,
2163,
2207,
2077,
2061,
1998,
1915,
1905,
1949,
1944,
1951,
1833,
1895,
1773,
1760,
1774,
1721,
1820,
1861,
1749,
1828,
1749,
1725,
1725,
1763,
1722,
1767,
1612,
1624,
1673,
1650,
1515,
1565,
1601,
1539,
1589,
1509,
1520,
1536,
1489,
1453,
1483,
1490,
1411,
1489,
1449,
1391,
1430,
1443,
1455,
1393,
1403,
1410,
1406,
1425,
1413,
1337,
1299,
1318,
1264,
1290,
1315,
1264,
1248,
1236,
1241,
1277,
1272,
1181,
1266,
1223,
1188,
1152,
1200,
1131,
1146,
1131,
1175,
1285,
1721,
2484,
3601,
4214,
4116,
3284,
2217,
1471,
1192,
1101,
1030,
1034,
1008,
1048,
1020,
1001,
1033,
1078,
1076,
1254,
1353,
1383,
1400,
1234,
1046,
991,
956,
910,
935,
924,
891,
1039,
1218,
1922,
3057,
4541,
5363,
5050,
3740,
2448,
1534,
1011,
858,
857,
829,
764,
766,
758,
771,
765,
761,
763,
776,
855,
854,
932,
1131,
1252,
1288,
1247,
1050,
878,
845,
705,
682,
675,
653,
684,
690,
780,
815,
888,
902,
948,
803,
691,
652,
649,
654,
595,
564,
636,
629,
559,
599,
562,
567,
558,
584,
599,
528,
550,
541,
563,
577,
544,
589,
555,
590,
547,
602,
542,
512,
521,
516,
506,
480,
509,
458,
520,
487,
435,
468,
478,
472,
460,
478,
482,
469,
441,
503,
451,
425,
448,
412,
426,
451,
403,
409,
393,
404,
421,
421,
450,
396,
402,
389,
426,
371,
384,
374,
396,
367,
370,
371,
366,
387,
359,
341,
368,
327,
361,
348,
319,
344,
361,
318,
336,
350,
367,
322,
316,
327,
314,
313,
285,
287,
304,
314,
309,
307,
323,
328,
281,
299,
315,
302,
279,
265,
262,
297,
265,
290,
254,
276,
281,
279,
269,
239,
244,
265,
285,
241,
247,
229,
266,
253,
241,
276,
223,
242,
245,
214,
202,
224,
208,
233,
249,
237,
208,
258,
210,
195,
220,
203,
216,
192,
183,
201,
211,
213,
180,
189,
221,
153,
190,
167,
174,
191,
160,
169,
149,
166,
151,
191,
175,
154,
191,
166,
158,
151,
163,
167,
164,
164,
154,
152,
159,
151,
121,
155,
153,
144,
121,
115,
123,
156,
160,
143,
145,
119,
120,
116,
141,
125,
124,
115,
123,
120,
112,
118,
117,
121,
100,
119,
111,
115,
116,
122,
133,
108,
103,
112,
104,
98,
100,
94,
100,
102,
110,
90,
94,
97,
96,
100,
108,
79,
82,
60,
82,
110,
87,
90,
93,
83,
81,
84,
61,
68,
70,
83,
56,
72,
75,
70,
80,
57,
75,
66,
59,
67,
62,
57,
77,
66,
67,
57,
54,
44,
61,
64,
69,
71,
59,
64,
54,
73,
56,
49,
62,
54,
45,
53,
54,
56,
41,
41,
43,
49,
41,
41,
48,
51,
42,
42,
40,
51,
33,
49,
44,
34,
25,
39,
39,
26,
34,
30,
37,
36,
38,
27,
31,
25,
31,
33,
31,
21,
37,
41,
29,
23,
26,
28,
31,
25,
31,
23,
23,
18,
25,
31,
28,
21,
22,
24,
24,
24,
27,
23,
14,
24,
29,
24,
26,
17,
19,
15,
22,
23,
16,
19,
20,
16,
23,
21,
17,
18,
18,
19,
18,
11,
8,
14,
5,
16,
15,
8,
18,
7,
11,
12,
10,
12,
13,
13,
15,
9,
12,
15,
6,
14,
7,
4,
7,
5,
6,
13,
8,
2,
6,
6,
6,
11,
5,
4,
3,
6,
5,
4,
0,
3,
4,
3,
2,
4,
4,
2,
2,
7,
1,
3,
1,
2,
3,
3,
4,
3,
1,
2,
0,
3,
1,
1,
0,
1,
1,
2,
2,
0,
0,
0,
0,
0,
0,
0,
0,
0,
0,
0,
0,
0,
0,
1,
0,
0,
0,
0,
1,
0,
0,
0,
0,
0,
0,
0,
0,
0,
0,
0,
0,
0,
0,
0,
0,
0,
0,
0,
1,
0,
1,
0,
0,
0,
0,
1,
0,
0,
0,
0,
0,
0,
0,
0,
0,
0,
1,
0,
0,
0,
0,
0,
0,
0,
0,
0,
0,
0,
0,
0,
0,
0,
0,
0,
0,
0,
0,
0,
0,
0,
1,
0,
0,
0,
0,
0,
0,
0,
0,
0,
1,
0,
0,
0,
0,
0,
0,
1,
1,
0,
1,
0,
0,
0,
0,
0,
0,
0,
0,
0,
0,
0,
0,
0,
0,
0,
0,
0,
0,
0,
0,
0,
1,
0,
0,
0,
0,
0,
0,
0,
0,
0,
0,
0,
0,
0,
0,
0,
0,
0,
0,
0,
0,
0,
0,
0,
0,
0,
0,
0,
0,
0,
0,
0,
0,
0,
0,
0,
0,
0,
0,
0,
0,
0,
0,
0,
0,
0,
0,
0,
0,
0,
0,
0,
0,
0,
0,
0,
0,
0,
0,
0,
0,
0,
0,
0,
0,
0,
0,
0,
0,
0,
0,
0,
0,
0,
0,
0,
0,
0,
0,
0,
0,
0,
0,
0,
0,
0,
0,
0,
0,
0,
0,
0,
0,
0,
0,
0,
0,
0,
0,
0,
0,
0,
0,
0,
0,
0,
0,
0,
0,
0,
0,
0,
0,
0,
0,
0,
0,
0,
0,
0,
0,
0,
0,
0,
0,
0,
0,
0,
0,
0,
0,
0,
0,
0,
0,
0,
0,
0,
0,
0,
0,
0,
0,
0,
0,
0,
0,
0,
0,
0,
0,
0,
0,
0,
0,
0,
0,
0,
0,
0,
0,
0,
0,
0,
0,
0,
0,
0,
0,
0,
0,
0,
0,
0,
0,
0,
0,
0,
0,
0,
0,
0,
0,
0,
0,
0,
0,
0,
0,
0,
0,
0,
0,
0,
0,
0,
0,
0,
0,
0,
0,
0,
0,
0,
0,
0,
0,
0,
0,
0,
0,
0,
0,
0,
0,
0,
0,
0,
0,
0,
0,
0,
0,
0,
0,
0,
0,
0,
0,
0,
0,
0,
0,
0,
0,
0,
0,
0,
0,
0,
0,
0,
0,
0,
0,
0,
0,
0,
0,
0,
0,
0,
0,
0,
0,
0,
0,
0,
0,
0,
0,
0,
0,
0,
0,
0,
0,
0,
0,
0,
0,
0,
0,
0,
0,
0,
0,
0,
0,
0,
0,
0,
0,
0,
0,
0,
0,
0,
0,
0,
0,
0,
0,
0,
0,
0,
0,
0,
0,
0,
0,
0,
0,
0,
0,
0,
0,
0,
0,
0,
0,
0,
0,
0,
0,
0,
0,
0,
0,
0,
0,
0,
0,
0,
0,
0,
0,
0,
0,
0,
0,
0,
0,
0,
0,
0,
0,
0,
0,
0,
0,
0,
0,
0,
0,
0,
0,
0,
0,
0,
0,
0,
0,
0,
0,
0,
0,
0,
0,
0,
0,
0,
0,
0,
0,
0,
0,
0,
0,
0,
0,
0,
0,
0,
0,
0,
0,
0,
0,
0,
0,
0,
0,
0,
0,
0,
0,
0,
0,
0,
0,
0,
0,
0,
0,
0,
0,
0,
0,
0,
0,
0,
0,
0,
0,
0,
0,
0,
0,
0,
0,
0,
0,
0,
0,
0,
0,
0,
0,
0,
0,
0,
0,
0,
0,
0,
0,
0,
0,
0,
0,
0,
0,
0,
0,
0,
0,
0,
0,
0,
0,
0,
0,
0,
0,
0,
0,
0,
0,
0,
0,
0,
0,
0,
0,
0,
0,
0,
0,
0,
0,
0,
0,
0,
0,
0,
0,
0,
0,
0,
0,
0,
0,
0,
0,
0,
0,
0,
0,
0,
0,
0,
0,
0,
0,
0,
0,
0,
0,
0,
0,
0,
0,
0,
0,
0,
0,
0,
0,
0,
0,
0,
0,
0,
0,
0,
0,
0,
0,
0,
0,
0,
0,
0,
0,
0,
0,
0,
0,
0,
0,
0,
0,
0,
0,
0,
0,
0,
0,
0,
0,
0,
0,
0,
0,
0,
0,
0,
0,
0,
0,
0,
0,
0,
0,
0,
0,
0,
0,
0,
0,
0,
0,
0,
0,
0,
0,
0,
0,
0,
0,
0,
0,
0,
0,
0,
0,
0,
0,
0,
0,
0,
0,
0,
0,
0,
0,
0,
#ENDOFDATA   :