File: N132962/Quantification/20 keV/MMM1/SPI MM1 Arsenopyrite[7][4].msa
#FORMAT      : EMSA/MAS Spectral Data File
#VERSION     : 1.0
#TITLE       : SPI MM1 Arsenopyrite[7][all]
#DATE        : 11-MAR-2025
#TIME        : 13:43
#OWNER       : Unknown
#NPOINTS     : 4096
#NCOLUMNS    : 1
#XUNITS      : eV
#YUNITS      : counts
#DATATYPE    : Y
#XPERCHAN    : 9.99778
#OFFSET      : 1.69135
#BEAMKV      : 20
#SIGNALTYPE  : EDS
#ELEVANGLE   : 35
#AZIMANGLE   : 0
#LIVETIME    : 239.8199
#REALTIME    : 260.782
#PROBECUR    : 1.02853
#TAUWIND     : 0
#TDEADLYR    : 0
#TACTLYR     : 0.045
#TALWIND     : 0.025
#CHOFFSET    : 0.0
#XLABEL      : Energy (eV)
#YLABEL      : Counts
#XPOSITION   : 2.19274
#YPOSITION   : -5.00754
#ZPOSITION   : 30.9284
#EDSDET      : SD
##SPECIMEN   : SPI MM1 Arsenopyrite[7][all]
##D2STDCMP   : Arsenopyrite,(S:19.6897),(Fe:34.2972),(As:46.0131),6.0
##DET_HASH   : 12273538-fd48-a23f-0a19-f1e6fa85caef
##CALIB_HASH : 6abaa72c-aa41-8738-0be9-f592914732f3
##WORKING    : 15.0 mm
##DET_NAME   : EDAX All
##DET_MODE   : MediumLE
#SPECTRUM    :
25,
31,
8,
40,
165,
459,
1179,
3367,
10099,
13317,
6777,
3065,
2794,
3078,
3189,
4002,
4905,
6290,
8768,
12736,
17637,
19621,
32321,
55447,
46800,
18712,
6905,
5182,
5084,
4880,
5001,
5187,
5406,
5585,
5989,
7004,
9830,
13917,
14595,
12675,
19209,
59675,
146615,
197979,
147672,
65081,
20854,
8130,
5198,
4502,
4290,
4350,
4179,
4092,
4205,
4300,
4509,
4871,
5138,
5116,
4912,
4867,
4618,
4531,
4646,
4631,
4893,
4952,
4788,
4842,
4988,
5157,
6267,
8777,
17889,
45122,
88774,
110756,
81909,
37261,
14893,
11601,
12619,
10987,
7719,
5457,
4640,
4442,
4343,
4199,
4303,
4253,
4194,
4242,
4359,
4076,
4257,
4092,
4165,
4343,
4367,
4347,
4181,
4267,
4208,
4132,
4256,
4024,
4128,
4239,
4232,
4115,
4193,
4018,
3980,
3983,
4131,
4023,
4082,
4215,
4129,
4354,
4128,
4073,
3852,
3908,
3910,
3963,
3741,
3787,
3803,
3744,
3747,
3796,
3828,
3633,
3689,
3741,
3587,
3602,
3696,
3597,
3572,
3607,
3530,
3545,
3490,
3503,
3550,
3450,
3475,
3563,
3603,
3593,
3555,
3666,
3660,
3416,
3360,
3384,
3261,
3265,
3239,
3181,
3174,
3196,
3187,
3199,
3086,
3092,
3104,
3035,
3057,
3108,
3085,
3114,
3119,
3086,
3015,
2989,
3049,
2925,
2878,
2856,
2799,
2744,
2878,
2820,
2807,
2755,
2842,
2617,
2716,
2773,
2621,
2533,
2681,
2677,
2605,
2676,
2581,
2671,
2590,
2546,
2609,
2661,
2697,
3055,
4572,
9168,
19897,
38692,
60451,
73699,
69065,
50269,
28718,
13394,
5927,
3202,
2511,
2365,
2282,
2284,
2226,
2294,
2281,
2223,
2370,
2504,
2779,
3590,
5085,
7812,
10220,
11282,
10393,
8021,
5438,
3437,
2349,
1911,
1856,
1836,
1841,
1822,
1835,
1957,
1940,
1924,
1866,
1767,
1780,
1776,
1813,
1850,
1887,
1894,
1693,
1655,
1649,
1626,
1676,
1571,
1510,
1601,
1595,
1587,
1577,
1593,
1574,
1565,
1500,
1622,
1553,
1579,
1534,
1487,
1504,
1429,
1489,
1434,
1499,
1504,
1439,
1509,
1470,
1501,
1437,
1492,
1459,
1457,
1408,
1396,
1454,
1380,
1345,
1340,
1335,
1343,
1299,
1247,
1310,
1345,
1300,
1277,
1278,
1272,
1297,
1205,
1263,
1229,
1214,
1223,
1204,
1136,
1219,
1207,
1256,
1239,
1254,
1168,
1138,
1159,
1142,
1179,
1077,
1115,
1074,
1080,
1090,
1085,
1072,
1113,
1043,
1139,
1031,
1110,
1100,
1045,
1113,
1098,
1135,
1152,
1454,
2134,
3662,
6408,
10318,
14330,
17500,
18510,
16670,
12499,
8363,
4952,
2742,
1710,
1184,
1021,
910,
870,
886,
868,
893,
841,
841,
922,
895,
830,
809,
873,
858,
827,
809,
794,
808,
812,
869,
800,
807,
859,
862,
826,
853,
969,
1252,
1702,
2232,
2743,
3057,
2992,
2729,
2238,
1671,
1310,
1005,
845,
718,
652,
663,
614,
591,
600,
571,
553,
597,
578,
605,
567,
581,
588,
538,
549,
558,
609,
509,
549,
539,
511,
545,
493,
512,
526,
539,
522,
548,
542,
555,
512,
534,
515,
461,
468,
476,
475,
468,
460,
466,
474,
431,
483,
449,
451,
428,
434,
443,
453,
401,
438,
393,
373,
417,
411,
384,
384,
401,
377,
411,
336,
366,
369,
374,
390,
339,
341,
350,
322,
336,
340,
325,
352,
329,
311,
339,
315,
325,
291,
288,
295,
312,
291,
300,
292,
340,
258,
280,
276,
285,
288,
278,
262,
250,
263,
302,
243,
253,
259,
248,
253,
245,
215,
237,
221,
251,
225,
234,
228,
212,
219,
205,
191,
193,
201,
201,
227,
232,
197,
173,
200,
197,
185,
186,
202,
179,
184,
195,
173,
169,
165,
160,
166,
166,
156,
187,
152,
142,
153,
142,
164,
138,
150,
142,
165,
142,
147,
140,
142,
138,
142,
121,
122,
120,
141,
116,
116,
128,
119,
98,
128,
127,
128,
125,
101,
102,
129,
99,
107,
116,
107,
105,
90,
103,
99,
86,
104,
97,
90,
103,
91,
84,
82,
77,
91,
68,
78,
79,
80,
81,
72,
70,
67,
76,
65,
48,
60,
56,
62,
52,
79,
50,
69,
52,
69,
60,
46,
56,
54,
54,
44,
37,
47,
37,
43,
49,
52,
40,
39,
27,
43,
38,
32,
35,
34,
27,
30,
28,
27,
25,
35,
32,
29,
25,
28,
30,
33,
31,
21,
25,
26,
17,
16,
11,
15,
16,
25,
19,
21,
16,
8,
11,
13,
15,
13,
9,
9,
11,
7,
5,
10,
6,
7,
5,
3,
3,
4,
3,
1,
3,
2,
0,
2,
2,
3,
5,
1,
1,
2,
3,
2,
1,
4,
2,
4,
1,
1,
3,
2,
0,
0,
1,
0,
2,
2,
1,
1,
2,
1,
2,
4,
3,
3,
3,
3,
4,
1,
8,
2,
1,
2,
1,
1,
4,
0,
2,
1,
0,
0,
0,
2,
2,
0,
2,
1,
1,
0,
0,
2,
0,
2,
0,
1,
0,
2,
0,
1,
1,
2,
2,
0,
2,
1,
2,
4,
1,
0,
0,
0,
1,
1,
0,
1,
1,
0,
1,
0,
0,
1,
0,
0,
0,
0,
1,
1,
0,
0,
1,
2,
2,
0,
0,
0,
1,
0,
0,
1,
1,
0,
0,
0,
1,
1,
0,
0,
2,
1,
0,
0,
3,
2,
0,
0,
0,
0,
1,
0,
0,
0,
0,
0,
0,
0,
0,
1,
0,
0,
0,
1,
0,
0,
0,
0,
0,
2,
1,
0,
0,
0,
0,
0,
2,
0,
0,
1,
2,
0,
0,
1,
1,
4,
0,
1,
0,
1,
0,
0,
0,
0,
0,
0,
0,
1,
1,
0,
0,
0,
1,
0,
0,
1,
0,
1,
0,
1,
0,
0,
0,
0,
0,
0,
0,
0,
0,
1,
0,
0,
1,
0,
0,
0,
0,
0,
0,
0,
0,
1,
0,
0,
1,
2,
0,
0,
0,
0,
0,
0,
1,
1,
0,
0,
0,
0,
0,
0,
1,
0,
0,
1,
0,
0,
1,
0,
0,
0,
1,
0,
0,
0,
0,
0,
1,
0,
2,
0,
0,
0,
0,
0,
0,
1,
0,
0,
0,
0,
0,
0,
0,
0,
0,
0,
0,
0,
0,
0,
0,
0,
0,
0,
0,
0,
2,
0,
0,
0,
0,
0,
0,
0,
0,
0,
1,
0,
0,
0,
0,
0,
0,
0,
0,
0,
0,
1,
0,
0,
0,
0,
0,
0,
0,
0,
0,
0,
0,
0,
0,
0,
0,
0,
0,
0,
0,
0,
0,
1,
0,
0,
0,
0,
0,
0,
0,
0,
0,
0,
0,
0,
0,
0,
0,
0,
0,
0,
0,
0,
0,
0,
0,
0,
0,
0,
0,
0,
0,
1,
0,
0,
0,
0,
0,
0,
0,
0,
0,
0,
0,
0,
0,
0,
0,
0,
0,
0,
0,
0,
0,
0,
0,
0,
0,
0,
0,
0,
0,
0,
0,
0,
0,
0,
1,
0,
0,
0,
0,
0,
0,
0,
0,
0,
0,
0,
0,
0,
0,
0,
0,
0,
0,
0,
0,
0,
0,
0,
0,
0,
0,
0,
0,
0,
0,
0,
0,
0,
0,
0,
0,
0,
0,
0,
0,
0,
0,
0,
0,
0,
0,
0,
0,
0,
0,
0,
0,
0,
0,
0,
0,
0,
0,
0,
0,
0,
0,
0,
0,
0,
0,
0,
0,
0,
0,
0,
0,
0,
0,
0,
0,
0,
0,
0,
0,
0,
0,
0,
0,
0,
0,
0,
0,
0,
0,
0,
0,
0,
0,
0,
0,
0,
0,
0,
0,
0,
0,
0,
0,
0,
0,
0,
0,
0,
0,
0,
0,
0,
0,
0,
0,
0,
0,
0,
0,
0,
0,
0,
0,
0,
0,
0,
0,
0,
0,
0,
0,
0,
0,
0,
0,
0,
0,
0,
0,
0,
0,
0,
0,
0,
0,
0,
0,
0,
0,
0,
0,
0,
0,
0,
0,
0,
0,
0,
0,
0,
0,
0,
0,
0,
0,
0,
0,
0,
0,
0,
0,
0,
0,
0,
0,
0,
0,
0,
0,
0,
0,
0,
0,
0,
0,
0,
0,
0,
0,
0,
0,
0,
0,
0,
0,
0,
0,
0,
0,
0,
0,
0,
0,
0,
0,
0,
0,
0,
0,
0,
0,
0,
0,
0,
0,
0,
0,
0,
0,
0,
0,
0,
0,
0,
0,
0,
0,
0,
0,
0,
0,
0,
0,
0,
0,
0,
0,
0,
0,
0,
0,
0,
0,
0,
0,
0,
0,
0,
0,
0,
0,
0,
0,
0,
0,
0,
0,
0,
0,
0,
0,
0,
0,
0,
0,
0,
0,
0,
0,
0,
0,
0,
0,
0,
0,
0,
0,
0,
0,
0,
0,
0,
0,
0,
0,
0,
0,
0,
0,
0,
0,
0,
0,
0,
0,
0,
0,
0,
0,
0,
0,
0,
0,
0,
0,
0,
0,
0,
0,
0,
0,
0,
0,
0,
0,
0,
#ENDOFDATA   :