File: N132962/Quantification/20 keV/MMM1/SPI MM1 Arsenopyrite[3][4].msa
#FORMAT      : EMSA/MAS Spectral Data File
#VERSION     : 1.0
#TITLE       : SPI MM1 Arsenopyrite[3][all]
#DATE        : 11-MAR-2025
#TIME        : 13:38
#OWNER       : Unknown
#NPOINTS     : 4096
#NCOLUMNS    : 1
#XUNITS      : eV
#YUNITS      : counts
#DATATYPE    : Y
#XPERCHAN    : 9.99778
#OFFSET      : 1.69135
#BEAMKV      : 20
#SIGNALTYPE  : EDS
#ELEVANGLE   : 35
#AZIMANGLE   : 0
#LIVETIME    : 239.823
#REALTIME    : 260.779
#PROBECUR    : 1.02853
#TAUWIND     : 0
#TDEADLYR    : 0
#TACTLYR     : 0.045
#TALWIND     : 0.025
#CHOFFSET    : 0.0
#XLABEL      : Energy (eV)
#YLABEL      : Counts
#XPOSITION   : 2.19268
#YPOSITION   : -4.96443
#ZPOSITION   : 30.9284
#EDSDET      : SD
##SPECIMEN   : SPI MM1 Arsenopyrite[3][all]
##D2STDCMP   : Arsenopyrite,(S:19.6897),(Fe:34.2972),(As:46.0131),6.0
##DET_HASH   : 12273538-fd48-a23f-0a19-f1e6fa85caef
##CALIB_HASH : 6abaa72c-aa41-8738-0be9-f592914732f3
##WORKING    : 15.0 mm
##DET_NAME   : EDAX All
##DET_MODE   : MediumLE
#SPECTRUM    :
27,
31,
7,
33,
155,
521,
1222,
3485,
10074,
13265,
6839,
2953,
2682,
3052,
3357,
3908,
4970,
6617,
8717,
12693,
17489,
19797,
32232,
55717,
46792,
18659,
6848,
5218,
4946,
4911,
4818,
5244,
5445,
5594,
5963,
7094,
10084,
13902,
14505,
13014,
18849,
59333,
145959,
197375,
147225,
65658,
20904,
8111,
5162,
4345,
4415,
4305,
4271,
4233,
4227,
4303,
4456,
4930,
5125,
5220,
5107,
4887,
4655,
4478,
4536,
4661,
4809,
4882,
4816,
4830,
4873,
5108,
6157,
8865,
17972,
45136,
89164,
111472,
82014,
37161,
15009,
11390,
12468,
10906,
7770,
5439,
4595,
4465,
4380,
4310,
4252,
4189,
4079,
4183,
4242,
4204,
4195,
4227,
4216,
4101,
4388,
4261,
4208,
4223,
4143,
4101,
4072,
4096,
4106,
4132,
4185,
4042,
4113,
4126,
4110,
4169,
4041,
4099,
4033,
4116,
4256,
4278,
4158,
3982,
3927,
3970,
3863,
4001,
3845,
3913,
3812,
3730,
3748,
3755,
3827,
3658,
3686,
3643,
3691,
3686,
3745,
3614,
3703,
3510,
3533,
3623,
3466,
3370,
3442,
3554,
3537,
3340,
3457,
3568,
3667,
3609,
3566,
3529,
3370,
3367,
3214,
3219,
3255,
3187,
3191,
3117,
3209,
3130,
3092,
3149,
3056,
3148,
3098,
3080,
3087,
2989,
3000,
2994,
2960,
2990,
2963,
2928,
2815,
2863,
2899,
2877,
2793,
2709,
2730,
2754,
2860,
2674,
2643,
2779,
2721,
2719,
2626,
2697,
2615,
2633,
2648,
2647,
2610,
2610,
2620,
2650,
2776,
3203,
4476,
9027,
19569,
38701,
60399,
73811,
69080,
49980,
28735,
13578,
5778,
3229,
2538,
2376,
2300,
2309,
2269,
2287,
2339,
2348,
2334,
2418,
2743,
3640,
5146,
7651,
10225,
11264,
10317,
8001,
5209,
3466,
2380,
1940,
1786,
1777,
1812,
1848,
1839,
1830,
1876,
1901,
1850,
1830,
1839,
1750,
1815,
1865,
1822,
1799,
1795,
1700,
1718,
1658,
1643,
1636,
1673,
1647,
1681,
1668,
1605,
1666,
1671,
1570,
1585,
1536,
1549,
1494,
1488,
1479,
1535,
1492,
1556,
1590,
1492,
1428,
1489,
1493,
1442,
1386,
1526,
1428,
1423,
1419,
1408,
1471,
1374,
1376,
1327,
1292,
1293,
1315,
1362,
1261,
1240,
1246,
1289,
1268,
1291,
1270,
1249,
1249,
1192,
1247,
1120,
1253,
1224,
1185,
1212,
1159,
1184,
1198,
1167,
1213,
1123,
1096,
1115,
1147,
1124,
1129,
1122,
1115,
1143,
1075,
1099,
1049,
1067,
1037,
1068,
1047,
1066,
1042,
1031,
1047,
1156,
1196,
1472,
2176,
3614,
6224,
10056,
14196,
17789,
18418,
16549,
12366,
8306,
4883,
2805,
1703,
1124,
984,
917,
856,
888,
902,
836,
833,
845,
855,
823,
835,
786,
824,
806,
828,
827,
823,
790,
808,
845,
791,
796,
847,
788,
816,
812,
960,
1249,
1685,
2242,
2711,
3008,
3125,
2661,
2170,
1664,
1283,
1055,
819,
723,
684,
643,
570,
599,
564,
653,
601,
589,
591,
547,
597,
570,
595,
598,
550,
556,
524,
599,
547,
539,
565,
541,
525,
512,
504,
527,
514,
563,
532,
521,
523,
518,
508,
471,
522,
519,
480,
480,
454,
468,
454,
481,
435,
435,
454,
437,
441,
408,
416,
388,
424,
395,
396,
390,
416,
396,
401,
414,
361,
385,
406,
346,
370,
364,
363,
385,
371,
385,
365,
326,
331,
335,
373,
340,
335,
361,
321,
286,
352,
311,
295,
305,
299,
308,
294,
258,
275,
259,
263,
258,
282,
288,
275,
266,
276,
246,
256,
247,
254,
271,
251,
209,
235,
271,
217,
220,
269,
249,
239,
243,
236,
220,
213,
193,
223,
217,
176,
170,
213,
196,
163,
209,
199,
213,
191,
173,
189,
189,
188,
154,
190,
177,
179,
184,
160,
192,
153,
136,
155,
147,
158,
147,
146,
142,
152,
134,
157,
151,
152,
125,
141,
125,
128,
121,
119,
119,
129,
106,
106,
101,
122,
117,
127,
118,
135,
115,
130,
120,
110,
103,
95,
102,
99,
95,
70,
71,
88,
97,
99,
88,
92,
84,
73,
67,
78,
84,
86,
73,
84,
75,
78,
72,
65,
69,
53,
63,
51,
79,
61,
64,
61,
52,
54,
69,
59,
53,
49,
45,
58,
59,
40,
42,
49,
44,
30,
53,
42,
42,
34,
34,
23,
36,
34,
35,
29,
35,
37,
33,
30,
33,
36,
29,
29,
20,
24,
17,
28,
11,
18,
16,
26,
16,
21,
24,
20,
21,
10,
16,
15,
9,
13,
13,
9,
7,
10,
10,
9,
6,
9,
13,
7,
5,
8,
5,
6,
4,
1,
3,
1,
4,
4,
3,
0,
0,
2,
1,
2,
1,
1,
1,
0,
0,
3,
5,
1,
2,
3,
0,
1,
1,
1,
3,
0,
1,
1,
1,
0,
3,
3,
3,
3,
3,
7,
2,
3,
2,
4,
1,
0,
1,
1,
1,
0,
1,
0,
1,
0,
0,
3,
1,
0,
1,
3,
0,
2,
2,
1,
1,
3,
0,
0,
1,
0,
3,
1,
2,
0,
1,
0,
0,
2,
0,
1,
1,
0,
0,
1,
2,
0,
2,
2,
0,
1,
0,
0,
1,
0,
1,
2,
0,
2,
0,
0,
2,
0,
0,
0,
0,
1,
0,
1,
0,
2,
0,
1,
0,
1,
0,
0,
0,
0,
2,
1,
0,
0,
1,
0,
0,
1,
0,
1,
0,
1,
1,
0,
0,
0,
0,
0,
1,
0,
0,
0,
1,
0,
0,
0,
1,
0,
0,
0,
0,
0,
0,
0,
0,
1,
0,
1,
1,
1,
0,
0,
0,
1,
0,
0,
0,
2,
0,
0,
1,
0,
0,
0,
0,
1,
0,
0,
0,
0,
0,
0,
0,
0,
1,
1,
1,
0,
0,
1,
1,
0,
0,
1,
0,
0,
0,
0,
0,
0,
0,
2,
0,
1,
0,
0,
1,
0,
0,
0,
0,
0,
0,
0,
0,
0,
1,
1,
1,
0,
0,
1,
0,
0,
0,
1,
0,
0,
0,
0,
0,
0,
0,
0,
1,
0,
0,
0,
0,
0,
0,
0,
1,
0,
0,
0,
0,
0,
0,
0,
0,
1,
0,
1,
0,
0,
1,
0,
0,
0,
0,
0,
0,
0,
0,
0,
0,
0,
2,
0,
0,
0,
1,
0,
1,
0,
0,
1,
0,
0,
0,
0,
0,
0,
0,
0,
0,
0,
0,
0,
0,
0,
0,
1,
0,
0,
0,
0,
0,
0,
0,
0,
0,
0,
0,
0,
0,
0,
0,
0,
0,
0,
0,
0,
0,
0,
0,
0,
0,
0,
0,
0,
0,
0,
0,
0,
0,
0,
0,
0,
0,
0,
0,
0,
0,
0,
0,
0,
0,
0,
0,
0,
0,
0,
0,
0,
0,
0,
0,
0,
0,
0,
0,
0,
0,
0,
0,
0,
0,
0,
0,
0,
0,
0,
0,
0,
0,
0,
0,
0,
0,
0,
0,
0,
0,
0,
0,
0,
0,
0,
0,
0,
0,
0,
0,
0,
0,
0,
0,
0,
0,
0,
0,
0,
0,
0,
0,
0,
0,
0,
0,
0,
0,
0,
0,
0,
0,
0,
0,
0,
0,
0,
0,
0,
0,
0,
0,
0,
0,
0,
0,
0,
0,
0,
0,
0,
0,
0,
0,
0,
0,
0,
0,
0,
0,
0,
0,
0,
0,
0,
0,
0,
0,
0,
0,
0,
0,
0,
0,
0,
0,
0,
0,
0,
0,
0,
0,
0,
0,
0,
0,
0,
0,
0,
0,
0,
0,
0,
0,
0,
0,
0,
0,
0,
0,
0,
0,
0,
0,
0,
0,
0,
0,
0,
0,
0,
0,
0,
0,
0,
0,
0,
0,
0,
0,
0,
0,
0,
0,
0,
0,
0,
0,
0,
0,
0,
0,
0,
0,
0,
0,
0,
0,
0,
0,
0,
0,
0,
0,
0,
0,
0,
0,
0,
0,
0,
0,
0,
0,
0,
0,
0,
0,
0,
0,
0,
0,
0,
0,
0,
0,
0,
0,
0,
0,
0,
0,
0,
0,
0,
0,
0,
0,
0,
0,
0,
0,
0,
0,
0,
0,
0,
0,
0,
0,
0,
0,
0,
0,
0,
0,
0,
0,
0,
0,
0,
0,
0,
0,
0,
0,
0,
0,
0,
0,
0,
0,
0,
0,
0,
0,
0,
0,
0,
0,
0,
0,
0,
0,
0,
0,
0,
0,
0,
0,
0,
0,
0,
0,
0,
0,
0,
0,
0,
0,
0,
0,
0,
0,
0,
0,
0,
0,
0,
0,
0,
0,
0,
0,
0,
0,
0,
0,
0,
0,
0,
0,
0,
0,
0,
0,
0,
0,
0,
0,
0,
0,
0,
0,
0,
0,
0,
0,
0,
0,
0,
0,
0,
0,
0,
0,
0,
0,
0,
0,
0,
0,
0,
0,
0,
0,
0,
0,
0,
0,
0,
0,
0,
0,
0,
0,
0,
0,
0,
0,
0,
0,
0,
0,
0,
0,
0,
0,
0,
0,
0,
0,
0,
0,
0,
0,
0,
0,
0,
0,
0,
#ENDOFDATA   :