File: N132962/Quantification/20 keV/MMM1/SPI MM1 Almandine[0][4].msa
#FORMAT      : EMSA/MAS Spectral Data File
#VERSION     : 1.0
#TITLE       : SPI MM1 Almandine[0][all]
#DATE        : 11-MAR-2025
#TIME        : 12:57
#OWNER       : Unknown
#NPOINTS     : 4096
#NCOLUMNS    : 1
#XUNITS      : eV
#YUNITS      : counts
#DATATYPE    : Y
#XPERCHAN    : 9.99778
#OFFSET      : 1.69135
#BEAMKV      : 20
#SIGNALTYPE  : EDS
#ELEVANGLE   : 35
#AZIMANGLE   : 0
#LIVETIME    : 239.836
#REALTIME    : 255.275
#PROBECUR    : 1.02699
#TAUWIND     : 0
#TDEADLYR    : 0
#TACTLYR     : 0.045
#TALWIND     : 0.025
#CHOFFSET    : 0.0
#XLABEL      : Energy (eV)
#YLABEL      : Counts
#XPOSITION   : 0.42431
#YPOSITION   : -7.84747
#ZPOSITION   : 30.9284
#EDSDET      : SD
##SPECIMEN   : SPI MM1 Almandine[0][all]
##D2STDCMP   : Almandine,(O:38.5719),(Al:10.8416),(Si:16.9275),(Fe:33.6591),4.05
##DET_HASH   : 12273538-fd48-a23f-0a19-f1e6fa85caef
##CALIB_HASH : 6abaa72c-aa41-8738-0be9-f592914732f3
##WORKING    : 15.0 mm
##DET_NAME   : EDAX All
##DET_MODE   : MediumLE
#SPECTRUM    :
23,
34,
5,
16,
81,
278,
814,
2606,
7583,
10086,
5755,
3067,
2981,
3592,
6310,
23017,
91440,
177544,
130036,
35189,
7456,
5519,
8031,
14113,
13912,
6977,
3252,
2526,
2492,
2527,
2452,
2636,
2754,
3076,
3352,
3393,
3325,
3733,
4077,
6000,
15584,
35320,
41866,
25249,
9611,
5180,
5494,
12648,
40481,
80056,
82044,
43144,
14994,
6545,
5351,
10919,
39708,
98800,
134950,
95747,
39451,
14103,
7178,
4190,
3127,
2898,
2951,
3046,
2806,
2742,
2682,
2783,
2747,
2771,
2925,
3029,
3022,
2890,
2821,
2753,
2727,
2675,
2785,
2745,
2786,
2761,
2690,
2763,
2715,
2789,
2682,
2626,
2728,
2661,
2560,
2603,
2603,
2646,
2651,
2709,
2768,
2663,
2664,
2484,
2561,
2468,
2529,
2658,
2632,
2555,
2430,
2456,
2483,
2433,
2467,
2407,
2504,
2474,
2579,
2890,
4202,
7670,
12666,
15583,
13233,
8264,
4427,
2707,
2191,
2266,
2255,
2543,
2951,
3521,
3608,
3383,
2691,
2357,
1957,
1946,
1965,
1900,
1884,
1879,
1821,
1963,
1844,
1804,
1914,
1863,
1901,
1830,
1922,
1884,
1846,
1840,
1869,
1799,
1698,
1704,
1731,
1667,
1649,
1653,
1797,
1633,
1620,
1645,
1582,
1595,
1655,
1564,
1556,
1592,
1535,
1548,
1489,
1455,
1520,
1515,
1518,
1501,
1478,
1472,
1487,
1468,
1370,
1350,
1412,
1395,
1377,
1377,
1355,
1478,
1801,
2018,
2301,
2257,
2020,
1661,
1541,
1330,
1295,
1341,
1303,
1306,
1299,
1495,
2269,
4252,
9365,
18140,
28501,
34808,
32967,
23891,
13828,
6551,
2822,
1584,
1236,
1169,
1102,
1106,
1137,
1042,
1064,
1146,
1128,
1212,
1367,
1745,
2489,
3729,
4730,
5330,
4891,
3711,
2579,
1565,
1141,
934,
873,
883,
875,
917,
905,
842,
877,
905,
881,
819,
839,
850,
789,
807,
850,
845,
791,
814,
759,
773,
792,
823,
808,
769,
721,
793,
708,
781,
781,
798,
856,
785,
739,
724,
681,
705,
720,
732,
701,
717,
663,
630,
662,
650,
668,
599,
692,
638,
642,
643,
647,
671,
610,
629,
555,
608,
604,
613,
579,
621,
575,
598,
588,
551,
588,
538,
575,
524,
547,
549,
515,
519,
558,
533,
520,
517,
505,
541,
536,
484,
534,
522,
534,
514,
501,
483,
517,
501,
470,
478,
446,
488,
467,
442,
461,
470,
439,
472,
444,
435,
417,
435,
430,
409,
407,
399,
463,
420,
436,
423,
372,
397,
413,
404,
359,
364,
385,
386,
418,
406,
405,
370,
379,
378,
360,
370,
344,
347,
365,
342,
342,
335,
349,
332,
335,
352,
349,
311,
328,
289,
333,
319,
311,
314,
317,
302,
299,
303,
303,
296,
283,
298,
297,
302,
272,
282,
277,
272,
247,
274,
312,
254,
254,
284,
286,
250,
242,
281,
267,
258,
218,
207,
236,
259,
237,
231,
221,
240,
223,
217,
238,
229,
231,
234,
218,
218,
222,
214,
208,
205,
197,
208,
196,
185,
181,
205,
199,
198,
192,
187,
189,
194,
181,
187,
183,
190,
171,
174,
166,
162,
168,
149,
189,
181,
180,
149,
158,
152,
163,
156,
148,
158,
157,
123,
134,
162,
137,
129,
153,
145,
123,
135,
125,
124,
120,
110,
124,
129,
143,
124,
106,
124,
115,
101,
92,
115,
115,
108,
109,
110,
99,
109,
105,
89,
95,
95,
100,
100,
98,
89,
97,
90,
78,
98,
71,
97,
87,
95,
96,
83,
98,
86,
86,
95,
67,
77,
81,
64,
81,
98,
81,
63,
63,
64,
71,
63,
54,
72,
72,
55,
70,
72,
52,
47,
66,
58,
60,
56,
45,
47,
44,
62,
49,
42,
63,
54,
44,
49,
39,
37,
63,
45,
43,
39,
34,
33,
37,
42,
42,
43,
45,
46,
48,
38,
42,
34,
38,
63,
37,
38,
35,
28,
23,
29,
29,
41,
32,
32,
30,
35,
25,
27,
30,
23,
22,
26,
19,
23,
25,
34,
33,
18,
17,
22,
25,
15,
29,
19,
19,
31,
22,
22,
28,
18,
14,
12,
8,
13,
21,
16,
15,
17,
17,
15,
9,
18,
11,
13,
4,
17,
14,
11,
9,
19,
14,
16,
18,
9,
7,
19,
9,
11,
11,
7,
7,
4,
6,
5,
7,
6,
9,
4,
5,
4,
3,
9,
6,
5,
4,
5,
4,
2,
5,
5,
2,
1,
1,
3,
1,
0,
0,
0,
0,
1,
0,
0,
0,
0,
0,
1,
0,
0,
2,
0,
0,
1,
2,
1,
1,
0,
0,
1,
0,
0,
0,
0,
0,
0,
0,
1,
0,
0,
1,
0,
1,
0,
0,
0,
0,
0,
0,
0,
0,
0,
0,
0,
0,
1,
1,
0,
0,
0,
0,
0,
0,
0,
0,
0,
0,
1,
0,
0,
0,
0,
0,
0,
0,
0,
0,
0,
0,
0,
1,
0,
0,
0,
0,
0,
0,
0,
0,
0,
0,
0,
0,
0,
0,
0,
0,
1,
0,
1,
0,
0,
0,
0,
2,
0,
0,
0,
0,
0,
0,
0,
1,
0,
0,
0,
0,
0,
0,
0,
0,
0,
0,
0,
0,
0,
0,
0,
1,
0,
0,
0,
0,
0,
0,
0,
0,
0,
0,
0,
0,
0,
0,
0,
0,
0,
0,
0,
1,
0,
0,
0,
0,
0,
0,
0,
0,
0,
0,
0,
0,
0,
0,
0,
0,
0,
0,
0,
0,
0,
0,
0,
0,
0,
0,
0,
0,
0,
0,
0,
0,
0,
0,
0,
0,
0,
0,
0,
0,
0,
0,
0,
0,
0,
0,
0,
0,
0,
0,
0,
0,
0,
0,
0,
0,
0,
0,
0,
0,
0,
0,
0,
0,
0,
0,
0,
0,
0,
0,
0,
0,
0,
0,
0,
0,
0,
1,
0,
0,
0,
0,
0,
0,
0,
0,
0,
0,
0,
0,
0,
0,
0,
0,
0,
0,
0,
0,
0,
0,
0,
0,
0,
0,
0,
0,
0,
0,
0,
0,
1,
0,
0,
0,
0,
0,
1,
0,
0,
0,
0,
0,
0,
0,
0,
0,
0,
0,
0,
0,
0,
0,
0,
0,
0,
0,
0,
0,
0,
0,
0,
0,
0,
0,
0,
0,
0,
0,
0,
0,
0,
0,
0,
0,
0,
0,
0,
0,
0,
0,
0,
0,
0,
0,
0,
0,
0,
0,
0,
0,
0,
0,
0,
0,
0,
0,
0,
0,
0,
0,
0,
0,
0,
0,
0,
0,
0,
0,
0,
0,
0,
0,
0,
0,
0,
0,
0,
0,
0,
0,
0,
0,
0,
0,
0,
0,
0,
0,
0,
0,
0,
0,
0,
0,
0,
0,
0,
0,
0,
0,
0,
0,
0,
0,
0,
0,
0,
0,
0,
0,
0,
0,
0,
0,
0,
0,
0,
0,
0,
0,
0,
0,
0,
0,
0,
0,
0,
0,
0,
0,
0,
0,
0,
0,
0,
0,
0,
0,
0,
0,
0,
0,
0,
0,
0,
0,
0,
0,
0,
0,
0,
0,
0,
0,
0,
0,
0,
0,
0,
0,
0,
0,
0,
0,
0,
0,
0,
0,
0,
0,
0,
0,
0,
0,
0,
0,
0,
0,
0,
0,
0,
0,
0,
0,
0,
0,
0,
0,
0,
0,
0,
0,
0,
0,
0,
0,
0,
0,
0,
0,
0,
0,
0,
0,
0,
0,
0,
0,
0,
0,
0,
0,
0,
0,
0,
0,
0,
0,
0,
0,
0,
0,
0,
0,
0,
0,
0,
0,
0,
0,
0,
0,
0,
0,
0,
0,
0,
0,
0,
0,
0,
0,
0,
0,
0,
0,
0,
0,
0,
0,
0,
0,
0,
0,
0,
0,
0,
0,
0,
0,
0,
0,
0,
0,
0,
0,
0,
0,
0,
0,
0,
0,
0,
0,
0,
0,
0,
0,
0,
0,
0,
0,
0,
0,
0,
0,
0,
0,
0,
0,
0,
0,
0,
0,
0,
0,
0,
0,
0,
0,
0,
0,
0,
0,
0,
0,
0,
0,
0,
0,
0,
0,
0,
0,
0,
0,
0,
0,
0,
0,
0,
0,
0,
0,
0,
0,
0,
0,
0,
0,
0,
0,
0,
0,
0,
0,
0,
0,
0,
0,
0,
0,
0,
0,
0,
0,
0,
0,
0,
0,
0,
0,
0,
0,
0,
0,
0,
0,
0,
0,
0,
0,
0,
0,
0,
0,
0,
0,
0,
0,
0,
0,
0,
0,
0,
0,
0,
0,
0,
0,
0,
0,
0,
0,
0,
0,
0,
0,
0,
0,
0,
0,
0,
0,
0,
0,
0,
0,
0,
0,
0,
0,
0,
0,
0,
0,
0,
0,
0,
0,
0,
0,
0,
0,
0,
0,
0,
0,
0,
0,
0,
0,
0,
0,
0,
0,
0,
0,
0,
0,
0,
0,
0,
0,
0,
0,
0,
0,
0,
0,
0,
0,
0,
#ENDOFDATA   :