File: N132962/Quantification/20 keV/MMM1/SPI MM1 Anhydrite[4][4].msa
#FORMAT      : EMSA/MAS Spectral Data File
#VERSION     : 1.0
#TITLE       : SPI MM1 Anhydrite[4][all]
#DATE        : 11-MAR-2025
#TIME        : 13:48
#OWNER       : Unknown
#NPOINTS     : 4096
#NCOLUMNS    : 1
#XUNITS      : eV
#YUNITS      : counts
#DATATYPE    : Y
#XPERCHAN    : 9.99778
#OFFSET      : 1.69135
#BEAMKV      : 20
#SIGNALTYPE  : EDS
#ELEVANGLE   : 35
#AZIMANGLE   : 0
#LIVETIME    : 239.884
#REALTIME    : 255.076
#PROBECUR    : 1.02853
#TAUWIND     : 0
#TDEADLYR    : 0
#TACTLYR     : 0.045
#TALWIND     : 0.025
#CHOFFSET    : 0.0
#XLABEL      : Energy (eV)
#YLABEL      : Counts
#XPOSITION   : 5.02286
#YPOSITION   : -5.00723
#ZPOSITION   : 30.9284
#EDSDET      : SD
##SPECIMEN   : SPI MM1 Anhydrite[4][all]
##D2STDCMP   : Anhydrite,(O:47.0085),(S:23.5529),(Ca:29.4387),5.0
##DET_HASH   : 12273538-fd48-a23f-0a19-f1e6fa85caef
##CALIB_HASH : 6abaa72c-aa41-8738-0be9-f592914732f3
##WORKING    : 15.0 mm
##DET_NAME   : EDAX All
##DET_MODE   : MediumLE
#SPECTRUM    :
23,
27,
10,
45,
293,
807,
1245,
2722,
8204,
12296,
8483,
4462,
2775,
2218,
3271,
10331,
39950,
77483,
59975,
19600,
4581,
1988,
1859,
2067,
2431,
2342,
2360,
2527,
2619,
2655,
2746,
2669,
2946,
3071,
3148,
3376,
3337,
3575,
3760,
3783,
3834,
3968,
3980,
4159,
4267,
4402,
4488,
4566,
4684,
4704,
4825,
4772,
4776,
4751,
4788,
4713,
4979,
5442,
6152,
6705,
7371,
7050,
6108,
5752,
5972,
5960,
5741,
4763,
4616,
4583,
4601,
4972,
6319,
10558,
25079,
68193,
142034,
182027,
135512,
60078,
21011,
13097,
13633,
11467,
7047,
4088,
3025,
2789,
2704,
2679,
2660,
2732,
2715,
2845,
2870,
2775,
2712,
2723,
2736,
2638,
2607,
2709,
2675,
2598,
2648,
2556,
2567,
2540,
2585,
2579,
2456,
2579,
2443,
2395,
2502,
2524,
2700,
3139,
4240,
8123,
22089,
55847,
104474,
132178,
110452,
62127,
24157,
7763,
3389,
3012,
3699,
6153,
10717,
16387,
17904,
14206,
8396,
4097,
2349,
1868,
1859,
1709,
1674,
1643,
1627,
1641,
1571,
1635,
1651,
1685,
1574,
1636,
1706,
1810,
1691,
1669,
1636,
1562,
1545,
1516,
1607,
1626,
1511,
1497,
1512,
1500,
1507,
1410,
1452,
1453,
1382,
1444,
1439,
1503,
1467,
1408,
1448,
1408,
1381,
1384,
1370,
1379,
1345,
1320,
1298,
1361,
1318,
1314,
1244,
1281,
1260,
1290,
1247,
1264,
1173,
1182,
1228,
1242,
1288,
1366,
1359,
1410,
1297,
1268,
1219,
1081,
1169,
1147,
1156,
1142,
1207,
1200,
1185,
1218,
1251,
1175,
1065,
1090,
1016,
1016,
1078,
1032,
1038,
1079,
960,
1095,
1068,
943,
944,
953,
950,
1002,
971,
931,
948,
906,
936,
939,
938,
885,
893,
870,
919,
876,
959,
972,
919,
976,
956,
946,
880,
927,
838,
879,
818,
809,
792,
788,
816,
788,
816,
719,
750,
779,
834,
706,
759,
766,
768,
725,
738,
697,
718,
735,
743,
686,
730,
665,
707,
715,
686,
665,
676,
699,
670,
643,
656,
663,
633,
650,
660,
651,
674,
619,
644,
665,
592,
620,
584,
592,
626,
571,
612,
603,
627,
562,
559,
558,
586,
556,
599,
572,
529,
543,
557,
533,
558,
535,
510,
545,
513,
518,
488,
513,
545,
526,
514,
486,
506,
514,
531,
487,
452,
470,
454,
480,
487,
462,
415,
487,
433,
432,
444,
440,
436,
436,
416,
470,
420,
444,
419,
413,
437,
407,
380,
392,
396,
378,
427,
383,
409,
389,
354,
426,
361,
349,
360,
373,
358,
369,
344,
328,
363,
362,
319,
347,
341,
338,
329,
315,
319,
341,
331,
338,
293,
305,
283,
319,
327,
294,
301,
280,
290,
256,
281,
285,
264,
280,
274,
290,
246,
255,
266,
273,
258,
260,
237,
247,
244,
240,
247,
206,
237,
259,
222,
222,
226,
236,
247,
252,
215,
213,
195,
205,
212,
231,
196,
220,
188,
213,
236,
176,
212,
208,
164,
191,
211,
207,
187,
200,
153,
172,
203,
215,
189,
194,
164,
171,
162,
169,
164,
156,
150,
158,
163,
177,
167,
159,
171,
157,
155,
167,
138,
158,
142,
123,
135,
146,
165,
162,
156,
172,
155,
147,
148,
162,
122,
115,
102,
126,
110,
107,
121,
129,
104,
112,
114,
102,
109,
91,
119,
96,
99,
111,
106,
83,
89,
112,
96,
94,
95,
91,
72,
97,
80,
73,
83,
88,
81,
99,
70,
75,
77,
83,
74,
86,
75,
71,
81,
69,
65,
80,
69,
74,
76,
77,
57,
65,
70,
55,
65,
72,
70,
73,
57,
52,
55,
54,
55,
69,
53,
51,
43,
45,
53,
49,
49,
59,
46,
45,
46,
38,
44,
40,
61,
47,
47,
33,
43,
29,
37,
38,
34,
35,
44,
51,
50,
31,
26,
36,
48,
33,
32,
29,
23,
28,
34,
29,
30,
20,
30,
30,
39,
28,
38,
37,
34,
22,
20,
33,
24,
21,
19,
15,
19,
14,
25,
23,
18,
18,
17,
22,
11,
11,
15,
27,
11,
18,
13,
22,
16,
26,
13,
20,
13,
14,
12,
15,
8,
13,
6,
6,
10,
8,
13,
13,
8,
9,
11,
8,
7,
6,
10,
8,
9,
7,
6,
11,
6,
3,
6,
9,
5,
7,
3,
7,
6,
5,
7,
3,
6,
5,
2,
2,
3,
3,
4,
0,
4,
1,
0,
2,
3,
1,
1,
0,
2,
4,
0,
0,
0,
0,
0,
0,
0,
2,
0,
1,
0,
2,
0,
0,
0,
0,
1,
0,
0,
1,
1,
0,
2,
0,
1,
0,
0,
1,
1,
0,
1,
0,
0,
0,
0,
0,
0,
0,
0,
1,
0,
0,
0,
0,
0,
0,
0,
4,
0,
1,
0,
0,
0,
0,
1,
0,
0,
0,
0,
0,
0,
0,
0,
0,
0,
0,
0,
0,
0,
0,
0,
0,
0,
0,
0,
0,
0,
0,
0,
0,
0,
0,
0,
1,
0,
0,
0,
0,
0,
0,
0,
0,
0,
0,
0,
0,
0,
0,
0,
0,
0,
0,
0,
0,
1,
1,
0,
1,
0,
0,
0,
0,
0,
0,
0,
0,
0,
0,
0,
0,
0,
0,
0,
1,
0,
0,
0,
1,
0,
0,
0,
0,
0,
0,
0,
0,
0,
0,
0,
0,
0,
1,
0,
0,
0,
0,
0,
0,
0,
0,
0,
0,
0,
0,
0,
0,
0,
0,
0,
0,
0,
0,
0,
0,
0,
0,
0,
0,
0,
0,
0,
0,
0,
0,
0,
0,
0,
0,
0,
0,
0,
0,
0,
0,
0,
0,
0,
0,
0,
0,
0,
0,
0,
0,
0,
0,
0,
1,
1,
0,
0,
0,
0,
0,
0,
0,
0,
0,
0,
0,
0,
0,
0,
0,
0,
1,
0,
0,
0,
0,
0,
0,
0,
0,
0,
0,
0,
0,
0,
0,
0,
0,
0,
0,
0,
0,
0,
0,
0,
0,
0,
0,
0,
0,
0,
0,
0,
0,
0,
0,
0,
0,
0,
0,
0,
0,
0,
0,
0,
0,
0,
0,
0,
0,
0,
0,
0,
0,
0,
0,
0,
0,
0,
0,
0,
0,
0,
0,
0,
0,
0,
0,
0,
0,
0,
0,
0,
0,
0,
0,
0,
0,
0,
0,
0,
0,
0,
0,
0,
0,
0,
0,
0,
0,
0,
0,
0,
0,
0,
0,
0,
0,
0,
0,
0,
0,
0,
0,
0,
0,
0,
0,
0,
0,
0,
0,
0,
0,
0,
0,
0,
0,
0,
0,
0,
0,
0,
0,
0,
0,
0,
0,
0,
0,
0,
0,
0,
0,
0,
0,
0,
0,
0,
0,
0,
0,
0,
0,
0,
0,
0,
0,
0,
0,
0,
0,
0,
0,
0,
0,
0,
0,
0,
0,
0,
0,
0,
0,
0,
0,
0,
0,
0,
0,
0,
0,
0,
0,
0,
0,
0,
0,
0,
0,
0,
0,
0,
0,
0,
0,
0,
0,
0,
0,
0,
0,
0,
0,
0,
0,
0,
0,
0,
0,
0,
0,
0,
0,
0,
0,
0,
0,
0,
0,
0,
0,
0,
0,
0,
0,
0,
0,
0,
0,
0,
0,
0,
0,
0,
0,
0,
0,
0,
0,
0,
0,
0,
0,
0,
0,
0,
0,
0,
0,
0,
0,
0,
0,
0,
0,
0,
0,
0,
0,
0,
0,
0,
0,
0,
0,
0,
0,
0,
0,
0,
0,
0,
0,
0,
0,
0,
0,
0,
0,
0,
0,
0,
0,
0,
0,
0,
0,
0,
0,
0,
0,
0,
0,
0,
0,
0,
0,
0,
0,
0,
0,
0,
0,
0,
0,
0,
0,
0,
0,
0,
0,
0,
0,
0,
0,
0,
0,
0,
0,
0,
0,
0,
0,
0,
0,
0,
0,
0,
0,
0,
0,
0,
0,
0,
0,
0,
0,
0,
0,
0,
0,
0,
0,
0,
0,
0,
0,
0,
0,
0,
0,
0,
0,
0,
0,
0,
0,
0,
0,
0,
0,
0,
0,
0,
0,
0,
0,
0,
0,
0,
0,
0,
0,
0,
0,
0,
0,
0,
0,
0,
0,
0,
0,
0,
0,
0,
0,
0,
0,
0,
0,
0,
0,
0,
0,
0,
0,
0,
0,
0,
0,
0,
0,
0,
0,
0,
0,
0,
0,
0,
0,
0,
0,
0,
0,
0,
0,
0,
0,
0,
0,
0,
0,
0,
0,
0,
0,
0,
0,
0,
0,
0,
0,
0,
0,
0,
0,
0,
0,
0,
0,
0,
0,
0,
0,
0,
0,
0,
0,
0,
0,
0,
0,
0,
0,
0,
0,
0,
0,
0,
0,
0,
0,
0,
0,
0,
0,
0,
0,
0,
0,
0,
0,
0,
0,
0,
0,
0,
0,
0,
0,
0,
0,
0,
0,
0,
0,
0,
0,
0,
0,
0,
0,
#ENDOFDATA   :