File: N132962/Quantification/20 keV/MMM1/SPI MM1 Albite[0][4].msa
#FORMAT      : EMSA/MAS Spectral Data File
#VERSION     : 1.0
#TITLE       : SPI MM1 Albite[0][all]
#DATE        : 11-MAR-2025
#TIME        : 12:48
#OWNER       : Unknown
#NPOINTS     : 4096
#NCOLUMNS    : 1
#XUNITS      : eV
#YUNITS      : counts
#DATATYPE    : Y
#XPERCHAN    : 9.99778
#OFFSET      : 1.69135
#BEAMKV      : 20
#SIGNALTYPE  : EDS
#ELEVANGLE   : 35
#AZIMANGLE   : 0
#LIVETIME    : 239.85
#REALTIME    : 255.9752
#PROBECUR    : 1.02699
#TAUWIND     : 0
#TDEADLYR    : 0
#TACTLYR     : 0.045
#TALWIND     : 0.025
#CHOFFSET    : 0.0
#XLABEL      : Energy (eV)
#YLABEL      : Counts
#XPOSITION   : 3.45778
#YPOSITION   : -7.05357
#ZPOSITION   : 30.9284
#EDSDET      : SD
##SPECIMEN   : SPI MM1 Albite[0][all]
##D2STDCMP   : Albite,(O:48.8112),(Na:8.7674),(Al:10.2897),(Si:32.1316)
##DET_HASH   : 12273538-fd48-a23f-0a19-f1e6fa85caef
##CALIB_HASH : 6abaa72c-aa41-8738-0be9-f592914732f3
##WORKING    : 15.0 mm
##DET_NAME   : EDAX All
##DET_MODE   : MediumLE
#SPECTRUM    :
31,
40,
14,
20,
85,
263,
807,
2261,
6672,
8803,
4856,
2409,
2495,
3413,
6543,
25536,
102217,
197691,
145194,
39111,
5213,
1761,
1824,
2089,
2184,
2215,
2294,
2504,
2767,
2884,
3131,
3822,
6928,
20577,
47105,
52426,
26879,
8208,
3793,
3431,
3507,
3626,
3709,
4056,
4227,
4441,
5793,
13427,
43166,
84129,
85730,
45839,
16669,
7412,
6602,
18080,
73708,
190123,
257757,
182569,
73807,
24030,
10575,
4895,
2675,
2206,
2206,
2318,
2180,
2111,
2091,
2115,
2144,
2345,
2634,
2698,
2753,
2416,
2306,
2220,
2178,
2133,
2114,
2200,
2201,
2172,
2154,
2196,
2114,
2131,
2164,
2187,
2237,
2280,
2163,
2188,
2102,
2037,
2043,
2054,
2034,
1990,
1979,
1936,
1986,
2077,
2088,
2220,
2467,
2406,
2637,
2440,
2278,
2037,
1970,
2164,
2250,
2168,
1965,
2020,
1887,
2013,
2125,
2233,
2120,
1912,
1896,
1719,
1610,
1643,
1640,
1666,
1643,
1731,
1676,
1624,
1604,
1589,
1550,
1543,
1528,
1522,
1504,
1511,
1440,
1429,
1466,
1460,
1514,
1411,
1416,
1469,
1420,
1399,
1374,
1377,
1340,
1411,
1351,
1297,
1362,
1322,
1317,
1287,
1280,
1295,
1233,
1250,
1251,
1216,
1166,
1226,
1205,
1175,
1219,
1184,
1138,
1158,
1172,
1154,
1130,
1118,
1185,
1073,
1113,
1062,
1036,
1073,
1078,
982,
1062,
1074,
1059,
1033,
1045,
995,
972,
966,
1050,
1031,
909,
995,
960,
919,
943,
923,
924,
958,
945,
927,
896,
958,
968,
921,
972,
925,
874,
839,
803,
768,
811,
770,
835,
823,
815,
818,
795,
767,
727,
827,
749,
808,
777,
763,
733,
739,
736,
736,
716,
710,
711,
690,
682,
720,
701,
663,
655,
684,
695,
674,
679,
699,
663,
674,
647,
624,
637,
616,
648,
626,
658,
633,
646,
609,
618,
574,
602,
613,
645,
583,
592,
556,
552,
579,
578,
557,
556,
547,
502,
544,
550,
505,
511,
546,
520,
508,
468,
517,
523,
516,
492,
475,
480,
475,
529,
480,
457,
502,
488,
468,
444,
412,
435,
461,
437,
431,
479,
452,
480,
416,
432,
439,
411,
413,
401,
394,
405,
450,
423,
413,
366,
390,
384,
422,
377,
416,
392,
379,
390,
359,
397,
403,
340,
375,
373,
360,
382,
377,
340,
300,
345,
326,
341,
308,
311,
353,
336,
299,
320,
330,
346,
323,
299,
294,
344,
310,
267,
301,
300,
281,
294,
282,
278,
290,
258,
264,
286,
263,
276,
282,
228,
263,
232,
265,
248,
265,
281,
248,
234,
240,
259,
251,
230,
242,
222,
254,
213,
247,
249,
228,
203,
213,
214,
225,
211,
216,
191,
223,
202,
179,
179,
205,
195,
213,
206,
198,
211,
173,
218,
183,
193,
197,
156,
172,
163,
165,
168,
195,
178,
165,
164,
167,
146,
182,
171,
147,
162,
158,
136,
135,
144,
147,
159,
130,
159,
142,
135,
159,
149,
149,
135,
128,
144,
151,
137,
135,
146,
127,
117,
126,
139,
109,
108,
141,
121,
111,
111,
107,
115,
119,
95,
114,
106,
114,
119,
99,
100,
102,
77,
93,
90,
76,
98,
112,
100,
90,
110,
76,
87,
97,
96,
87,
93,
105,
75,
84,
92,
95,
74,
68,
93,
76,
81,
63,
67,
68,
80,
57,
65,
72,
67,
61,
69,
80,
65,
60,
48,
56,
72,
61,
56,
71,
54,
44,
57,
51,
52,
56,
53,
50,
46,
56,
55,
49,
53,
47,
46,
48,
42,
48,
51,
50,
36,
59,
35,
39,
44,
46,
27,
45,
54,
45,
40,
37,
47,
48,
33,
43,
31,
25,
24,
45,
44,
32,
35,
31,
32,
37,
29,
28,
17,
35,
44,
29,
26,
33,
29,
23,
25,
27,
30,
27,
21,
22,
15,
25,
21,
20,
30,
20,
26,
18,
28,
16,
20,
17,
25,
18,
19,
11,
16,
15,
20,
11,
11,
13,
16,
19,
17,
11,
9,
16,
13,
23,
11,
10,
18,
10,
16,
12,
13,
12,
8,
14,
5,
15,
13,
16,
13,
6,
9,
5,
6,
1,
9,
8,
4,
5,
9,
8,
4,
9,
6,
7,
12,
7,
5,
3,
2,
5,
6,
3,
2,
2,
10,
3,
6,
4,
6,
1,
3,
3,
3,
0,
2,
3,
3,
3,
5,
4,
1,
1,
1,
2,
0,
0,
0,
0,
0,
0,
1,
0,
0,
0,
0,
0,
0,
0,
0,
0,
0,
0,
0,
0,
0,
0,
0,
0,
0,
0,
0,
0,
0,
0,
0,
0,
0,
0,
0,
0,
0,
0,
1,
0,
0,
0,
0,
0,
0,
0,
0,
0,
0,
0,
0,
0,
0,
0,
0,
0,
0,
0,
0,
0,
0,
0,
0,
0,
0,
0,
0,
0,
0,
0,
0,
0,
0,
0,
0,
0,
0,
0,
0,
0,
0,
0,
0,
0,
0,
0,
1,
0,
0,
0,
0,
0,
0,
0,
0,
0,
0,
0,
0,
0,
0,
0,
1,
0,
0,
0,
0,
0,
0,
0,
0,
0,
0,
0,
1,
0,
0,
0,
0,
0,
0,
0,
0,
0,
0,
0,
0,
0,
0,
0,
0,
0,
0,
0,
0,
0,
0,
0,
0,
0,
0,
0,
0,
0,
0,
0,
0,
0,
0,
0,
0,
0,
0,
0,
0,
0,
0,
0,
0,
0,
0,
0,
0,
0,
0,
0,
0,
0,
0,
0,
0,
0,
0,
0,
0,
0,
0,
0,
0,
0,
0,
0,
0,
0,
0,
0,
0,
0,
0,
0,
0,
0,
0,
0,
0,
0,
0,
0,
0,
0,
0,
0,
0,
0,
0,
0,
0,
0,
0,
0,
0,
0,
0,
0,
0,
0,
0,
0,
0,
0,
0,
0,
0,
0,
0,
0,
0,
0,
0,
0,
0,
0,
0,
0,
0,
0,
0,
0,
0,
0,
0,
0,
0,
0,
0,
0,
0,
0,
0,
0,
0,
0,
0,
0,
0,
0,
0,
0,
0,
0,
0,
0,
0,
0,
0,
0,
0,
0,
0,
0,
0,
0,
0,
0,
0,
0,
0,
0,
0,
0,
0,
0,
0,
0,
0,
0,
0,
0,
0,
0,
0,
0,
0,
0,
0,
0,
0,
0,
0,
0,
0,
0,
0,
0,
0,
0,
0,
0,
0,
0,
0,
0,
0,
0,
0,
0,
0,
0,
0,
0,
0,
0,
0,
0,
0,
0,
0,
0,
0,
0,
0,
0,
0,
0,
0,
0,
0,
0,
0,
0,
0,
0,
0,
0,
0,
0,
0,
0,
0,
0,
0,
0,
0,
0,
0,
0,
0,
0,
0,
0,
0,
0,
0,
0,
0,
0,
0,
0,
0,
0,
0,
0,
0,
0,
0,
0,
0,
0,
0,
0,
0,
0,
0,
0,
0,
0,
0,
0,
0,
0,
0,
0,
0,
0,
0,
0,
0,
0,
0,
0,
0,
0,
0,
0,
0,
0,
0,
0,
0,
0,
0,
0,
0,
0,
0,
0,
0,
0,
0,
0,
0,
0,
0,
0,
0,
0,
0,
0,
0,
0,
0,
0,
0,
0,
0,
0,
0,
0,
0,
0,
0,
0,
0,
0,
0,
0,
0,
0,
0,
0,
0,
0,
0,
0,
0,
0,
0,
0,
0,
0,
0,
0,
0,
0,
0,
0,
0,
0,
0,
0,
0,
0,
0,
0,
0,
0,
0,
0,
0,
0,
0,
0,
0,
0,
0,
0,
0,
0,
0,
0,
0,
0,
0,
0,
0,
0,
0,
0,
0,
0,
0,
0,
0,
0,
0,
0,
0,
0,
0,
0,
0,
0,
0,
0,
0,
0,
0,
0,
0,
0,
0,
0,
0,
0,
0,
0,
0,
0,
0,
0,
0,
0,
0,
0,
0,
0,
0,
0,
0,
0,
0,
0,
0,
0,
0,
0,
0,
0,
0,
0,
0,
0,
0,
0,
0,
0,
0,
0,
0,
0,
0,
0,
0,
0,
0,
0,
0,
0,
0,
0,
0,
0,
0,
0,
0,
0,
0,
0,
0,
0,
0,
0,
0,
0,
0,
0,
0,
0,
0,
0,
0,
0,
0,
0,
0,
0,
0,
0,
0,
0,
0,
0,
0,
0,
0,
0,
0,
0,
0,
0,
0,
0,
0,
0,
0,
0,
0,
0,
0,
0,
0,
0,
0,
0,
0,
0,
0,
0,
0,
0,
0,
0,
0,
0,
0,
0,
0,
0,
0,
0,
0,
0,
0,
0,
0,
0,
0,
0,
0,
0,
0,
0,
0,
0,
0,
0,
0,
0,
0,
0,
0,
0,
0,
0,
0,
0,
0,
0,
0,
0,
0,
0,
0,
0,
0,
0,
0,
0,
0,
0,
0,
0,
0,
0,
0,
0,
0,
0,
0,
0,
0,
0,
0,
0,
0,
0,
0,
0,
0,
0,
0,
0,
#ENDOFDATA   :