File: N132962/Quantification/20 keV/MMM1/SPI MM1 Chromite[1][4].msa
#FORMAT      : EMSA/MAS Spectral Data File
#VERSION     : 1.0
#TITLE       : SPI MM1dup Chromite[1][all]
#DATE        : 12-MAR-2025
#TIME        : 14:10
#OWNER       : Unknown
#NPOINTS     : 4096
#NCOLUMNS    : 1
#XUNITS      : eV
#YUNITS      : counts
#DATATYPE    : Y
#XPERCHAN    : 9.99778
#OFFSET      : 1.69135
#BEAMKV      : 20
#SIGNALTYPE  : EDS
#ELEVANGLE   : 35
#AZIMANGLE   : 0
#LIVETIME    : 239.986
#REALTIME    : 256.301
#PROBECUR    : 1.02627
#TAUWIND     : 0
#TDEADLYR    : 0
#TACTLYR     : 0.045
#TALWIND     : 0.025
#CHOFFSET    : 0.0
#XLABEL      : Energy (eV)
#YLABEL      : Counts
#XPOSITION   : 4.29382
#YPOSITION   : -0.22923
#ZPOSITION   : 31.03608
#EDSDET      : SD
##SPECIMEN   : SPI MM1dup Chromite[1][all]
##DET_HASH   : 12273538-fd48-a23f-0a19-f1e6fa85caef
##CALIB_HASH : 6abaa72c-aa41-8738-0be9-f592914732f3
##WORKING    : 15.0 mm
##DET_NAME   : EDAX All
##DET_MODE   : MediumLE
#SPECTRUM    :
23,
25,
12,
15,
80,
329,
1038,
3109,
8506,
11326,
6472,
3833,
4094,
5646,
10534,
36603,
128523,
234688,
170641,
50897,
10938,
4301,
4661,
7004,
6671,
3939,
2425,
2397,
2486,
2476,
2405,
2513,
2676,
2924,
3326,
3393,
3438,
3586,
4147,
6906,
20162,
48124,
57265,
33330,
11631,
5136,
4894,
11190,
35780,
71679,
72398,
38233,
13041,
5529,
3806,
3336,
3516,
3915,
4197,
4079,
3902,
3569,
3487,
3380,
3358,
3424,
3541,
3662,
3525,
3427,
3375,
3357,
3433,
3305,
3359,
3395,
3295,
3399,
3378,
3317,
3323,
3415,
3352,
3282,
3370,
3315,
3347,
3264,
3416,
3222,
3310,
3284,
3214,
3216,
3256,
3233,
3075,
3167,
3074,
3123,
3013,
3109,
2986,
3030,
2997,
2833,
2790,
2976,
2937,
2829,
2736,
2872,
2876,
2800,
2753,
2755,
2681,
2770,
2815,
2748,
2867,
3056,
3083,
2987,
2830,
2605,
2508,
2607,
2532,
2464,
2558,
2436,
2424,
2427,
2316,
2469,
2375,
2385,
2404,
2355,
2304,
2371,
2307,
2278,
2216,
2177,
2254,
2273,
2287,
2380,
2483,
2317,
2278,
2221,
2171,
2112,
2101,
2050,
2125,
1933,
1928,
1925,
2086,
2092,
2282,
2316,
2250,
2112,
1980,
1856,
1889,
1954,
1982,
2057,
2293,
3266,
6662,
16142,
36921,
64468,
84043,
81713,
57740,
30769,
12905,
4972,
2508,
1858,
1693,
1652,
1747,
1754,
1827,
2267,
2865,
4718,
7748,
10985,
12664,
11412,
8200,
4674,
2771,
1851,
1477,
1343,
1349,
1354,
1715,
2810,
5333,
9870,
15060,
18418,
17242,
12999,
7517,
3949,
2125,
1449,
1247,
1196,
1276,
1172,
1222,
1194,
1163,
1117,
1254,
1302,
1352,
1558,
1902,
2596,
3125,
3282,
3163,
2529,
1868,
1354,
1162,
1014,
994,
993,
1019,
1050,
1064,
1128,
1171,
1189,
1186,
1079,
1036,
969,
921,
961,
899,
913,
918,
901,
884,
862,
874,
907,
915,
887,
830,
823,
837,
821,
866,
850,
868,
797,
810,
856,
866,
827,
809,
780,
791,
793,
742,
757,
778,
736,
767,
818,
756,
751,
769,
722,
761,
781,
682,
730,
743,
703,
752,
709,
707,
686,
692,
700,
689,
660,
660,
688,
657,
615,
639,
662,
698,
636,
612,
612,
639,
615,
600,
628,
578,
555,
621,
591,
580,
560,
599,
604,
565,
631,
546,
549,
512,
552,
536,
552,
528,
564,
503,
545,
534,
543,
537,
497,
519,
481,
514,
526,
524,
484,
509,
521,
441,
485,
483,
453,
473,
465,
493,
507,
533,
537,
424,
462,
442,
445,
448,
419,
406,
425,
421,
442,
386,
390,
394,
412,
376,
423,
408,
397,
409,
360,
383,
363,
357,
367,
369,
343,
343,
355,
392,
374,
373,
345,
312,
361,
358,
284,
359,
299,
318,
316,
288,
308,
306,
311,
301,
286,
306,
303,
316,
299,
287,
284,
278,
289,
277,
259,
295,
268,
262,
271,
276,
253,
272,
269,
262,
258,
270,
262,
255,
253,
247,
245,
232,
229,
255,
237,
249,
222,
245,
225,
221,
225,
221,
189,
207,
196,
221,
210,
185,
198,
200,
164,
208,
170,
183,
180,
211,
204,
169,
176,
190,
179,
180,
147,
167,
154,
170,
176,
151,
175,
145,
155,
154,
190,
153,
163,
139,
140,
149,
131,
143,
142,
132,
145,
139,
148,
126,
136,
142,
110,
121,
117,
130,
135,
123,
117,
126,
123,
122,
107,
123,
118,
105,
121,
113,
110,
110,
104,
87,
112,
112,
107,
99,
89,
81,
88,
80,
102,
86,
89,
92,
83,
75,
81,
93,
71,
86,
60,
67,
79,
65,
81,
79,
78,
76,
71,
78,
77,
65,
68,
68,
65,
79,
65,
60,
52,
62,
54,
49,
61,
43,
70,
53,
61,
52,
71,
47,
58,
35,
42,
40,
45,
36,
59,
29,
49,
46,
36,
39,
46,
57,
41,
45,
53,
37,
34,
33,
36,
33,
33,
26,
21,
28,
33,
34,
35,
29,
40,
29,
16,
31,
33,
36,
27,
23,
22,
27,
16,
29,
25,
25,
16,
28,
18,
26,
26,
22,
21,
19,
22,
27,
26,
13,
17,
18,
14,
10,
18,
14,
18,
14,
10,
9,
10,
18,
13,
15,
13,
13,
13,
6,
12,
9,
5,
10,
9,
6,
15,
6,
5,
10,
7,
11,
10,
6,
7,
6,
13,
6,
2,
2,
1,
1,
6,
2,
3,
6,
3,
2,
0,
3,
1,
0,
0,
0,
0,
2,
0,
2,
1,
0,
0,
1,
0,
0,
1,
0,
0,
0,
0,
0,
0,
0,
1,
1,
0,
0,
0,
0,
1,
0,
1,
0,
0,
0,
1,
0,
0,
0,
2,
0,
1,
1,
0,
0,
0,
0,
0,
0,
0,
0,
0,
0,
3,
0,
0,
1,
0,
1,
0,
0,
0,
1,
0,
0,
0,
0,
0,
0,
0,
1,
1,
0,
0,
0,
1,
0,
1,
0,
0,
0,
0,
1,
0,
0,
0,
0,
0,
0,
0,
1,
0,
0,
0,
0,
0,
0,
0,
0,
1,
0,
0,
1,
0,
0,
0,
0,
0,
0,
0,
0,
0,
0,
0,
0,
0,
1,
0,
0,
0,
0,
0,
0,
0,
0,
0,
0,
0,
0,
0,
0,
0,
0,
0,
0,
0,
0,
1,
0,
0,
0,
0,
0,
0,
0,
0,
0,
0,
0,
0,
0,
0,
0,
0,
0,
0,
0,
0,
0,
0,
1,
0,
0,
0,
0,
0,
0,
0,
0,
0,
0,
0,
0,
0,
0,
0,
0,
0,
0,
0,
0,
0,
0,
0,
0,
0,
0,
0,
0,
0,
0,
0,
0,
0,
0,
0,
0,
0,
0,
0,
0,
0,
0,
0,
0,
0,
0,
0,
0,
0,
0,
0,
0,
0,
0,
0,
0,
0,
0,
0,
0,
0,
0,
0,
0,
0,
0,
0,
0,
0,
0,
0,
0,
1,
0,
0,
0,
0,
0,
0,
0,
0,
0,
0,
0,
0,
0,
0,
0,
0,
0,
0,
0,
1,
0,
0,
0,
0,
0,
0,
0,
0,
0,
0,
0,
0,
0,
0,
0,
0,
0,
0,
0,
0,
0,
0,
0,
0,
0,
0,
0,
0,
0,
0,
0,
0,
0,
0,
0,
0,
0,
0,
0,
0,
0,
0,
0,
0,
0,
0,
0,
0,
0,
0,
0,
0,
0,
0,
0,
0,
0,
0,
0,
0,
0,
0,
0,
0,
0,
0,
0,
0,
0,
0,
0,
0,
0,
0,
0,
0,
0,
0,
0,
0,
0,
0,
0,
0,
0,
0,
0,
0,
0,
0,
0,
0,
0,
0,
0,
0,
0,
0,
0,
0,
0,
0,
0,
0,
0,
0,
0,
0,
0,
0,
0,
0,
0,
0,
0,
0,
0,
0,
0,
0,
0,
0,
0,
0,
0,
0,
0,
0,
0,
0,
0,
0,
0,
0,
0,
0,
0,
0,
0,
0,
0,
0,
0,
0,
0,
0,
0,
0,
0,
0,
0,
0,
0,
0,
0,
0,
0,
0,
0,
0,
0,
0,
0,
0,
0,
0,
0,
0,
0,
0,
0,
0,
0,
0,
0,
0,
0,
0,
0,
0,
0,
0,
0,
0,
0,
0,
0,
0,
0,
0,
0,
0,
0,
0,
0,
0,
0,
0,
0,
0,
0,
0,
0,
0,
0,
0,
0,
0,
0,
0,
0,
0,
0,
0,
0,
0,
0,
0,
0,
0,
0,
0,
0,
0,
0,
0,
0,
0,
0,
0,
0,
0,
0,
0,
0,
0,
0,
0,
0,
0,
0,
0,
0,
0,
0,
0,
0,
0,
0,
0,
0,
0,
0,
0,
0,
0,
0,
0,
0,
0,
0,
0,
0,
0,
0,
0,
0,
0,
0,
0,
0,
0,
0,
0,
0,
0,
0,
0,
0,
0,
0,
0,
0,
0,
0,
0,
0,
0,
0,
0,
0,
0,
0,
0,
0,
0,
0,
0,
0,
0,
0,
0,
0,
0,
0,
0,
0,
0,
0,
0,
0,
0,
0,
0,
0,
0,
0,
0,
0,
0,
0,
0,
0,
0,
0,
0,
0,
0,
0,
0,
0,
0,
0,
0,
0,
0,
0,
0,
0,
0,
0,
0,
0,
0,
0,
0,
0,
0,
0,
0,
0,
0,
0,
0,
0,
0,
0,
0,
0,
0,
0,
0,
0,
0,
0,
0,
0,
0,
0,
0,
0,
0,
0,
0,
0,
0,
0,
0,
0,
0,
0,
0,
0,
0,
0,
0,
0,
0,
0,
0,
0,
0,
0,
0,
0,
0,
0,
0,
0,
0,
0,
0,
0,
0,
0,
0,
0,
0,
0,
0,
0,
0,
0,
0,
0,
0,
0,
0,
0,
0,
0,
0,
0,
0,
0,
0,
0,
0,
0,
0,
0,
0,
0,
0,
0,
0,
0,
0,
0,
0,
0,
0,
0,
0,
0,
0,
0,
0,
0,
0,
#ENDOFDATA   :