File: N132962/Quantification/20 keV/MMM1/SPI MM1 Kyanite[7][4].msa
#FORMAT      : EMSA/MAS Spectral Data File
#VERSION     : 1.0
#TITLE       : SPI MM1dup Kyanite[7][all]
#DATE        : 12-MAR-2025
#TIME        : 16:18
#OWNER       : Unknown
#NPOINTS     : 4096
#NCOLUMNS    : 1
#XUNITS      : eV
#YUNITS      : counts
#DATATYPE    : Y
#XPERCHAN    : 9.99778
#OFFSET      : 1.69135
#BEAMKV      : 20
#SIGNALTYPE  : EDS
#ELEVANGLE   : 35
#AZIMANGLE   : 0
#LIVETIME    : 239.832
#REALTIME    : 256.613
#PROBECUR    : 1.02709
#TAUWIND     : 0
#TDEADLYR    : 0
#TACTLYR     : 0.045
#TALWIND     : 0.025
#CHOFFSET    : 0.0
#XLABEL      : Energy (eV)
#YLABEL      : Counts
#XPOSITION   : -4.14302
#YPOSITION   : 4.18045
#ZPOSITION   : 31.03608
#EDSDET      : SD
##SPECIMEN   : SPI MM1dup Kyanite[7][all]
##DET_HASH   : 12273538-fd48-a23f-0a19-f1e6fa85caef
##CALIB_HASH : 6abaa72c-aa41-8738-0be9-f592914732f3
##WORKING    : 15.0 mm
##DET_NAME   : EDAX All
##DET_MODE   : MediumLE
#SPECTRUM    :
34,
32,
11,
13,
66,
274,
772,
2247,
6422,
8692,
4696,
2324,
2477,
3408,
6437,
25538,
104649,
203789,
149415,
39319,
4865,
1745,
1765,
2003,
2093,
2130,
2144,
2369,
2568,
2763,
2842,
2975,
3069,
3509,
3705,
3884,
3763,
3838,
3946,
4029,
4355,
4811,
5030,
5414,
5909,
6535,
10460,
37836,
140552,
291061,
295872,
151103,
44554,
11743,
5344,
9191,
32778,
82673,
112830,
79896,
32740,
11561,
5786,
3223,
2396,
2410,
2829,
3084,
2787,
2334,
2072,
1991,
2092,
2115,
2358,
2439,
2365,
2185,
2198,
2124,
2102,
2136,
2153,
2113,
2108,
2159,
2088,
2170,
2123,
2112,
1999,
2033,
2046,
2183,
2047,
2014,
2105,
2279,
2582,
2573,
2637,
2280,
2249,
1985,
2103,
1994,
2178,
2376,
2334,
2173,
2054,
1969,
1939,
1896,
1930,
1913,
1920,
1845,
1759,
1796,
1784,
1810,
1752,
1765,
1701,
1717,
1622,
1634,
1782,
1705,
1678,
1590,
1627,
1638,
1612,
1559,
1555,
1614,
1529,
1446,
1538,
1469,
1530,
1406,
1543,
1505,
1426,
1476,
1450,
1448,
1382,
1405,
1379,
1397,
1373,
1349,
1376,
1377,
1365,
1349,
1355,
1331,
1322,
1314,
1263,
1259,
1271,
1302,
1219,
1283,
1221,
1212,
1234,
1210,
1184,
1168,
1190,
1154,
1201,
1210,
1199,
1146,
1167,
1143,
1143,
1133,
1046,
1057,
1062,
1071,
1035,
1048,
1053,
1039,
1026,
1054,
988,
1021,
1014,
1008,
988,
980,
966,
957,
948,
928,
958,
897,
911,
930,
1019,
1103,
1138,
1173,
1167,
1046,
988,
897,
831,
800,
802,
871,
871,
795,
827,
797,
841,
823,
824,
779,
715,
775,
795,
790,
765,
788,
735,
807,
800,
761,
714,
691,
728,
690,
707,
665,
706,
692,
729,
744,
672,
719,
646,
698,
672,
628,
668,
629,
637,
586,
605,
607,
581,
570,
600,
639,
608,
583,
598,
580,
546,
623,
590,
547,
573,
567,
534,
565,
551,
519,
552,
532,
519,
561,
497,
526,
500,
548,
496,
511,
534,
503,
490,
505,
507,
474,
452,
442,
459,
491,
478,
483,
457,
458,
445,
426,
463,
460,
405,
413,
410,
433,
421,
462,
412,
434,
406,
343,
420,
393,
374,
384,
364,
375,
381,
382,
356,
395,
372,
387,
364,
374,
383,
365,
316,
350,
324,
364,
333,
330,
365,
365,
377,
338,
335,
354,
329,
314,
307,
300,
306,
316,
294,
303,
299,
332,
312,
301,
305,
322,
279,
273,
311,
260,
278,
285,
283,
268,
261,
236,
277,
281,
279,
234,
239,
266,
263,
244,
264,
244,
257,
231,
218,
232,
226,
230,
230,
229,
231,
203,
244,
229,
189,
203,
205,
186,
208,
204,
220,
208,
190,
190,
203,
177,
186,
182,
184,
203,
189,
167,
190,
170,
180,
184,
152,
177,
170,
189,
174,
149,
163,
149,
156,
171,
157,
143,
153,
160,
154,
137,
136,
149,
147,
143,
140,
150,
139,
132,
139,
133,
136,
133,
136,
144,
132,
128,
122,
128,
136,
107,
126,
126,
139,
123,
113,
104,
114,
115,
101,
120,
125,
121,
104,
101,
101,
125,
96,
102,
112,
106,
98,
110,
98,
98,
110,
95,
101,
88,
88,
101,
77,
67,
79,
80,
93,
67,
84,
69,
86,
76,
67,
66,
73,
69,
83,
71,
75,
70,
73,
54,
58,
73,
81,
70,
59,
59,
62,
85,
72,
66,
76,
56,
51,
63,
47,
76,
62,
60,
51,
49,
46,
50,
44,
49,
51,
40,
45,
44,
39,
45,
48,
35,
49,
47,
45,
30,
41,
50,
50,
48,
32,
27,
30,
40,
35,
26,
34,
33,
28,
45,
25,
27,
38,
32,
28,
32,
38,
31,
36,
33,
30,
22,
24,
29,
35,
30,
22,
28,
21,
14,
25,
23,
19,
27,
22,
21,
17,
28,
20,
20,
16,
13,
18,
18,
23,
14,
14,
22,
28,
23,
16,
25,
20,
16,
17,
12,
18,
20,
12,
13,
22,
22,
15,
17,
7,
17,
8,
13,
11,
6,
15,
11,
11,
6,
17,
12,
9,
11,
15,
7,
2,
6,
8,
12,
9,
7,
3,
10,
7,
8,
7,
12,
8,
6,
7,
8,
8,
4,
3,
7,
3,
1,
6,
5,
2,
5,
3,
7,
1,
3,
2,
6,
1,
3,
2,
1,
1,
1,
2,
0,
1,
1,
1,
1,
0,
1,
0,
1,
0,
0,
0,
0,
0,
0,
0,
1,
0,
0,
0,
0,
0,
0,
0,
0,
0,
0,
0,
0,
0,
0,
0,
0,
0,
0,
0,
0,
0,
0,
0,
0,
0,
0,
0,
0,
0,
0,
0,
0,
0,
0,
0,
0,
0,
0,
0,
1,
0,
0,
0,
1,
0,
0,
1,
0,
0,
0,
1,
0,
0,
0,
0,
0,
0,
0,
0,
0,
0,
0,
0,
0,
0,
0,
0,
0,
0,
0,
0,
0,
0,
0,
0,
0,
0,
0,
0,
0,
0,
0,
0,
0,
1,
0,
0,
0,
0,
0,
0,
0,
0,
0,
0,
0,
0,
0,
0,
0,
0,
0,
0,
0,
0,
0,
0,
0,
0,
0,
0,
0,
0,
0,
0,
0,
0,
0,
0,
0,
0,
0,
0,
0,
0,
0,
0,
0,
0,
0,
0,
0,
0,
0,
0,
0,
0,
0,
0,
0,
0,
0,
0,
0,
0,
0,
0,
0,
1,
0,
0,
0,
0,
0,
0,
0,
0,
0,
0,
0,
0,
0,
0,
0,
0,
0,
0,
0,
0,
0,
0,
0,
0,
0,
0,
0,
0,
0,
0,
0,
0,
0,
0,
0,
0,
0,
0,
0,
0,
0,
0,
0,
0,
0,
0,
0,
0,
0,
0,
0,
0,
0,
0,
0,
0,
0,
0,
0,
0,
0,
0,
0,
0,
0,
0,
0,
0,
0,
0,
0,
0,
0,
0,
0,
0,
0,
0,
0,
0,
0,
0,
0,
0,
0,
0,
0,
0,
0,
0,
0,
0,
0,
0,
0,
0,
0,
0,
0,
1,
0,
0,
0,
1,
0,
0,
0,
0,
0,
0,
0,
0,
0,
0,
0,
0,
0,
0,
0,
0,
0,
0,
0,
0,
0,
0,
0,
0,
0,
0,
0,
0,
0,
0,
0,
0,
0,
0,
0,
0,
0,
0,
0,
0,
0,
0,
0,
0,
0,
0,
0,
0,
0,
0,
0,
0,
0,
0,
0,
0,
0,
0,
0,
0,
0,
0,
0,
0,
0,
0,
0,
0,
0,
0,
0,
0,
0,
0,
0,
0,
0,
0,
0,
0,
0,
0,
0,
0,
0,
0,
0,
0,
0,
0,
0,
0,
0,
0,
0,
0,
0,
0,
0,
0,
0,
0,
0,
0,
0,
0,
0,
0,
0,
0,
0,
0,
0,
0,
0,
0,
0,
0,
0,
0,
0,
0,
0,
0,
0,
0,
0,
0,
0,
0,
0,
0,
0,
0,
0,
0,
0,
0,
0,
0,
0,
0,
0,
0,
0,
0,
0,
0,
0,
0,
0,
0,
0,
0,
0,
0,
0,
0,
0,
0,
0,
0,
0,
0,
0,
0,
0,
0,
0,
0,
0,
0,
0,
0,
0,
0,
0,
0,
0,
0,
0,
0,
0,
0,
0,
0,
0,
0,
0,
0,
0,
0,
0,
0,
0,
0,
0,
0,
0,
0,
0,
0,
0,
0,
0,
0,
0,
0,
0,
0,
0,
0,
0,
0,
0,
0,
0,
0,
0,
0,
0,
0,
0,
0,
0,
0,
0,
0,
0,
0,
0,
0,
0,
0,
0,
0,
0,
0,
0,
0,
0,
0,
0,
0,
0,
0,
0,
0,
0,
0,
0,
0,
0,
0,
0,
0,
0,
0,
0,
0,
0,
0,
0,
0,
0,
0,
0,
0,
0,
0,
0,
0,
0,
0,
0,
0,
0,
0,
0,
0,
0,
0,
0,
0,
0,
0,
0,
0,
0,
0,
0,
0,
0,
0,
0,
0,
0,
0,
0,
0,
0,
0,
0,
0,
0,
0,
0,
0,
0,
0,
0,
0,
0,
0,
0,
0,
0,
0,
0,
0,
0,
0,
0,
0,
0,
0,
0,
0,
0,
0,
0,
0,
0,
0,
0,
0,
0,
0,
0,
0,
0,
0,
0,
0,
0,
0,
0,
0,
0,
0,
0,
0,
0,
0,
0,
0,
0,
0,
0,
0,
0,
0,
0,
0,
0,
0,
0,
0,
0,
0,
0,
0,
0,
0,
0,
0,
0,
0,
0,
0,
0,
0,
0,
0,
0,
0,
0,
0,
0,
0,
0,
0,
0,
0,
0,
0,
0,
0,
0,
0,
0,
0,
0,
0,
0,
0,
0,
0,
0,
0,
0,
0,
0,
0,
0,
0,
0,
0,
0,
0,
0,
0,
0,
0,
0,
0,
0,
0,
0,
0,
0,
0,
0,
0,
0,
0,
0,
#ENDOFDATA   :