File: N132962/Quantification/20 keV/MMM1/SPI MM1 Diopside[7][4].msa
#FORMAT      : EMSA/MAS Spectral Data File
#VERSION     : 1.0
#TITLE       : SPI MM1dup Diopside[7][all]
#DATE        : 12-MAR-2025
#TIME        : 15:44
#OWNER       : Unknown
#NPOINTS     : 4096
#NCOLUMNS    : 1
#XUNITS      : eV
#YUNITS      : counts
#DATATYPE    : Y
#XPERCHAN    : 9.99778
#OFFSET      : 1.69135
#BEAMKV      : 20
#SIGNALTYPE  : EDS
#ELEVANGLE   : 35
#AZIMANGLE   : 0
#LIVETIME    : 239.799
#REALTIME    : 255.212
#PROBECUR    : 1.02695
#TAUWIND     : 0
#TDEADLYR    : 0
#TACTLYR     : 0.045
#TALWIND     : 0.025
#CHOFFSET    : 0.0
#XLABEL      : Energy (eV)
#YLABEL      : Counts
#XPOSITION   : 2.13231
#YPOSITION   : 1.45676
#ZPOSITION   : 31.03608
#EDSDET      : SD
##SPECIMEN   : SPI MM1dup Diopside[7][all]
##D2STDCMP   : Diopside,(O:44.3298),(Mg:11.2237),(Si:25.939),(Ca:18.5075)
##DET_HASH   : 12273538-fd48-a23f-0a19-f1e6fa85caef
##CALIB_HASH : 6abaa72c-aa41-8738-0be9-f592914732f3
##WORKING    : 15.0 mm
##DET_NAME   : EDAX All
##DET_MODE   : MediumLE
#SPECTRUM    :
25,
27,
8,
14,
77,
253,
743,
2554,
7576,
10772,
7221,
3767,
2726,
2631,
3918,
13445,
53517,
105008,
77706,
20756,
3317,
1724,
1952,
2437,
2524,
2312,
2277,
2482,
2721,
2878,
2951,
3059,
3289,
3810,
4785,
5256,
4567,
4281,
4857,
8791,
28414,
68301,
82292,
46750,
15104,
5363,
4097,
4231,
4992,
6276,
6506,
5721,
4998,
4898,
6153,
16268,
63307,
162759,
221219,
156724,
62828,
21336,
9718,
5183,
3807,
3537,
3120,
2891,
2596,
2571,
2558,
2570,
2556,
2722,
3035,
2966,
2953,
2769,
2724,
2565,
2597,
2667,
2621,
2662,
2540,
2579,
2642,
2573,
2622,
2569,
2547,
2556,
2546,
2570,
2466,
2459,
2539,
2520,
2582,
2572,
2705,
2702,
2439,
2443,
2429,
2431,
2303,
2439,
2334,
2281,
2312,
2244,
2289,
2176,
2439,
2462,
2707,
2960,
3369,
5617,
13986,
35046,
64830,
81743,
68841,
39084,
15782,
5505,
2742,
2397,
2868,
4369,
7224,
10604,
11633,
9387,
5878,
3208,
2086,
1768,
1681,
1670,
1714,
1533,
1603,
1595,
1509,
1546,
1491,
1596,
1618,
1593,
1545,
1430,
1432,
1479,
1456,
1480,
1446,
1453,
1368,
1442,
1452,
1393,
1423,
1456,
1394,
1376,
1384,
1359,
1360,
1339,
1333,
1347,
1260,
1371,
1289,
1274,
1380,
1371,
1483,
1477,
1335,
1363,
1307,
1263,
1210,
1177,
1189,
1135,
1162,
1139,
1253,
1151,
1131,
1174,
1205,
1230,
1105,
1115,
1064,
1098,
1114,
1058,
1024,
1012,
1063,
1033,
1069,
1125,
1275,
1612,
1993,
2095,
2015,
1819,
1373,
1187,
1057,
1047,
919,
929,
914,
894,
960,
906,
884,
869,
882,
876,
901,
866,
931,
946,
1003,
1056,
981,
956,
886,
871,
786,
861,
796,
833,
801,
785,
845,
789,
825,
792,
805,
756,
717,
762,
699,
730,
752,
719,
709,
742,
715,
727,
731,
707,
674,
658,
708,
661,
649,
677,
627,
662,
640,
656,
657,
645,
694,
627,
653,
594,
656,
597,
623,
576,
623,
576,
615,
651,
546,
581,
565,
555,
556,
553,
585,
567,
553,
507,
570,
509,
577,
582,
536,
519,
526,
540,
515,
506,
517,
495,
509,
518,
500,
492,
493,
493,
493,
494,
500,
445,
474,
448,
444,
488,
434,
432,
446,
441,
440,
449,
428,
457,
407,
410,
447,
421,
416,
406,
405,
395,
409,
380,
396,
357,
411,
394,
394,
395,
352,
375,
364,
366,
370,
358,
362,
366,
342,
322,
359,
343,
345,
321,
317,
372,
333,
335,
331,
337,
315,
317,
325,
311,
314,
306,
323,
306,
333,
305,
288,
315,
286,
279,
297,
263,
273,
273,
278,
265,
269,
258,
227,
251,
276,
259,
289,
243,
220,
271,
228,
270,
250,
254,
219,
216,
248,
244,
250,
242,
215,
197,
218,
208,
215,
216,
221,
218,
228,
212,
217,
195,
203,
208,
205,
175,
163,
189,
180,
180,
185,
185,
159,
166,
180,
174,
149,
179,
158,
173,
176,
158,
128,
154,
170,
165,
142,
144,
173,
141,
171,
161,
147,
141,
147,
134,
124,
159,
147,
156,
134,
116,
122,
125,
119,
139,
111,
131,
118,
142,
117,
106,
105,
101,
106,
109,
114,
100,
96,
111,
103,
97,
111,
97,
101,
112,
106,
93,
92,
112,
108,
77,
86,
85,
102,
79,
103,
86,
92,
91,
81,
88,
82,
94,
79,
71,
73,
79,
88,
95,
74,
78,
68,
75,
83,
65,
60,
59,
49,
55,
79,
68,
75,
68,
57,
59,
56,
51,
61,
64,
55,
50,
50,
48,
48,
46,
42,
54,
44,
54,
62,
31,
64,
52,
46,
49,
38,
48,
52,
40,
39,
48,
47,
45,
28,
40,
48,
41,
41,
37,
32,
35,
38,
40,
34,
30,
45,
33,
40,
36,
27,
36,
33,
24,
28,
23,
29,
28,
25,
25,
28,
24,
26,
21,
31,
21,
27,
25,
25,
24,
18,
27,
21,
22,
26,
17,
18,
15,
19,
24,
25,
11,
18,
12,
17,
14,
19,
16,
15,
7,
16,
13,
11,
17,
17,
9,
9,
11,
10,
12,
8,
11,
12,
10,
7,
9,
13,
8,
9,
11,
5,
6,
9,
11,
8,
8,
6,
14,
6,
6,
7,
3,
3,
2,
8,
5,
13,
3,
7,
3,
3,
2,
1,
5,
1,
2,
2,
3,
1,
1,
2,
0,
2,
1,
2,
0,
0,
0,
0,
0,
0,
1,
0,
0,
0,
1,
0,
0,
0,
1,
0,
0,
0,
0,
0,
0,
0,
0,
0,
0,
0,
0,
0,
0,
0,
0,
0,
0,
1,
0,
0,
0,
0,
0,
0,
0,
0,
1,
0,
0,
0,
0,
0,
0,
0,
0,
1,
0,
0,
0,
0,
0,
0,
0,
0,
0,
0,
0,
0,
0,
0,
0,
0,
0,
0,
0,
1,
0,
0,
0,
0,
0,
0,
0,
0,
0,
0,
0,
0,
0,
0,
0,
0,
0,
0,
0,
0,
0,
0,
0,
0,
0,
0,
0,
0,
0,
0,
1,
0,
0,
0,
0,
0,
0,
0,
0,
0,
0,
0,
0,
0,
0,
0,
0,
0,
0,
0,
0,
0,
0,
0,
0,
0,
0,
0,
0,
0,
0,
0,
0,
0,
0,
0,
0,
0,
0,
0,
0,
0,
0,
0,
0,
0,
0,
0,
0,
0,
0,
0,
0,
0,
0,
0,
0,
0,
0,
0,
0,
0,
0,
0,
0,
0,
0,
0,
0,
1,
0,
0,
0,
0,
0,
0,
0,
0,
0,
0,
0,
0,
0,
0,
0,
0,
0,
0,
0,
0,
0,
0,
0,
0,
0,
0,
0,
0,
0,
0,
0,
0,
0,
0,
0,
0,
0,
0,
0,
0,
0,
0,
0,
0,
0,
0,
0,
0,
0,
0,
0,
0,
0,
0,
0,
0,
0,
0,
0,
0,
0,
0,
0,
0,
0,
0,
0,
0,
0,
0,
0,
0,
0,
0,
0,
0,
0,
0,
0,
0,
0,
0,
0,
0,
0,
0,
0,
0,
0,
0,
0,
0,
0,
0,
0,
0,
0,
0,
0,
0,
0,
0,
0,
0,
0,
0,
0,
0,
0,
0,
0,
0,
0,
0,
0,
0,
0,
0,
0,
0,
0,
0,
0,
0,
0,
0,
0,
0,
0,
0,
0,
0,
0,
0,
0,
0,
0,
0,
0,
0,
0,
0,
0,
0,
0,
0,
0,
0,
0,
0,
0,
0,
0,
0,
0,
0,
0,
0,
0,
0,
0,
0,
0,
0,
0,
0,
0,
0,
0,
0,
0,
0,
0,
0,
0,
0,
0,
0,
0,
0,
0,
0,
0,
0,
0,
0,
0,
0,
0,
0,
0,
0,
0,
0,
0,
0,
0,
0,
0,
0,
0,
0,
0,
0,
0,
0,
0,
0,
0,
0,
0,
0,
0,
0,
0,
0,
0,
0,
0,
0,
0,
0,
0,
0,
0,
0,
0,
0,
0,
0,
0,
0,
0,
0,
0,
0,
0,
0,
0,
0,
0,
0,
0,
0,
0,
0,
0,
0,
0,
0,
0,
0,
0,
0,
0,
0,
0,
0,
0,
0,
0,
0,
0,
0,
0,
0,
0,
0,
0,
0,
0,
0,
0,
0,
0,
0,
0,
0,
0,
0,
0,
0,
0,
0,
0,
0,
0,
0,
0,
0,
0,
0,
0,
0,
0,
0,
0,
0,
0,
0,
0,
0,
0,
0,
0,
0,
0,
0,
0,
0,
0,
0,
0,
0,
0,
0,
0,
0,
0,
0,
0,
0,
0,
0,
0,
0,
0,
0,
0,
0,
0,
0,
0,
0,
0,
0,
0,
0,
0,
0,
0,
0,
0,
0,
0,
0,
0,
0,
0,
0,
0,
0,
0,
0,
0,
0,
0,
0,
0,
0,
0,
0,
0,
0,
0,
0,
0,
0,
0,
0,
0,
0,
0,
0,
0,
0,
0,
0,
0,
0,
0,
0,
0,
0,
0,
0,
0,
0,
0,
0,
0,
0,
0,
0,
0,
0,
0,
0,
0,
0,
0,
0,
0,
0,
0,
0,
0,
0,
0,
0,
0,
0,
0,
0,
0,
0,
0,
0,
0,
0,
0,
0,
0,
0,
0,
0,
0,
0,
0,
0,
0,
0,
0,
0,
0,
0,
0,
0,
0,
0,
0,
0,
0,
0,
0,
0,
0,
0,
0,
0,
0,
0,
0,
0,
0,
0,
0,
0,
0,
0,
0,
0,
0,
0,
0,
0,
0,
0,
0,
0,
0,
0,
0,
0,
0,
0,
0,
0,
0,
0,
0,
0,
0,
0,
0,
0,
0,
0,
0,
0,
0,
0,
0,
0,
0,
0,
0,
0,
0,
0,
0,
0,
0,
0,
0,
0,
0,
0,
0,
0,
0,
0,
0,
0,
0,
0,
0,
0,
0,
0,
0,
0,
0,
0,
0,
0,
0,
0,
0,
0,
0,
#ENDOFDATA   :