File: N132962/Quantification/20 keV/MMM1/SPI MM1 Jadeite[6][4].msa
#FORMAT      : EMSA/MAS Spectral Data File
#VERSION     : 1.0
#TITLE       : SPI MM1dup Jadeite[6][all]
#DATE        : 12-MAR-2025
#TIME        : 16:36
#OWNER       : Unknown
#NPOINTS     : 4096
#NCOLUMNS    : 1
#XUNITS      : eV
#YUNITS      : counts
#DATATYPE    : Y
#XPERCHAN    : 9.99778
#OFFSET      : 1.69135
#BEAMKV      : 20
#SIGNALTYPE  : EDS
#ELEVANGLE   : 35
#AZIMANGLE   : 0
#LIVETIME    : 239.809
#REALTIME    : 255.589
#PROBECUR    : 1.02709
#TAUWIND     : 0
#TDEADLYR    : 0
#TACTLYR     : 0.045
#TALWIND     : 0.025
#CHOFFSET    : 0.0
#XLABEL      : Energy (eV)
#YLABEL      : Counts
#XPOSITION   : 0.98979
#YPOSITION   : 4.34036
#ZPOSITION   : 31.03608
#EDSDET      : SD
##SPECIMEN   : SPI MM1dup Jadeite[6][all]
##D2STDCMP   : Jadeite,(O:47.4904),(Na:11.3733),(Al:13.348),(Si:27.7883),5.0
##DET_HASH   : 12273538-fd48-a23f-0a19-f1e6fa85caef
##CALIB_HASH : 6abaa72c-aa41-8738-0be9-f592914732f3
##WORKING    : 15.0 mm
##DET_NAME   : EDAX All
##DET_MODE   : MediumLE
#SPECTRUM    :
20,
20,
10,
17,
67,
316,
787,
2316,
6516,
8358,
4735,
2423,
2541,
3395,
6405,
25010,
101822,
198811,
144906,
38256,
4897,
1698,
1822,
1889,
2151,
2309,
2279,
2585,
2742,
3037,
3410,
4202,
8159,
26622,
63076,
69168,
35230,
9609,
3822,
3313,
3435,
3541,
3777,
4004,
4239,
4504,
5949,
15285,
51584,
104134,
105942,
56350,
18715,
7190,
5999,
15195,
60716,
155431,
211776,
149807,
60642,
20150,
9052,
4343,
2524,
2105,
2285,
2321,
2229,
2201,
2132,
2120,
2091,
2313,
2456,
2692,
2640,
2413,
2200,
2216,
2097,
2173,
2197,
2253,
2241,
2127,
2200,
2163,
2150,
2139,
2171,
2174,
2257,
2242,
2180,
2087,
2025,
1975,
2160,
2002,
2108,
2000,
1977,
1979,
1968,
1957,
2075,
2184,
2180,
2105,
1986,
1883,
1840,
2009,
1962,
1997,
2057,
1939,
1891,
1837,
1766,
1850,
1898,
1879,
1833,
1706,
1758,
1677,
1609,
1618,
1623,
1563,
1638,
1607,
1666,
1579,
1582,
1515,
1606,
1505,
1486,
1499,
1489,
1504,
1493,
1447,
1493,
1389,
1391,
1486,
1419,
1367,
1416,
1393,
1366,
1390,
1347,
1367,
1328,
1342,
1287,
1329,
1289,
1287,
1252,
1265,
1309,
1244,
1215,
1262,
1228,
1200,
1200,
1181,
1123,
1188,
1099,
1101,
1176,
1114,
1121,
1060,
1109,
1096,
1083,
1057,
1082,
1031,
1118,
1020,
1036,
1079,
1081,
1048,
1022,
1020,
1012,
983,
939,
988,
987,
953,
898,
984,
930,
899,
892,
900,
885,
885,
914,
940,
1040,
1023,
971,
1014,
960,
945,
914,
845,
851,
888,
822,
816,
841,
820,
747,
828,
725,
796,
768,
752,
753,
794,
764,
770,
782,
736,
729,
709,
724,
714,
738,
718,
680,
689,
681,
725,
714,
708,
717,
684,
667,
621,
670,
586,
608,
640,
620,
636,
587,
621,
581,
653,
586,
609,
532,
580,
640,
564,
579,
553,
573,
581,
552,
564,
571,
538,
501,
524,
581,
540,
543,
485,
532,
550,
514,
501,
516,
514,
493,
494,
477,
473,
436,
487,
489,
516,
469,
508,
501,
444,
417,
469,
462,
443,
452,
455,
466,
443,
456,
453,
401,
435,
394,
375,
446,
402,
402,
382,
372,
386,
389,
396,
399,
376,
357,
350,
355,
388,
343,
395,
342,
392,
348,
378,
356,
361,
372,
330,
336,
345,
313,
339,
349,
325,
297,
343,
334,
318,
321,
282,
319,
274,
292,
318,
306,
292,
290,
268,
267,
293,
280,
295,
287,
280,
268,
271,
271,
274,
257,
253,
255,
261,
270,
280,
235,
247,
245,
257,
228,
246,
243,
240,
248,
228,
230,
228,
238,
214,
238,
209,
206,
203,
206,
200,
213,
243,
187,
195,
198,
196,
182,
162,
206,
193,
185,
168,
195,
174,
185,
194,
175,
180,
175,
177,
162,
154,
182,
151,
146,
192,
176,
175,
174,
154,
152,
143,
139,
150,
154,
157,
159,
169,
150,
149,
137,
122,
130,
145,
145,
132,
154,
151,
140,
122,
148,
127,
130,
115,
126,
118,
133,
116,
133,
103,
127,
111,
118,
105,
113,
117,
95,
118,
107,
90,
98,
95,
109,
101,
100,
77,
105,
92,
98,
75,
91,
99,
86,
77,
95,
79,
76,
92,
77,
80,
95,
95,
62,
65,
77,
71,
82,
68,
61,
73,
51,
72,
80,
62,
66,
66,
69,
55,
80,
65,
74,
73,
64,
67,
58,
59,
54,
49,
57,
55,
58,
66,
62,
53,
48,
70,
40,
48,
46,
58,
62,
48,
52,
57,
48,
57,
45,
54,
52,
49,
40,
41,
45,
45,
28,
50,
37,
41,
39,
35,
41,
36,
30,
25,
42,
37,
41,
45,
40,
27,
29,
22,
40,
26,
24,
26,
24,
25,
28,
24,
28,
31,
29,
23,
25,
21,
28,
16,
15,
21,
18,
28,
23,
19,
28,
11,
19,
22,
24,
13,
22,
18,
15,
17,
20,
18,
19,
19,
18,
19,
20,
9,
7,
14,
13,
13,
10,
13,
15,
14,
16,
8,
10,
11,
14,
8,
6,
13,
12,
10,
5,
6,
8,
5,
8,
6,
6,
13,
8,
4,
10,
6,
9,
6,
6,
3,
6,
7,
5,
6,
5,
3,
3,
3,
5,
3,
7,
3,
3,
3,
4,
3,
0,
4,
1,
3,
1,
1,
2,
3,
1,
0,
1,
2,
2,
0,
0,
0,
1,
0,
0,
0,
0,
0,
1,
0,
0,
0,
0,
1,
0,
0,
0,
0,
0,
0,
0,
0,
0,
0,
0,
0,
0,
0,
2,
0,
0,
0,
0,
0,
0,
1,
1,
0,
0,
0,
0,
0,
0,
0,
0,
0,
0,
0,
0,
0,
0,
0,
1,
0,
0,
0,
0,
0,
0,
0,
0,
0,
0,
0,
0,
0,
0,
0,
0,
0,
0,
0,
0,
0,
0,
0,
1,
0,
0,
0,
0,
0,
0,
0,
0,
0,
0,
0,
0,
0,
0,
0,
0,
0,
0,
0,
0,
0,
0,
1,
1,
0,
0,
0,
0,
0,
0,
0,
0,
0,
0,
0,
0,
0,
0,
0,
0,
0,
0,
0,
0,
0,
0,
0,
0,
0,
0,
0,
0,
0,
0,
0,
0,
0,
0,
0,
0,
0,
0,
0,
0,
0,
0,
0,
0,
0,
0,
0,
0,
0,
0,
0,
0,
0,
0,
1,
0,
0,
0,
0,
0,
0,
0,
0,
0,
0,
0,
0,
0,
1,
0,
0,
0,
0,
0,
0,
0,
0,
0,
0,
0,
0,
0,
0,
0,
0,
0,
0,
0,
0,
0,
0,
0,
0,
0,
0,
0,
0,
0,
0,
0,
0,
0,
0,
0,
0,
0,
0,
0,
0,
0,
0,
0,
0,
0,
0,
0,
0,
0,
0,
0,
0,
0,
0,
0,
0,
0,
0,
0,
0,
0,
0,
0,
0,
0,
0,
0,
0,
0,
0,
0,
0,
0,
0,
0,
0,
0,
0,
0,
0,
0,
0,
0,
0,
0,
0,
0,
0,
0,
0,
0,
0,
0,
0,
0,
0,
0,
0,
0,
0,
0,
0,
0,
0,
0,
0,
0,
0,
0,
0,
0,
0,
0,
0,
0,
0,
0,
0,
0,
0,
0,
0,
0,
0,
0,
0,
0,
0,
0,
0,
0,
0,
0,
0,
0,
0,
0,
0,
0,
0,
0,
0,
0,
0,
0,
0,
0,
0,
0,
0,
0,
0,
0,
0,
0,
0,
0,
0,
0,
0,
0,
0,
0,
0,
0,
0,
0,
0,
0,
0,
0,
0,
0,
0,
0,
0,
0,
0,
0,
0,
0,
0,
0,
0,
0,
0,
0,
0,
0,
0,
0,
0,
0,
0,
0,
0,
0,
0,
0,
0,
0,
0,
0,
0,
0,
0,
0,
0,
0,
0,
0,
0,
0,
0,
0,
0,
0,
0,
0,
0,
0,
0,
0,
0,
0,
0,
0,
0,
0,
0,
0,
0,
0,
0,
0,
0,
0,
0,
0,
0,
0,
0,
0,
0,
0,
0,
0,
0,
0,
0,
0,
0,
0,
0,
0,
0,
0,
0,
0,
0,
0,
0,
0,
0,
0,
0,
0,
0,
0,
0,
0,
0,
0,
0,
0,
0,
0,
0,
0,
0,
0,
0,
0,
0,
0,
0,
0,
0,
0,
0,
0,
0,
0,
0,
0,
0,
0,
0,
0,
0,
0,
0,
0,
0,
0,
0,
0,
0,
0,
0,
0,
0,
0,
0,
0,
0,
0,
0,
0,
0,
0,
0,
0,
0,
0,
0,
0,
0,
0,
0,
0,
0,
0,
0,
0,
0,
0,
0,
0,
0,
0,
0,
0,
0,
0,
0,
0,
0,
0,
0,
0,
0,
0,
0,
0,
0,
0,
0,
0,
0,
0,
0,
0,
0,
0,
0,
0,
0,
0,
0,
0,
0,
0,
0,
0,
0,
0,
0,
0,
0,
0,
0,
0,
0,
0,
0,
0,
0,
0,
0,
0,
0,
0,
0,
0,
0,
0,
0,
0,
0,
0,
0,
0,
0,
0,
0,
0,
0,
0,
0,
0,
0,
0,
0,
0,
0,
0,
0,
0,
0,
0,
0,
0,
0,
0,
0,
0,
0,
0,
0,
0,
0,
0,
0,
0,
0,
0,
0,
0,
0,
0,
0,
0,
0,
0,
0,
0,
0,
0,
0,
0,
0,
0,
0,
0,
0,
0,
0,
0,
0,
0,
0,
0,
0,
0,
0,
0,
0,
0,
0,
0,
0,
0,
0,
0,
0,
0,
0,
0,
0,
0,
0,
0,
0,
0,
0,
0,
0,
0,
0,
0,
0,
0,
0,
0,
0,
0,
0,
0,
0,
0,
0,
0,
0,
0,
0,
0,
0,
0,
0,
0,
0,
0,
0,
0,
0,
0,
0,
0,
0,
0,
0,
0,
0,
0,
0,
0,
0,
0,
0,
0,
0,
0,
0,
#ENDOFDATA   :