File: N132962/Quantification/20 keV/MMM1/SPI MM1 Kyanite[5][4].msa
#FORMAT      : EMSA/MAS Spectral Data File
#VERSION     : 1.0
#TITLE       : SPI MM1dup Kyanite[5][all]
#DATE        : 12-MAR-2025
#TIME        : 16:16
#OWNER       : Unknown
#NPOINTS     : 4096
#NCOLUMNS    : 1
#XUNITS      : eV
#YUNITS      : counts
#DATATYPE    : Y
#XPERCHAN    : 9.99778
#OFFSET      : 1.69135
#BEAMKV      : 20
#SIGNALTYPE  : EDS
#ELEVANGLE   : 35
#AZIMANGLE   : 0
#LIVETIME    : 239.737
#REALTIME    : 256.486
#PROBECUR    : 1.02709
#TAUWIND     : 0
#TDEADLYR    : 0
#TACTLYR     : 0.045
#TALWIND     : 0.025
#CHOFFSET    : 0.0
#XLABEL      : Energy (eV)
#YLABEL      : Counts
#XPOSITION   : -4.16113
#YPOSITION   : 4.17778
#ZPOSITION   : 31.03608
#EDSDET      : SD
##SPECIMEN   : SPI MM1dup Kyanite[5][all]
##DET_HASH   : 12273538-fd48-a23f-0a19-f1e6fa85caef
##CALIB_HASH : 6abaa72c-aa41-8738-0be9-f592914732f3
##WORKING    : 15.0 mm
##DET_NAME   : EDAX All
##DET_MODE   : MediumLE
#SPECTRUM    :
24,
18,
7,
18,
65,
245,
737,
2300,
6371,
8727,
4591,
2412,
2526,
3379,
6464,
25778,
104121,
204745,
149579,
39132,
4970,
1775,
1820,
2026,
2136,
2035,
2211,
2492,
2597,
2726,
2764,
2955,
3078,
3441,
3686,
3754,
3834,
3900,
3875,
4170,
4306,
4740,
5102,
5387,
5937,
6547,
10576,
37717,
140327,
290116,
295131,
149962,
44284,
11766,
5504,
9056,
32843,
82399,
112862,
80257,
32494,
11553,
5726,
3317,
2406,
2384,
2786,
2978,
2699,
2326,
2100,
2067,
2057,
2103,
2300,
2396,
2384,
2104,
2066,
2252,
2021,
2078,
2108,
2143,
2122,
2108,
2157,
2066,
2110,
2115,
2102,
2084,
2092,
2084,
2157,
2102,
2072,
2260,
2481,
2602,
2555,
2315,
2049,
2018,
1969,
2057,
2174,
2261,
2399,
2219,
2020,
1969,
1857,
1897,
1765,
1912,
1857,
1893,
1858,
1865,
1772,
1730,
1760,
1666,
1675,
1672,
1717,
1700,
1611,
1657,
1633,
1593,
1676,
1582,
1594,
1629,
1535,
1568,
1488,
1515,
1552,
1518,
1540,
1409,
1492,
1562,
1486,
1411,
1425,
1447,
1385,
1454,
1374,
1427,
1426,
1404,
1342,
1336,
1295,
1335,
1325,
1280,
1306,
1350,
1260,
1264,
1298,
1299,
1262,
1209,
1235,
1174,
1129,
1253,
1186,
1188,
1166,
1190,
1194,
1162,
1092,
1197,
1120,
1125,
1044,
1058,
1105,
1095,
1019,
1093,
1050,
1012,
1061,
1033,
1020,
1060,
947,
975,
994,
959,
960,
1005,
931,
933,
981,
943,
957,
924,
931,
946,
991,
1035,
1103,
1211,
1184,
1030,
1047,
855,
853,
905,
828,
825,
850,
822,
830,
786,
795,
763,
759,
802,
736,
761,
825,
762,
712,
759,
786,
728,
749,
699,
718,
729,
722,
696,
689,
670,
708,
736,
711,
691,
693,
718,
673,
708,
657,
666,
612,
635,
664,
597,
630,
678,
610,
605,
631,
609,
629,
570,
591,
582,
587,
549,
555,
558,
573,
560,
522,
537,
535,
505,
584,
561,
535,
542,
530,
504,
563,
480,
541,
487,
493,
510,
474,
483,
424,
478,
486,
479,
448,
433,
444,
471,
481,
440,
477,
432,
454,
453,
419,
444,
397,
473,
410,
418,
438,
412,
370,
385,
357,
446,
388,
374,
381,
399,
391,
381,
356,
368,
366,
383,
381,
373,
350,
350,
364,
333,
359,
331,
361,
315,
329,
332,
294,
331,
353,
338,
313,
343,
297,
295,
310,
299,
310,
330,
325,
285,
321,
276,
305,
273,
272,
280,
263,
274,
279,
297,
254,
287,
273,
265,
222,
258,
288,
279,
260,
269,
217,
228,
234,
251,
207,
226,
263,
232,
210,
212,
231,
234,
237,
229,
214,
222,
227,
207,
210,
197,
194,
202,
208,
180,
200,
202,
203,
172,
172,
182,
219,
183,
188,
197,
152,
163,
165,
151,
171,
184,
182,
173,
203,
163,
170,
174,
175,
156,
170,
151,
159,
146,
147,
173,
149,
148,
140,
159,
129,
149,
135,
132,
127,
158,
125,
145,
118,
123,
128,
119,
122,
126,
138,
127,
158,
124,
114,
110,
122,
132,
113,
104,
117,
105,
107,
115,
83,
96,
90,
91,
107,
101,
101,
89,
97,
94,
84,
94,
95,
89,
73,
98,
104,
87,
93,
90,
79,
84,
100,
89,
76,
81,
86,
75,
70,
89,
72,
79,
87,
71,
75,
73,
67,
64,
68,
64,
68,
61,
62,
70,
65,
71,
60,
75,
53,
59,
67,
72,
50,
52,
52,
48,
53,
61,
47,
57,
49,
44,
45,
48,
50,
55,
46,
58,
50,
38,
42,
60,
37,
53,
42,
46,
48,
46,
45,
34,
45,
42,
41,
44,
31,
24,
37,
33,
34,
23,
30,
29,
36,
21,
30,
37,
31,
29,
28,
33,
23,
30,
30,
27,
27,
24,
25,
27,
27,
22,
27,
20,
24,
17,
26,
29,
27,
27,
17,
20,
21,
28,
27,
16,
13,
28,
18,
18,
12,
9,
14,
11,
15,
18,
10,
13,
13,
15,
17,
12,
13,
10,
15,
11,
9,
10,
10,
8,
7,
12,
17,
9,
7,
7,
11,
11,
7,
6,
15,
8,
9,
4,
8,
10,
4,
10,
5,
4,
2,
7,
7,
7,
6,
4,
6,
4,
4,
2,
7,
3,
3,
4,
3,
2,
1,
5,
3,
3,
2,
1,
0,
1,
2,
3,
4,
3,
0,
1,
1,
1,
0,
0,
0,
0,
0,
0,
1,
0,
1,
0,
0,
0,
0,
0,
0,
0,
0,
0,
0,
0,
0,
0,
0,
0,
0,
0,
0,
0,
0,
0,
0,
0,
0,
0,
0,
0,
0,
0,
0,
0,
0,
0,
0,
1,
0,
1,
0,
1,
0,
0,
0,
0,
0,
0,
0,
0,
0,
0,
0,
0,
0,
0,
0,
0,
0,
0,
0,
0,
0,
0,
0,
0,
0,
0,
0,
0,
0,
0,
0,
0,
0,
0,
0,
0,
0,
0,
0,
0,
0,
0,
0,
0,
0,
0,
0,
0,
0,
0,
0,
0,
0,
0,
0,
0,
0,
0,
0,
0,
0,
0,
0,
0,
0,
0,
0,
0,
1,
0,
0,
0,
0,
0,
0,
0,
0,
0,
0,
0,
0,
0,
0,
0,
0,
0,
0,
0,
0,
0,
0,
0,
0,
0,
0,
0,
0,
0,
0,
0,
0,
0,
0,
0,
0,
0,
0,
0,
0,
0,
0,
0,
0,
0,
0,
0,
0,
0,
0,
0,
0,
0,
0,
0,
0,
0,
0,
0,
0,
0,
0,
0,
0,
0,
0,
0,
0,
0,
0,
0,
0,
0,
0,
0,
0,
0,
0,
0,
0,
0,
0,
0,
0,
0,
0,
0,
0,
0,
0,
0,
0,
0,
0,
0,
0,
0,
0,
0,
0,
0,
0,
0,
0,
0,
0,
0,
0,
0,
0,
0,
0,
0,
0,
0,
0,
0,
0,
0,
0,
0,
0,
0,
0,
0,
0,
0,
0,
0,
0,
0,
0,
0,
0,
0,
0,
0,
0,
0,
0,
0,
0,
0,
0,
0,
0,
0,
0,
0,
0,
0,
0,
0,
0,
0,
0,
0,
0,
0,
1,
0,
0,
0,
0,
0,
0,
0,
0,
0,
0,
0,
0,
0,
0,
0,
0,
0,
0,
0,
0,
0,
0,
0,
0,
0,
0,
0,
0,
0,
0,
0,
0,
0,
0,
0,
0,
0,
0,
0,
0,
0,
0,
0,
0,
0,
0,
0,
0,
0,
0,
0,
0,
0,
0,
0,
0,
0,
0,
0,
0,
0,
0,
0,
0,
0,
0,
0,
0,
0,
0,
0,
0,
0,
0,
0,
0,
0,
0,
0,
0,
0,
0,
0,
0,
0,
0,
0,
0,
0,
0,
0,
0,
0,
0,
0,
0,
0,
0,
0,
0,
0,
0,
0,
0,
0,
0,
0,
0,
0,
0,
0,
0,
0,
0,
0,
0,
0,
0,
0,
0,
0,
0,
0,
0,
0,
0,
0,
0,
0,
0,
0,
0,
0,
0,
0,
0,
0,
0,
0,
0,
0,
0,
0,
0,
0,
0,
0,
0,
0,
0,
0,
0,
0,
0,
0,
0,
0,
0,
0,
0,
0,
0,
0,
0,
0,
0,
0,
0,
0,
1,
0,
0,
0,
0,
0,
0,
0,
0,
0,
0,
0,
0,
0,
0,
0,
0,
0,
0,
0,
0,
0,
0,
0,
0,
0,
0,
0,
0,
0,
0,
0,
0,
0,
0,
0,
0,
0,
0,
0,
0,
0,
0,
0,
0,
0,
0,
0,
0,
0,
0,
0,
0,
0,
0,
0,
0,
0,
0,
0,
0,
0,
0,
0,
0,
0,
0,
0,
0,
0,
0,
0,
0,
0,
0,
0,
0,
0,
0,
0,
0,
0,
0,
0,
0,
0,
0,
0,
0,
0,
0,
0,
0,
0,
0,
0,
0,
0,
0,
0,
0,
0,
0,
0,
0,
0,
0,
0,
0,
0,
0,
0,
0,
0,
0,
0,
0,
0,
0,
0,
0,
0,
0,
0,
0,
0,
0,
0,
0,
0,
0,
0,
0,
0,
0,
0,
0,
0,
0,
0,
0,
0,
0,
0,
0,
0,
0,
0,
0,
0,
0,
0,
0,
0,
0,
0,
0,
0,
0,
0,
0,
0,
0,
0,
0,
0,
0,
0,
0,
0,
0,
0,
0,
0,
0,
0,
0,
0,
0,
0,
0,
0,
0,
0,
0,
0,
0,
0,
0,
0,
0,
0,
0,
0,
0,
0,
0,
0,
0,
0,
0,
0,
0,
0,
0,
0,
0,
0,
0,
0,
0,
0,
0,
0,
0,
0,
0,
0,
0,
0,
0,
0,
0,
0,
0,
0,
0,
0,
0,
0,
0,
0,
0,
0,
0,
0,
0,
0,
0,
0,
0,
0,
0,
0,
0,
0,
0,
0,
0,
0,
0,
0,
0,
0,
0,
0,
0,
0,
#ENDOFDATA   :