File: N132962/Quantification/20 keV/MMM1/SPI MM1 Anhydrite[2][4].msa
#FORMAT      : EMSA/MAS Spectral Data File
#VERSION     : 1.0
#TITLE       : SPI MM1 Anhydrite[2][all]
#DATE        : 11-MAR-2025
#TIME        : 13:46
#OWNER       : Unknown
#NPOINTS     : 4096
#NCOLUMNS    : 1
#XUNITS      : eV
#YUNITS      : counts
#DATATYPE    : Y
#XPERCHAN    : 9.99778
#OFFSET      : 1.69135
#BEAMKV      : 20
#SIGNALTYPE  : EDS
#ELEVANGLE   : 35
#AZIMANGLE   : 0
#LIVETIME    : 239.885
#REALTIME    : 255.076
#PROBECUR    : 1.02853
#TAUWIND     : 0
#TDEADLYR    : 0
#TACTLYR     : 0.045
#TALWIND     : 0.025
#CHOFFSET    : 0.0
#XLABEL      : Energy (eV)
#YLABEL      : Counts
#XPOSITION   : 4.99912
#YPOSITION   : -5.10008
#ZPOSITION   : 30.9284
#EDSDET      : SD
##SPECIMEN   : SPI MM1 Anhydrite[2][all]
##D2STDCMP   : Anhydrite,(O:47.0085),(S:23.5529),(Ca:29.4387),5.0
##DET_HASH   : 12273538-fd48-a23f-0a19-f1e6fa85caef
##CALIB_HASH : 6abaa72c-aa41-8738-0be9-f592914732f3
##WORKING    : 15.0 mm
##DET_NAME   : EDAX All
##DET_MODE   : MediumLE
#SPECTRUM    :
20,
19,
14,
47,
310,
817,
1228,
2771,
8057,
12317,
8585,
4475,
2872,
2371,
3396,
10526,
40229,
78312,
59600,
19630,
4614,
1957,
1858,
2146,
2360,
2390,
2465,
2626,
2635,
2657,
2672,
2882,
2920,
2984,
3228,
3472,
3558,
3414,
3744,
3881,
3811,
3968,
4147,
4191,
4358,
4361,
4399,
4599,
4719,
4760,
4787,
4685,
4695,
4728,
4765,
4696,
5130,
5282,
5961,
6627,
7425,
7182,
6229,
5873,
5953,
6090,
5493,
4918,
4610,
4579,
4584,
4991,
6370,
10647,
24829,
68047,
141447,
181035,
134799,
60436,
20908,
12973,
13503,
11472,
6959,
3960,
3113,
2757,
2709,
2671,
2658,
2759,
2757,
2772,
2868,
2822,
2700,
2659,
2620,
2599,
2657,
2587,
2620,
2612,
2624,
2563,
2523,
2625,
2496,
2531,
2446,
2399,
2372,
2443,
2407,
2528,
2779,
3271,
4228,
7964,
21718,
55779,
103888,
131746,
110403,
62347,
24516,
7691,
3542,
3055,
3775,
5968,
10711,
16300,
18019,
14276,
8516,
4219,
2383,
1903,
1797,
1789,
1770,
1654,
1598,
1643,
1711,
1636,
1574,
1626,
1579,
1625,
1694,
1752,
1772,
1723,
1570,
1554,
1516,
1577,
1541,
1587,
1524,
1497,
1453,
1433,
1441,
1495,
1460,
1368,
1423,
1346,
1429,
1420,
1420,
1396,
1389,
1332,
1316,
1404,
1319,
1373,
1310,
1323,
1312,
1246,
1280,
1333,
1266,
1271,
1289,
1228,
1292,
1209,
1272,
1215,
1320,
1277,
1359,
1357,
1403,
1420,
1343,
1277,
1190,
1202,
1125,
1145,
1192,
1104,
1167,
1220,
1155,
1248,
1214,
1196,
1035,
1010,
1106,
1004,
1037,
1066,
1054,
1022,
1037,
927,
981,
1035,
1009,
951,
955,
959,
972,
1000,
950,
958,
908,
978,
941,
929,
876,
902,
885,
975,
907,
937,
966,
977,
1015,
869,
919,
859,
818,
822,
857,
839,
869,
834,
795,
826,
762,
770,
816,
770,
728,
742,
777,
728,
803,
763,
775,
745,
731,
741,
706,
657,
686,
725,
732,
633,
670,
662,
654,
667,
677,
648,
654,
562,
659,
660,
666,
628,
644,
658,
595,
619,
596,
634,
658,
642,
617,
557,
562,
632,
576,
572,
529,
564,
587,
549,
515,
573,
526,
534,
524,
583,
545,
522,
531,
479,
538,
531,
550,
486,
478,
525,
489,
494,
502,
506,
503,
508,
491,
447,
503,
470,
443,
476,
463,
447,
449,
459,
439,
435,
429,
404,
413,
417,
434,
411,
422,
393,
388,
429,
398,
392,
354,
379,
374,
391,
372,
425,
363,
414,
365,
318,
357,
342,
360,
309,
329,
316,
326,
346,
370,
331,
350,
331,
353,
369,
316,
289,
306,
318,
301,
302,
330,
290,
309,
312,
255,
309,
285,
338,
266,
280,
288,
304,
284,
297,
276,
285,
297,
256,
255,
261,
284,
248,
252,
230,
243,
209,
258,
262,
257,
235,
226,
249,
210,
249,
226,
213,
194,
227,
216,
213,
236,
217,
206,
223,
204,
204,
206,
215,
177,
202,
201,
178,
194,
186,
168,
197,
166,
185,
165,
160,
178,
186,
164,
142,
163,
161,
149,
156,
154,
178,
143,
124,
149,
151,
144,
126,
131,
144,
133,
119,
144,
154,
130,
145,
148,
179,
151,
138,
130,
146,
134,
122,
114,
126,
121,
104,
121,
98,
109,
124,
111,
107,
120,
95,
92,
102,
106,
101,
100,
89,
102,
105,
85,
85,
105,
73,
93,
97,
90,
96,
99,
76,
91,
93,
83,
74,
87,
96,
86,
77,
69,
83,
78,
72,
77,
67,
72,
60,
75,
68,
72,
69,
62,
77,
71,
60,
68,
61,
47,
69,
52,
55,
51,
53,
52,
55,
49,
49,
33,
54,
59,
50,
49,
52,
40,
41,
42,
39,
33,
47,
43,
43,
45,
37,
34,
35,
47,
45,
31,
27,
40,
38,
31,
31,
44,
48,
32,
38,
27,
32,
25,
27,
26,
35,
30,
22,
34,
26,
26,
22,
32,
16,
22,
18,
28,
31,
21,
18,
21,
31,
16,
22,
28,
21,
22,
15,
17,
19,
16,
18,
15,
25,
18,
15,
16,
8,
10,
15,
11,
23,
17,
9,
13,
16,
13,
16,
9,
16,
13,
8,
5,
8,
7,
8,
9,
5,
9,
4,
11,
4,
12,
9,
6,
6,
3,
3,
10,
4,
5,
7,
6,
3,
8,
2,
5,
3,
3,
2,
6,
6,
1,
1,
1,
1,
3,
0,
2,
1,
1,
0,
1,
0,
0,
0,
1,
1,
0,
0,
0,
1,
0,
0,
0,
0,
0,
1,
0,
0,
1,
0,
0,
0,
2,
0,
0,
0,
0,
0,
0,
2,
1,
0,
0,
0,
0,
0,
0,
0,
0,
1,
0,
1,
0,
0,
0,
0,
0,
0,
0,
0,
0,
0,
0,
1,
0,
0,
0,
0,
0,
0,
0,
0,
1,
0,
0,
0,
0,
0,
0,
1,
0,
0,
0,
0,
0,
0,
0,
0,
0,
0,
0,
0,
0,
0,
0,
0,
0,
0,
0,
0,
0,
0,
0,
0,
0,
0,
0,
0,
0,
0,
0,
0,
0,
0,
0,
0,
0,
0,
0,
0,
0,
0,
0,
0,
0,
0,
0,
0,
0,
0,
0,
0,
0,
0,
0,
0,
0,
0,
1,
0,
0,
0,
0,
0,
0,
0,
0,
0,
0,
0,
1,
0,
0,
0,
1,
0,
0,
0,
0,
0,
0,
0,
0,
0,
0,
0,
0,
0,
0,
0,
0,
0,
0,
0,
0,
0,
0,
0,
0,
0,
0,
0,
0,
0,
0,
0,
0,
0,
0,
0,
0,
0,
0,
0,
0,
0,
0,
0,
0,
0,
0,
0,
0,
0,
0,
0,
0,
0,
0,
0,
0,
0,
0,
0,
0,
0,
0,
0,
0,
0,
0,
0,
0,
0,
0,
0,
0,
0,
0,
0,
0,
0,
0,
0,
0,
0,
0,
0,
0,
0,
0,
0,
0,
0,
0,
0,
0,
0,
0,
0,
0,
0,
0,
0,
0,
0,
0,
0,
0,
0,
0,
0,
0,
0,
0,
0,
0,
0,
0,
0,
0,
0,
0,
0,
0,
0,
0,
0,
0,
0,
0,
0,
0,
0,
0,
0,
0,
0,
0,
0,
0,
0,
0,
0,
0,
0,
0,
0,
0,
0,
0,
0,
0,
0,
0,
0,
0,
0,
0,
0,
0,
0,
0,
0,
0,
0,
0,
0,
0,
0,
0,
0,
0,
0,
0,
0,
0,
0,
0,
0,
0,
0,
0,
0,
0,
0,
0,
0,
0,
0,
0,
0,
0,
0,
0,
0,
0,
0,
0,
0,
0,
0,
0,
0,
0,
0,
0,
0,
0,
0,
0,
0,
0,
0,
0,
0,
0,
0,
0,
0,
0,
0,
0,
0,
0,
0,
0,
0,
0,
0,
0,
0,
0,
0,
0,
0,
0,
0,
0,
0,
0,
0,
0,
0,
0,
0,
0,
0,
0,
0,
0,
0,
0,
0,
0,
0,
0,
0,
0,
0,
0,
0,
0,
1,
0,
0,
0,
0,
0,
0,
0,
0,
0,
0,
0,
0,
0,
0,
0,
0,
0,
0,
0,
0,
0,
0,
0,
0,
0,
0,
0,
0,
0,
0,
0,
0,
0,
0,
0,
0,
0,
0,
0,
0,
0,
0,
0,
0,
0,
0,
0,
0,
0,
0,
0,
0,
0,
0,
0,
0,
0,
0,
0,
0,
0,
0,
0,
0,
0,
0,
0,
0,
0,
0,
0,
0,
0,
0,
0,
0,
0,
0,
0,
0,
0,
0,
0,
0,
0,
0,
0,
0,
0,
0,
0,
0,
0,
0,
0,
0,
0,
0,
0,
0,
0,
0,
0,
0,
0,
0,
0,
0,
0,
0,
0,
0,
0,
0,
0,
0,
0,
0,
0,
0,
0,
0,
0,
0,
0,
0,
0,
0,
0,
0,
0,
0,
0,
0,
0,
0,
0,
0,
0,
0,
0,
0,
0,
0,
0,
0,
0,
0,
0,
0,
0,
0,
0,
0,
0,
0,
0,
0,
0,
0,
0,
0,
0,
0,
0,
0,
0,
0,
0,
0,
0,
0,
0,
0,
0,
0,
0,
0,
0,
0,
0,
0,
0,
0,
0,
0,
0,
0,
0,
0,
0,
0,
0,
0,
0,
0,
0,
0,
0,
0,
0,
0,
0,
0,
0,
0,
0,
0,
0,
0,
0,
0,
0,
0,
0,
0,
0,
0,
0,
0,
0,
0,
0,
0,
0,
0,
0,
0,
0,
0,
0,
0,
0,
0,
0,
0,
0,
0,
0,
0,
0,
0,
0,
0,
0,
0,
0,
0,
0,
0,
0,
0,
0,
0,
0,
0,
0,
0,
0,
0,
0,
0,
0,
0,
0,
0,
0,
0,
0,
0,
0,
0,
0,
0,
0,
0,
0,
0,
0,
0,
0,
0,
0,
0,
0,
0,
0,
0,
0,
0,
0,
0,
0,
0,
0,
0,
#ENDOFDATA   :