File: N132962/Quantification/20 keV/MMM1/SPI MM1 Benitoite[4][4].msa
#FORMAT      : EMSA/MAS Spectral Data File
#VERSION     : 1.0
#TITLE       : SPI MM1 Benitoite[4][all]
#DATE        : 11-MAR-2025
#TIME        : 13:20
#OWNER       : Unknown
#NPOINTS     : 4096
#NCOLUMNS    : 1
#XUNITS      : eV
#YUNITS      : counts
#DATATYPE    : Y
#XPERCHAN    : 9.99778
#OFFSET      : 1.69135
#BEAMKV      : 20
#SIGNALTYPE  : EDS
#ELEVANGLE   : 35
#AZIMANGLE   : 0
#LIVETIME    : 239.899
#REALTIME    : 256.805
#PROBECUR    : 1.02853
#TAUWIND     : 0
#TDEADLYR    : 0
#TACTLYR     : 0.045
#TALWIND     : 0.025
#CHOFFSET    : 0.0
#XLABEL      : Energy (eV)
#YLABEL      : Counts
#XPOSITION   : -3.32112
#YPOSITION   : -4.82942
#ZPOSITION   : 30.9284
#EDSDET      : SD
##SPECIMEN   : SPI MM1 Benitoite[4][all]
##D2STDCMP   : Benitoite,(O:34.828),(Si:20.3791),(Ti:11.5776),(Ba:33.2153)
##DET_HASH   : 12273538-fd48-a23f-0a19-f1e6fa85caef
##CALIB_HASH : 6abaa72c-aa41-8738-0be9-f592914732f3
##WORKING    : 15.0 mm
##DET_NAME   : EDAX All
##DET_MODE   : MediumLE
#SPECTRUM    :
28,
21,
8,
27,
98,
431,
1271,
3755,
9888,
12877,
7600,
4940,
7354,
9710,
12020,
22866,
66697,
123400,
91664,
27636,
8209,
4471,
3453,
3617,
4153,
5446,
6205,
5252,
3976,
3534,
3505,
3793,
4641,
4752,
4704,
4678,
4239,
3821,
3796,
3767,
3905,
3967,
4177,
4149,
4205,
4407,
4563,
4674,
5053,
5238,
5525,
5428,
5415,
5605,
6442,
13433,
46504,
114919,
155377,
110453,
46181,
17478,
8995,
5557,
4197,
3939,
3858,
3919,
3996,
3892,
4052,
4077,
4100,
4276,
4355,
4430,
4395,
4305,
4196,
4131,
4098,
4211,
4236,
4114,
4076,
4072,
4025,
4091,
4131,
4217,
4386,
4580,
4435,
4342,
4147,
4050,
4024,
4022,
3978,
3923,
3920,
3855,
4011,
4081,
3893,
3797,
3948,
3865,
3778,
3865,
3701,
3718,
3721,
3804,
3690,
3723,
3735,
3715,
3556,
3621,
3433,
3497,
3501,
3521,
3487,
3290,
3332,
3460,
3350,
3686,
4156,
4757,
4839,
4632,
4024,
3596,
3351,
3152,
3154,
3188,
3413,
3328,
3555,
4035,
4812,
7812,
15943,
33193,
58366,
77958,
79102,
60472,
35420,
16613,
7158,
4122,
3514,
4488,
7615,
13512,
20653,
25386,
24405,
20782,
16921,
13248,
9395,
6136,
4635,
4814,
6381,
8594,
9692,
8229,
6081,
4012,
2895,
2442,
2405,
2420,
2358,
2703,
3226,
4087,
4975,
4754,
4009,
3139,
2531,
2233,
2318,
2690,
2888,
3163,
3143,
2701,
2406,
2158,
2171,
2123,
2010,
1914,
1931,
1823,
1875,
1781,
1889,
1873,
1833,
1848,
1889,
1894,
1954,
1953,
2013,
1873,
1773,
1736,
1621,
1660,
1729,
1713,
1669,
1641,
1578,
1652,
1622,
1554,
1635,
1578,
1563,
1601,
1597,
1550,
1583,
1540,
1558,
1495,
1536,
1476,
1449,
1486,
1496,
1435,
1452,
1484,
1539,
1493,
1488,
1515,
1475,
1462,
1485,
1479,
1344,
1343,
1336,
1356,
1331,
1331,
1346,
1327,
1284,
1285,
1287,
1294,
1253,
1289,
1275,
1254,
1296,
1232,
1266,
1249,
1260,
1221,
1255,
1249,
1207,
1187,
1186,
1186,
1198,
1207,
1224,
1139,
1092,
1194,
1150,
1134,
1126,
1060,
1092,
1069,
1101,
1127,
1070,
1106,
1158,
1070,
1070,
1083,
1073,
1061,
980,
1018,
1004,
1053,
1012,
1034,
1020,
938,
1031,
1056,
1000,
958,
1012,
960,
935,
935,
1002,
923,
940,
935,
918,
990,
870,
861,
883,
955,
933,
903,
860,
850,
848,
885,
804,
888,
860,
804,
828,
818,
843,
799,
810,
796,
790,
841,
827,
704,
760,
763,
750,
708,
794,
727,
731,
735,
716,
732,
668,
730,
709,
713,
715,
678,
647,
678,
720,
662,
651,
663,
624,
656,
677,
651,
608,
587,
581,
579,
662,
642,
625,
634,
574,
618,
584,
534,
546,
545,
580,
587,
551,
607,
567,
521,
585,
511,
545,
509,
486,
565,
540,
526,
522,
481,
516,
482,
504,
446,
462,
499,
479,
436,
455,
485,
449,
426,
455,
436,
450,
440,
417,
434,
420,
415,
441,
412,
426,
428,
381,
412,
405,
383,
379,
391,
384,
379,
390,
386,
402,
371,
346,
351,
324,
329,
334,
380,
350,
320,
315,
312,
350,
329,
325,
318,
340,
338,
327,
307,
309,
279,
285,
271,
296,
297,
272,
270,
307,
278,
251,
258,
236,
258,
259,
260,
272,
236,
244,
251,
232,
264,
218,
260,
234,
218,
221,
195,
223,
232,
205,
211,
213,
222,
201,
222,
201,
189,
201,
208,
178,
213,
181,
170,
181,
177,
196,
148,
181,
183,
184,
172,
180,
153,
168,
169,
176,
145,
152,
164,
157,
164,
155,
175,
138,
166,
151,
154,
125,
124,
137,
152,
134,
116,
130,
121,
118,
132,
144,
122,
123,
92,
134,
116,
97,
105,
104,
126,
96,
102,
95,
107,
100,
88,
96,
121,
87,
89,
74,
76,
87,
74,
92,
89,
87,
97,
88,
77,
90,
84,
78,
82,
87,
51,
58,
63,
59,
82,
67,
58,
67,
60,
72,
63,
54,
69,
47,
61,
50,
51,
54,
49,
48,
56,
48,
58,
47,
61,
39,
37,
51,
42,
43,
41,
45,
36,
39,
40,
38,
44,
32,
37,
34,
35,
34,
26,
32,
26,
36,
34,
25,
34,
32,
25,
27,
34,
25,
16,
28,
21,
19,
15,
16,
19,
20,
19,
17,
14,
13,
21,
11,
11,
12,
9,
15,
10,
16,
6,
7,
12,
11,
5,
4,
6,
6,
9,
6,
5,
9,
5,
3,
2,
2,
2,
4,
0,
2,
0,
0,
0,
6,
1,
1,
2,
1,
1,
1,
1,
1,
1,
1,
0,
0,
0,
0,
1,
1,
1,
1,
3,
0,
0,
2,
1,
0,
0,
3,
0,
0,
0,
0,
1,
0,
0,
0,
1,
0,
1,
0,
0,
0,
0,
0,
0,
0,
0,
0,
0,
0,
0,
0,
1,
1,
1,
0,
0,
1,
0,
0,
1,
0,
0,
0,
0,
0,
0,
0,
1,
0,
1,
0,
0,
0,
0,
0,
0,
0,
0,
1,
0,
0,
0,
1,
0,
1,
0,
0,
0,
0,
0,
0,
0,
0,
0,
0,
0,
0,
0,
0,
1,
0,
1,
0,
0,
0,
0,
0,
0,
0,
0,
0,
1,
0,
0,
0,
1,
0,
0,
0,
0,
0,
1,
0,
1,
0,
0,
0,
0,
0,
0,
0,
0,
0,
0,
0,
0,
0,
0,
0,
0,
0,
0,
0,
0,
0,
0,
1,
0,
0,
0,
1,
0,
0,
0,
0,
0,
0,
1,
0,
1,
0,
0,
0,
1,
0,
0,
0,
0,
0,
0,
1,
0,
0,
0,
1,
0,
0,
0,
0,
0,
0,
0,
0,
0,
0,
0,
0,
0,
0,
0,
0,
0,
0,
0,
1,
0,
0,
1,
0,
0,
0,
0,
0,
0,
0,
0,
0,
0,
0,
0,
0,
0,
0,
0,
0,
0,
0,
0,
0,
0,
0,
0,
0,
0,
0,
0,
0,
0,
0,
0,
0,
0,
1,
0,
0,
0,
0,
0,
0,
0,
0,
0,
0,
0,
1,
1,
0,
0,
0,
0,
0,
0,
0,
0,
0,
0,
0,
0,
0,
0,
0,
0,
0,
0,
0,
0,
0,
0,
0,
0,
0,
0,
0,
1,
0,
0,
0,
1,
0,
0,
1,
0,
0,
0,
0,
0,
0,
0,
0,
0,
0,
0,
0,
0,
0,
0,
0,
0,
0,
0,
0,
0,
0,
0,
0,
0,
0,
0,
0,
0,
0,
0,
0,
0,
0,
0,
0,
0,
0,
0,
0,
0,
0,
0,
0,
0,
0,
0,
0,
0,
0,
0,
0,
0,
0,
0,
0,
0,
0,
0,
0,
0,
0,
0,
0,
0,
0,
0,
0,
0,
0,
0,
0,
0,
0,
0,
0,
0,
0,
0,
0,
0,
0,
0,
0,
0,
0,
0,
0,
0,
0,
0,
0,
0,
0,
0,
0,
0,
0,
0,
0,
0,
0,
0,
0,
0,
0,
0,
0,
0,
0,
0,
0,
0,
0,
0,
0,
0,
0,
0,
0,
0,
0,
0,
0,
0,
0,
0,
0,
0,
0,
0,
0,
0,
0,
0,
0,
0,
0,
0,
0,
0,
0,
0,
0,
0,
0,
0,
0,
0,
0,
0,
0,
0,
1,
0,
0,
0,
0,
0,
0,
0,
0,
0,
0,
0,
0,
0,
0,
0,
0,
0,
0,
0,
0,
0,
0,
0,
0,
0,
0,
0,
0,
0,
0,
0,
0,
0,
0,
0,
0,
0,
0,
0,
0,
0,
0,
0,
0,
0,
0,
0,
0,
0,
0,
0,
0,
0,
0,
0,
0,
0,
0,
0,
0,
0,
0,
0,
0,
0,
0,
0,
0,
0,
0,
0,
0,
0,
0,
0,
0,
0,
0,
0,
0,
0,
0,
0,
0,
0,
0,
0,
0,
0,
0,
0,
0,
0,
0,
0,
0,
0,
0,
0,
0,
0,
0,
0,
0,
0,
0,
0,
0,
0,
0,
0,
0,
0,
0,
0,
0,
0,
0,
0,
0,
0,
0,
0,
0,
0,
0,
0,
0,
0,
0,
0,
0,
0,
0,
0,
0,
0,
0,
0,
0,
0,
0,
0,
0,
0,
0,
0,
0,
0,
0,
0,
0,
0,
0,
0,
0,
0,
0,
0,
0,
0,
0,
0,
0,
0,
0,
0,
0,
0,
0,
0,
0,
0,
0,
0,
0,
0,
0,
0,
0,
0,
0,
0,
0,
0,
0,
0,
0,
0,
0,
0,
0,
0,
0,
0,
0,
0,
0,
0,
0,
0,
0,
0,
0,
0,
0,
0,
0,
0,
0,
0,
0,
0,
0,
0,
0,
0,
0,
0,
0,
0,
0,
0,
0,
0,
0,
0,
0,
0,
0,
0,
0,
0,
0,
0,
0,
0,
0,
0,
0,
0,
0,
0,
0,
0,
0,
0,
0,
0,
0,
0,
0,
0,
0,
0,
0,
0,
0,
0,
0,
0,
#ENDOFDATA   :