File: N132962/Quantification/20 keV/MMM1/SPI MM1 Bustamite[1][4].msa
#FORMAT      : EMSA/MAS Spectral Data File
#VERSION     : 1.0
#TITLE       : SPI MM1 Bustamite[1][all]
#DATE        : 11-MAR-2025
#TIME        : 14:03
#OWNER       : Unknown
#NPOINTS     : 4096
#NCOLUMNS    : 1
#XUNITS      : eV
#YUNITS      : counts
#DATATYPE    : Y
#XPERCHAN    : 9.99778
#OFFSET      : 1.69135
#BEAMKV      : 20
#SIGNALTYPE  : EDS
#ELEVANGLE   : 35
#AZIMANGLE   : 0
#LIVETIME    : 239.923
#REALTIME    : 255.787
#PROBECUR    : 1.02902
#TAUWIND     : 0
#TDEADLYR    : 0
#TACTLYR     : 0.045
#TALWIND     : 0.025
#CHOFFSET    : 0.0
#XLABEL      : Energy (eV)
#YLABEL      : Counts
#XPOSITION   : 2.70097
#YPOSITION   : -2.6919
#ZPOSITION   : 30.9284
#EDSDET      : SD
##SPECIMEN   : SPI MM1 Bustamite[1][all]
##D2STDCMP   : Bustamite,(O:38.8357),(Si:22.7243),(Ca:16.2141),(Mn:22.2259),6.0
##DET_HASH   : 12273538-fd48-a23f-0a19-f1e6fa85caef
##CALIB_HASH : 6abaa72c-aa41-8738-0be9-f592914732f3
##WORKING    : 15.0 mm
##DET_NAME   : EDAX All
##DET_MODE   : MediumLE
#SPECTRUM    :
23,
24,
6,
18,
59,
296,
922,
2986,
8563,
12086,
7617,
4178,
3105,
3245,
4791,
15683,
60769,
117933,
87741,
25763,
9099,
10512,
9227,
7404,
6070,
3549,
2366,
2295,
2329,
2456,
2449,
2619,
2867,
3182,
3616,
3404,
3258,
3341,
3374,
3622,
3880,
4372,
4764,
4470,
4204,
4303,
4346,
4513,
4696,
4995,
5076,
5148,
5259,
5465,
6374,
15146,
56416,
142589,
193531,
137027,
56298,
20037,
9515,
5662,
4143,
3952,
3613,
3408,
3227,
3231,
3223,
3200,
3300,
3274,
3419,
3603,
3644,
3491,
3439,
3326,
3210,
3233,
3278,
3266,
3176,
3206,
3080,
3169,
3131,
3073,
3148,
3138,
3111,
3070,
3181,
3019,
3028,
3028,
3042,
2989,
3044,
2941,
2857,
2831,
2972,
2826,
2878,
2915,
2851,
2837,
2862,
2729,
2725,
2781,
2754,
2929,
3094,
3279,
3664,
5504,
12301,
28854,
53124,
66583,
56153,
32457,
13432,
5329,
3000,
2770,
3226,
4309,
6644,
9407,
10102,
8632,
5445,
3517,
2534,
2422,
2236,
2287,
2033,
2043,
1969,
2071,
1963,
1950,
1876,
1977,
1974,
1968,
1877,
1916,
1969,
1929,
1834,
1942,
1958,
1909,
1707,
1725,
1790,
1830,
1790,
1826,
1748,
1702,
1661,
1783,
1715,
1715,
1681,
1652,
1680,
1706,
1645,
1599,
1701,
1743,
1734,
1791,
1680,
1685,
1652,
1614,
1568,
1615,
1553,
1673,
1709,
2241,
3980,
8628,
17999,
30736,
39793,
39453,
29890,
17270,
7995,
3463,
1920,
1487,
1459,
1416,
1380,
1553,
1685,
2413,
4180,
7406,
11265,
14229,
14925,
13310,
10460,
7655,
5068,
3201,
1982,
1487,
1251,
1164,
1091,
1093,
1082,
1153,
1118,
1144,
1158,
1317,
1558,
1904,
2298,
2448,
2315,
1993,
1566,
1235,
1044,
1002,
1010,
984,
971,
934,
938,
1030,
964,
1031,
1018,
961,
995,
1059,
1041,
993,
1007,
901,
916,
872,
927,
936,
883,
869,
794,
856,
849,
853,
853,
841,
823,
886,
834,
841,
799,
848,
772,
787,
782,
797,
786,
769,
785,
773,
799,
795,
910,
913,
840,
892,
786,
738,
750,
727,
667,
643,
685,
683,
674,
700,
694,
652,
692,
640,
605,
615,
680,
601,
609,
663,
621,
653,
625,
620,
610,
605,
608,
652,
630,
625,
623,
638,
597,
586,
604,
554,
579,
532,
548,
552,
576,
585,
541,
558,
541,
602,
522,
563,
498,
493,
542,
490,
544,
488,
486,
535,
493,
495,
476,
453,
428,
440,
436,
458,
435,
430,
444,
448,
432,
420,
460,
455,
462,
420,
437,
412,
395,
410,
430,
419,
392,
412,
383,
391,
368,
421,
361,
380,
369,
421,
370,
384,
387,
360,
366,
350,
340,
352,
335,
355,
336,
360,
350,
338,
324,
328,
315,
307,
327,
304,
336,
294,
318,
293,
281,
322,
264,
292,
311,
300,
300,
293,
294,
285,
268,
271,
308,
289,
298,
260,
254,
266,
262,
234,
256,
244,
254,
262,
245,
240,
214,
238,
211,
248,
236,
240,
208,
225,
203,
198,
212,
207,
217,
204,
194,
217,
223,
199,
198,
201,
192,
199,
191,
219,
178,
191,
198,
189,
173,
189,
151,
164,
171,
176,
165,
150,
149,
141,
168,
152,
134,
136,
147,
157,
147,
131,
149,
142,
138,
164,
152,
140,
133,
132,
128,
129,
130,
126,
132,
105,
109,
120,
111,
144,
124,
120,
98,
110,
98,
104,
107,
100,
102,
119,
99,
98,
109,
106,
104,
85,
96,
97,
95,
94,
98,
84,
98,
79,
82,
80,
88,
85,
85,
88,
85,
92,
78,
97,
65,
75,
70,
75,
60,
96,
75,
67,
58,
64,
81,
63,
70,
70,
72,
66,
53,
78,
59,
56,
59,
48,
49,
58,
72,
47,
57,
49,
45,
60,
56,
46,
50,
46,
55,
53,
44,
53,
36,
47,
45,
46,
42,
28,
34,
30,
33,
36,
46,
48,
41,
38,
35,
34,
43,
40,
26,
37,
38,
26,
21,
29,
23,
26,
20,
29,
30,
25,
36,
28,
23,
25,
28,
19,
29,
15,
19,
22,
15,
25,
22,
24,
17,
20,
18,
22,
17,
16,
11,
27,
10,
14,
26,
9,
11,
15,
11,
10,
11,
8,
13,
13,
12,
19,
11,
7,
13,
13,
7,
8,
10,
8,
7,
13,
9,
4,
7,
3,
8,
6,
2,
3,
6,
3,
6,
7,
3,
2,
1,
6,
1,
3,
5,
3,
2,
1,
2,
0,
0,
1,
0,
2,
0,
0,
2,
1,
0,
0,
0,
0,
0,
1,
0,
0,
0,
0,
1,
1,
1,
0,
2,
1,
0,
1,
0,
1,
1,
1,
1,
1,
0,
1,
1,
0,
0,
1,
0,
1,
0,
0,
1,
0,
1,
0,
0,
0,
1,
0,
0,
1,
0,
0,
1,
0,
0,
0,
0,
0,
1,
0,
0,
1,
0,
1,
0,
1,
0,
0,
0,
0,
0,
0,
0,
1,
0,
0,
0,
0,
0,
0,
0,
0,
0,
0,
0,
0,
1,
0,
0,
0,
1,
0,
0,
0,
0,
1,
0,
0,
0,
0,
0,
0,
0,
0,
0,
0,
0,
0,
0,
0,
0,
0,
0,
0,
0,
0,
0,
0,
0,
0,
0,
0,
0,
0,
1,
0,
0,
0,
0,
0,
0,
0,
0,
0,
0,
0,
0,
0,
1,
0,
0,
0,
0,
0,
0,
0,
0,
0,
0,
0,
0,
0,
0,
0,
0,
0,
0,
0,
0,
0,
0,
0,
0,
0,
0,
0,
0,
0,
0,
0,
0,
0,
0,
0,
0,
0,
0,
0,
0,
0,
0,
0,
0,
0,
0,
0,
0,
0,
0,
0,
0,
0,
0,
0,
0,
0,
0,
0,
0,
0,
0,
0,
0,
0,
0,
0,
0,
0,
0,
0,
0,
0,
0,
0,
0,
0,
0,
0,
0,
0,
0,
0,
0,
0,
0,
0,
0,
0,
0,
0,
0,
0,
0,
0,
0,
0,
0,
0,
0,
0,
0,
0,
0,
0,
0,
0,
0,
0,
0,
0,
0,
0,
0,
0,
0,
0,
0,
0,
0,
0,
0,
0,
0,
0,
0,
0,
0,
0,
0,
0,
0,
0,
0,
0,
0,
0,
0,
0,
0,
0,
0,
0,
0,
0,
0,
0,
0,
0,
0,
0,
0,
0,
0,
0,
0,
0,
0,
0,
0,
0,
0,
0,
0,
0,
0,
0,
0,
0,
0,
0,
0,
0,
0,
0,
0,
0,
0,
0,
0,
0,
0,
0,
0,
0,
0,
0,
0,
0,
0,
0,
0,
0,
0,
0,
0,
0,
0,
0,
0,
0,
0,
0,
0,
0,
0,
0,
0,
0,
0,
0,
0,
0,
0,
0,
0,
0,
0,
0,
0,
0,
0,
0,
0,
0,
0,
0,
0,
0,
0,
0,
0,
0,
0,
0,
0,
0,
0,
0,
0,
0,
0,
0,
0,
0,
0,
0,
0,
0,
0,
0,
0,
0,
0,
0,
0,
0,
0,
0,
0,
0,
0,
0,
0,
0,
0,
0,
0,
0,
0,
0,
0,
0,
0,
0,
0,
0,
0,
0,
0,
0,
0,
0,
0,
0,
0,
0,
0,
0,
0,
0,
0,
0,
0,
0,
0,
0,
0,
0,
0,
0,
0,
0,
0,
0,
0,
0,
0,
0,
0,
0,
0,
0,
0,
0,
0,
0,
0,
0,
0,
0,
0,
0,
0,
0,
0,
0,
0,
0,
0,
0,
0,
0,
0,
0,
0,
0,
0,
0,
0,
0,
0,
0,
0,
0,
0,
0,
0,
0,
0,
0,
0,
0,
0,
0,
0,
0,
0,
0,
0,
0,
0,
0,
0,
0,
0,
0,
0,
0,
0,
0,
0,
0,
0,
0,
0,
0,
0,
0,
0,
0,
0,
0,
0,
0,
0,
0,
0,
0,
0,
0,
0,
0,
0,
0,
0,
0,
0,
0,
0,
0,
0,
0,
0,
0,
0,
0,
0,
0,
0,
0,
0,
0,
0,
0,
0,
0,
0,
0,
0,
0,
0,
0,
0,
0,
0,
0,
0,
0,
0,
0,
0,
0,
0,
0,
0,
0,
0,
0,
0,
0,
0,
0,
0,
0,
0,
0,
0,
0,
0,
0,
0,
0,
0,
0,
0,
0,
0,
0,
0,
0,
0,
0,
0,
0,
0,
0,
0,
0,
0,
0,
0,
0,
0,
0,
0,
0,
0,
0,
0,
0,
0,
0,
0,
0,
0,
0,
0,
0,
0,
0,
0,
0,
0,
0,
0,
0,
0,
0,
0,
0,
0,
0,
0,
0,
0,
0,
0,
0,
0,
0,
0,
0,
0,
0,
0,
0,
0,
0,
0,
0,
0,
0,
0,
0,
0,
0,
0,
0,
0,
0,
0,
0,
0,
0,
0,
0,
0,
0,
0,
0,
0,
0,
0,
0,
0,
0,
0,
0,
0,
0,
0,
0,
0,
0,
0,
0,
0,
0,
#ENDOFDATA   :