File: N132962/Quantification/20 keV/MMM1/SPI MM1 Almandine[3][4].msa
#FORMAT      : EMSA/MAS Spectral Data File
#VERSION     : 1.0
#TITLE       : SPI MM1 Almandine[3][all]
#DATE        : 11-MAR-2025
#TIME        : 13:01
#OWNER       : Unknown
#NPOINTS     : 4096
#NCOLUMNS    : 1
#XUNITS      : eV
#YUNITS      : counts
#DATATYPE    : Y
#XPERCHAN    : 9.99778
#OFFSET      : 1.69135
#BEAMKV      : 20
#SIGNALTYPE  : EDS
#ELEVANGLE   : 35
#AZIMANGLE   : 0
#LIVETIME    : 239.851
#REALTIME    : 255.277
#PROBECUR    : 1.02699
#TAUWIND     : 0
#TDEADLYR    : 0
#TACTLYR     : 0.045
#TALWIND     : 0.025
#CHOFFSET    : 0.0
#XLABEL      : Energy (eV)
#YLABEL      : Counts
#XPOSITION   : 0.43894
#YPOSITION   : -7.89301
#ZPOSITION   : 30.9284
#EDSDET      : SD
##SPECIMEN   : SPI MM1 Almandine[3][all]
##D2STDCMP   : Almandine,(O:38.5719),(Al:10.8416),(Si:16.9275),(Fe:33.6591),4.05
##DET_HASH   : 12273538-fd48-a23f-0a19-f1e6fa85caef
##CALIB_HASH : 6abaa72c-aa41-8738-0be9-f592914732f3
##WORKING    : 15.0 mm
##DET_NAME   : EDAX All
##DET_MODE   : MediumLE
#SPECTRUM    :
24,
19,
10,
11,
88,
307,
829,
2582,
7427,
10018,
5737,
2991,
3061,
3757,
6413,
23128,
90521,
177586,
129295,
35559,
7420,
5414,
8008,
14152,
13777,
6893,
3242,
2589,
2464,
2477,
2557,
2538,
2728,
3092,
3383,
3401,
3470,
3625,
4052,
5996,
15532,
35191,
42256,
25204,
9661,
5087,
5481,
12852,
39901,
81009,
81828,
43449,
15020,
6432,
5353,
10872,
39153,
98971,
134072,
95569,
39535,
14190,
7095,
4217,
3111,
2857,
2963,
2917,
2832,
2730,
2674,
2700,
2730,
2722,
3029,
3199,
3044,
2970,
2861,
2936,
2841,
2835,
2795,
2712,
2689,
2822,
2712,
2748,
2715,
2719,
2786,
2704,
2713,
2690,
2681,
2585,
2616,
2674,
2646,
2696,
2555,
2582,
2608,
2489,
2642,
2575,
2683,
2596,
2528,
2619,
2358,
2376,
2295,
2468,
2439,
2400,
2512,
2559,
2441,
2906,
4256,
7680,
12648,
15409,
13207,
8294,
4342,
2699,
2298,
2162,
2272,
2589,
3010,
3660,
3662,
3356,
2649,
2281,
2040,
1886,
1990,
1926,
1941,
1901,
1909,
1843,
1923,
1821,
1916,
1950,
1881,
1851,
1910,
1836,
1864,
1843,
1957,
1725,
1765,
1632,
1616,
1665,
1637,
1688,
1622,
1689,
1645,
1622,
1587,
1602,
1566,
1579,
1533,
1478,
1554,
1482,
1531,
1489,
1560,
1508,
1562,
1467,
1442,
1477,
1404,
1393,
1415,
1263,
1426,
1404,
1381,
1357,
1353,
1503,
1705,
2039,
2282,
2194,
1919,
1621,
1462,
1396,
1234,
1238,
1282,
1255,
1412,
1530,
2185,
4405,
9488,
18315,
28671,
35290,
32842,
24127,
13985,
6449,
2985,
1624,
1254,
1083,
1142,
1020,
1088,
1095,
1102,
1103,
1114,
1218,
1404,
1768,
2578,
3672,
4942,
5234,
4861,
3763,
2435,
1648,
1184,
935,
912,
865,
795,
864,
851,
923,
916,
910,
922,
845,
809,
823,
917,
818,
801,
777,
872,
822,
870,
816,
810,
783,
823,
746,
784,
810,
736,
698,
751,
767,
783,
760,
747,
740,
743,
740,
675,
687,
699,
687,
640,
656,
686,
649,
650,
645,
645,
581,
627,
641,
669,
631,
644,
624,
616,
598,
598,
582,
635,
607,
615,
578,
552,
578,
524,
558,
593,
501,
545,
590,
566,
571,
520,
528,
482,
514,
517,
541,
496,
555,
533,
519,
492,
534,
477,
503,
458,
449,
473,
529,
488,
504,
474,
452,
437,
432,
430,
481,
444,
454,
444,
433,
449,
415,
420,
431,
466,
458,
440,
422,
408,
394,
371,
397,
429,
412,
398,
437,
379,
377,
371,
373,
401,
402,
384,
358,
406,
367,
335,
324,
336,
355,
339,
329,
316,
337,
309,
283,
309,
351,
324,
303,
333,
313,
307,
298,
319,
338,
259,
305,
269,
312,
299,
297,
272,
264,
251,
281,
277,
225,
284,
287,
267,
264,
279,
248,
240,
251,
273,
227,
237,
232,
239,
208,
236,
229,
221,
236,
252,
214,
213,
218,
199,
210,
232,
223,
238,
239,
225,
218,
211,
194,
198,
180,
213,
179,
195,
184,
214,
176,
176,
220,
186,
177,
193,
194,
176,
187,
180,
168,
172,
169,
174,
161,
148,
145,
140,
163,
139,
153,
154,
154,
174,
151,
139,
137,
152,
119,
152,
113,
139,
131,
135,
130,
114,
117,
130,
121,
135,
127,
107,
121,
131,
107,
106,
124,
98,
108,
95,
93,
102,
104,
106,
123,
109,
99,
81,
95,
85,
92,
82,
79,
108,
84,
95,
88,
85,
77,
81,
72,
81,
86,
69,
74,
83,
78,
77,
70,
68,
62,
72,
76,
50,
71,
63,
77,
84,
76,
48,
65,
79,
58,
63,
52,
53,
58,
59,
49,
46,
52,
67,
60,
55,
57,
40,
57,
50,
52,
57,
57,
40,
50,
44,
34,
40,
57,
36,
44,
33,
41,
43,
34,
41,
33,
40,
20,
35,
37,
38,
27,
37,
31,
31,
31,
35,
35,
27,
33,
21,
31,
36,
26,
34,
35,
23,
27,
21,
28,
23,
21,
28,
23,
12,
21,
16,
23,
26,
17,
20,
17,
20,
14,
17,
20,
23,
14,
8,
17,
11,
15,
19,
12,
15,
16,
18,
14,
12,
16,
11,
12,
15,
10,
11,
10,
16,
8,
8,
11,
9,
15,
11,
6,
10,
4,
8,
3,
7,
4,
9,
6,
7,
8,
3,
2,
4,
5,
6,
5,
2,
2,
7,
3,
1,
4,
4,
0,
1,
4,
2,
0,
3,
1,
0,
2,
0,
1,
0,
0,
0,
2,
0,
0,
0,
0,
0,
1,
3,
0,
2,
0,
0,
1,
0,
0,
0,
0,
0,
1,
0,
0,
0,
0,
0,
0,
0,
0,
1,
1,
0,
0,
0,
0,
0,
0,
0,
0,
0,
0,
0,
0,
0,
0,
1,
0,
0,
0,
0,
0,
0,
0,
0,
0,
0,
0,
0,
0,
0,
0,
0,
0,
0,
0,
1,
0,
0,
0,
0,
0,
0,
0,
0,
0,
0,
0,
0,
0,
0,
0,
0,
0,
0,
0,
0,
0,
0,
0,
0,
0,
0,
0,
0,
0,
0,
0,
0,
0,
0,
0,
0,
0,
0,
0,
0,
0,
0,
0,
0,
0,
0,
0,
0,
0,
1,
0,
0,
0,
0,
1,
0,
0,
0,
0,
0,
0,
0,
0,
0,
0,
0,
0,
0,
0,
0,
0,
0,
0,
0,
0,
0,
0,
0,
0,
0,
0,
0,
0,
0,
0,
0,
0,
0,
0,
0,
0,
0,
0,
0,
0,
0,
0,
0,
0,
0,
0,
0,
0,
0,
0,
0,
0,
0,
0,
0,
0,
0,
0,
0,
0,
0,
0,
0,
0,
0,
0,
0,
0,
0,
0,
0,
0,
0,
0,
0,
0,
1,
0,
0,
0,
0,
0,
0,
0,
0,
0,
0,
0,
0,
0,
0,
0,
0,
0,
0,
0,
1,
0,
0,
0,
0,
0,
0,
0,
0,
0,
0,
0,
0,
0,
0,
0,
0,
0,
0,
0,
0,
0,
0,
0,
0,
0,
0,
0,
0,
0,
0,
0,
0,
0,
0,
0,
0,
0,
0,
0,
0,
0,
0,
0,
0,
0,
0,
0,
0,
0,
0,
0,
0,
0,
0,
0,
0,
0,
0,
0,
0,
0,
0,
0,
0,
0,
0,
1,
0,
0,
0,
0,
0,
0,
0,
0,
0,
0,
0,
0,
0,
0,
0,
0,
0,
0,
0,
0,
0,
0,
0,
0,
0,
0,
0,
0,
0,
0,
0,
0,
0,
0,
0,
0,
0,
0,
0,
0,
0,
0,
0,
0,
0,
0,
0,
0,
0,
0,
0,
0,
0,
0,
0,
0,
0,
0,
0,
0,
0,
0,
0,
0,
0,
0,
0,
0,
0,
0,
0,
0,
0,
0,
0,
0,
0,
0,
0,
0,
0,
0,
0,
0,
0,
0,
0,
0,
0,
0,
0,
0,
0,
0,
0,
0,
0,
0,
0,
0,
0,
0,
0,
0,
0,
0,
0,
0,
0,
0,
0,
0,
0,
0,
0,
0,
0,
0,
0,
0,
0,
0,
0,
0,
0,
0,
0,
0,
0,
0,
0,
0,
0,
0,
0,
0,
0,
0,
0,
0,
0,
0,
0,
0,
0,
0,
0,
0,
0,
0,
0,
0,
0,
0,
0,
0,
0,
0,
0,
0,
0,
0,
0,
0,
0,
0,
0,
0,
0,
0,
0,
0,
0,
0,
0,
0,
0,
0,
0,
0,
0,
0,
0,
0,
0,
0,
0,
0,
0,
0,
0,
0,
0,
0,
0,
0,
0,
0,
0,
0,
0,
0,
0,
0,
0,
0,
0,
0,
0,
0,
0,
0,
0,
0,
0,
0,
0,
0,
0,
0,
0,
0,
0,
0,
0,
0,
0,
0,
0,
0,
0,
0,
0,
0,
0,
0,
0,
0,
0,
0,
0,
0,
0,
0,
0,
0,
0,
0,
0,
0,
0,
0,
0,
0,
0,
0,
0,
0,
0,
0,
0,
0,
0,
0,
0,
0,
0,
0,
0,
0,
0,
0,
0,
0,
0,
0,
0,
0,
0,
0,
0,
0,
0,
0,
0,
0,
0,
0,
0,
0,
0,
0,
0,
0,
0,
0,
0,
0,
0,
0,
0,
0,
0,
0,
0,
0,
0,
0,
0,
0,
0,
0,
0,
0,
0,
0,
0,
0,
0,
0,
0,
0,
0,
0,
0,
0,
0,
0,
0,
0,
0,
0,
0,
0,
0,
0,
0,
0,
0,
0,
0,
0,
0,
0,
0,
0,
0,
0,
0,
0,
0,
0,
0,
0,
0,
0,
0,
0,
0,
0,
0,
0,
0,
0,
0,
0,
0,
0,
0,
0,
0,
0,
0,
0,
0,
0,
0,
0,
0,
0,
0,
0,
0,
0,
0,
0,
0,
0,
0,
0,
0,
0,
0,
0,
0,
0,
0,
0,
0,
0,
0,
0,
0,
0,
0,
0,
0,
0,
0,
0,
0,
0,
#ENDOFDATA   :