File: N132962/Quantification/20 keV/MMM1/SPI MM1 Calcite[1][4].msa
#FORMAT      : EMSA/MAS Spectral Data File
#VERSION     : 1.0
#TITLE       : SPI MM1 Calcite[1][all]
#DATE        : 11-MAR-2025
#TIME        : 14:13
#OWNER       : Unknown
#NPOINTS     : 4096
#NCOLUMNS    : 1
#XUNITS      : eV
#YUNITS      : counts
#DATATYPE    : Y
#XPERCHAN    : 9.99778
#OFFSET      : 1.69135
#BEAMKV      : 20
#SIGNALTYPE  : EDS
#ELEVANGLE   : 35
#AZIMANGLE   : 0
#LIVETIME    : 239.836
#REALTIME    : 252.01
#PROBECUR    : 1.02902
#TAUWIND     : 0
#TDEADLYR    : 0
#TACTLYR     : 0.045
#TALWIND     : 0.025
#CHOFFSET    : 0.0
#XLABEL      : Energy (eV)
#YLABEL      : Counts
#XPOSITION   : 0.40161
#YPOSITION   : -2.70204
#ZPOSITION   : 30.9284
#EDSDET      : SD
##SPECIMEN   : SPI MM1 Calcite[1][all]
##D2STDCMP   : Calcite,(C:12.0003),(O:47.9565),(Ca:40.0432),5.0
##DET_HASH   : 12273538-fd48-a23f-0a19-f1e6fa85caef
##CALIB_HASH : 6abaa72c-aa41-8738-0be9-f592914732f3
##WORKING    : 15.0 mm
##DET_NAME   : EDAX All
##DET_MODE   : MediumLE
#SPECTRUM    :
31,
34,
10,
15,
79,
465,
1916,
8449,
29463,
42822,
23552,
7934,
3388,
2152,
2840,
8832,
33731,
66486,
48908,
13550,
2339,
1310,
1403,
1588,
1614,
1626,
1832,
2018,
2179,
2328,
2373,
2489,
2548,
2466,
2641,
2667,
2891,
2931,
3033,
3152,
3260,
3408,
3446,
3665,
3724,
3634,
3891,
3855,
3972,
3924,
4053,
4133,
4064,
4045,
4062,
4096,
4264,
4530,
4670,
4692,
4529,
4353,
4229,
4544,
5342,
5628,
5076,
4320,
3661,
3446,
3498,
3545,
3559,
3721,
3587,
3670,
3684,
3616,
3493,
3416,
3383,
3226,
3237,
3243,
3267,
3173,
3193,
3155,
2995,
3024,
2929,
3030,
3011,
2908,
3002,
2898,
2848,
2818,
2844,
2736,
2845,
2788,
2826,
2713,
2646,
2830,
2711,
2695,
2705,
2627,
2580,
2522,
2503,
2568,
2541,
2665,
2901,
3733,
5059,
10631,
30445,
80110,
149903,
190460,
160400,
89949,
34489,
10390,
3906,
3208,
4369,
7895,
14632,
22040,
24739,
19594,
11109,
5067,
2495,
1823,
1663,
1624,
1570,
1520,
1480,
1483,
1462,
1457,
1391,
1378,
1453,
1469,
1369,
1431,
1366,
1428,
1336,
1376,
1334,
1345,
1351,
1335,
1374,
1400,
1332,
1328,
1295,
1317,
1337,
1262,
1244,
1268,
1280,
1283,
1253,
1239,
1237,
1277,
1239,
1252,
1252,
1175,
1177,
1148,
1141,
1141,
1129,
1165,
1150,
1174,
1139,
1120,
1127,
1070,
1118,
1116,
1170,
1163,
1107,
1089,
1059,
960,
1041,
941,
1008,
1015,
969,
980,
1003,
992,
1045,
1012,
1053,
1016,
1087,
1075,
1020,
963,
935,
963,
980,
938,
882,
901,
926,
916,
907,
843,
914,
875,
836,
864,
829,
888,
890,
835,
831,
850,
785,
760,
828,
778,
807,
792,
958,
860,
944,
932,
919,
851,
826,
719,
788,
779,
728,
785,
757,
723,
748,
714,
724,
703,
704,
704,
664,
689,
660,
695,
652,
645,
659,
627,
651,
604,
627,
638,
627,
672,
584,
660,
586,
591,
576,
589,
581,
577,
543,
580,
621,
504,
603,
516,
568,
522,
544,
541,
580,
527,
568,
537,
542,
528,
528,
499,
522,
484,
524,
520,
473,
500,
460,
484,
518,
453,
485,
481,
498,
466,
452,
445,
470,
461,
463,
485,
436,
449,
449,
415,
439,
415,
406,
421,
404,
438,
419,
407,
450,
406,
418,
435,
404,
400,
389,
391,
372,
353,
347,
365,
357,
380,
365,
372,
364,
363,
353,
359,
396,
343,
366,
310,
329,
323,
366,
333,
280,
340,
307,
324,
336,
316,
298,
261,
328,
268,
280,
307,
298,
275,
312,
286,
286,
277,
300,
264,
273,
287,
262,
266,
247,
247,
287,
252,
225,
259,
228,
222,
237,
253,
231,
227,
232,
243,
221,
209,
243,
216,
225,
218,
210,
229,
248,
213,
211,
230,
200,
190,
207,
198,
213,
183,
201,
190,
211,
183,
182,
178,
168,
152,
183,
185,
170,
183,
185,
188,
186,
156,
146,
165,
155,
166,
154,
173,
168,
160,
149,
135,
143,
145,
142,
159,
143,
157,
126,
161,
136,
143,
137,
163,
139,
133,
135,
131,
117,
132,
120,
136,
123,
112,
108,
115,
114,
107,
139,
101,
98,
103,
109,
113,
114,
91,
101,
100,
90,
88,
111,
98,
110,
87,
92,
79,
92,
85,
100,
96,
85,
78,
74,
72,
80,
82,
94,
62,
88,
72,
84,
79,
94,
85,
69,
79,
66,
77,
77,
61,
68,
59,
55,
66,
71,
73,
74,
64,
49,
58,
50,
50,
69,
45,
45,
48,
63,
55,
46,
58,
49,
48,
50,
45,
53,
56,
43,
53,
50,
48,
38,
54,
41,
48,
35,
35,
42,
33,
37,
47,
33,
42,
36,
41,
44,
37,
19,
33,
29,
47,
37,
28,
32,
27,
26,
34,
26,
33,
33,
33,
26,
27,
19,
22,
27,
24,
30,
19,
34,
18,
15,
20,
17,
34,
14,
23,
14,
16,
11,
24,
27,
19,
12,
19,
23,
10,
15,
7,
16,
20,
12,
14,
12,
10,
9,
15,
17,
18,
14,
8,
14,
8,
8,
13,
6,
13,
10,
10,
10,
7,
10,
12,
7,
7,
8,
11,
10,
11,
8,
5,
8,
8,
11,
8,
2,
2,
4,
6,
1,
3,
2,
2,
1,
4,
4,
4,
2,
2,
2,
0,
2,
2,
2,
0,
3,
5,
0,
2,
1,
0,
1,
0,
0,
0,
0,
2,
0,
0,
0,
0,
1,
1,
0,
0,
0,
0,
0,
0,
0,
0,
0,
0,
0,
0,
1,
1,
0,
0,
0,
0,
0,
0,
0,
0,
1,
0,
0,
0,
0,
0,
1,
0,
0,
0,
0,
0,
0,
0,
0,
0,
0,
0,
0,
0,
0,
0,
0,
0,
0,
0,
0,
0,
0,
1,
0,
0,
0,
0,
0,
0,
0,
0,
0,
0,
0,
0,
0,
0,
0,
1,
0,
0,
0,
0,
0,
0,
0,
0,
0,
0,
0,
1,
0,
0,
0,
0,
0,
0,
0,
0,
0,
1,
0,
0,
0,
0,
1,
0,
0,
0,
1,
0,
0,
0,
0,
0,
0,
0,
0,
0,
0,
0,
0,
0,
0,
0,
0,
0,
0,
0,
0,
0,
0,
0,
0,
0,
0,
0,
0,
0,
0,
0,
0,
0,
0,
0,
0,
0,
0,
0,
0,
0,
0,
1,
0,
0,
0,
0,
0,
0,
0,
0,
0,
0,
0,
0,
0,
0,
0,
0,
0,
0,
0,
0,
0,
0,
0,
0,
0,
0,
0,
0,
0,
0,
0,
0,
0,
0,
1,
0,
0,
0,
0,
0,
0,
0,
0,
0,
0,
0,
0,
0,
0,
0,
0,
0,
0,
0,
0,
0,
0,
0,
0,
0,
0,
0,
0,
0,
0,
0,
0,
0,
0,
0,
0,
0,
0,
0,
0,
0,
0,
0,
0,
0,
0,
0,
0,
0,
0,
0,
0,
0,
0,
0,
0,
0,
0,
0,
0,
0,
0,
0,
0,
0,
0,
0,
0,
0,
0,
0,
0,
0,
0,
0,
0,
0,
0,
0,
0,
0,
0,
0,
0,
0,
0,
0,
0,
0,
1,
0,
0,
0,
0,
0,
0,
0,
0,
0,
0,
0,
0,
0,
0,
0,
0,
0,
0,
0,
0,
0,
0,
0,
0,
0,
0,
0,
0,
0,
0,
0,
0,
0,
0,
0,
0,
0,
0,
0,
0,
0,
0,
0,
0,
0,
0,
0,
0,
0,
0,
0,
0,
0,
0,
0,
0,
0,
0,
0,
0,
0,
0,
0,
0,
0,
0,
0,
0,
0,
0,
0,
0,
0,
0,
0,
0,
0,
0,
0,
0,
0,
0,
0,
0,
0,
0,
0,
0,
0,
0,
0,
0,
0,
0,
0,
0,
0,
0,
0,
0,
0,
0,
0,
0,
0,
0,
0,
0,
0,
0,
0,
0,
0,
0,
0,
0,
0,
0,
0,
0,
0,
0,
0,
0,
0,
0,
0,
0,
0,
0,
0,
0,
0,
0,
0,
0,
0,
0,
0,
0,
0,
0,
0,
0,
0,
0,
0,
0,
0,
0,
0,
0,
0,
0,
0,
0,
0,
0,
0,
0,
0,
0,
0,
0,
0,
0,
0,
0,
0,
0,
0,
0,
0,
0,
0,
0,
0,
0,
0,
0,
0,
0,
0,
0,
0,
0,
0,
0,
0,
0,
0,
0,
0,
0,
0,
0,
0,
0,
0,
0,
0,
0,
0,
0,
0,
0,
0,
0,
0,
0,
0,
0,
0,
0,
0,
0,
0,
0,
0,
0,
0,
0,
0,
0,
0,
0,
0,
0,
0,
0,
0,
0,
0,
0,
0,
0,
0,
0,
0,
0,
0,
0,
0,
0,
0,
0,
0,
0,
0,
0,
0,
0,
0,
0,
0,
0,
0,
0,
0,
0,
0,
0,
0,
0,
0,
0,
0,
0,
0,
0,
0,
0,
0,
0,
0,
0,
0,
0,
0,
0,
0,
0,
0,
0,
0,
0,
0,
0,
0,
0,
0,
0,
0,
0,
0,
0,
0,
0,
0,
0,
0,
0,
0,
0,
0,
0,
0,
0,
0,
0,
0,
0,
0,
0,
0,
0,
0,
0,
0,
0,
0,
0,
0,
0,
0,
0,
0,
0,
0,
0,
0,
0,
0,
0,
0,
0,
0,
0,
0,
0,
0,
0,
0,
0,
0,
0,
0,
0,
0,
0,
0,
0,
0,
0,
0,
0,
0,
0,
0,
0,
0,
0,
0,
0,
0,
0,
0,
0,
0,
0,
0,
0,
0,
0,
0,
0,
0,
0,
0,
0,
0,
0,
0,
0,
0,
0,
0,
0,
0,
0,
0,
0,
0,
0,
0,
0,
0,
0,
0,
0,
0,
0,
0,
0,
0,
0,
0,
0,
0,
0,
0,
0,
0,
0,
0,
0,
0,
0,
0,
0,
0,
0,
0,
#ENDOFDATA   :