File: N132962/Quantification/20 keV/MMM1/SPI MM1 Diopside[6][4].msa
#FORMAT      : EMSA/MAS Spectral Data File
#VERSION     : 1.0
#TITLE       : SPI MM1dup Diopside[6][all]
#DATE        : 12-MAR-2025
#TIME        : 15:42
#OWNER       : Unknown
#NPOINTS     : 4096
#NCOLUMNS    : 1
#XUNITS      : eV
#YUNITS      : counts
#DATATYPE    : Y
#XPERCHAN    : 9.99778
#OFFSET      : 1.69135
#BEAMKV      : 20
#SIGNALTYPE  : EDS
#ELEVANGLE   : 35
#AZIMANGLE   : 0
#LIVETIME    : 239.745
#REALTIME    : 255.146
#PROBECUR    : 1.02695
#TAUWIND     : 0
#TDEADLYR    : 0
#TACTLYR     : 0.045
#TALWIND     : 0.025
#CHOFFSET    : 0.0
#XLABEL      : Energy (eV)
#YLABEL      : Counts
#XPOSITION   : 2.1407
#YPOSITION   : 1.50702
#ZPOSITION   : 31.03608
#EDSDET      : SD
##SPECIMEN   : SPI MM1dup Diopside[6][all]
##D2STDCMP   : Diopside,(O:44.3298),(Mg:11.2237),(Si:25.939),(Ca:18.5075)
##DET_HASH   : 12273538-fd48-a23f-0a19-f1e6fa85caef
##CALIB_HASH : 6abaa72c-aa41-8738-0be9-f592914732f3
##WORKING    : 15.0 mm
##DET_NAME   : EDAX All
##DET_MODE   : MediumLE
#SPECTRUM    :
21,
28,
14,
18,
61,
250,
746,
2549,
7589,
11041,
6977,
3707,
2681,
2642,
4040,
13377,
53774,
104876,
76980,
20778,
3323,
1792,
2049,
2491,
2617,
2353,
2333,
2453,
2648,
2792,
2853,
3010,
3424,
3800,
4698,
5314,
4520,
4334,
4773,
8836,
28356,
67959,
81410,
46816,
15147,
5414,
4008,
4174,
5055,
6369,
6541,
5625,
4996,
5018,
6122,
16249,
63535,
162110,
221982,
156717,
63194,
21416,
9923,
5301,
3778,
3562,
3164,
2732,
2510,
2615,
2611,
2616,
2617,
2718,
2914,
3039,
2995,
2824,
2503,
2623,
2584,
2614,
2668,
2634,
2647,
2597,
2573,
2531,
2412,
2516,
2513,
2409,
2496,
2424,
2568,
2434,
2545,
2417,
2561,
2608,
2727,
2531,
2428,
2316,
2396,
2504,
2366,
2338,
2363,
2379,
2315,
2183,
2246,
2267,
2422,
2472,
2708,
2850,
3454,
5571,
14086,
34857,
64752,
81888,
69497,
39310,
15591,
5570,
2816,
2460,
3024,
4415,
7278,
10535,
11653,
9507,
5848,
3151,
2036,
1718,
1722,
1740,
1629,
1566,
1578,
1605,
1545,
1603,
1546,
1588,
1571,
1615,
1598,
1552,
1471,
1485,
1453,
1424,
1474,
1519,
1413,
1382,
1436,
1499,
1486,
1469,
1413,
1426,
1388,
1387,
1320,
1349,
1301,
1309,
1319,
1316,
1330,
1274,
1336,
1335,
1387,
1491,
1433,
1343,
1277,
1283,
1230,
1211,
1205,
1212,
1136,
1201,
1178,
1174,
1194,
1267,
1230,
1223,
1155,
1181,
1162,
1058,
1053,
1029,
1073,
1098,
1008,
1028,
1086,
1139,
1239,
1591,
1948,
2176,
2045,
1724,
1400,
1159,
994,
960,
997,
931,
916,
964,
881,
917,
955,
899,
894,
892,
871,
897,
835,
924,
1016,
964,
983,
908,
914,
798,
811,
785,
788,
791,
814,
860,
836,
836,
860,
880,
823,
795,
736,
754,
764,
727,
735,
727,
764,
736,
792,
720,
723,
694,
690,
675,
703,
677,
696,
679,
678,
644,
691,
682,
681,
614,
637,
620,
637,
671,
649,
633,
612,
596,
607,
551,
572,
546,
544,
588,
585,
571,
575,
597,
514,
561,
544,
606,
589,
577,
514,
537,
527,
526,
519,
497,
484,
522,
447,
498,
521,
535,
467,
482,
506,
423,
481,
463,
476,
489,
463,
461,
444,
440,
470,
460,
413,
432,
431,
471,
480,
437,
441,
410,
412,
419,
430,
401,
431,
387,
385,
371,
383,
359,
371,
361,
351,
390,
415,
351,
375,
396,
338,
358,
346,
357,
331,
357,
331,
330,
344,
339,
344,
325,
354,
331,
350,
337,
307,
316,
345,
284,
363,
312,
323,
267,
286,
305,
297,
297,
272,
281,
299,
241,
279,
249,
262,
268,
270,
236,
270,
261,
258,
237,
230,
250,
251,
238,
252,
256,
228,
249,
243,
230,
229,
237,
217,
244,
239,
217,
238,
198,
215,
241,
185,
198,
212,
197,
209,
214,
209,
197,
198,
190,
223,
178,
212,
183,
163,
176,
182,
179,
182,
165,
156,
160,
213,
159,
151,
167,
160,
134,
155,
155,
157,
153,
151,
134,
131,
129,
158,
144,
157,
135,
168,
125,
142,
129,
103,
134,
145,
148,
139,
126,
131,
107,
104,
145,
123,
116,
119,
117,
110,
97,
123,
113,
110,
122,
92,
92,
92,
93,
99,
100,
103,
100,
93,
105,
115,
82,
100,
89,
91,
95,
99,
92,
101,
80,
82,
88,
61,
74,
75,
91,
76,
112,
62,
78,
74,
73,
64,
88,
69,
65,
73,
74,
59,
61,
58,
71,
56,
59,
55,
61,
63,
47,
56,
64,
72,
57,
52,
49,
45,
50,
44,
47,
52,
46,
53,
48,
37,
56,
44,
62,
45,
51,
49,
44,
50,
32,
46,
36,
42,
39,
42,
47,
44,
36,
28,
48,
39,
42,
36,
37,
40,
39,
33,
24,
35,
31,
36,
28,
42,
28,
21,
32,
30,
23,
35,
29,
26,
28,
20,
24,
26,
27,
28,
25,
23,
23,
19,
21,
21,
19,
11,
21,
17,
18,
17,
17,
18,
16,
20,
23,
19,
17,
8,
9,
13,
13,
13,
9,
11,
9,
12,
15,
10,
15,
10,
12,
14,
8,
6,
13,
14,
11,
10,
8,
13,
10,
6,
8,
1,
10,
8,
0,
7,
6,
3,
2,
7,
6,
7,
6,
6,
4,
4,
3,
4,
5,
1,
2,
6,
4,
3,
3,
1,
1,
1,
2,
1,
0,
2,
0,
0,
0,
0,
0,
1,
0,
0,
1,
0,
1,
1,
1,
0,
0,
1,
0,
0,
0,
0,
0,
0,
0,
0,
1,
0,
0,
0,
1,
1,
0,
0,
0,
0,
1,
0,
0,
0,
1,
0,
0,
0,
0,
0,
2,
0,
0,
0,
0,
0,
0,
0,
0,
0,
0,
0,
0,
0,
0,
0,
0,
0,
0,
0,
0,
0,
0,
0,
1,
0,
0,
0,
0,
0,
0,
0,
0,
0,
0,
0,
0,
0,
0,
0,
0,
0,
0,
0,
0,
0,
1,
0,
0,
0,
0,
0,
0,
0,
0,
0,
0,
0,
0,
0,
0,
0,
0,
0,
0,
0,
0,
0,
0,
0,
0,
0,
0,
0,
0,
0,
0,
0,
0,
0,
0,
0,
0,
0,
0,
0,
0,
0,
0,
0,
0,
0,
0,
0,
0,
0,
0,
0,
0,
0,
0,
0,
0,
0,
0,
0,
0,
0,
0,
0,
0,
0,
0,
0,
0,
0,
0,
1,
0,
0,
0,
0,
0,
0,
0,
0,
0,
0,
0,
1,
0,
0,
0,
0,
0,
0,
0,
0,
0,
0,
0,
0,
0,
0,
0,
0,
0,
0,
0,
0,
0,
0,
0,
0,
0,
0,
0,
0,
0,
0,
0,
0,
0,
0,
0,
0,
0,
0,
0,
0,
0,
0,
0,
0,
0,
0,
0,
0,
0,
1,
0,
0,
0,
0,
0,
0,
0,
0,
0,
1,
0,
0,
0,
0,
0,
0,
0,
0,
0,
0,
0,
0,
0,
0,
0,
0,
0,
0,
0,
0,
0,
0,
0,
0,
0,
0,
0,
0,
0,
0,
0,
0,
0,
0,
0,
0,
0,
0,
0,
0,
0,
0,
0,
0,
0,
0,
0,
0,
0,
0,
0,
0,
0,
0,
0,
0,
0,
0,
0,
0,
0,
0,
0,
0,
0,
0,
0,
0,
0,
0,
0,
0,
0,
0,
0,
0,
0,
0,
0,
0,
0,
0,
0,
0,
0,
0,
0,
0,
0,
0,
0,
0,
0,
0,
0,
0,
0,
0,
0,
0,
0,
0,
0,
0,
0,
0,
0,
0,
0,
0,
0,
0,
0,
0,
0,
0,
0,
0,
0,
0,
0,
0,
0,
0,
0,
0,
0,
0,
0,
0,
0,
0,
0,
0,
0,
0,
0,
0,
0,
0,
0,
0,
0,
0,
0,
0,
0,
0,
0,
0,
0,
0,
0,
0,
0,
0,
0,
0,
0,
0,
0,
0,
0,
0,
0,
0,
0,
0,
0,
0,
0,
0,
0,
0,
0,
0,
0,
0,
0,
0,
0,
0,
0,
0,
0,
0,
0,
0,
0,
0,
0,
0,
0,
0,
0,
0,
0,
0,
0,
0,
0,
0,
0,
0,
0,
0,
0,
0,
0,
0,
0,
0,
0,
0,
0,
0,
0,
0,
0,
0,
0,
0,
0,
0,
0,
0,
0,
0,
0,
0,
0,
0,
0,
0,
0,
0,
0,
0,
0,
0,
0,
0,
0,
0,
0,
0,
0,
0,
0,
0,
0,
0,
0,
0,
0,
0,
0,
0,
0,
0,
0,
0,
0,
0,
0,
0,
0,
0,
0,
0,
0,
0,
0,
0,
0,
0,
0,
0,
0,
0,
0,
0,
0,
0,
0,
0,
0,
0,
0,
0,
0,
0,
0,
0,
0,
0,
0,
0,
0,
0,
0,
0,
0,
0,
0,
0,
0,
0,
0,
0,
0,
0,
0,
0,
0,
0,
0,
0,
0,
0,
0,
0,
0,
0,
0,
0,
0,
0,
0,
0,
0,
0,
0,
0,
0,
0,
0,
0,
0,
0,
0,
0,
0,
0,
0,
0,
0,
0,
0,
0,
0,
0,
0,
0,
0,
0,
0,
0,
0,
0,
0,
0,
0,
0,
0,
0,
0,
0,
0,
0,
0,
0,
0,
0,
0,
0,
0,
0,
0,
0,
0,
0,
0,
0,
0,
0,
0,
0,
0,
0,
0,
0,
0,
0,
0,
0,
0,
0,
0,
0,
0,
0,
0,
0,
0,
0,
0,
0,
0,
0,
0,
0,
0,
0,
0,
0,
0,
0,
0,
0,
0,
0,
0,
0,
0,
0,
0,
0,
0,
0,
0,
0,
0,
0,
0,
0,
0,
0,
0,
0,
0,
0,
0,
0,
0,
0,
0,
0,
0,
0,
0,
0,
0,
0,
0,
0,
0,
0,
0,
0,
0,
0,
0,
0,
0,
0,
0,
0,
0,
#ENDOFDATA   :