File: N132962/Quantification/20 keV/MMM1/SPI MM1 Jadeite[4][4].msa
#FORMAT      : EMSA/MAS Spectral Data File
#VERSION     : 1.0
#TITLE       : SPI MM1dup Jadeite[4][all]
#DATE        : 12-MAR-2025
#TIME        : 16:33
#OWNER       : Unknown
#NPOINTS     : 4096
#NCOLUMNS    : 1
#XUNITS      : eV
#YUNITS      : counts
#DATATYPE    : Y
#XPERCHAN    : 9.99778
#OFFSET      : 1.69135
#BEAMKV      : 20
#SIGNALTYPE  : EDS
#ELEVANGLE   : 35
#AZIMANGLE   : 0
#LIVETIME    : 239.805
#REALTIME    : 255.589
#PROBECUR    : 1.02709
#TAUWIND     : 0
#TDEADLYR    : 0
#TACTLYR     : 0.045
#TALWIND     : 0.025
#CHOFFSET    : 0.0
#XLABEL      : Energy (eV)
#YLABEL      : Counts
#XPOSITION   : 1.00553
#YPOSITION   : 4.40574
#ZPOSITION   : 31.03608
#EDSDET      : SD
##SPECIMEN   : SPI MM1dup Jadeite[4][all]
##D2STDCMP   : Jadeite,(O:47.4904),(Na:11.3733),(Al:13.348),(Si:27.7883),5.0
##DET_HASH   : 12273538-fd48-a23f-0a19-f1e6fa85caef
##CALIB_HASH : 6abaa72c-aa41-8738-0be9-f592914732f3
##WORKING    : 15.0 mm
##DET_NAME   : EDAX All
##DET_MODE   : MediumLE
#SPECTRUM    :
28,
28,
13,
14,
80,
234,
748,
2275,
6432,
8699,
4598,
2418,
2528,
3459,
6318,
24963,
101468,
198252,
145450,
37982,
4807,
1760,
1830,
2024,
2066,
2138,
2345,
2543,
2831,
3129,
3330,
4203,
8107,
26481,
62589,
69921,
34776,
9633,
3799,
3267,
3318,
3657,
3814,
4027,
4138,
4444,
5932,
15460,
51530,
103166,
106000,
55474,
18701,
7227,
5901,
15296,
60742,
157083,
213596,
150114,
60614,
20131,
8960,
4362,
2537,
2153,
2299,
2413,
2237,
2189,
2110,
2029,
2145,
2187,
2431,
2683,
2546,
2339,
2185,
2169,
2110,
2032,
2148,
2134,
2231,
2227,
2116,
2116,
2093,
2109,
2089,
2168,
2252,
2321,
2141,
2145,
2060,
2026,
2096,
2139,
2118,
2157,
2050,
1960,
1967,
2028,
2071,
2218,
2168,
2057,
1881,
1889,
1881,
1895,
2006,
2070,
2016,
2084,
1969,
1787,
1732,
1834,
1809,
1921,
1894,
1808,
1637,
1662,
1612,
1668,
1652,
1596,
1605,
1622,
1523,
1579,
1534,
1625,
1523,
1466,
1543,
1485,
1466,
1447,
1529,
1441,
1452,
1434,
1425,
1398,
1399,
1363,
1383,
1424,
1310,
1302,
1350,
1345,
1385,
1382,
1313,
1277,
1311,
1301,
1393,
1314,
1246,
1227,
1258,
1183,
1227,
1238,
1143,
1223,
1217,
1127,
1124,
1184,
1121,
1170,
1201,
1135,
1149,
1127,
1110,
1090,
1040,
1113,
1007,
1031,
1035,
1034,
1057,
1000,
978,
1019,
1057,
954,
907,
964,
991,
1028,
900,
972,
920,
932,
975,
920,
911,
925,
901,
937,
972,
953,
999,
951,
963,
848,
849,
867,
833,
781,
818,
779,
816,
789,
783,
765,
776,
832,
775,
794,
780,
780,
742,
748,
766,
775,
698,
688,
737,
700,
734,
655,
718,
706,
699,
661,
723,
698,
711,
694,
678,
615,
636,
699,
672,
707,
632,
626,
639,
584,
612,
572,
594,
607,
613,
604,
589,
604,
613,
547,
570,
561,
588,
561,
568,
509,
519,
556,
509,
549,
505,
564,
568,
524,
500,
517,
488,
481,
474,
513,
489,
488,
456,
468,
508,
509,
463,
446,
429,
487,
446,
468,
433,
440,
425,
470,
441,
449,
459,
447,
418,
400,
410,
417,
428,
362,
405,
399,
423,
393,
405,
399,
390,
390,
360,
369,
386,
389,
335,
379,
373,
338,
355,
355,
348,
371,
363,
392,
328,
388,
331,
343,
317,
327,
319,
319,
311,
319,
333,
275,
316,
264,
317,
297,
304,
297,
305,
264,
278,
283,
279,
282,
271,
282,
280,
259,
278,
271,
233,
281,
242,
278,
258,
268,
236,
241,
268,
231,
248,
279,
231,
228,
206,
233,
223,
240,
233,
217,
207,
231,
213,
206,
203,
217,
183,
210,
237,
207,
175,
191,
193,
183,
207,
168,
169,
180,
185,
176,
169,
187,
172,
172,
176,
152,
163,
202,
164,
168,
199,
175,
187,
143,
159,
181,
144,
167,
137,
162,
140,
152,
155,
127,
135,
145,
139,
126,
153,
135,
131,
115,
145,
145,
115,
121,
122,
126,
124,
128,
122,
134,
131,
113,
131,
108,
114,
113,
122,
117,
110,
129,
90,
104,
94,
106,
91,
96,
104,
94,
101,
112,
85,
73,
97,
100,
81,
110,
95,
85,
88,
87,
75,
84,
96,
91,
87,
87,
66,
93,
70,
64,
60,
74,
79,
73,
68,
70,
67,
73,
70,
68,
78,
72,
71,
67,
60,
65,
63,
66,
67,
56,
59,
52,
59,
54,
46,
51,
43,
50,
46,
55,
44,
52,
48,
58,
42,
52,
50,
57,
52,
41,
36,
53,
44,
54,
44,
27,
47,
49,
41,
48,
50,
44,
39,
31,
34,
39,
38,
38,
33,
26,
30,
41,
39,
20,
38,
25,
33,
41,
30,
34,
26,
29,
29,
34,
22,
27,
25,
21,
25,
21,
25,
33,
24,
18,
19,
23,
20,
18,
19,
19,
15,
18,
17,
19,
22,
18,
25,
14,
13,
26,
12,
16,
11,
16,
17,
19,
14,
13,
10,
11,
14,
11,
17,
15,
18,
10,
10,
16,
16,
11,
11,
15,
10,
11,
14,
15,
12,
8,
12,
8,
5,
8,
7,
8,
7,
3,
5,
5,
3,
3,
2,
6,
4,
5,
6,
9,
3,
3,
4,
2,
1,
2,
6,
4,
4,
0,
2,
4,
1,
2,
1,
0,
3,
2,
2,
0,
1,
1,
1,
0,
3,
2,
0,
0,
0,
0,
1,
0,
0,
1,
0,
0,
0,
0,
0,
0,
0,
0,
0,
0,
0,
0,
0,
0,
0,
0,
0,
0,
0,
0,
0,
0,
1,
0,
0,
0,
0,
0,
0,
0,
0,
0,
0,
0,
0,
0,
0,
1,
0,
0,
0,
0,
0,
0,
0,
0,
0,
0,
0,
0,
0,
0,
0,
0,
0,
0,
0,
0,
0,
0,
0,
1,
0,
0,
0,
1,
0,
0,
0,
0,
0,
0,
0,
0,
0,
0,
0,
0,
0,
0,
0,
0,
0,
0,
0,
0,
0,
0,
0,
0,
0,
0,
0,
0,
0,
0,
0,
0,
0,
0,
0,
0,
0,
0,
0,
0,
0,
0,
0,
0,
0,
0,
0,
0,
0,
0,
0,
0,
0,
0,
0,
0,
0,
1,
0,
0,
0,
0,
0,
0,
0,
0,
1,
0,
0,
0,
0,
0,
0,
0,
0,
0,
0,
0,
0,
0,
0,
0,
0,
0,
0,
0,
0,
0,
0,
0,
0,
0,
0,
0,
0,
0,
0,
0,
0,
0,
0,
0,
0,
0,
0,
0,
0,
0,
0,
0,
0,
0,
0,
0,
1,
0,
0,
0,
0,
0,
0,
0,
0,
0,
0,
0,
0,
0,
0,
0,
0,
0,
0,
0,
0,
0,
0,
0,
0,
0,
0,
0,
0,
0,
0,
0,
0,
0,
0,
0,
0,
0,
0,
0,
0,
0,
0,
0,
0,
0,
0,
0,
0,
0,
0,
0,
0,
0,
0,
0,
0,
0,
0,
0,
0,
0,
0,
0,
0,
0,
0,
0,
0,
0,
0,
0,
0,
0,
0,
0,
0,
0,
1,
0,
0,
0,
0,
0,
0,
0,
0,
0,
0,
0,
0,
0,
0,
0,
0,
0,
0,
0,
0,
0,
0,
0,
0,
0,
0,
0,
0,
0,
0,
0,
0,
0,
0,
0,
0,
0,
0,
0,
0,
0,
0,
0,
0,
0,
0,
0,
0,
0,
0,
0,
0,
0,
0,
0,
0,
0,
0,
0,
0,
0,
0,
0,
0,
0,
0,
0,
0,
0,
0,
0,
0,
0,
0,
0,
0,
0,
0,
0,
0,
0,
0,
0,
0,
0,
0,
0,
0,
0,
0,
0,
0,
0,
0,
0,
0,
0,
0,
0,
0,
0,
0,
0,
0,
0,
0,
0,
0,
0,
0,
0,
0,
0,
0,
0,
0,
0,
0,
0,
0,
0,
0,
0,
0,
0,
0,
0,
0,
0,
0,
0,
0,
0,
0,
0,
0,
0,
0,
0,
0,
0,
0,
0,
0,
0,
0,
0,
0,
0,
0,
0,
0,
0,
0,
0,
0,
0,
0,
0,
0,
0,
0,
0,
0,
0,
0,
0,
0,
0,
0,
0,
0,
0,
0,
0,
0,
0,
0,
0,
0,
0,
0,
0,
0,
0,
0,
0,
0,
0,
0,
0,
0,
0,
0,
0,
0,
0,
0,
0,
0,
0,
0,
0,
0,
0,
0,
0,
0,
0,
0,
0,
0,
0,
0,
0,
0,
0,
0,
0,
0,
0,
0,
0,
0,
0,
0,
0,
0,
0,
0,
0,
0,
0,
0,
0,
0,
0,
0,
0,
0,
0,
0,
0,
0,
0,
0,
0,
0,
0,
0,
0,
0,
0,
0,
0,
0,
0,
0,
0,
0,
0,
0,
0,
0,
0,
0,
0,
0,
0,
0,
0,
0,
0,
0,
0,
0,
0,
0,
0,
0,
0,
0,
0,
0,
0,
0,
0,
0,
0,
0,
0,
0,
0,
0,
0,
0,
0,
0,
0,
0,
0,
0,
0,
0,
0,
0,
0,
0,
0,
0,
0,
0,
0,
0,
0,
0,
0,
0,
0,
0,
0,
0,
0,
0,
0,
0,
0,
0,
0,
0,
0,
0,
0,
0,
0,
0,
0,
0,
0,
0,
0,
0,
0,
0,
0,
0,
0,
0,
0,
0,
0,
0,
0,
0,
0,
0,
0,
0,
0,
0,
0,
0,
0,
0,
0,
0,
0,
0,
0,
0,
0,
0,
0,
0,
0,
0,
0,
0,
0,
0,
0,
0,
0,
0,
0,
0,
0,
0,
0,
0,
0,
0,
0,
0,
0,
0,
0,
0,
0,
0,
0,
0,
0,
0,
0,
0,
0,
0,
0,
0,
0,
0,
0,
0,
0,
0,
0,
0,
0,
0,
0,
0,
0,
0,
0,
0,
0,
0,
0,
0,
0,
0,
0,
0,
0,
#ENDOFDATA   :