File: N132962/Quantification/20 keV/MMM1/SPI MM1 Arsenopyrite[4][4].msa
#FORMAT      : EMSA/MAS Spectral Data File
#VERSION     : 1.0
#TITLE       : SPI MM1 Arsenopyrite[4][all]
#DATE        : 11-MAR-2025
#TIME        : 13:39
#OWNER       : Unknown
#NPOINTS     : 4096
#NCOLUMNS    : 1
#XUNITS      : eV
#YUNITS      : counts
#DATATYPE    : Y
#XPERCHAN    : 9.99778
#OFFSET      : 1.69135
#BEAMKV      : 20
#SIGNALTYPE  : EDS
#ELEVANGLE   : 35
#AZIMANGLE   : 0
#LIVETIME    : 239.829
#REALTIME    : 260.78
#PROBECUR    : 1.02853
#TAUWIND     : 0
#TDEADLYR    : 0
#TACTLYR     : 0.045
#TALWIND     : 0.025
#CHOFFSET    : 0.0
#XLABEL      : Energy (eV)
#YLABEL      : Counts
#XPOSITION   : 2.18831
#YPOSITION   : -5.01896
#ZPOSITION   : 30.9284
#EDSDET      : SD
##SPECIMEN   : SPI MM1 Arsenopyrite[4][all]
##D2STDCMP   : Arsenopyrite,(S:19.6897),(Fe:34.2972),(As:46.0131),6.0
##DET_HASH   : 12273538-fd48-a23f-0a19-f1e6fa85caef
##CALIB_HASH : 6abaa72c-aa41-8738-0be9-f592914732f3
##WORKING    : 15.0 mm
##DET_NAME   : EDAX All
##DET_MODE   : MediumLE
#SPECTRUM    :
21,
30,
9,
23,
203,
482,
1183,
3475,
10181,
13268,
6860,
3038,
2734,
2873,
3448,
3920,
5011,
6453,
8743,
12731,
17514,
19668,
32258,
55618,
46568,
18666,
6824,
5112,
4969,
4854,
4950,
5111,
5484,
5518,
5862,
7020,
9981,
13976,
14594,
12886,
18968,
59835,
146296,
197661,
146745,
65294,
20996,
8111,
5021,
4393,
4404,
4282,
4173,
4187,
4148,
4282,
4489,
4811,
5081,
5070,
5055,
4835,
4503,
4657,
4596,
4659,
4809,
4876,
4902,
4988,
4988,
5120,
6158,
8916,
17924,
45408,
89498,
111003,
81867,
37185,
14863,
11523,
12560,
11186,
7516,
5540,
4768,
4581,
4407,
4351,
4328,
4210,
4118,
4193,
4319,
4261,
4147,
4155,
4168,
4284,
4340,
4253,
4244,
4238,
4288,
4157,
4108,
4107,
4221,
4105,
4141,
4038,
4153,
4095,
4162,
4118,
4015,
4097,
4075,
4175,
4288,
4186,
4136,
4055,
3918,
3923,
3888,
3957,
3923,
3776,
3761,
3750,
3891,
3830,
3727,
3725,
3551,
3624,
3719,
3665,
3583,
3582,
3533,
3558,
3523,
3544,
3448,
3437,
3479,
3543,
3512,
3534,
3576,
3466,
3637,
3652,
3681,
3442,
3406,
3312,
3355,
3181,
3268,
3260,
3193,
3102,
3120,
3118,
3127,
3184,
3061,
2987,
3059,
2972,
2970,
2930,
2979,
3038,
2926,
2906,
2948,
2950,
2870,
2859,
2849,
2846,
2859,
2766,
2718,
2801,
2683,
2756,
2658,
2647,
2724,
2589,
2622,
2652,
2648,
2661,
2682,
2554,
2647,
2517,
2697,
2749,
2843,
3097,
4536,
8651,
20090,
38507,
60748,
74166,
69333,
50106,
28416,
13548,
6031,
3237,
2451,
2394,
2249,
2303,
2272,
2226,
2229,
2278,
2347,
2417,
2674,
3544,
5205,
7687,
9947,
11274,
10443,
7924,
5199,
3421,
2335,
2017,
1861,
1827,
1821,
1771,
1879,
1828,
1998,
1909,
1872,
1790,
1789,
1755,
1811,
1845,
1841,
1884,
1747,
1735,
1677,
1701,
1602,
1656,
1658,
1599,
1560,
1667,
1606,
1599,
1545,
1592,
1568,
1569,
1563,
1501,
1545,
1503,
1596,
1545,
1519,
1521,
1505,
1464,
1488,
1466,
1451,
1439,
1494,
1523,
1474,
1447,
1437,
1402,
1389,
1436,
1348,
1363,
1307,
1304,
1308,
1296,
1252,
1355,
1267,
1341,
1223,
1191,
1227,
1270,
1306,
1306,
1252,
1213,
1162,
1227,
1183,
1239,
1197,
1147,
1175,
1262,
1145,
1116,
1188,
1107,
1098,
1119,
1069,
1127,
1047,
1063,
1113,
1088,
1061,
1147,
1108,
1042,
1068,
1046,
1058,
1003,
1132,
1103,
1482,
2159,
3677,
6221,
10037,
14406,
17610,
18418,
16632,
12474,
8357,
4993,
2694,
1604,
1232,
962,
898,
881,
901,
915,
872,
822,
879,
864,
854,
800,
828,
887,
830,
856,
851,
782,
847,
849,
842,
809,
841,
822,
798,
808,
836,
1015,
1244,
1669,
2255,
2721,
3065,
3025,
2769,
2196,
1699,
1296,
1047,
807,
784,
676,
594,
608,
633,
634,
586,
568,
597,
570,
533,
591,
540,
572,
562,
579,
542,
538,
572,
552,
581,
493,
547,
579,
496,
525,
540,
558,
553,
560,
556,
559,
533,
547,
490,
497,
518,
481,
457,
445,
472,
485,
456,
441,
457,
458,
459,
423,
425,
420,
444,
437,
412,
404,
402,
437,
395,
425,
411,
407,
386,
359,
349,
345,
350,
357,
351,
359,
338,
322,
355,
334,
325,
337,
340,
322,
286,
333,
339,
330,
314,
314,
299,
294,
287,
316,
295,
297,
289,
260,
282,
322,
276,
303,
258,
270,
260,
263,
249,
232,
239,
260,
216,
260,
240,
226,
237,
213,
228,
244,
250,
212,
224,
215,
194,
215,
182,
201,
208,
181,
189,
176,
194,
167,
186,
176,
204,
187,
190,
177,
155,
165,
171,
185,
162,
169,
160,
153,
137,
131,
144,
167,
135,
149,
156,
167,
124,
133,
119,
132,
145,
114,
134,
144,
119,
138,
124,
123,
115,
141,
109,
114,
115,
117,
125,
123,
151,
132,
123,
122,
111,
98,
102,
96,
100,
89,
76,
98,
87,
105,
83,
85,
78,
78,
62,
83,
84,
75,
82,
72,
68,
80,
80,
61,
80,
67,
62,
56,
62,
65,
59,
74,
60,
64,
75,
56,
57,
55,
48,
73,
49,
53,
54,
54,
54,
43,
42,
42,
30,
39,
39,
38,
24,
42,
43,
28,
32,
46,
31,
31,
26,
31,
29,
29,
24,
26,
17,
29,
18,
16,
16,
25,
21,
17,
11,
16,
26,
15,
15,
16,
14,
10,
9,
5,
13,
14,
14,
16,
6,
10,
13,
5,
8,
5,
3,
6,
4,
0,
2,
3,
4,
1,
2,
2,
2,
1,
1,
2,
2,
2,
2,
1,
1,
3,
0,
2,
2,
4,
2,
1,
1,
3,
2,
2,
2,
0,
2,
1,
2,
6,
2,
2,
4,
5,
5,
3,
2,
1,
3,
2,
2,
0,
1,
0,
0,
2,
0,
0,
2,
0,
2,
0,
0,
1,
0,
0,
1,
0,
0,
0,
2,
1,
1,
3,
1,
1,
2,
1,
0,
1,
1,
1,
0,
0,
1,
3,
1,
3,
1,
1,
0,
0,
0,
0,
0,
0,
1,
0,
1,
0,
1,
1,
1,
1,
1,
1,
0,
1,
0,
0,
1,
0,
1,
0,
0,
0,
0,
0,
1,
0,
0,
1,
3,
0,
1,
1,
2,
0,
1,
0,
0,
0,
1,
0,
1,
0,
0,
1,
1,
1,
0,
0,
2,
1,
0,
0,
0,
0,
1,
0,
1,
0,
1,
1,
0,
2,
0,
0,
1,
0,
2,
0,
0,
1,
1,
0,
0,
0,
0,
1,
0,
1,
0,
0,
0,
1,
0,
1,
0,
0,
2,
1,
1,
0,
0,
0,
1,
0,
0,
0,
0,
0,
1,
0,
0,
0,
0,
1,
0,
1,
0,
0,
0,
0,
0,
0,
0,
1,
0,
0,
0,
0,
0,
0,
1,
0,
0,
0,
0,
0,
0,
0,
1,
0,
0,
1,
0,
0,
0,
0,
0,
0,
0,
0,
0,
0,
0,
0,
0,
0,
1,
0,
1,
0,
0,
1,
0,
1,
0,
0,
0,
0,
0,
0,
0,
0,
0,
0,
0,
0,
0,
0,
0,
0,
0,
0,
0,
0,
0,
2,
1,
1,
0,
0,
0,
0,
0,
0,
0,
0,
0,
0,
0,
0,
1,
1,
0,
0,
0,
0,
0,
0,
0,
0,
0,
1,
0,
0,
0,
0,
0,
0,
0,
0,
0,
0,
0,
0,
0,
0,
0,
0,
0,
0,
0,
0,
0,
0,
0,
0,
0,
0,
0,
0,
0,
0,
0,
0,
1,
0,
0,
0,
0,
0,
0,
0,
0,
0,
0,
0,
0,
0,
0,
0,
0,
0,
0,
0,
0,
0,
0,
0,
0,
0,
0,
0,
0,
0,
0,
0,
0,
0,
0,
0,
0,
0,
0,
0,
0,
0,
0,
0,
0,
0,
0,
0,
0,
0,
0,
0,
0,
0,
0,
0,
0,
0,
0,
0,
0,
0,
0,
0,
0,
0,
0,
0,
0,
0,
0,
0,
0,
0,
0,
0,
0,
0,
0,
0,
0,
0,
0,
0,
0,
0,
0,
0,
0,
0,
0,
0,
0,
0,
0,
1,
0,
0,
0,
0,
0,
0,
0,
0,
0,
0,
0,
0,
0,
0,
0,
0,
0,
0,
0,
0,
0,
0,
0,
0,
0,
0,
0,
0,
0,
0,
0,
0,
0,
0,
0,
0,
0,
0,
0,
0,
0,
0,
0,
0,
0,
0,
0,
0,
0,
0,
0,
0,
0,
0,
0,
0,
0,
0,
0,
0,
0,
0,
0,
0,
0,
0,
0,
0,
0,
0,
0,
0,
0,
0,
0,
0,
0,
0,
0,
0,
0,
0,
0,
0,
0,
0,
0,
0,
0,
0,
0,
0,
0,
0,
0,
0,
0,
0,
0,
0,
0,
0,
0,
0,
0,
0,
0,
0,
0,
0,
0,
0,
0,
0,
0,
0,
0,
0,
0,
0,
0,
0,
0,
0,
0,
0,
0,
0,
0,
0,
0,
0,
0,
0,
0,
0,
0,
0,
0,
0,
0,
0,
0,
0,
0,
0,
0,
0,
0,
0,
0,
0,
0,
0,
0,
0,
0,
0,
0,
0,
0,
0,
0,
0,
0,
0,
0,
0,
0,
0,
0,
0,
0,
0,
0,
0,
0,
0,
0,
0,
0,
0,
0,
0,
0,
0,
0,
0,
0,
0,
0,
0,
0,
0,
0,
0,
0,
0,
0,
0,
0,
0,
0,
0,
0,
0,
0,
0,
0,
0,
0,
0,
0,
0,
0,
0,
0,
0,
0,
0,
0,
0,
0,
0,
0,
0,
0,
0,
0,
0,
0,
0,
0,
0,
0,
0,
0,
0,
0,
0,
0,
0,
0,
0,
0,
0,
0,
0,
0,
0,
0,
0,
0,
0,
0,
0,
0,
0,
0,
0,
0,
0,
0,
0,
0,
0,
0,
0,
0,
0,
0,
0,
0,
0,
0,
0,
0,
0,
0,
0,
0,
0,
0,
0,
#ENDOFDATA   :