File: N132962/Quantification/20 keV/MMM1/SPI MM1 Anhydrite[3][4].msa
#FORMAT      : EMSA/MAS Spectral Data File
#VERSION     : 1.0
#TITLE       : SPI MM1 Anhydrite[3][all]
#DATE        : 11-MAR-2025
#TIME        : 13:47
#OWNER       : Unknown
#NPOINTS     : 4096
#NCOLUMNS    : 1
#XUNITS      : eV
#YUNITS      : counts
#DATATYPE    : Y
#XPERCHAN    : 9.99778
#OFFSET      : 1.69135
#BEAMKV      : 20
#SIGNALTYPE  : EDS
#ELEVANGLE   : 35
#AZIMANGLE   : 0
#LIVETIME    : 239.8332
#REALTIME    : 255.025
#PROBECUR    : 1.02853
#TAUWIND     : 0
#TDEADLYR    : 0
#TACTLYR     : 0.045
#TALWIND     : 0.025
#CHOFFSET    : 0.0
#XLABEL      : Energy (eV)
#YLABEL      : Counts
#XPOSITION   : 4.94344
#YPOSITION   : -5.01385
#ZPOSITION   : 30.9284
#EDSDET      : SD
##SPECIMEN   : SPI MM1 Anhydrite[3][all]
##D2STDCMP   : Anhydrite,(O:47.0085),(S:23.5529),(Ca:29.4387),5.0
##DET_HASH   : 12273538-fd48-a23f-0a19-f1e6fa85caef
##CALIB_HASH : 6abaa72c-aa41-8738-0be9-f592914732f3
##WORKING    : 15.0 mm
##DET_NAME   : EDAX All
##DET_MODE   : MediumLE
#SPECTRUM    :
32,
31,
6,
47,
312,
849,
1259,
2799,
8170,
12339,
8462,
4446,
2829,
2448,
3400,
10436,
39684,
77740,
60126,
19646,
4428,
1964,
1874,
2181,
2415,
2306,
2406,
2643,
2617,
2718,
2705,
2791,
2872,
3077,
3182,
3338,
3425,
3690,
3563,
3842,
3784,
4071,
4118,
4268,
4342,
4352,
4315,
4557,
4716,
4859,
4949,
4737,
4712,
4746,
4740,
4827,
5004,
5248,
5982,
6533,
7537,
7088,
6211,
5717,
6075,
5977,
5526,
4831,
4594,
4484,
4604,
4830,
6309,
10355,
25087,
68380,
141960,
181771,
135050,
60226,
21018,
13009,
13556,
11178,
7054,
4164,
3055,
2918,
2774,
2765,
2754,
2721,
2657,
2791,
2860,
2825,
2787,
2710,
2668,
2606,
2663,
2589,
2695,
2542,
2623,
2534,
2559,
2469,
2531,
2546,
2466,
2519,
2491,
2426,
2506,
2530,
2729,
3195,
4341,
7978,
21923,
55914,
103495,
132492,
110979,
62487,
24211,
7860,
3381,
2942,
3641,
5924,
10896,
15941,
17727,
14482,
8292,
4234,
2381,
1870,
1806,
1801,
1722,
1651,
1696,
1610,
1591,
1643,
1614,
1644,
1624,
1523,
1669,
1729,
1721,
1697,
1686,
1583,
1538,
1537,
1511,
1559,
1487,
1492,
1516,
1410,
1388,
1384,
1482,
1351,
1433,
1457,
1405,
1395,
1446,
1430,
1371,
1416,
1378,
1321,
1373,
1351,
1368,
1333,
1287,
1321,
1307,
1298,
1270,
1213,
1300,
1314,
1258,
1307,
1262,
1254,
1264,
1279,
1345,
1315,
1462,
1373,
1310,
1216,
1143,
1188,
1165,
1183,
1175,
1155,
1202,
1148,
1241,
1265,
1165,
1117,
1092,
1068,
1061,
1023,
1062,
1054,
1005,
1008,
996,
994,
1037,
1021,
982,
1013,
952,
949,
984,
944,
935,
984,
972,
954,
1003,
868,
873,
879,
878,
892,
958,
882,
909,
1039,
980,
930,
891,
864,
874,
815,
837,
801,
846,
849,
799,
847,
738,
822,
747,
792,
784,
772,
781,
743,
752,
776,
753,
745,
691,
669,
758,
744,
701,
665,
659,
677,
672,
678,
695,
694,
705,
607,
656,
667,
641,
637,
646,
643,
651,
641,
624,
634,
629,
605,
584,
644,
559,
622,
596,
595,
581,
555,
558,
567,
565,
520,
613,
556,
514,
586,
549,
533,
501,
495,
556,
531,
534,
499,
549,
516,
486,
469,
463,
462,
511,
501,
509,
491,
483,
468,
470,
445,
429,
473,
482,
445,
463,
433,
397,
417,
420,
420,
420,
438,
417,
427,
406,
414,
404,
442,
407,
429,
392,
390,
402,
409,
375,
384,
328,
408,
360,
406,
378,
358,
362,
330,
344,
368,
387,
388,
356,
343,
344,
313,
322,
331,
321,
361,
329,
366,
320,
356,
304,
306,
313,
306,
291,
281,
277,
279,
291,
289,
266,
285,
301,
277,
257,
294,
268,
262,
275,
276,
283,
243,
305,
246,
235,
267,
259,
262,
224,
239,
211,
233,
221,
218,
229,
246,
241,
216,
225,
239,
217,
226,
210,
200,
196,
181,
188,
215,
193,
202,
198,
195,
170,
172,
175,
192,
185,
196,
152,
179,
175,
158,
176,
156,
161,
170,
145,
160,
170,
140,
167,
154,
137,
151,
154,
159,
132,
165,
137,
140,
141,
165,
132,
127,
181,
168,
165,
138,
93,
136,
134,
115,
110,
128,
133,
118,
115,
123,
113,
113,
107,
94,
124,
102,
115,
119,
97,
116,
117,
123,
109,
107,
103,
87,
87,
112,
81,
90,
81,
82,
91,
96,
83,
79,
97,
77,
93,
87,
80,
73,
73,
63,
74,
68,
68,
60,
59,
70,
63,
67,
75,
75,
64,
79,
62,
64,
64,
57,
76,
60,
59,
62,
68,
55,
55,
70,
60,
64,
45,
46,
47,
56,
43,
44,
57,
53,
42,
43,
41,
41,
35,
48,
36,
52,
45,
47,
51,
28,
41,
39,
39,
41,
42,
32,
37,
29,
40,
24,
28,
28,
23,
34,
44,
25,
21,
24,
32,
26,
25,
20,
23,
26,
29,
20,
35,
17,
26,
19,
23,
25,
23,
25,
22,
20,
18,
15,
16,
18,
22,
17,
15,
13,
15,
15,
12,
16,
13,
9,
11,
16,
15,
10,
12,
11,
14,
12,
13,
12,
11,
15,
8,
6,
8,
9,
9,
7,
9,
10,
8,
9,
9,
7,
9,
8,
9,
7,
3,
5,
7,
5,
5,
5,
5,
5,
3,
7,
5,
1,
3,
2,
5,
1,
1,
2,
0,
3,
3,
1,
0,
0,
3,
1,
0,
0,
0,
1,
1,
0,
0,
1,
0,
2,
0,
0,
0,
0,
2,
0,
0,
0,
0,
1,
0,
0,
0,
1,
0,
0,
0,
0,
0,
0,
0,
0,
0,
1,
0,
0,
0,
0,
0,
0,
1,
0,
0,
0,
0,
0,
0,
0,
1,
0,
0,
1,
0,
0,
0,
0,
1,
0,
0,
0,
0,
1,
0,
0,
0,
0,
0,
0,
0,
0,
0,
0,
0,
0,
0,
0,
0,
0,
0,
0,
0,
0,
0,
0,
0,
0,
0,
0,
0,
0,
0,
0,
0,
0,
0,
0,
0,
0,
0,
0,
0,
0,
0,
0,
0,
0,
0,
0,
0,
0,
0,
0,
0,
0,
0,
0,
0,
0,
0,
0,
0,
0,
0,
1,
0,
0,
0,
0,
0,
0,
0,
0,
0,
0,
0,
0,
0,
0,
0,
0,
0,
0,
0,
0,
0,
0,
0,
0,
0,
0,
0,
0,
0,
0,
0,
0,
1,
1,
0,
0,
0,
0,
0,
0,
0,
0,
0,
0,
0,
0,
0,
0,
0,
0,
0,
0,
0,
0,
0,
0,
0,
0,
0,
0,
0,
0,
0,
0,
1,
0,
0,
0,
0,
0,
0,
0,
0,
0,
0,
0,
0,
0,
0,
0,
0,
0,
0,
0,
0,
0,
0,
0,
0,
0,
0,
0,
0,
1,
0,
0,
0,
0,
0,
0,
0,
0,
0,
0,
0,
0,
0,
0,
0,
0,
0,
0,
0,
0,
0,
0,
0,
0,
0,
0,
0,
0,
0,
0,
0,
0,
0,
0,
0,
0,
0,
0,
0,
0,
0,
0,
0,
0,
0,
1,
0,
0,
0,
0,
0,
0,
0,
1,
0,
0,
0,
0,
0,
0,
0,
0,
0,
0,
0,
0,
0,
0,
0,
0,
0,
0,
0,
0,
0,
0,
0,
0,
0,
0,
0,
0,
0,
0,
0,
0,
0,
0,
0,
0,
0,
0,
0,
0,
0,
0,
0,
0,
0,
0,
0,
0,
0,
0,
0,
0,
0,
0,
0,
0,
0,
0,
0,
0,
0,
0,
0,
0,
0,
0,
0,
1,
0,
0,
0,
0,
0,
0,
0,
0,
0,
0,
0,
0,
0,
0,
0,
0,
0,
0,
0,
0,
0,
0,
0,
0,
0,
0,
0,
0,
0,
0,
0,
0,
0,
0,
0,
0,
0,
0,
0,
0,
0,
0,
0,
0,
0,
0,
0,
0,
0,
0,
0,
0,
0,
0,
0,
0,
0,
0,
0,
0,
0,
0,
0,
0,
0,
0,
0,
0,
0,
0,
0,
0,
0,
0,
0,
0,
0,
0,
0,
0,
0,
0,
0,
0,
0,
0,
0,
0,
0,
0,
0,
0,
0,
0,
0,
0,
0,
0,
0,
0,
0,
0,
0,
0,
0,
0,
0,
0,
0,
0,
0,
0,
0,
0,
0,
0,
0,
0,
0,
0,
0,
0,
0,
0,
0,
0,
0,
0,
0,
0,
0,
0,
0,
0,
0,
0,
0,
0,
0,
0,
0,
0,
0,
0,
0,
0,
0,
0,
0,
0,
0,
0,
0,
0,
0,
0,
0,
0,
0,
0,
0,
0,
0,
0,
0,
0,
0,
0,
0,
0,
0,
0,
0,
0,
0,
0,
0,
0,
0,
0,
0,
0,
0,
0,
0,
0,
0,
0,
0,
0,
0,
0,
0,
0,
0,
0,
0,
0,
0,
0,
0,
0,
0,
0,
0,
0,
0,
0,
0,
0,
0,
0,
0,
0,
0,
0,
0,
0,
0,
0,
0,
0,
0,
0,
0,
0,
0,
0,
0,
0,
0,
0,
0,
0,
0,
0,
0,
0,
0,
0,
0,
0,
0,
0,
0,
0,
0,
0,
0,
0,
0,
0,
0,
0,
0,
0,
0,
0,
0,
0,
0,
0,
0,
0,
0,
0,
0,
0,
0,
0,
0,
0,
0,
0,
0,
0,
0,
0,
0,
0,
0,
0,
0,
0,
0,
0,
0,
0,
0,
0,
0,
0,
0,
0,
0,
0,
0,
0,
0,
0,
0,
0,
0,
0,
0,
0,
0,
0,
0,
0,
0,
0,
0,
0,
0,
0,
0,
0,
0,
0,
0,
0,
0,
0,
0,
0,
0,
0,
0,
0,
0,
0,
0,
0,
0,
0,
0,
0,
0,
0,
0,
0,
0,
0,
0,
0,
0,
0,
0,
0,
0,
0,
0,
0,
0,
0,
0,
0,
#ENDOFDATA   :