File: N132962/Quantification/20 keV/MMM1/SPI MM1 Hematite[2][4].msa
#FORMAT      : EMSA/MAS Spectral Data File
#VERSION     : 1.0
#TITLE       : SPI MM1dup Hematite[2][all]
#DATE        : 12-MAR-2025
#TIME        : 16:48
#OWNER       : Unknown
#NPOINTS     : 4096
#NCOLUMNS    : 1
#XUNITS      : eV
#YUNITS      : counts
#DATATYPE    : Y
#XPERCHAN    : 9.99778
#OFFSET      : 1.69135
#BEAMKV      : 20
#SIGNALTYPE  : EDS
#ELEVANGLE   : 35
#AZIMANGLE   : 0
#LIVETIME    : 239.821
#REALTIME    : 256.682
#PROBECUR    : 1.026781
#TAUWIND     : 0
#TDEADLYR    : 0
#TACTLYR     : 0.045
#TALWIND     : 0.025
#CHOFFSET    : 0.0
#XLABEL      : Energy (eV)
#YLABEL      : Counts
#XPOSITION   : 3.57158
#YPOSITION   : 4.1647
#ZPOSITION   : 31.03608
#EDSDET      : SD
##SPECIMEN   : SPI MM1dup Hematite[2][all]
##D2STDCMP   : Hematite,(O:30.0574),(Fe:69.9426),5.0
##DET_HASH   : 12273538-fd48-a23f-0a19-f1e6fa85caef
##CALIB_HASH : 6abaa72c-aa41-8738-0be9-f592914732f3
##WORKING    : 15.0 mm
##DET_NAME   : EDAX All
##DET_MODE   : MediumLE
#SPECTRUM    :
19,
29,
12,
26,
109,
415,
1335,
3809,
9679,
12652,
7545,
4732,
5341,
6400,
9843,
28438,
103635,
198906,
144990,
45947,
22541,
21498,
30632,
51963,
45285,
17716,
4983,
2653,
2225,
2113,
1988,
2146,
2200,
2496,
2777,
2840,
2766,
2787,
2859,
2961,
3067,
3235,
3272,
3338,
3546,
3611,
3578,
3710,
3860,
4204,
4141,
4183,
4205,
4207,
4170,
4347,
4614,
4842,
5171,
5002,
4850,
4611,
4432,
4206,
4036,
4200,
4293,
4326,
4251,
4289,
4330,
4159,
4284,
4389,
4313,
4286,
4366,
4291,
4232,
4366,
4332,
4265,
4310,
4255,
4242,
4208,
4161,
4262,
4186,
4143,
4215,
4021,
4060,
4078,
4015,
4066,
4039,
3877,
4011,
3883,
3856,
3843,
3888,
3746,
3755,
3634,
3677,
3698,
3623,
3707,
3622,
3663,
3543,
3577,
3551,
3590,
3542,
3403,
3471,
3519,
3360,
3404,
3325,
3348,
3432,
3307,
3249,
3291,
3257,
3163,
3206,
3164,
3085,
3065,
3182,
3151,
3094,
2978,
3098,
3044,
2934,
2982,
3007,
2833,
2856,
2832,
2876,
2846,
2874,
2793,
2786,
2830,
2823,
3020,
3159,
3175,
3172,
2947,
2826,
2607,
2570,
2571,
2504,
2540,
2519,
2433,
2452,
2418,
2382,
2501,
2351,
2369,
2452,
2352,
2338,
2410,
2441,
2447,
2291,
2359,
2323,
2252,
2311,
2237,
2190,
2168,
2139,
2090,
2103,
2160,
2138,
2059,
2093,
2111,
1997,
1979,
2007,
1999,
2092,
2056,
2066,
1979,
1937,
2149,
2071,
2221,
2512,
3250,
5838,
14245,
34570,
69743,
111245,
137085,
128173,
92365,
51346,
22518,
8549,
3554,
2168,
1837,
1856,
1781,
1777,
1796,
1858,
1995,
2119,
2442,
3082,
4550,
7496,
11917,
16855,
19042,
17074,
12688,
7775,
4111,
2305,
1577,
1278,
1264,
1175,
1186,
1219,
1235,
1269,
1285,
1252,
1233,
1252,
1226,
1168,
1166,
1135,
1217,
1112,
1118,
1163,
1058,
1134,
1072,
1075,
1110,
1072,
1094,
1037,
1086,
1064,
1042,
1057,
1098,
1086,
1035,
1079,
1031,
1051,
1087,
1051,
992,
981,
996,
1015,
978,
989,
977,
979,
1002,
976,
941,
965,
901,
936,
903,
873,
912,
947,
843,
935,
956,
935,
846,
872,
900,
828,
854,
842,
860,
826,
861,
837,
831,
830,
863,
826,
862,
801,
824,
754,
854,
785,
791,
699,
759,
750,
718,
790,
780,
771,
758,
693,
750,
744,
739,
731,
709,
730,
641,
708,
739,
676,
682,
684,
692,
702,
665,
658,
722,
658,
635,
624,
646,
657,
695,
665,
655,
660,
640,
586,
589,
595,
578,
599,
611,
600,
560,
655,
516,
551,
576,
557,
525,
510,
562,
522,
524,
506,
521,
516,
530,
502,
501,
505,
475,
525,
488,
535,
446,
438,
474,
476,
468,
469,
483,
472,
496,
435,
435,
450,
468,
446,
431,
428,
420,
404,
436,
384,
415,
406,
414,
396,
397,
420,
366,
377,
386,
384,
370,
358,
370,
395,
398,
427,
460,
455,
477,
471,
394,
340,
358,
369,
370,
339,
321,
304,
306,
336,
321,
303,
327,
267,
292,
297,
309,
316,
308,
318,
303,
323,
315,
280,
266,
264,
253,
258,
263,
249,
286,
260,
247,
277,
250,
221,
250,
242,
218,
243,
247,
195,
238,
235,
240,
219,
199,
227,
204,
200,
211,
206,
217,
213,
203,
190,
185,
195,
194,
204,
192,
192,
184,
173,
183,
147,
166,
157,
169,
149,
177,
161,
158,
143,
157,
159,
116,
152,
139,
128,
152,
121,
139,
141,
138,
127,
130,
113,
138,
125,
119,
132,
114,
128,
113,
134,
123,
119,
113,
122,
117,
96,
119,
88,
95,
108,
109,
101,
112,
114,
109,
87,
96,
108,
100,
81,
88,
99,
93,
100,
69,
91,
106,
78,
95,
74,
84,
80,
80,
67,
100,
56,
74,
76,
73,
47,
62,
56,
48,
58,
71,
64,
65,
62,
68,
60,
58,
45,
50,
57,
69,
48,
40,
64,
58,
48,
51,
42,
48,
47,
30,
40,
46,
52,
48,
33,
33,
38,
53,
38,
34,
40,
32,
49,
50,
30,
32,
35,
26,
29,
28,
26,
22,
36,
28,
36,
18,
27,
29,
19,
20,
21,
27,
26,
17,
16,
19,
27,
18,
10,
21,
16,
21,
16,
13,
18,
13,
27,
15,
20,
9,
10,
12,
12,
14,
14,
9,
7,
10,
8,
10,
14,
5,
5,
5,
7,
6,
4,
5,
3,
6,
6,
3,
1,
2,
1,
1,
1,
1,
0,
2,
1,
1,
2,
1,
0,
1,
0,
3,
1,
0,
0,
1,
2,
0,
2,
0,
2,
1,
1,
3,
4,
0,
0,
2,
0,
1,
1,
0,
0,
0,
2,
1,
2,
1,
0,
0,
0,
2,
1,
1,
0,
0,
2,
1,
0,
0,
0,
1,
1,
0,
0,
0,
1,
0,
1,
1,
0,
0,
1,
1,
0,
0,
1,
0,
0,
1,
0,
0,
1,
0,
0,
1,
0,
1,
0,
0,
1,
1,
0,
1,
0,
0,
1,
0,
0,
0,
0,
0,
0,
1,
0,
0,
0,
1,
0,
0,
0,
0,
0,
1,
0,
0,
0,
0,
0,
0,
0,
0,
1,
1,
0,
0,
0,
0,
0,
0,
0,
0,
0,
1,
0,
0,
0,
0,
0,
0,
0,
1,
0,
0,
1,
1,
0,
0,
0,
0,
0,
0,
0,
0,
1,
0,
0,
0,
0,
0,
0,
1,
0,
0,
0,
0,
0,
2,
0,
0,
0,
0,
0,
0,
0,
0,
0,
0,
0,
0,
0,
0,
0,
0,
0,
0,
0,
0,
1,
0,
0,
0,
1,
0,
1,
0,
0,
0,
1,
0,
0,
0,
0,
0,
0,
0,
0,
0,
0,
0,
0,
0,
0,
0,
0,
0,
0,
1,
0,
0,
0,
0,
0,
0,
0,
0,
0,
0,
0,
0,
0,
0,
0,
0,
0,
0,
0,
0,
0,
0,
0,
0,
0,
0,
0,
0,
0,
0,
0,
0,
0,
0,
0,
0,
0,
0,
0,
0,
0,
0,
0,
0,
0,
0,
0,
0,
0,
0,
0,
0,
0,
0,
0,
0,
0,
0,
0,
0,
0,
0,
0,
0,
0,
0,
0,
0,
0,
0,
0,
0,
0,
0,
0,
0,
0,
0,
0,
0,
0,
0,
0,
0,
0,
0,
0,
0,
0,
0,
0,
0,
0,
0,
1,
0,
0,
0,
0,
0,
0,
0,
0,
0,
0,
0,
0,
0,
0,
0,
0,
0,
0,
0,
0,
0,
0,
0,
0,
0,
0,
0,
0,
0,
0,
0,
0,
0,
0,
0,
0,
0,
0,
0,
0,
0,
0,
0,
0,
0,
0,
0,
0,
0,
0,
0,
0,
0,
0,
0,
0,
0,
0,
0,
0,
0,
0,
0,
0,
0,
0,
0,
0,
0,
0,
0,
0,
0,
0,
0,
0,
0,
0,
0,
0,
0,
0,
0,
0,
0,
0,
0,
0,
0,
0,
0,
0,
0,
0,
0,
0,
0,
0,
0,
0,
0,
0,
0,
0,
0,
0,
0,
0,
0,
0,
0,
0,
0,
0,
0,
0,
0,
0,
0,
0,
0,
0,
0,
0,
0,
0,
0,
0,
0,
0,
0,
0,
0,
0,
0,
0,
0,
0,
0,
0,
0,
0,
0,
0,
0,
0,
0,
0,
0,
0,
0,
0,
0,
0,
0,
0,
0,
0,
0,
0,
0,
0,
0,
0,
0,
0,
0,
0,
0,
0,
0,
0,
0,
0,
0,
0,
0,
0,
0,
0,
0,
0,
0,
0,
0,
0,
0,
0,
0,
0,
0,
0,
0,
0,
0,
0,
0,
0,
0,
0,
0,
0,
0,
0,
0,
0,
0,
0,
0,
0,
0,
0,
0,
0,
0,
0,
0,
0,
0,
0,
0,
0,
0,
0,
0,
0,
0,
0,
0,
0,
0,
0,
0,
0,
0,
0,
0,
0,
0,
0,
0,
0,
0,
0,
0,
0,
0,
0,
0,
0,
0,
0,
0,
0,
0,
0,
0,
0,
0,
0,
0,
0,
0,
0,
0,
0,
0,
0,
0,
0,
0,
0,
0,
0,
0,
0,
0,
0,
0,
0,
0,
0,
0,
0,
0,
0,
0,
0,
0,
0,
0,
0,
0,
0,
0,
0,
0,
0,
0,
0,
0,
0,
0,
0,
0,
0,
0,
0,
0,
0,
0,
0,
0,
0,
0,
0,
0,
0,
0,
0,
0,
0,
0,
0,
0,
0,
0,
0,
0,
0,
0,
0,
0,
0,
0,
0,
0,
0,
0,
0,
0,
0,
0,
0,
0,
0,
0,
0,
0,
0,
0,
0,
0,
0,
0,
0,
0,
0,
0,
0,
0,
0,
0,
0,
0,
0,
0,
0,
0,
0,
0,
0,
0,
0,
0,
0,
0,
0,
0,
0,
0,
0,
0,
0,
0,
0,
0,
0,
0,
0,
0,
0,
0,
0,
0,
0,
0,
#ENDOFDATA   :