File: N132962/Quantification/20 keV/MMM1/SPI MM1 Diopside[4][4].msa
#FORMAT      : EMSA/MAS Spectral Data File
#VERSION     : 1.0
#TITLE       : SPI MM1dup Diopside[4][all]
#DATE        : 12-MAR-2025
#TIME        : 15:40
#OWNER       : Unknown
#NPOINTS     : 4096
#NCOLUMNS    : 1
#XUNITS      : eV
#YUNITS      : counts
#DATATYPE    : Y
#XPERCHAN    : 9.99778
#OFFSET      : 1.69135
#BEAMKV      : 20
#SIGNALTYPE  : EDS
#ELEVANGLE   : 35
#AZIMANGLE   : 0
#LIVETIME    : 239.866
#REALTIME    : 255.274
#PROBECUR    : 1.02695
#TAUWIND     : 0
#TDEADLYR    : 0
#TACTLYR     : 0.045
#TALWIND     : 0.025
#CHOFFSET    : 0.0
#XLABEL      : Energy (eV)
#YLABEL      : Counts
#XPOSITION   : 2.119
#YPOSITION   : 1.43683
#ZPOSITION   : 31.03608
#EDSDET      : SD
##SPECIMEN   : SPI MM1dup Diopside[4][all]
##D2STDCMP   : Diopside,(O:44.3298),(Mg:11.2237),(Si:25.939),(Ca:18.5075)
##DET_HASH   : 12273538-fd48-a23f-0a19-f1e6fa85caef
##CALIB_HASH : 6abaa72c-aa41-8738-0be9-f592914732f3
##WORKING    : 15.0 mm
##DET_NAME   : EDAX All
##DET_MODE   : MediumLE
#SPECTRUM    :
36,
35,
8,
12,
75,
270,
782,
2589,
7536,
10916,
7135,
3867,
2761,
2570,
3996,
13718,
53754,
105348,
77467,
20859,
3213,
1816,
2007,
2476,
2549,
2236,
2347,
2415,
2745,
2909,
2914,
3078,
3311,
3840,
4825,
5239,
4567,
4399,
4897,
8879,
28130,
67687,
82324,
46844,
15357,
5423,
4064,
4080,
5088,
6175,
6579,
5510,
5068,
5074,
6106,
16205,
63473,
162361,
221125,
156448,
63287,
21260,
9717,
5200,
3794,
3455,
3227,
2773,
2637,
2486,
2620,
2673,
2593,
2698,
2872,
3065,
3041,
2726,
2726,
2694,
2600,
2643,
2637,
2700,
2654,
2561,
2554,
2531,
2617,
2474,
2495,
2502,
2589,
2483,
2484,
2446,
2427,
2422,
2480,
2592,
2548,
2590,
2487,
2381,
2406,
2436,
2366,
2434,
2305,
2319,
2342,
2183,
2227,
2388,
2364,
2520,
2711,
3019,
3520,
5606,
14139,
35101,
64299,
82345,
69820,
39608,
15690,
5299,
2806,
2411,
2930,
4261,
7228,
10594,
11689,
9454,
5837,
3116,
2081,
1832,
1670,
1610,
1648,
1638,
1557,
1533,
1527,
1501,
1548,
1553,
1579,
1521,
1550,
1616,
1506,
1501,
1488,
1418,
1471,
1453,
1447,
1350,
1404,
1491,
1485,
1477,
1466,
1375,
1424,
1317,
1367,
1335,
1349,
1317,
1355,
1350,
1255,
1279,
1263,
1409,
1429,
1439,
1448,
1339,
1292,
1215,
1228,
1180,
1149,
1253,
1195,
1204,
1164,
1190,
1246,
1276,
1205,
1156,
1204,
1137,
1089,
1069,
1152,
1058,
1007,
1038,
1037,
1064,
1121,
1144,
1310,
1592,
2044,
2196,
2026,
1788,
1396,
1168,
1013,
1006,
996,
926,
973,
971,
935,
955,
918,
867,
977,
906,
883,
893,
910,
898,
959,
1010,
966,
973,
862,
810,
845,
839,
771,
797,
832,
887,
839,
801,
836,
825,
874,
771,
742,
746,
711,
724,
736,
739,
743,
667,
717,
659,
711,
667,
712,
700,
722,
634,
716,
645,
644,
651,
695,
656,
692,
608,
613,
610,
599,
598,
576,
575,
611,
592,
603,
665,
587,
562,
596,
547,
578,
560,
554,
575,
584,
516,
557,
580,
562,
549,
542,
516,
498,
531,
509,
557,
520,
489,
529,
496,
491,
497,
457,
480,
507,
477,
486,
448,
461,
492,
473,
469,
454,
472,
447,
425,
439,
436,
427,
440,
495,
442,
395,
424,
437,
430,
397,
403,
420,
386,
373,
385,
364,
384,
373,
370,
393,
390,
376,
348,
378,
363,
364,
349,
342,
357,
337,
336,
339,
343,
331,
353,
355,
351,
319,
352,
337,
309,
339,
299,
322,
332,
288,
304,
328,
297,
303,
308,
313,
288,
288,
284,
258,
244,
284,
272,
256,
255,
215,
272,
261,
288,
261,
227,
254,
230,
256,
240,
249,
254,
226,
248,
237,
235,
230,
231,
202,
179,
210,
221,
187,
191,
226,
193,
185,
194,
239,
170,
204,
216,
192,
206,
203,
179,
200,
200,
194,
186,
162,
190,
188,
179,
168,
174,
180,
176,
179,
161,
168,
152,
153,
158,
173,
157,
167,
163,
168,
173,
161,
155,
157,
110,
135,
148,
134,
156,
124,
128,
144,
133,
121,
120,
136,
118,
129,
149,
114,
134,
112,
114,
129,
114,
112,
110,
103,
85,
111,
110,
120,
107,
93,
105,
103,
100,
109,
95,
90,
95,
84,
95,
84,
74,
82,
100,
118,
84,
83,
86,
85,
71,
83,
68,
95,
94,
85,
83,
72,
68,
70,
68,
73,
59,
91,
79,
73,
50,
60,
68,
81,
74,
66,
62,
60,
58,
68,
48,
59,
68,
50,
62,
48,
70,
48,
56,
53,
62,
48,
47,
67,
43,
44,
43,
56,
53,
51,
49,
45,
35,
36,
42,
43,
48,
40,
39,
32,
45,
37,
43,
37,
41,
32,
41,
31,
40,
34,
36,
30,
29,
40,
36,
27,
31,
38,
31,
29,
31,
28,
27,
22,
23,
24,
23,
26,
21,
25,
28,
25,
18,
20,
25,
23,
26,
19,
21,
22,
17,
22,
20,
19,
14,
15,
15,
17,
22,
15,
12,
3,
12,
16,
14,
19,
11,
9,
18,
12,
21,
9,
14,
14,
8,
7,
16,
7,
12,
9,
11,
6,
9,
5,
10,
4,
8,
12,
2,
7,
3,
5,
2,
7,
5,
3,
2,
3,
3,
5,
6,
8,
4,
4,
0,
2,
2,
0,
5,
0,
1,
2,
1,
2,
3,
3,
1,
3,
1,
0,
1,
2,
0,
0,
0,
0,
1,
0,
0,
0,
0,
0,
0,
0,
0,
0,
1,
0,
0,
0,
0,
0,
0,
0,
0,
0,
0,
0,
0,
1,
0,
0,
0,
0,
0,
0,
0,
0,
0,
0,
0,
0,
1,
0,
0,
0,
0,
0,
1,
0,
0,
0,
0,
0,
0,
0,
0,
0,
0,
0,
0,
0,
0,
1,
0,
0,
0,
0,
0,
0,
1,
0,
0,
0,
0,
0,
0,
0,
0,
0,
0,
0,
0,
0,
0,
0,
0,
0,
0,
0,
0,
0,
0,
0,
0,
0,
0,
0,
0,
0,
0,
0,
0,
0,
0,
0,
0,
0,
0,
0,
0,
0,
0,
0,
0,
0,
0,
0,
0,
0,
0,
0,
0,
0,
0,
1,
0,
0,
0,
0,
0,
0,
0,
0,
1,
0,
0,
0,
0,
0,
0,
0,
0,
0,
0,
0,
0,
0,
0,
0,
0,
0,
0,
0,
0,
0,
0,
0,
0,
0,
0,
0,
0,
0,
0,
0,
0,
0,
0,
0,
0,
0,
0,
0,
0,
0,
0,
0,
0,
0,
0,
0,
0,
0,
0,
0,
0,
0,
0,
0,
0,
0,
0,
0,
0,
0,
0,
0,
0,
0,
0,
0,
0,
0,
0,
0,
0,
0,
0,
0,
0,
0,
0,
0,
0,
0,
0,
0,
0,
0,
0,
0,
0,
0,
0,
0,
0,
0,
0,
0,
0,
0,
0,
0,
0,
0,
0,
0,
0,
0,
0,
0,
0,
0,
0,
0,
0,
0,
0,
0,
0,
0,
0,
0,
0,
0,
0,
0,
0,
0,
0,
0,
0,
0,
0,
0,
0,
0,
0,
0,
0,
0,
0,
0,
0,
0,
0,
0,
0,
0,
0,
0,
0,
0,
0,
0,
0,
0,
0,
0,
0,
0,
0,
0,
0,
0,
0,
0,
0,
0,
0,
0,
0,
0,
0,
0,
0,
0,
0,
0,
0,
0,
0,
0,
0,
0,
0,
0,
0,
0,
0,
0,
0,
0,
0,
0,
0,
0,
0,
0,
0,
0,
0,
0,
0,
0,
0,
0,
0,
0,
0,
0,
0,
0,
0,
0,
0,
0,
0,
0,
0,
0,
0,
0,
0,
0,
0,
0,
0,
0,
0,
0,
0,
0,
0,
0,
0,
0,
0,
0,
0,
0,
0,
0,
0,
0,
0,
0,
0,
0,
0,
0,
0,
0,
0,
0,
0,
0,
0,
0,
0,
0,
0,
0,
0,
0,
0,
0,
0,
0,
0,
0,
0,
0,
0,
0,
0,
0,
0,
0,
0,
0,
0,
0,
0,
0,
0,
0,
0,
0,
0,
0,
0,
0,
0,
0,
0,
0,
0,
0,
0,
0,
0,
0,
0,
0,
0,
0,
0,
0,
0,
0,
0,
0,
0,
0,
0,
0,
0,
0,
0,
0,
0,
0,
0,
0,
0,
0,
0,
0,
0,
0,
0,
0,
0,
0,
0,
0,
0,
0,
0,
0,
0,
0,
0,
0,
0,
0,
0,
0,
0,
0,
0,
0,
0,
0,
0,
0,
0,
0,
0,
0,
0,
0,
0,
0,
0,
0,
0,
0,
0,
0,
0,
0,
0,
0,
0,
0,
0,
0,
0,
0,
0,
0,
0,
0,
0,
0,
0,
0,
0,
0,
0,
0,
0,
0,
0,
0,
0,
0,
0,
0,
0,
0,
0,
0,
0,
0,
0,
0,
0,
0,
0,
0,
0,
0,
0,
0,
0,
0,
0,
0,
0,
0,
0,
0,
0,
0,
0,
0,
0,
0,
0,
0,
0,
0,
0,
0,
0,
0,
0,
0,
0,
0,
0,
0,
0,
0,
0,
0,
0,
0,
0,
0,
0,
0,
0,
0,
0,
0,
0,
0,
0,
0,
0,
0,
0,
0,
0,
0,
0,
0,
0,
0,
0,
0,
0,
0,
0,
0,
0,
0,
0,
0,
0,
0,
0,
0,
0,
0,
0,
0,
0,
0,
0,
0,
0,
0,
0,
0,
0,
0,
0,
0,
0,
0,
0,
0,
0,
0,
0,
0,
0,
0,
0,
0,
0,
0,
0,
0,
0,
0,
0,
0,
0,
0,
0,
0,
0,
0,
0,
0,
0,
0,
0,
0,
0,
0,
0,
0,
0,
0,
0,
0,
0,
0,
0,
0,
0,
0,
0,
0,
0,
0,
0,
0,
0,
0,
0,
0,
0,
0,
0,
0,
0,
0,
0,
0,
0,
0,
0,
#ENDOFDATA   :