File: N132962/Quantification/20 keV/MMM1/SPI MM1 Andradite[7][4].msa
#FORMAT      : EMSA/MAS Spectral Data File
#VERSION     : 1.0
#TITLE       : SPI MM1 Andradite[7][all]
#DATE        : 11-MAR-2025
#TIME        : 13:15
#OWNER       : Unknown
#NPOINTS     : 4096
#NCOLUMNS    : 1
#XUNITS      : eV
#YUNITS      : counts
#DATATYPE    : Y
#XPERCHAN    : 9.99778
#OFFSET      : 1.69135
#BEAMKV      : 20
#SIGNALTYPE  : EDS
#ELEVANGLE   : 35
#AZIMANGLE   : 0
#LIVETIME    : 239.8832
#REALTIME    : 255.398
#PROBECUR    : 1.02699
#TAUWIND     : 0
#TDEADLYR    : 0
#TACTLYR     : 0.045
#TALWIND     : 0.025
#CHOFFSET    : 0.0
#XLABEL      : Energy (eV)
#YLABEL      : Counts
#XPOSITION   : -2.21484
#YPOSITION   : -8.00899
#ZPOSITION   : 30.9284
#EDSDET      : SD
##SPECIMEN   : SPI MM1 Andradite[7][all]
##D2STDCMP   : Andradite,(O:37.7805),(Si:16.5802),(Ca:23.6603),(Fe:21.979),3.86
##DET_HASH   : 12273538-fd48-a23f-0a19-f1e6fa85caef
##CALIB_HASH : 6abaa72c-aa41-8738-0be9-f592914732f3
##WORKING    : 15.0 mm
##DET_NAME   : EDAX All
##DET_MODE   : MediumLE
#SPECTRUM    :
27,
29,
6,
14,
82,
313,
953,
3001,
9110,
13451,
9411,
5081,
3295,
3047,
4035,
12264,
46015,
90183,
66472,
18945,
5457,
4641,
7383,
12842,
12831,
6425,
3086,
2549,
2507,
2481,
2519,
2489,
2735,
2870,
3100,
3211,
3153,
3296,
3497,
3634,
3718,
3871,
3937,
4205,
4157,
4272,
4707,
6379,
12377,
21319,
21775,
13693,
7421,
5531,
6031,
12534,
42403,
106083,
143695,
102136,
42311,
15675,
8210,
5503,
4742,
4647,
4295,
3731,
3439,
3298,
3187,
3338,
3422,
3508,
3696,
3789,
3520,
3552,
3391,
3441,
3365,
3326,
3538,
3360,
3300,
3215,
3243,
3218,
3339,
3251,
3327,
3238,
3205,
3118,
3155,
3149,
3165,
3086,
3172,
3178,
3228,
3102,
2933,
3041,
3103,
2976,
3035,
2981,
3028,
2952,
2935,
2830,
2857,
2792,
2868,
3121,
3169,
3561,
4307,
7603,
19382,
48244,
89434,
113353,
95452,
53925,
21113,
7245,
3544,
3183,
3795,
5950,
9821,
14275,
15796,
12851,
7856,
4157,
2611,
2182,
2137,
2052,
1959,
2021,
1899,
1964,
1905,
1872,
1944,
1905,
1900,
1863,
1865,
1974,
2063,
1993,
1862,
1911,
1840,
1771,
1779,
1851,
1745,
1700,
1736,
1776,
1727,
1693,
1671,
1690,
1648,
1687,
1617,
1688,
1655,
1655,
1640,
1666,
1679,
1733,
1781,
1756,
1673,
1661,
1636,
1573,
1535,
1483,
1501,
1518,
1534,
1527,
1496,
1575,
1719,
1873,
2006,
1973,
1755,
1633,
1529,
1342,
1386,
1378,
1323,
1424,
1476,
1673,
2312,
4309,
9325,
17812,
27871,
34180,
31736,
22978,
13058,
6232,
2891,
1670,
1334,
1325,
1172,
1213,
1214,
1187,
1224,
1200,
1282,
1274,
1456,
1856,
2463,
3654,
4768,
5365,
4888,
3814,
2526,
1697,
1305,
1057,
1003,
952,
1030,
979,
1030,
1046,
998,
1045,
1024,
951,
1005,
931,
947,
934,
930,
968,
884,
916,
885,
870,
905,
836,
850,
843,
802,
848,
842,
842,
864,
842,
885,
835,
890,
814,
802,
776,
774,
730,
699,
754,
743,
755,
734,
706,
735,
783,
682,
721,
755,
736,
773,
750,
734,
722,
723,
719,
682,
742,
646,
662,
643,
700,
662,
614,
615,
612,
639,
667,
635,
619,
652,
607,
600,
633,
603,
622,
605,
633,
575,
591,
633,
595,
570,
567,
542,
574,
538,
545,
561,
525,
592,
527,
563,
588,
595,
582,
579,
560,
510,
517,
506,
514,
509,
446,
536,
496,
486,
483,
463,
476,
486,
459,
457,
407,
463,
430,
436,
456,
462,
437,
440,
412,
455,
440,
419,
390,
408,
357,
397,
469,
436,
439,
425,
386,
386,
400,
372,
366,
365,
403,
369,
365,
375,
362,
367,
340,
372,
340,
322,
326,
334,
303,
317,
328,
331,
316,
328,
303,
303,
305,
346,
324,
329,
305,
295,
289,
309,
302,
329,
284,
280,
235,
265,
290,
257,
271,
263,
252,
273,
272,
265,
248,
267,
239,
229,
262,
272,
236,
236,
268,
248,
270,
232,
226,
252,
225,
238,
217,
242,
203,
215,
210,
219,
212,
195,
207,
197,
215,
203,
190,
172,
213,
177,
196,
168,
177,
184,
171,
175,
194,
177,
157,
170,
139,
182,
181,
148,
142,
145,
157,
150,
151,
137,
163,
139,
132,
159,
153,
139,
155,
134,
144,
128,
134,
125,
132,
135,
138,
141,
122,
119,
114,
110,
113,
130,
108,
108,
105,
98,
139,
116,
129,
102,
80,
103,
97,
100,
93,
105,
100,
106,
96,
90,
109,
87,
105,
89,
77,
87,
92,
90,
83,
94,
86,
70,
84,
77,
74,
72,
82,
65,
95,
82,
76,
82,
64,
81,
82,
72,
71,
71,
62,
76,
66,
65,
43,
53,
67,
66,
56,
47,
37,
54,
53,
51,
44,
58,
55,
52,
52,
46,
57,
33,
26,
43,
53,
35,
31,
40,
42,
43,
32,
29,
44,
38,
46,
36,
40,
30,
20,
48,
33,
35,
30,
33,
21,
38,
35,
27,
28,
26,
24,
33,
27,
29,
27,
29,
26,
40,
22,
33,
25,
18,
23,
21,
16,
23,
21,
9,
15,
22,
22,
20,
15,
13,
20,
11,
25,
18,
14,
9,
12,
13,
10,
11,
10,
18,
9,
10,
10,
13,
9,
8,
11,
10,
16,
10,
8,
8,
7,
9,
8,
9,
2,
11,
3,
3,
3,
1,
3,
4,
6,
2,
6,
2,
4,
0,
4,
5,
2,
3,
1,
4,
1,
0,
1,
0,
0,
2,
0,
0,
0,
1,
1,
1,
0,
0,
0,
1,
0,
0,
0,
1,
0,
2,
1,
1,
0,
0,
1,
0,
0,
1,
0,
0,
0,
0,
1,
0,
0,
0,
0,
0,
0,
0,
0,
0,
0,
1,
0,
0,
0,
0,
0,
0,
0,
0,
1,
0,
0,
1,
0,
0,
0,
0,
0,
0,
0,
0,
0,
0,
0,
0,
1,
1,
0,
0,
0,
0,
1,
0,
0,
1,
1,
0,
1,
0,
0,
0,
1,
0,
0,
0,
0,
0,
0,
1,
1,
0,
0,
0,
0,
0,
0,
0,
0,
2,
0,
0,
0,
0,
0,
0,
0,
0,
0,
1,
0,
0,
0,
0,
0,
1,
0,
0,
0,
0,
0,
0,
0,
0,
0,
0,
0,
0,
0,
0,
0,
0,
0,
0,
0,
0,
0,
0,
0,
0,
0,
0,
0,
0,
0,
0,
0,
0,
0,
0,
0,
0,
0,
0,
0,
1,
0,
0,
0,
0,
0,
0,
0,
0,
0,
0,
0,
0,
0,
0,
0,
0,
0,
0,
0,
0,
0,
0,
0,
0,
0,
0,
1,
0,
0,
1,
0,
0,
0,
0,
0,
0,
0,
0,
0,
0,
0,
0,
0,
0,
0,
0,
0,
0,
0,
0,
0,
0,
0,
0,
0,
1,
0,
0,
0,
0,
0,
0,
0,
0,
0,
0,
0,
0,
0,
0,
0,
0,
0,
0,
0,
0,
0,
0,
0,
0,
0,
0,
0,
0,
0,
0,
0,
0,
0,
0,
0,
0,
0,
0,
0,
0,
0,
0,
0,
0,
0,
0,
0,
0,
0,
0,
0,
0,
0,
0,
0,
0,
0,
0,
0,
0,
0,
0,
0,
0,
0,
0,
0,
0,
0,
0,
0,
0,
0,
0,
0,
0,
0,
0,
0,
0,
0,
0,
0,
0,
0,
1,
0,
0,
0,
0,
0,
0,
0,
0,
0,
0,
0,
0,
0,
0,
0,
0,
0,
0,
0,
0,
0,
0,
0,
0,
0,
0,
0,
0,
0,
0,
0,
0,
0,
0,
0,
0,
0,
0,
0,
0,
0,
0,
0,
0,
0,
0,
0,
0,
0,
0,
0,
0,
0,
0,
0,
0,
0,
0,
0,
0,
0,
0,
0,
0,
0,
0,
0,
0,
0,
0,
0,
0,
0,
0,
0,
0,
0,
0,
0,
0,
0,
0,
0,
0,
0,
0,
0,
0,
0,
0,
0,
0,
0,
0,
0,
0,
0,
0,
0,
0,
0,
0,
0,
0,
0,
0,
0,
0,
0,
0,
0,
0,
0,
0,
0,
0,
0,
0,
0,
0,
0,
0,
0,
0,
0,
0,
0,
0,
0,
0,
0,
0,
0,
0,
0,
0,
0,
0,
0,
0,
0,
0,
0,
0,
0,
0,
0,
0,
0,
0,
0,
0,
0,
0,
0,
0,
0,
0,
0,
0,
0,
0,
0,
0,
0,
0,
0,
0,
0,
0,
0,
0,
0,
0,
0,
0,
0,
0,
0,
0,
0,
0,
0,
0,
0,
0,
0,
0,
0,
0,
0,
0,
0,
0,
0,
0,
0,
0,
0,
0,
0,
0,
0,
0,
0,
0,
0,
0,
0,
0,
0,
0,
0,
0,
0,
0,
0,
0,
0,
0,
0,
0,
0,
0,
0,
0,
0,
0,
0,
0,
0,
0,
0,
0,
0,
0,
0,
0,
0,
0,
0,
0,
0,
0,
0,
0,
0,
0,
0,
0,
0,
0,
0,
0,
0,
0,
0,
0,
0,
0,
0,
0,
0,
0,
0,
0,
0,
0,
0,
0,
0,
0,
0,
0,
0,
0,
0,
0,
0,
0,
0,
0,
0,
0,
0,
0,
0,
0,
0,
0,
0,
0,
0,
0,
0,
0,
0,
0,
0,
0,
0,
0,
0,
0,
0,
0,
0,
0,
0,
0,
0,
0,
0,
0,
0,
0,
0,
0,
0,
0,
0,
0,
0,
0,
0,
0,
0,
0,
0,
0,
0,
0,
0,
0,
0,
0,
0,
0,
0,
0,
0,
0,
0,
0,
0,
0,
0,
0,
0,
0,
0,
0,
0,
0,
0,
0,
0,
0,
0,
0,
0,
0,
0,
0,
0,
0,
0,
0,
0,
0,
0,
0,
0,
0,
0,
0,
0,
0,
0,
0,
0,
0,
0,
0,
0,
0,
0,
0,
0,
0,
0,
0,
0,
0,
0,
0,
0,
0,
0,
#ENDOFDATA   :