File: N132962/Quantification/20 keV/MMM1/SPI MM1 Diopside[1][4].msa
#FORMAT      : EMSA/MAS Spectral Data File
#VERSION     : 1.0
#TITLE       : SPI MM1dup Diopside[1][all]
#DATE        : 12-MAR-2025
#TIME        : 15:37
#OWNER       : Unknown
#NPOINTS     : 4096
#NCOLUMNS    : 1
#XUNITS      : eV
#YUNITS      : counts
#DATATYPE    : Y
#XPERCHAN    : 9.99778
#OFFSET      : 1.69135
#BEAMKV      : 20
#SIGNALTYPE  : EDS
#ELEVANGLE   : 35
#AZIMANGLE   : 0
#LIVETIME    : 239.75
#REALTIME    : 255.147
#PROBECUR    : 1.02695
#TAUWIND     : 0
#TDEADLYR    : 0
#TACTLYR     : 0.045
#TALWIND     : 0.025
#CHOFFSET    : 0.0
#XLABEL      : Energy (eV)
#YLABEL      : Counts
#XPOSITION   : 2.14221
#YPOSITION   : 1.50262
#ZPOSITION   : 31.03608
#EDSDET      : SD
##SPECIMEN   : SPI MM1dup Diopside[1][all]
##D2STDCMP   : Diopside,(O:44.3298),(Mg:11.2237),(Si:25.939),(Ca:18.5075)
##DET_HASH   : 12273538-fd48-a23f-0a19-f1e6fa85caef
##CALIB_HASH : 6abaa72c-aa41-8738-0be9-f592914732f3
##WORKING    : 15.0 mm
##DET_NAME   : EDAX All
##DET_MODE   : MediumLE
#SPECTRUM    :
27,
27,
6,
14,
77,
265,
817,
2552,
7427,
10903,
7190,
3801,
2662,
2637,
4038,
13719,
53689,
104799,
77132,
21280,
3434,
1875,
2028,
2523,
2568,
2337,
2280,
2508,
2631,
2886,
2926,
2992,
3276,
3874,
4859,
5233,
4557,
4268,
5013,
8881,
28333,
67758,
80623,
46594,
15239,
5506,
3927,
4119,
5114,
6291,
6634,
5773,
5085,
4965,
6082,
16442,
63515,
162205,
220206,
155715,
63020,
21384,
9818,
5380,
3760,
3489,
3117,
2809,
2584,
2624,
2617,
2696,
2647,
2598,
2874,
3091,
3038,
2794,
2621,
2601,
2590,
2610,
2613,
2595,
2516,
2562,
2626,
2553,
2541,
2516,
2458,
2493,
2541,
2442,
2502,
2561,
2485,
2477,
2534,
2610,
2589,
2546,
2526,
2453,
2452,
2378,
2343,
2384,
2336,
2343,
2306,
2270,
2243,
2285,
2348,
2407,
2742,
2956,
3463,
5639,
14279,
35027,
65082,
81545,
68933,
39549,
15766,
5633,
2768,
2433,
2926,
4345,
7203,
10513,
11733,
9279,
5690,
3172,
2016,
1795,
1710,
1651,
1590,
1548,
1609,
1617,
1543,
1575,
1496,
1548,
1602,
1540,
1533,
1500,
1497,
1440,
1384,
1395,
1453,
1459,
1433,
1381,
1383,
1525,
1396,
1444,
1508,
1381,
1418,
1295,
1347,
1317,
1364,
1321,
1286,
1375,
1282,
1309,
1316,
1335,
1446,
1501,
1448,
1378,
1262,
1196,
1208,
1198,
1233,
1211,
1230,
1163,
1094,
1160,
1207,
1160,
1206,
1213,
1170,
1122,
1123,
1074,
1031,
1065,
1053,
1005,
1088,
1044,
1081,
1112,
1220,
1631,
1898,
2218,
2112,
1810,
1358,
1121,
1017,
968,
920,
921,
884,
937,
884,
954,
930,
878,
916,
892,
886,
918,
895,
907,
993,
1064,
975,
907,
868,
784,
817,
825,
827,
781,
797,
841,
786,
850,
827,
784,
809,
775,
741,
746,
748,
757,
784,
735,
704,
736,
710,
734,
711,
695,
698,
701,
683,
608,
679,
697,
651,
687,
641,
648,
661,
616,
622,
613,
610,
606,
645,
631,
588,
578,
588,
553,
604,
552,
568,
571,
583,
592,
557,
584,
538,
554,
558,
546,
574,
545,
529,
543,
525,
515,
505,
510,
522,
485,
479,
471,
510,
489,
483,
484,
520,
505,
468,
473,
467,
460,
483,
489,
461,
463,
479,
440,
433,
446,
449,
441,
490,
443,
432,
439,
390,
393,
396,
391,
391,
402,
394,
402,
401,
381,
423,
391,
382,
411,
378,
376,
340,
372,
406,
333,
396,
366,
374,
358,
332,
331,
342,
378,
330,
330,
293,
308,
299,
303,
308,
320,
371,
305,
305,
298,
302,
319,
303,
292,
300,
276,
300,
271,
286,
283,
292,
280,
269,
295,
241,
256,
263,
258,
256,
257,
253,
255,
252,
231,
243,
233,
222,
237,
225,
258,
205,
213,
229,
240,
209,
213,
226,
233,
210,
221,
227,
205,
206,
208,
192,
197,
190,
173,
186,
180,
201,
181,
175,
188,
185,
191,
177,
185,
185,
177,
190,
181,
144,
163,
157,
175,
160,
145,
159,
180,
175,
166,
181,
159,
160,
121,
143,
142,
137,
133,
149,
139,
140,
129,
138,
140,
134,
137,
145,
140,
128,
109,
107,
108,
103,
111,
124,
114,
120,
117,
124,
127,
131,
93,
107,
101,
108,
89,
111,
95,
83,
94,
119,
90,
94,
84,
104,
91,
82,
87,
83,
84,
79,
103,
92,
87,
95,
82,
81,
88,
82,
62,
77,
71,
78,
86,
78,
94,
69,
77,
60,
69,
60,
63,
64,
59,
61,
69,
48,
73,
76,
68,
50,
69,
58,
61,
52,
51,
56,
61,
48,
51,
52,
65,
25,
50,
51,
37,
49,
46,
49,
44,
43,
33,
41,
42,
44,
30,
63,
31,
48,
39,
26,
42,
42,
39,
39,
28,
44,
42,
43,
33,
35,
27,
30,
28,
26,
22,
19,
30,
24,
26,
21,
29,
17,
25,
23,
19,
18,
18,
25,
25,
27,
24,
25,
23,
30,
25,
17,
25,
16,
15,
11,
17,
13,
19,
17,
22,
13,
21,
11,
12,
13,
11,
8,
18,
24,
23,
18,
11,
11,
9,
14,
3,
16,
7,
16,
8,
6,
9,
10,
5,
6,
14,
6,
8,
8,
6,
5,
5,
5,
10,
4,
9,
5,
4,
5,
4,
5,
3,
1,
8,
6,
3,
6,
2,
2,
2,
5,
4,
4,
3,
4,
3,
0,
1,
3,
0,
0,
0,
1,
1,
0,
1,
0,
0,
1,
0,
1,
0,
0,
0,
0,
0,
0,
0,
1,
1,
0,
0,
0,
1,
0,
0,
0,
0,
0,
0,
0,
1,
0,
0,
1,
1,
0,
0,
0,
0,
0,
0,
0,
0,
0,
1,
0,
0,
0,
0,
0,
0,
0,
0,
0,
0,
0,
0,
0,
0,
0,
0,
0,
0,
0,
0,
1,
0,
0,
0,
0,
1,
0,
0,
0,
0,
0,
0,
0,
0,
0,
0,
0,
0,
0,
0,
0,
0,
0,
0,
0,
0,
0,
0,
0,
0,
0,
0,
0,
0,
0,
0,
0,
0,
0,
0,
0,
0,
0,
0,
0,
0,
1,
0,
0,
0,
0,
0,
0,
0,
0,
0,
0,
0,
0,
0,
0,
0,
0,
0,
0,
0,
0,
0,
0,
0,
0,
0,
0,
0,
0,
0,
0,
0,
0,
0,
0,
0,
0,
0,
0,
0,
0,
0,
0,
0,
0,
0,
0,
0,
0,
0,
0,
0,
0,
0,
0,
0,
0,
0,
0,
0,
0,
1,
0,
0,
0,
0,
0,
0,
0,
0,
0,
0,
0,
0,
0,
0,
0,
0,
0,
0,
0,
0,
0,
0,
0,
0,
0,
0,
0,
0,
0,
0,
0,
0,
0,
0,
0,
0,
0,
0,
0,
0,
0,
0,
0,
0,
0,
0,
0,
0,
0,
0,
0,
0,
0,
0,
0,
0,
0,
0,
0,
0,
0,
0,
0,
0,
0,
0,
0,
0,
0,
0,
0,
0,
0,
0,
0,
0,
0,
0,
0,
0,
0,
0,
0,
0,
0,
0,
0,
0,
0,
0,
0,
0,
0,
0,
0,
0,
0,
0,
0,
0,
0,
1,
0,
0,
0,
0,
0,
0,
0,
0,
0,
0,
0,
0,
0,
0,
0,
0,
0,
0,
0,
0,
0,
0,
0,
0,
0,
0,
0,
0,
0,
0,
0,
0,
0,
0,
0,
0,
0,
0,
0,
0,
0,
0,
0,
0,
0,
0,
0,
0,
0,
0,
0,
0,
0,
0,
0,
0,
0,
0,
0,
0,
0,
0,
0,
0,
0,
0,
0,
0,
0,
0,
0,
0,
0,
0,
0,
0,
0,
0,
0,
0,
0,
0,
0,
0,
0,
0,
0,
0,
0,
0,
0,
0,
0,
0,
0,
0,
0,
0,
0,
0,
0,
0,
0,
0,
0,
0,
0,
0,
0,
0,
0,
0,
0,
0,
0,
0,
0,
0,
0,
0,
0,
0,
0,
0,
0,
0,
0,
0,
0,
0,
0,
0,
0,
0,
0,
0,
0,
0,
0,
0,
0,
0,
0,
0,
0,
0,
0,
0,
0,
0,
0,
0,
0,
0,
0,
0,
0,
0,
0,
0,
0,
0,
0,
0,
0,
0,
0,
0,
0,
0,
0,
0,
0,
0,
0,
0,
0,
0,
0,
0,
0,
0,
0,
0,
0,
0,
0,
0,
0,
0,
0,
0,
0,
0,
0,
0,
0,
0,
0,
0,
0,
0,
0,
0,
0,
0,
0,
0,
0,
0,
0,
0,
0,
0,
0,
0,
0,
0,
0,
0,
0,
0,
0,
0,
0,
0,
0,
0,
0,
0,
0,
0,
0,
0,
0,
0,
0,
0,
0,
0,
0,
0,
0,
0,
0,
0,
0,
0,
0,
0,
0,
0,
0,
0,
0,
0,
0,
0,
0,
0,
0,
0,
0,
0,
0,
0,
0,
0,
0,
0,
0,
0,
0,
0,
0,
0,
0,
0,
0,
0,
0,
0,
0,
0,
0,
0,
0,
0,
0,
0,
0,
0,
0,
0,
0,
0,
0,
0,
0,
0,
0,
0,
0,
0,
0,
0,
0,
0,
0,
0,
0,
0,
0,
0,
0,
0,
0,
0,
0,
0,
0,
0,
0,
0,
0,
0,
0,
0,
0,
0,
0,
0,
0,
0,
0,
0,
0,
0,
0,
0,
0,
0,
0,
0,
0,
0,
0,
0,
0,
0,
0,
0,
0,
0,
0,
0,
0,
0,
0,
0,
0,
0,
0,
0,
0,
0,
0,
0,
0,
0,
0,
0,
0,
0,
0,
0,
0,
0,
0,
0,
0,
0,
0,
0,
0,
0,
0,
0,
0,
0,
0,
0,
0,
0,
0,
0,
0,
0,
0,
0,
0,
0,
0,
0,
0,
0,
0,
0,
0,
0,
0,
0,
0,
0,
0,
0,
0,
0,
0,
0,
0,
0,
0,
0,
0,
0,
0,
0,
#ENDOFDATA   :