File: N132962/Quantification/20 keV/MMM1/SPI MM1 Calcite[7][4].msa
#FORMAT      : EMSA/MAS Spectral Data File
#VERSION     : 1.0
#TITLE       : SPI MM1 Calcite[7][all]
#DATE        : 11-MAR-2025
#TIME        : 14:19
#OWNER       : Unknown
#NPOINTS     : 4096
#NCOLUMNS    : 1
#XUNITS      : eV
#YUNITS      : counts
#DATATYPE    : Y
#XPERCHAN    : 9.99778
#OFFSET      : 1.69135
#BEAMKV      : 20
#SIGNALTYPE  : EDS
#ELEVANGLE   : 35
#AZIMANGLE   : 0
#LIVETIME    : 239.924
#REALTIME    : 252.196
#PROBECUR    : 1.02902
#TAUWIND     : 0
#TDEADLYR    : 0
#TACTLYR     : 0.045
#TALWIND     : 0.025
#CHOFFSET    : 0.0
#XLABEL      : Energy (eV)
#YLABEL      : Counts
#XPOSITION   : -0.14386
#YPOSITION   : -2.86442
#ZPOSITION   : 30.9284
#EDSDET      : SD
##SPECIMEN   : SPI MM1 Calcite[7][all]
##D2STDCMP   : Calcite,(C:12.0003),(O:47.9565),(Ca:40.0432),5.0
##DET_HASH   : 12273538-fd48-a23f-0a19-f1e6fa85caef
##CALIB_HASH : 6abaa72c-aa41-8738-0be9-f592914732f3
##WORKING    : 15.0 mm
##DET_NAME   : EDAX All
##DET_MODE   : MediumLE
#SPECTRUM    :
31,
26,
7,
18,
89,
476,
1916,
8755,
30010,
43426,
23301,
7726,
3290,
2162,
2817,
8908,
34783,
68157,
50334,
13627,
2361,
1342,
1426,
1541,
1579,
1700,
1758,
1981,
2073,
2206,
2190,
2259,
2415,
2495,
2605,
2752,
2833,
2966,
3046,
3232,
3148,
3356,
3518,
3493,
3649,
3709,
3627,
3844,
3928,
3982,
4072,
4101,
4066,
4068,
3957,
4043,
4272,
4569,
4673,
4683,
4543,
4266,
4189,
4516,
5364,
5839,
5187,
4290,
3689,
3683,
3515,
3582,
3599,
3477,
3585,
3679,
3674,
3678,
3444,
3349,
3265,
3252,
3335,
3183,
3161,
3159,
3218,
3151,
3051,
3153,
2974,
3044,
3028,
3025,
2941,
2938,
2859,
2954,
2881,
2829,
2810,
2688,
2780,
2743,
2821,
2754,
2726,
2807,
2748,
2681,
2571,
2550,
2457,
2562,
2501,
2623,
3011,
3632,
5293,
10524,
31053,
80726,
151774,
192078,
161582,
90429,
34292,
10512,
4007,
3206,
4472,
7863,
14614,
22039,
25099,
19526,
11321,
5050,
2497,
1767,
1713,
1680,
1612,
1593,
1453,
1507,
1490,
1425,
1486,
1456,
1411,
1430,
1496,
1412,
1418,
1394,
1358,
1393,
1343,
1408,
1301,
1389,
1326,
1341,
1345,
1236,
1268,
1334,
1351,
1328,
1356,
1293,
1292,
1301,
1283,
1207,
1264,
1276,
1272,
1240,
1222,
1223,
1242,
1272,
1116,
1169,
1204,
1139,
1188,
1101,
1110,
1108,
1118,
1118,
1231,
1250,
1289,
1174,
1192,
1148,
1132,
1058,
1133,
1049,
1023,
994,
1018,
1043,
1011,
1058,
1017,
1018,
1065,
1041,
1116,
1070,
1050,
973,
946,
880,
925,
900,
859,
920,
921,
935,
910,
920,
883,
853,
867,
844,
813,
857,
863,
846,
834,
849,
880,
817,
822,
819,
790,
859,
863,
940,
910,
973,
949,
867,
812,
807,
785,
768,
778,
748,
781,
747,
779,
731,
693,
750,
701,
663,
687,
671,
735,
665,
648,
618,
609,
686,
711,
631,
649,
652,
629,
651,
638,
619,
593,
590,
630,
606,
623,
605,
588,
608,
560,
579,
564,
567,
560,
589,
546,
544,
502,
580,
538,
538,
500,
523,
516,
484,
501,
506,
487,
504,
523,
469,
496,
520,
496,
471,
509,
452,
476,
525,
454,
496,
443,
448,
435,
456,
464,
460,
434,
439,
419,
419,
418,
459,
425,
432,
434,
393,
405,
381,
405,
431,
398,
413,
389,
407,
353,
380,
364,
390,
384,
407,
371,
357,
394,
376,
390,
334,
371,
327,
348,
376,
330,
323,
355,
325,
350,
321,
310,
327,
327,
300,
332,
304,
298,
323,
295,
324,
311,
294,
308,
300,
294,
289,
271,
283,
279,
259,
278,
311,
280,
249,
255,
254,
254,
281,
262,
248,
279,
227,
255,
227,
222,
239,
237,
215,
231,
230,
238,
235,
204,
194,
193,
225,
194,
217,
211,
219,
216,
206,
192,
222,
171,
179,
193,
197,
187,
192,
192,
204,
194,
188,
168,
154,
177,
166,
209,
166,
194,
175,
163,
185,
163,
151,
154,
175,
160,
167,
165,
151,
167,
134,
143,
137,
120,
129,
147,
136,
131,
148,
123,
116,
142,
150,
127,
114,
117,
146,
118,
106,
113,
119,
111,
105,
109,
110,
120,
119,
103,
113,
113,
104,
123,
95,
86,
103,
90,
116,
113,
96,
89,
91,
75,
83,
89,
85,
100,
78,
89,
104,
95,
89,
76,
75,
75,
84,
68,
80,
67,
73,
70,
74,
77,
85,
55,
73,
69,
60,
68,
58,
54,
68,
72,
66,
70,
43,
70,
64,
56,
52,
58,
57,
69,
56,
56,
57,
58,
46,
54,
49,
54,
49,
48,
54,
45,
47,
46,
51,
33,
37,
40,
50,
46,
42,
45,
30,
33,
34,
39,
33,
37,
39,
34,
32,
42,
32,
31,
28,
28,
41,
23,
41,
33,
34,
25,
36,
19,
26,
18,
33,
29,
30,
20,
22,
26,
21,
20,
21,
28,
18,
20,
18,
23,
24,
23,
19,
15,
25,
19,
15,
18,
14,
16,
17,
17,
20,
18,
11,
18,
15,
14,
13,
12,
11,
15,
15,
12,
21,
7,
6,
14,
10,
7,
10,
8,
15,
10,
7,
8,
7,
9,
12,
5,
7,
9,
7,
4,
9,
10,
3,
5,
6,
12,
4,
5,
7,
5,
6,
1,
3,
4,
6,
4,
4,
1,
5,
1,
3,
0,
3,
2,
2,
1,
1,
0,
1,
1,
0,
1,
0,
0,
0,
0,
0,
0,
0,
0,
0,
0,
0,
0,
0,
0,
0,
0,
1,
0,
0,
0,
0,
0,
0,
0,
1,
0,
0,
0,
0,
0,
0,
0,
0,
1,
0,
0,
2,
0,
0,
0,
0,
0,
0,
0,
0,
0,
0,
0,
0,
0,
0,
0,
0,
0,
0,
1,
0,
0,
0,
0,
0,
0,
0,
0,
1,
0,
0,
1,
0,
0,
0,
0,
0,
0,
0,
0,
0,
1,
0,
0,
0,
0,
0,
0,
0,
0,
2,
0,
0,
0,
0,
0,
0,
0,
0,
1,
0,
0,
0,
0,
0,
0,
0,
0,
0,
0,
0,
1,
0,
0,
1,
0,
0,
0,
0,
0,
0,
0,
0,
0,
0,
0,
0,
0,
0,
0,
0,
0,
0,
0,
0,
0,
0,
0,
0,
0,
0,
0,
0,
0,
0,
0,
0,
0,
0,
0,
0,
0,
0,
0,
0,
0,
0,
0,
0,
0,
0,
0,
0,
0,
0,
0,
0,
0,
0,
0,
0,
0,
0,
0,
0,
0,
0,
0,
0,
0,
0,
0,
0,
0,
0,
0,
0,
0,
0,
0,
0,
0,
0,
0,
0,
1,
0,
0,
0,
1,
0,
0,
0,
0,
0,
0,
0,
0,
0,
0,
0,
0,
0,
0,
0,
0,
0,
0,
0,
0,
0,
0,
0,
0,
0,
0,
0,
1,
0,
0,
0,
0,
0,
0,
0,
0,
0,
0,
0,
0,
0,
0,
0,
0,
0,
0,
0,
0,
0,
0,
0,
0,
0,
0,
0,
0,
0,
0,
0,
0,
0,
0,
0,
0,
0,
0,
0,
0,
0,
0,
0,
0,
0,
0,
0,
0,
0,
0,
0,
0,
0,
0,
0,
0,
0,
0,
0,
0,
0,
0,
0,
0,
0,
0,
0,
0,
0,
0,
0,
0,
0,
0,
0,
0,
0,
0,
0,
0,
0,
0,
0,
0,
0,
0,
0,
0,
0,
0,
0,
0,
0,
0,
0,
0,
0,
0,
0,
0,
0,
0,
0,
0,
0,
0,
0,
0,
0,
0,
0,
0,
0,
0,
0,
0,
0,
0,
0,
0,
0,
0,
0,
0,
0,
0,
0,
0,
0,
0,
0,
0,
0,
0,
0,
0,
0,
0,
0,
0,
0,
0,
0,
0,
0,
0,
0,
0,
0,
0,
0,
0,
0,
0,
0,
0,
0,
0,
0,
0,
0,
0,
0,
0,
0,
0,
0,
0,
0,
0,
0,
0,
0,
0,
0,
0,
0,
0,
0,
0,
0,
0,
0,
0,
0,
0,
0,
0,
0,
0,
0,
0,
0,
0,
0,
0,
0,
0,
0,
0,
0,
0,
0,
0,
0,
0,
0,
0,
0,
0,
0,
0,
0,
0,
0,
0,
0,
0,
0,
0,
0,
0,
0,
0,
0,
0,
0,
0,
0,
0,
0,
0,
0,
0,
0,
0,
0,
0,
0,
0,
0,
0,
0,
0,
0,
0,
0,
0,
0,
0,
0,
0,
0,
0,
0,
0,
0,
0,
0,
0,
0,
0,
0,
0,
0,
0,
0,
0,
0,
0,
0,
0,
0,
0,
0,
0,
0,
0,
0,
0,
0,
0,
0,
0,
0,
0,
0,
0,
0,
0,
0,
0,
0,
0,
0,
0,
0,
0,
0,
0,
0,
0,
0,
0,
0,
0,
0,
0,
0,
0,
0,
0,
0,
0,
0,
0,
0,
0,
0,
0,
0,
0,
0,
0,
0,
0,
0,
0,
0,
0,
0,
0,
0,
0,
0,
0,
0,
0,
0,
0,
0,
0,
0,
0,
0,
0,
0,
0,
0,
0,
0,
0,
0,
0,
0,
0,
0,
0,
0,
0,
0,
0,
0,
0,
0,
0,
0,
0,
0,
0,
0,
0,
0,
0,
0,
0,
0,
0,
0,
0,
0,
0,
0,
0,
0,
0,
0,
0,
0,
0,
0,
0,
0,
0,
0,
0,
0,
0,
0,
0,
0,
0,
0,
0,
0,
0,
0,
0,
0,
0,
0,
0,
0,
0,
0,
0,
0,
0,
0,
0,
0,
0,
0,
0,
0,
0,
0,
0,
0,
0,
0,
0,
0,
0,
0,
0,
0,
0,
0,
0,
0,
0,
0,
0,
0,
0,
0,
0,
0,
0,
0,
0,
0,
0,
0,
0,
0,
0,
0,
0,
0,
0,
0,
0,
0,
0,
0,
0,
0,
0,
0,
0,
0,
0,
0,
#ENDOFDATA   :