File: N132962/Quantification/20 keV/MMM1/SPI MM1 Arsenopyrite[5][4].msa
#FORMAT      : EMSA/MAS Spectral Data File
#VERSION     : 1.0
#TITLE       : SPI MM1 Arsenopyrite[5][all]
#DATE        : 11-MAR-2025
#TIME        : 13:40
#OWNER       : Unknown
#NPOINTS     : 4096
#NCOLUMNS    : 1
#XUNITS      : eV
#YUNITS      : counts
#DATATYPE    : Y
#XPERCHAN    : 9.99778
#OFFSET      : 1.69135
#BEAMKV      : 20
#SIGNALTYPE  : EDS
#ELEVANGLE   : 35
#AZIMANGLE   : 0
#LIVETIME    : 239.836
#REALTIME    : 260.78
#PROBECUR    : 1.02853
#TAUWIND     : 0
#TDEADLYR    : 0
#TACTLYR     : 0.045
#TALWIND     : 0.025
#CHOFFSET    : 0.0
#XLABEL      : Energy (eV)
#YLABEL      : Counts
#XPOSITION   : 2.16876
#YPOSITION   : -5.10671
#ZPOSITION   : 30.9284
#EDSDET      : SD
##SPECIMEN   : SPI MM1 Arsenopyrite[5][all]
##D2STDCMP   : Arsenopyrite,(S:19.6897),(Fe:34.2972),(As:46.0131),6.0
##DET_HASH   : 12273538-fd48-a23f-0a19-f1e6fa85caef
##CALIB_HASH : 6abaa72c-aa41-8738-0be9-f592914732f3
##WORKING    : 15.0 mm
##DET_NAME   : EDAX All
##DET_MODE   : MediumLE
#SPECTRUM    :
27,
33,
8,
27,
160,
511,
1216,
3568,
9963,
13230,
6847,
2919,
2677,
2971,
3357,
3975,
4939,
6450,
8507,
12743,
17548,
19716,
32439,
56038,
47386,
18751,
7061,
5183,
4882,
4830,
4947,
5044,
5408,
5485,
5833,
6971,
9938,
13870,
14555,
12830,
18871,
58450,
145461,
195963,
146139,
64900,
20607,
8031,
5060,
4528,
4294,
4348,
4261,
4060,
4029,
4297,
4544,
4910,
5163,
5213,
4977,
4814,
4510,
4498,
4605,
4752,
4767,
4782,
4905,
4922,
4948,
5326,
6202,
8916,
18238,
45646,
90321,
112757,
82643,
37432,
14969,
11581,
12620,
11275,
7626,
5509,
4619,
4487,
4390,
4322,
4235,
4174,
4203,
4200,
4197,
4229,
4259,
4158,
4190,
4282,
4390,
4186,
4229,
4130,
4117,
4234,
4257,
4157,
4230,
4106,
4016,
4068,
4136,
4147,
4020,
3864,
4086,
4100,
4214,
4231,
4188,
4129,
4089,
4004,
3986,
4045,
3895,
3912,
3880,
3862,
3935,
3808,
3801,
3737,
3666,
3767,
3756,
3663,
3719,
3700,
3573,
3538,
3586,
3599,
3469,
3497,
3470,
3450,
3356,
3414,
3466,
3514,
3518,
3680,
3550,
3633,
3609,
3425,
3330,
3265,
3306,
3186,
3264,
3156,
3164,
3213,
3246,
3065,
3084,
3158,
3116,
3029,
3183,
3018,
3048,
3106,
3076,
3033,
3114,
2894,
2903,
2906,
3005,
2932,
2753,
2742,
2782,
2833,
2737,
2728,
2810,
2780,
2615,
2712,
2616,
2672,
2581,
2712,
2738,
2602,
2513,
2581,
2515,
2613,
2637,
2657,
2825,
3101,
4516,
8824,
19998,
38955,
60729,
73456,
69013,
50446,
28510,
13252,
5952,
3199,
2543,
2412,
2354,
2295,
2276,
2315,
2253,
2327,
2384,
2388,
2682,
3628,
5240,
7524,
10094,
11338,
10436,
7705,
5318,
3427,
2393,
2038,
1770,
1845,
1745,
1835,
1861,
1809,
1886,
1969,
1903,
1847,
1791,
1774,
1772,
1791,
1862,
1897,
1868,
1762,
1702,
1636,
1592,
1517,
1677,
1569,
1571,
1585,
1587,
1634,
1549,
1596,
1649,
1560,
1539,
1543,
1566,
1654,
1500,
1433,
1501,
1431,
1479,
1371,
1415,
1454,
1423,
1475,
1401,
1426,
1535,
1403,
1438,
1435,
1350,
1434,
1383,
1408,
1324,
1311,
1343,
1274,
1300,
1286,
1296,
1261,
1241,
1258,
1264,
1233,
1200,
1245,
1242,
1144,
1224,
1209,
1175,
1171,
1166,
1181,
1220,
1155,
1149,
1137,
1187,
1122,
1102,
1078,
1090,
1072,
1045,
1091,
1122,
1081,
1120,
1118,
1055,
1086,
1023,
1022,
1060,
1077,
1072,
1212,
1466,
2125,
3646,
6267,
10106,
14169,
17332,
18314,
16571,
12358,
8417,
4958,
2726,
1646,
1141,
996,
932,
857,
910,
944,
872,
861,
830,
835,
835,
827,
787,
829,
845,
838,
762,
827,
879,
786,
821,
752,
771,
806,
833,
798,
926,
1005,
1226,
1687,
2152,
2703,
2987,
3155,
2776,
2238,
1658,
1264,
1016,
845,
720,
670,
679,
583,
590,
590,
578,
578,
621,
567,
565,
572,
604,
583,
534,
559,
558,
573,
526,
563,
545,
519,
541,
540,
558,
541,
537,
545,
545,
563,
532,
544,
519,
485,
526,
516,
436,
481,
478,
466,
456,
434,
444,
496,
434,
449,
424,
421,
405,
387,
390,
398,
373,
430,
395,
378,
372,
356,
391,
371,
394,
363,
374,
338,
355,
348,
317,
351,
327,
379,
318,
308,
369,
351,
329,
320,
329,
301,
305,
303,
340,
298,
306,
278,
271,
284,
280,
305,
281,
275,
271,
299,
267,
265,
245,
253,
273,
252,
250,
227,
258,
241,
244,
253,
217,
243,
244,
230,
243,
226,
216,
223,
222,
198,
205,
230,
206,
192,
212,
196,
199,
209,
189,
189,
199,
204,
184,
174,
180,
178,
170,
164,
166,
183,
182,
146,
162,
169,
170,
156,
123,
164,
151,
151,
158,
128,
136,
136,
126,
136,
158,
141,
100,
117,
130,
119,
117,
127,
102,
121,
97,
116,
117,
106,
103,
133,
137,
130,
112,
113,
96,
95,
118,
93,
93,
88,
83,
86,
104,
99,
79,
88,
81,
76,
101,
78,
83,
82,
88,
82,
81,
64,
70,
65,
65,
72,
59,
74,
55,
60,
76,
79,
63,
75,
59,
48,
64,
58,
58,
58,
52,
51,
44,
56,
46,
43,
36,
47,
60,
45,
43,
31,
36,
47,
37,
37,
23,
35,
27,
27,
33,
35,
33,
30,
30,
25,
32,
31,
32,
27,
19,
30,
25,
16,
17,
20,
20,
20,
17,
17,
23,
9,
19,
6,
9,
16,
15,
12,
6,
13,
7,
13,
5,
4,
4,
5,
3,
4,
2,
2,
2,
0,
2,
1,
2,
2,
0,
2,
1,
1,
1,
2,
2,
1,
0,
2,
1,
0,
3,
1,
1,
0,
0,
2,
3,
1,
2,
1,
3,
2,
2,
1,
3,
2,
3,
7,
1,
3,
1,
1,
4,
2,
1,
1,
1,
0,
1,
1,
2,
1,
2,
1,
0,
0,
1,
2,
1,
0,
0,
2,
2,
1,
0,
1,
0,
0,
1,
2,
0,
0,
1,
1,
0,
2,
2,
3,
0,
3,
2,
3,
1,
1,
0,
2,
1,
0,
2,
1,
1,
1,
0,
2,
0,
1,
0,
0,
0,
0,
1,
0,
0,
0,
1,
2,
0,
0,
1,
1,
1,
2,
0,
2,
0,
1,
0,
0,
0,
0,
0,
2,
1,
0,
1,
0,
0,
0,
0,
0,
1,
0,
0,
1,
0,
1,
0,
1,
0,
1,
0,
0,
0,
1,
2,
0,
0,
0,
2,
0,
0,
1,
0,
1,
1,
0,
1,
0,
1,
0,
0,
1,
0,
0,
0,
1,
1,
0,
1,
1,
0,
0,
0,
0,
0,
0,
1,
0,
1,
0,
0,
0,
0,
0,
1,
0,
0,
0,
1,
0,
0,
1,
0,
0,
0,
1,
1,
0,
0,
0,
0,
0,
0,
0,
0,
0,
0,
0,
0,
1,
0,
0,
0,
0,
0,
0,
0,
0,
1,
0,
0,
0,
2,
0,
0,
1,
0,
0,
0,
0,
0,
0,
0,
0,
0,
0,
0,
0,
0,
0,
0,
1,
1,
0,
0,
0,
1,
0,
0,
0,
1,
0,
0,
0,
0,
1,
0,
0,
0,
0,
0,
0,
0,
0,
0,
0,
0,
0,
0,
0,
0,
0,
0,
0,
0,
0,
0,
0,
0,
0,
0,
0,
0,
0,
0,
0,
0,
0,
0,
0,
0,
0,
0,
0,
0,
0,
0,
0,
0,
0,
0,
0,
0,
0,
0,
0,
0,
0,
0,
0,
0,
0,
0,
0,
0,
0,
0,
0,
0,
0,
0,
0,
0,
0,
0,
0,
0,
0,
0,
0,
0,
0,
0,
0,
0,
0,
0,
0,
0,
0,
0,
0,
0,
0,
0,
0,
0,
0,
0,
0,
0,
0,
0,
0,
0,
0,
0,
0,
0,
0,
0,
0,
0,
0,
0,
0,
0,
1,
0,
0,
0,
0,
0,
0,
0,
0,
0,
0,
0,
0,
0,
0,
0,
0,
0,
0,
0,
0,
0,
0,
0,
0,
0,
0,
0,
0,
0,
0,
0,
0,
0,
0,
0,
0,
0,
0,
0,
0,
0,
0,
0,
0,
0,
0,
0,
0,
0,
0,
0,
0,
0,
0,
0,
0,
0,
0,
0,
0,
0,
0,
0,
0,
0,
0,
0,
0,
0,
0,
0,
0,
0,
0,
0,
0,
0,
0,
0,
0,
0,
0,
0,
0,
0,
0,
0,
0,
0,
0,
0,
0,
0,
0,
0,
0,
0,
0,
0,
0,
0,
0,
0,
0,
0,
0,
0,
0,
0,
0,
0,
0,
0,
0,
0,
0,
0,
0,
0,
0,
0,
0,
0,
0,
0,
0,
0,
0,
0,
0,
0,
0,
0,
0,
0,
0,
0,
0,
0,
0,
0,
0,
0,
0,
0,
0,
0,
0,
0,
0,
0,
0,
0,
0,
0,
0,
0,
0,
0,
0,
0,
0,
0,
0,
0,
0,
0,
0,
0,
0,
0,
0,
0,
0,
0,
0,
0,
0,
0,
0,
0,
0,
0,
0,
0,
0,
0,
0,
0,
0,
0,
0,
0,
0,
0,
0,
0,
0,
0,
0,
0,
0,
0,
0,
0,
0,
0,
0,
0,
0,
0,
0,
0,
0,
0,
0,
0,
0,
0,
0,
0,
0,
0,
0,
0,
0,
0,
0,
0,
0,
0,
0,
0,
0,
0,
0,
0,
0,
0,
0,
0,
0,
0,
0,
0,
0,
0,
0,
0,
0,
0,
0,
0,
0,
0,
0,
0,
0,
0,
0,
0,
0,
0,
0,
0,
0,
0,
0,
0,
0,
0,
0,
0,
0,
0,
0,
0,
0,
0,
0,
0,
0,
0,
0,
0,
0,
0,
0,
0,
0,
0,
0,
0,
0,
0,
0,
0,
0,
0,
0,
0,
0,
0,
0,
0,
0,
0,
0,
0,
0,
0,
0,
0,
0,
0,
0,
0,
0,
0,
0,
0,
0,
0,
0,
0,
0,
0,
0,
0,
0,
0,
0,
#ENDOFDATA   :