File: N132962/Quantification/20 keV/MMM1/SPI MM1 Dolomite[6][4].msa
#FORMAT      : EMSA/MAS Spectral Data File
#VERSION     : 1.0
#TITLE       : SPI MM1dup Dolomite[6][all]
#DATE        : 12-MAR-2025
#TIME        : 15:51
#OWNER       : Unknown
#NPOINTS     : 4096
#NCOLUMNS    : 1
#XUNITS      : eV
#YUNITS      : counts
#DATATYPE    : Y
#XPERCHAN    : 9.99778
#OFFSET      : 1.69135
#BEAMKV      : 20
#SIGNALTYPE  : EDS
#ELEVANGLE   : 35
#AZIMANGLE   : 0
#LIVETIME    : 239.964
#REALTIME    : 250.855
#PROBECUR    : 1.02695
#TAUWIND     : 0
#TDEADLYR    : 0
#TACTLYR     : 0.045
#TALWIND     : 0.025
#CHOFFSET    : 0.0
#XLABEL      : Energy (eV)
#YLABEL      : Counts
#XPOSITION   : -0.11199
#YPOSITION   : 2.0541
#ZPOSITION   : 31.03608
#EDSDET      : SD
##SPECIMEN   : SPI MM1dup Dolomite[6][all]
##DET_HASH   : 12273538-fd48-a23f-0a19-f1e6fa85caef
##CALIB_HASH : 6abaa72c-aa41-8738-0be9-f592914732f3
##WORKING    : 15.0 mm
##DET_NAME   : EDAX All
##DET_MODE   : MediumLE
#SPECTRUM    :
36,
27,
7,
14,
61,
359,
1326,
6290,
21646,
29869,
15351,
4868,
2730,
2369,
3701,
13667,
53691,
105698,
78314,
20209,
2892,
1278,
1290,
1540,
1626,
1604,
1705,
1883,
2076,
2100,
2223,
2290,
2357,
2623,
2784,
3077,
3172,
3381,
4106,
8413,
29299,
72108,
87603,
49524,
14989,
4573,
3106,
2848,
2949,
3074,
3094,
3069,
3183,
3061,
3073,
3172,
3298,
3608,
3823,
3865,
3588,
3413,
3178,
3362,
3631,
3966,
3625,
3206,
2919,
2831,
2810,
2963,
2945,
2932,
2919,
2847,
2934,
2864,
2801,
2758,
2622,
2773,
2669,
2737,
2639,
2639,
2677,
2568,
2621,
2499,
2472,
2435,
2521,
2521,
2445,
2464,
2431,
2421,
2349,
2338,
2456,
2295,
2308,
2267,
2331,
2259,
2346,
2246,
2175,
2229,
2170,
2104,
2035,
2146,
2065,
2208,
2345,
2658,
3522,
6400,
16846,
43014,
80513,
102094,
86073,
48098,
18988,
6105,
2800,
2237,
2954,
4639,
8417,
12437,
13882,
10789,
6615,
3335,
1943,
1562,
1495,
1495,
1439,
1477,
1380,
1320,
1369,
1334,
1318,
1285,
1336,
1345,
1325,
1253,
1305,
1351,
1227,
1236,
1189,
1169,
1279,
1235,
1244,
1212,
1264,
1295,
1266,
1209,
1221,
1196,
1171,
1107,
1125,
1101,
1162,
1125,
1093,
1112,
1158,
1141,
1067,
1125,
1050,
1096,
991,
1029,
995,
1020,
1059,
987,
1047,
941,
1016,
935,
957,
923,
955,
943,
927,
921,
971,
932,
961,
889,
917,
894,
866,
863,
883,
883,
952,
962,
1040,
1039,
1021,
987,
868,
845,
817,
793,
739,
805,
806,
828,
819,
733,
789,
748,
756,
764,
735,
724,
665,
769,
688,
746,
757,
735,
704,
758,
713,
660,
668,
753,
660,
723,
722,
688,
712,
716,
711,
647,
649,
622,
602,
672,
639,
642,
592,
592,
596,
568,
568,
555,
544,
580,
523,
574,
601,
568,
573,
575,
531,
510,
545,
542,
514,
592,
534,
528,
549,
482,
518,
517,
529,
515,
461,
514,
484,
471,
465,
435,
485,
496,
495,
437,
436,
437,
451,
473,
415,
451,
457,
439,
422,
429,
437,
443,
420,
406,
423,
408,
372,
377,
400,
389,
370,
385,
370,
362,
401,
369,
342,
396,
367,
391,
372,
356,
349,
372,
291,
345,
359,
353,
302,
331,
367,
304,
359,
327,
301,
337,
296,
304,
301,
334,
333,
307,
329,
313,
290,
307,
298,
273,
282,
290,
289,
252,
276,
266,
231,
270,
267,
289,
303,
284,
287,
256,
240,
240,
242,
263,
258,
268,
250,
239,
245,
239,
241,
229,
244,
234,
217,
266,
223,
235,
229,
219,
217,
202,
209,
185,
207,
206,
192,
194,
213,
206,
199,
207,
192,
166,
201,
188,
197,
177,
178,
179,
182,
182,
161,
177,
159,
160,
168,
197,
145,
164,
157,
176,
155,
168,
165,
134,
131,
147,
159,
178,
154,
147,
136,
148,
136,
181,
129,
120,
154,
102,
108,
131,
119,
127,
119,
134,
142,
119,
120,
124,
140,
121,
105,
114,
117,
120,
118,
116,
106,
105,
92,
113,
93,
107,
120,
95,
99,
110,
106,
120,
101,
103,
91,
90,
95,
100,
90,
89,
84,
98,
85,
87,
98,
71,
100,
87,
68,
73,
90,
85,
90,
72,
89,
59,
67,
77,
86,
67,
71,
91,
72,
65,
62,
62,
75,
73,
47,
60,
68,
61,
53,
56,
55,
67,
40,
51,
60,
55,
48,
56,
52,
54,
57,
58,
56,
57,
49,
40,
44,
49,
51,
32,
49,
32,
36,
33,
45,
43,
35,
37,
46,
45,
35,
25,
46,
43,
31,
35,
35,
46,
32,
36,
29,
38,
25,
31,
32,
29,
23,
21,
33,
23,
25,
31,
29,
23,
32,
23,
24,
27,
17,
33,
19,
28,
17,
27,
26,
24,
25,
16,
20,
22,
18,
27,
18,
16,
20,
15,
12,
15,
15,
9,
17,
17,
15,
15,
17,
19,
22,
15,
6,
12,
15,
18,
11,
11,
19,
14,
5,
11,
5,
11,
10,
8,
8,
5,
4,
7,
6,
2,
13,
4,
9,
7,
7,
9,
4,
8,
5,
9,
8,
8,
7,
11,
8,
4,
8,
2,
3,
4,
3,
3,
4,
5,
3,
8,
1,
1,
4,
5,
2,
3,
2,
1,
3,
4,
1,
0,
1,
0,
1,
1,
1,
1,
2,
0,
0,
0,
0,
0,
0,
0,
0,
0,
1,
0,
0,
0,
1,
0,
0,
2,
0,
0,
0,
0,
0,
0,
0,
2,
1,
0,
0,
0,
0,
0,
0,
0,
0,
0,
0,
0,
0,
0,
0,
0,
0,
0,
0,
0,
0,
0,
0,
0,
0,
0,
0,
0,
0,
0,
0,
0,
0,
0,
0,
0,
0,
0,
0,
1,
0,
0,
0,
0,
0,
0,
0,
0,
0,
0,
0,
0,
1,
0,
0,
0,
0,
0,
0,
0,
0,
1,
0,
0,
0,
0,
0,
1,
0,
0,
0,
0,
0,
0,
0,
0,
0,
0,
0,
0,
0,
0,
0,
0,
0,
0,
0,
0,
0,
0,
0,
0,
0,
0,
0,
0,
0,
0,
0,
0,
0,
0,
0,
0,
0,
0,
0,
0,
0,
0,
0,
0,
0,
0,
0,
0,
0,
0,
0,
0,
0,
0,
0,
0,
0,
0,
0,
1,
0,
0,
0,
0,
0,
0,
0,
0,
0,
0,
0,
0,
0,
0,
0,
0,
0,
0,
0,
0,
0,
0,
0,
0,
0,
0,
0,
0,
0,
0,
0,
0,
0,
0,
0,
0,
0,
0,
0,
0,
0,
0,
0,
0,
0,
0,
0,
0,
0,
0,
0,
0,
0,
0,
0,
0,
0,
0,
0,
0,
0,
0,
0,
0,
0,
0,
0,
0,
0,
0,
0,
0,
0,
0,
0,
0,
0,
0,
0,
0,
0,
0,
0,
0,
0,
0,
0,
0,
0,
0,
0,
0,
0,
0,
0,
0,
0,
0,
0,
0,
0,
0,
0,
0,
0,
0,
0,
0,
0,
0,
0,
0,
0,
0,
0,
0,
0,
0,
0,
0,
0,
0,
0,
0,
0,
0,
0,
0,
0,
0,
0,
0,
0,
0,
0,
0,
0,
0,
0,
0,
0,
0,
0,
0,
0,
0,
0,
0,
0,
0,
0,
0,
0,
0,
0,
0,
0,
0,
0,
0,
0,
0,
0,
0,
0,
0,
0,
0,
0,
0,
0,
0,
0,
0,
0,
0,
0,
0,
0,
0,
0,
0,
0,
0,
0,
0,
0,
0,
0,
0,
0,
0,
0,
0,
0,
0,
0,
0,
0,
0,
0,
0,
0,
0,
0,
0,
0,
0,
0,
0,
0,
0,
0,
0,
0,
0,
0,
0,
0,
0,
0,
0,
0,
0,
0,
0,
0,
0,
0,
0,
0,
0,
0,
0,
0,
0,
0,
0,
0,
0,
0,
0,
0,
0,
0,
0,
0,
0,
0,
0,
0,
0,
0,
0,
0,
0,
0,
0,
0,
0,
0,
0,
0,
0,
0,
0,
0,
0,
0,
0,
0,
0,
0,
0,
0,
0,
0,
0,
0,
0,
0,
0,
0,
0,
0,
0,
0,
0,
0,
0,
0,
0,
0,
0,
0,
0,
0,
0,
0,
0,
0,
0,
0,
0,
0,
0,
0,
0,
0,
0,
0,
0,
0,
0,
0,
0,
0,
0,
0,
0,
0,
0,
0,
0,
0,
0,
0,
0,
0,
0,
0,
0,
0,
0,
0,
0,
0,
0,
0,
0,
0,
0,
0,
0,
0,
0,
0,
0,
0,
0,
0,
0,
0,
0,
0,
0,
0,
0,
0,
0,
0,
0,
0,
0,
0,
0,
0,
0,
0,
0,
0,
0,
0,
0,
0,
0,
0,
0,
0,
0,
0,
0,
0,
0,
0,
0,
0,
0,
0,
0,
0,
0,
0,
0,
0,
0,
0,
0,
0,
0,
0,
0,
0,
0,
0,
0,
0,
0,
0,
0,
0,
0,
0,
0,
0,
0,
0,
0,
0,
0,
0,
0,
0,
0,
0,
0,
0,
0,
0,
0,
0,
0,
0,
0,
0,
0,
0,
0,
0,
0,
0,
0,
0,
0,
0,
0,
0,
0,
0,
0,
0,
0,
0,
0,
0,
0,
0,
0,
0,
0,
0,
0,
0,
0,
0,
0,
0,
0,
0,
0,
0,
0,
0,
0,
0,
0,
0,
0,
0,
0,
0,
0,
0,
0,
0,
0,
0,
0,
0,
0,
0,
0,
0,
0,
0,
0,
0,
0,
0,
0,
0,
0,
0,
0,
0,
0,
0,
0,
0,
0,
0,
0,
0,
0,
0,
0,
0,
0,
0,
0,
0,
0,
0,
0,
0,
0,
0,
0,
0,
0,
0,
0,
0,
0,
0,
0,
0,
0,
0,
0,
0,
0,
0,
0,
0,
0,
0,
0,
0,
0,
#ENDOFDATA   :