File: N132962/Quantification/20 keV/MMM1/SPI MM1 Albite[1][4].msa
#FORMAT      : EMSA/MAS Spectral Data File
#VERSION     : 1.0
#TITLE       : SPI MM1 Albite[1][all]
#DATE        : 11-MAR-2025
#TIME        : 12:49
#OWNER       : Unknown
#NPOINTS     : 4096
#NCOLUMNS    : 1
#XUNITS      : eV
#YUNITS      : counts
#DATATYPE    : Y
#XPERCHAN    : 9.99778
#OFFSET      : 1.69135
#BEAMKV      : 20
#SIGNALTYPE  : EDS
#ELEVANGLE   : 35
#AZIMANGLE   : 0
#LIVETIME    : 239.843
#REALTIME    : 255.972
#PROBECUR    : 1.02699
#TAUWIND     : 0
#TDEADLYR    : 0
#TACTLYR     : 0.045
#TALWIND     : 0.025
#CHOFFSET    : 0.0
#XLABEL      : Energy (eV)
#YLABEL      : Counts
#XPOSITION   : 3.4476
#YPOSITION   : -6.99962
#ZPOSITION   : 30.9284
#EDSDET      : SD
##SPECIMEN   : SPI MM1 Albite[1][all]
##D2STDCMP   : Albite,(O:48.8112),(Na:8.7674),(Al:10.2897),(Si:32.1316)
##DET_HASH   : 12273538-fd48-a23f-0a19-f1e6fa85caef
##CALIB_HASH : 6abaa72c-aa41-8738-0be9-f592914732f3
##WORKING    : 15.0 mm
##DET_NAME   : EDAX All
##DET_MODE   : MediumLE
#SPECTRUM    :
33,
32,
12,
14,
65,
275,
868,
2464,
6542,
8593,
4724,
2488,
2560,
3294,
6541,
25762,
101427,
197970,
146031,
38947,
5225,
1813,
1854,
2021,
2128,
2258,
2319,
2547,
2824,
3030,
3187,
3730,
6734,
20472,
47569,
52649,
26712,
8244,
3791,
3348,
3352,
3521,
3751,
3899,
4169,
4468,
5722,
13824,
42910,
84547,
85822,
46112,
16749,
7357,
6583,
18081,
74048,
189154,
257412,
182685,
73622,
24160,
10334,
4924,
2776,
2149,
2240,
2310,
2192,
2088,
2094,
2077,
2231,
2230,
2592,
2791,
2740,
2428,
2210,
2230,
2162,
2012,
2127,
2166,
2122,
2187,
2193,
2101,
2091,
2145,
2191,
2136,
2200,
2266,
2163,
2061,
2075,
1913,
2036,
2163,
2009,
2001,
1980,
1989,
1942,
2016,
2039,
2169,
2319,
2395,
2554,
2397,
2218,
2028,
2020,
2116,
2231,
2200,
2011,
1884,
1953,
1939,
2062,
1990,
1986,
1903,
1671,
1712,
1700,
1689,
1647,
1665,
1653,
1523,
1652,
1625,
1597,
1510,
1519,
1600,
1523,
1408,
1478,
1492,
1454,
1444,
1447,
1381,
1459,
1420,
1426,
1417,
1372,
1343,
1426,
1399,
1364,
1314,
1361,
1344,
1268,
1304,
1346,
1283,
1342,
1157,
1279,
1207,
1255,
1212,
1276,
1214,
1220,
1232,
1206,
1184,
1186,
1192,
1172,
1125,
1164,
1190,
1117,
1092,
1103,
1098,
1124,
1059,
1040,
1052,
1035,
1002,
1003,
1042,
996,
1091,
1049,
1056,
988,
941,
962,
926,
967,
910,
932,
976,
930,
902,
878,
893,
981,
980,
987,
958,
1024,
964,
863,
884,
907,
844,
849,
837,
828,
824,
839,
806,
756,
832,
724,
750,
826,
767,
806,
738,
798,
777,
748,
752,
806,
743,
745,
707,
708,
706,
691,
740,
732,
692,
714,
709,
719,
695,
647,
647,
664,
657,
628,
638,
622,
652,
607,
615,
604,
614,
585,
587,
560,
600,
589,
580,
561,
538,
599,
581,
582,
516,
537,
558,
535,
565,
559,
510,
524,
489,
537,
499,
483,
494,
522,
467,
506,
463,
473,
487,
478,
493,
474,
481,
486,
434,
466,
454,
448,
428,
421,
455,
436,
444,
417,
451,
419,
414,
399,
405,
389,
402,
374,
440,
428,
406,
388,
413,
374,
389,
385,
388,
406,
388,
371,
373,
348,
386,
375,
360,
355,
343,
383,
347,
316,
343,
316,
328,
304,
359,
339,
325,
329,
332,
324,
304,
301,
298,
331,
318,
336,
291,
306,
297,
282,
278,
320,
291,
309,
293,
277,
268,
254,
284,
238,
267,
254,
277,
248,
238,
241,
298,
270,
256,
250,
235,
242,
243,
229,
236,
231,
212,
250,
224,
250,
204,
239,
211,
236,
227,
216,
195,
226,
204,
230,
216,
198,
188,
206,
178,
218,
184,
194,
171,
175,
189,
174,
164,
178,
196,
178,
172,
161,
160,
169,
172,
170,
166,
148,
187,
171,
164,
157,
156,
164,
157,
142,
157,
155,
175,
154,
163,
159,
138,
138,
138,
150,
140,
130,
160,
137,
123,
133,
138,
139,
117,
115,
98,
117,
139,
115,
121,
106,
108,
104,
95,
113,
119,
117,
111,
100,
94,
103,
122,
87,
85,
78,
99,
91,
119,
115,
102,
104,
109,
77,
110,
96,
86,
70,
78,
85,
79,
73,
74,
82,
97,
86,
80,
74,
65,
76,
79,
66,
59,
57,
71,
71,
70,
78,
55,
56,
57,
60,
68,
68,
61,
56,
64,
71,
70,
75,
60,
61,
49,
60,
66,
48,
61,
43,
45,
37,
44,
50,
48,
43,
38,
38,
54,
43,
36,
46,
47,
42,
33,
39,
38,
43,
31,
41,
41,
30,
35,
26,
26,
32,
41,
36,
35,
36,
24,
23,
30,
34,
26,
28,
23,
33,
38,
21,
23,
33,
29,
25,
23,
28,
23,
21,
20,
24,
23,
26,
17,
21,
21,
23,
16,
23,
32,
15,
16,
23,
13,
21,
12,
25,
18,
10,
19,
20,
11,
17,
15,
21,
22,
9,
10,
16,
10,
15,
12,
11,
15,
13,
10,
13,
7,
12,
11,
10,
7,
11,
8,
8,
18,
7,
9,
10,
3,
8,
6,
9,
12,
7,
6,
5,
2,
8,
4,
12,
7,
11,
3,
5,
4,
8,
8,
7,
5,
2,
6,
2,
5,
0,
2,
2,
2,
5,
1,
2,
2,
1,
3,
2,
2,
2,
0,
1,
1,
0,
0,
0,
0,
0,
0,
0,
0,
0,
0,
0,
0,
0,
0,
0,
0,
0,
0,
1,
0,
0,
0,
0,
0,
0,
0,
0,
1,
0,
1,
0,
0,
0,
0,
0,
0,
0,
0,
0,
0,
0,
0,
0,
0,
0,
0,
0,
1,
0,
0,
0,
0,
1,
1,
0,
0,
0,
0,
0,
0,
0,
0,
0,
0,
0,
0,
1,
0,
0,
0,
0,
0,
0,
0,
0,
0,
0,
0,
0,
0,
0,
0,
0,
0,
0,
0,
0,
0,
0,
1,
0,
0,
0,
0,
0,
0,
0,
0,
0,
0,
0,
0,
0,
0,
0,
0,
0,
0,
0,
0,
0,
0,
0,
0,
0,
0,
0,
0,
0,
0,
0,
0,
0,
0,
0,
0,
0,
0,
0,
0,
0,
0,
0,
0,
0,
0,
0,
0,
0,
0,
0,
0,
0,
0,
0,
0,
0,
0,
0,
0,
0,
0,
0,
0,
0,
0,
0,
0,
0,
0,
0,
0,
0,
0,
0,
0,
0,
0,
0,
0,
0,
0,
0,
0,
0,
0,
0,
0,
0,
0,
1,
0,
0,
0,
0,
0,
0,
0,
0,
0,
0,
0,
0,
0,
0,
0,
0,
0,
0,
0,
0,
1,
0,
0,
0,
0,
0,
0,
0,
0,
0,
0,
0,
0,
0,
0,
0,
0,
0,
0,
0,
0,
0,
1,
0,
0,
0,
0,
0,
0,
0,
0,
0,
0,
0,
0,
0,
0,
0,
0,
0,
1,
0,
0,
0,
0,
0,
0,
0,
0,
0,
0,
0,
0,
0,
0,
0,
0,
0,
0,
0,
0,
0,
0,
0,
0,
0,
0,
0,
0,
0,
0,
0,
0,
0,
0,
0,
0,
0,
0,
0,
0,
0,
0,
0,
0,
0,
0,
0,
0,
0,
0,
0,
0,
0,
0,
0,
0,
0,
0,
0,
0,
0,
0,
0,
0,
0,
0,
0,
0,
0,
0,
0,
0,
0,
0,
0,
0,
0,
0,
0,
0,
0,
0,
0,
0,
0,
0,
0,
0,
0,
0,
0,
0,
0,
0,
0,
0,
0,
0,
0,
0,
0,
0,
0,
0,
0,
0,
0,
0,
0,
0,
0,
0,
0,
0,
0,
0,
0,
0,
0,
0,
0,
0,
0,
0,
0,
0,
0,
0,
0,
0,
0,
0,
0,
0,
0,
0,
0,
0,
0,
0,
0,
0,
0,
0,
0,
0,
0,
0,
0,
0,
0,
0,
0,
0,
0,
0,
0,
0,
0,
0,
0,
0,
0,
0,
0,
0,
0,
0,
0,
0,
0,
0,
0,
0,
0,
0,
0,
0,
0,
0,
0,
0,
0,
0,
0,
0,
0,
0,
0,
0,
0,
0,
0,
0,
0,
0,
0,
0,
0,
0,
0,
0,
0,
0,
0,
0,
0,
0,
0,
0,
0,
0,
0,
0,
0,
0,
0,
0,
0,
0,
0,
0,
0,
0,
0,
0,
0,
0,
0,
0,
0,
0,
0,
0,
0,
0,
0,
0,
0,
0,
0,
0,
0,
0,
0,
0,
0,
0,
0,
0,
0,
0,
0,
0,
0,
0,
0,
0,
0,
0,
0,
0,
0,
0,
0,
0,
0,
0,
0,
0,
0,
0,
0,
0,
0,
0,
0,
0,
0,
0,
0,
0,
0,
0,
0,
0,
0,
0,
0,
0,
0,
0,
0,
0,
0,
0,
0,
0,
0,
0,
0,
0,
0,
0,
0,
0,
0,
0,
0,
0,
0,
0,
0,
0,
0,
0,
0,
0,
0,
0,
0,
0,
0,
0,
0,
0,
0,
0,
0,
0,
0,
0,
0,
0,
0,
0,
0,
0,
0,
0,
0,
0,
0,
0,
0,
0,
0,
0,
0,
0,
0,
0,
0,
0,
0,
0,
0,
0,
0,
0,
0,
0,
0,
0,
0,
0,
0,
0,
0,
0,
0,
0,
0,
0,
0,
0,
0,
0,
0,
0,
0,
0,
0,
0,
0,
0,
0,
0,
0,
0,
0,
0,
0,
0,
0,
0,
0,
0,
0,
0,
0,
0,
0,
0,
0,
0,
0,
0,
0,
0,
0,
0,
0,
0,
0,
0,
0,
0,
0,
0,
0,
0,
0,
0,
0,
0,
0,
0,
0,
0,
0,
0,
0,
0,
0,
0,
0,
0,
0,
0,
0,
0,
0,
0,
0,
0,
0,
0,
0,
0,
0,
0,
0,
0,
0,
0,
0,
0,
0,
0,
0,
0,
#ENDOFDATA   :