File: N132962/Quantification/20 keV/MMM1/SPI MM1 Galena[1][4].msa
#FORMAT      : EMSA/MAS Spectral Data File
#VERSION     : 1.0
#TITLE       : SPI MM1dup Galena[1][all]
#DATE        : 12-MAR-2025
#TIME        : 15:55
#OWNER       : Unknown
#NPOINTS     : 4096
#NCOLUMNS    : 1
#XUNITS      : eV
#YUNITS      : counts
#DATATYPE    : Y
#XPERCHAN    : 9.99778
#OFFSET      : 1.69135
#BEAMKV      : 20
#SIGNALTYPE  : EDS
#ELEVANGLE   : 35
#AZIMANGLE   : 0
#LIVETIME    : 239.848
#REALTIME    : 269.104
#PROBECUR    : 1.02695
#TAUWIND     : 0
#TDEADLYR    : 0
#TACTLYR     : 0.045
#TALWIND     : 0.025
#CHOFFSET    : 0.0
#XLABEL      : Energy (eV)
#YLABEL      : Counts
#XPOSITION   : -5.59158
#YPOSITION   : 1.99488
#ZPOSITION   : 31.03608
#EDSDET      : SD
##SPECIMEN   : SPI MM1dup Galena[1][all]
##DET_HASH   : 12273538-fd48-a23f-0a19-f1e6fa85caef
##CALIB_HASH : 6abaa72c-aa41-8738-0be9-f592914732f3
##WORKING    : 15.0 mm
##DET_NAME   : EDAX All
##DET_MODE   : MediumLE
#SPECTRUM    :
29,
29,
25,
155,
837,
1952,
3244,
6934,
15976,
19817,
11107,
5269,
4539,
4255,
4468,
4965,
6225,
7817,
9064,
10830,
11369,
9527,
8564,
9464,
9250,
7687,
7176,
7354,
7893,
7884,
8186,
8040,
8345,
8331,
8316,
8432,
8515,
8799,
8814,
9112,
9355,
9662,
9803,
9799,
10096,
10381,
10675,
10706,
10823,
11223,
11248,
11227,
11053,
11060,
11055,
11137,
11803,
12897,
14385,
17443,
22923,
24861,
21010,
15345,
12496,
11445,
11165,
10975,
10904,
11266,
11974,
13169,
15840,
19932,
32256,
71961,
157807,
262171,
304556,
250421,
183390,
164327,
142008,
85159,
34914,
13639,
9171,
10605,
12836,
12243,
9276,
6819,
5636,
5321,
5224,
5345,
5636,
5736,
5769,
5818,
6225,
6844,
7490,
7592,
7152,
6482,
6080,
5694,
5566,
5379,
5128,
5091,
5285,
5203,
5243,
5310,
5322,
5366,
5467,
5407,
5158,
5294,
5203,
5360,
5441,
5374,
5358,
5297,
5217,
5104,
5254,
5238,
5213,
5202,
5282,
5355,
5212,
5208,
5385,
5233,
5281,
5231,
5257,
5188,
5265,
5208,
5126,
5299,
5321,
5390,
5335,
5370,
5406,
5481,
5481,
5688,
5907,
5812,
5880,
5809,
5638,
5515,
5369,
5223,
5329,
5156,
5218,
4946,
5107,
5074,
5021,
5039,
5081,
5063,
5102,
5057,
5003,
4996,
4994,
4943,
5049,
5057,
5000,
5025,
4841,
4853,
4827,
4817,
4598,
4926,
4832,
4867,
4797,
4655,
4658,
4687,
4704,
4664,
4712,
4720,
4686,
4511,
4690,
4567,
4476,
4429,
4455,
4484,
4614,
4466,
4580,
4657,
4992,
5215,
4972,
4812,
4686,
4516,
4355,
4339,
4208,
4263,
4189,
4166,
4216,
4131,
4236,
4140,
4133,
4085,
4064,
4030,
4082,
4164,
4207,
4074,
4005,
3965,
3917,
4069,
3942,
3826,
3935,
3806,
3865,
3971,
3942,
3986,
3979,
4137,
4079,
3842,
3833,
3748,
3726,
3619,
3675,
3541,
3505,
3534,
3577,
3598,
3495,
3619,
3565,
3571,
3501,
3471,
3333,
3484,
3453,
3398,
3240,
3478,
3390,
3356,
3373,
3322,
3259,
3340,
3284,
3165,
3212,
3212,
3273,
3179,
3125,
3144,
3067,
3153,
3127,
3137,
3046,
3065,
2990,
3015,
2933,
2987,
2996,
2896,
2948,
2988,
3129,
3238,
3475,
3661,
3729,
3583,
3363,
3212,
2961,
2869,
2758,
2851,
2802,
2764,
2741,
2688,
2748,
2653,
2671,
2569,
2550,
2539,
2607,
2547,
2571,
2517,
2501,
2527,
2524,
2469,
2512,
2447,
2403,
2359,
2495,
2390,
2370,
2351,
2378,
2402,
2500,
2614,
2916,
3520,
4518,
6253,
8850,
11931,
15161,
16888,
16340,
13862,
10504,
7197,
4731,
3360,
2555,
2272,
2205,
2123,
2076,
2116,
1969,
2011,
1967,
1972,
1940,
1949,
1957,
1902,
1892,
1883,
1928,
1915,
1874,
2028,
1937,
1939,
1819,
1902,
1823,
1801,
1776,
1785,
1736,
1701,
1748,
1680,
1689,
1671,
1716,
1631,
1661,
1600,
1681,
1655,
1548,
1613,
1742,
1657,
1711,
1731,
1766,
1754,
1670,
1720,
1653,
1732,
1682,
1725,
1670,
1764,
1922,
2172,
3040,
4009,
5208,
6309,
6839,
6575,
5695,
4754,
3490,
2676,
2074,
1757,
1632,
1658,
1578,
1602,
1554,
1583,
1535,
1490,
1339,
1238,
1172,
1176,
1200,
1142,
1107,
1058,
1095,
1018,
1015,
1070,
1052,
966,
1040,
990,
959,
962,
984,
1011,
956,
924,
971,
938,
975,
872,
945,
946,
905,
870,
860,
892,
916,
876,
885,
877,
897,
848,
874,
827,
825,
770,
811,
835,
799,
739,
859,
804,
778,
801,
824,
900,
965,
1070,
1145,
1216,
1153,
1100,
1072,
937,
880,
786,
713,
687,
705,
766,
742,
691,
770,
723,
750,
675,
692,
638,
631,
587,
564,
588,
558,
566,
542,
540,
542,
563,
540,
510,
551,
517,
530,
503,
521,
455,
489,
513,
465,
475,
473,
441,
424,
457,
431,
431,
420,
453,
397,
430,
387,
432,
394,
376,
392,
390,
385,
351,
377,
387,
341,
364,
370,
368,
330,
346,
362,
367,
331,
343,
331,
353,
329,
327,
294,
278,
291,
273,
318,
332,
293,
294,
293,
265,
252,
286,
268,
274,
277,
265,
266,
231,
224,
280,
223,
238,
221,
256,
203,
216,
221,
181,
195,
197,
241,
188,
208,
187,
191,
213,
209,
173,
186,
165,
165,
159,
169,
149,
150,
143,
156,
154,
139,
132,
143,
135,
135,
115,
129,
126,
115,
101,
111,
102,
108,
110,
97,
90,
99,
100,
75,
99,
88,
104,
78,
80,
82,
63,
69,
86,
61,
66,
61,
79,
57,
43,
44,
51,
53,
35,
50,
36,
46,
38,
34,
28,
25,
27,
20,
27,
25,
15,
10,
15,
6,
7,
7,
9,
3,
11,
9,
4,
4,
8,
7,
9,
5,
6,
7,
5,
6,
3,
9,
1,
9,
2,
10,
6,
8,
5,
9,
6,
2,
5,
5,
6,
10,
6,
5,
4,
8,
5,
5,
4,
2,
3,
3,
6,
6,
6,
2,
7,
4,
5,
4,
6,
3,
3,
2,
1,
6,
1,
4,
4,
3,
2,
6,
3,
5,
4,
4,
4,
4,
5,
2,
5,
1,
3,
0,
4,
3,
1,
2,
5,
4,
0,
1,
1,
2,
1,
0,
1,
3,
3,
3,
0,
4,
3,
3,
3,
3,
3,
1,
1,
4,
3,
2,
2,
1,
1,
3,
5,
2,
2,
2,
2,
2,
3,
3,
2,
5,
1,
2,
0,
1,
1,
1,
0,
4,
1,
3,
2,
0,
2,
2,
3,
4,
1,
1,
3,
2,
3,
0,
2,
0,
1,
1,
0,
0,
0,
1,
3,
1,
0,
2,
4,
1,
1,
1,
1,
1,
1,
0,
2,
1,
1,
1,
2,
3,
2,
1,
2,
2,
1,
1,
2,
2,
1,
3,
4,
0,
1,
3,
3,
0,
0,
2,
1,
0,
1,
1,
2,
3,
0,
2,
1,
2,
0,
0,
3,
1,
0,
2,
2,
0,
1,
2,
1,
1,
4,
0,
2,
2,
1,
0,
3,
1,
1,
1,
1,
1,
0,
2,
1,
0,
0,
0,
2,
1,
0,
0,
2,
1,
5,
0,
0,
2,
4,
2,
0,
2,
0,
0,
1,
1,
0,
2,
3,
0,
0,
0,
1,
0,
0,
1,
1,
1,
0,
0,
1,
0,
2,
0,
1,
1,
0,
1,
2,
2,
0,
0,
1,
0,
0,
0,
0,
1,
2,
0,
1,
1,
1,
0,
0,
0,
1,
0,
1,
1,
0,
1,
0,
2,
0,
1,
0,
0,
2,
1,
0,
0,
1,
0,
0,
0,
0,
2,
0,
0,
0,
1,
0,
0,
0,
1,
0,
0,
0,
1,
0,
0,
0,
0,
1,
0,
0,
0,
0,
0,
0,
0,
2,
0,
0,
0,
0,
0,
0,
0,
0,
0,
0,
0,
0,
0,
0,
2,
0,
1,
1,
0,
0,
0,
2,
0,
0,
0,
1,
0,
1,
1,
0,
0,
0,
2,
1,
0,
0,
0,
0,
0,
1,
0,
0,
0,
0,
0,
0,
0,
0,
1,
0,
0,
0,
0,
0,
0,
0,
0,
0,
0,
0,
0,
0,
0,
0,
0,
0,
1,
1,
1,
0,
0,
0,
0,
0,
0,
0,
0,
0,
0,
0,
0,
0,
0,
0,
0,
0,
0,
0,
0,
0,
0,
0,
0,
0,
0,
0,
0,
1,
0,
0,
0,
0,
0,
1,
0,
0,
0,
0,
0,
0,
0,
0,
0,
0,
0,
0,
0,
0,
0,
0,
0,
0,
0,
0,
0,
0,
0,
0,
0,
0,
0,
1,
0,
0,
0,
0,
0,
0,
0,
0,
0,
1,
0,
0,
0,
0,
0,
0,
0,
0,
0,
0,
0,
0,
0,
0,
0,
0,
1,
0,
0,
0,
0,
0,
0,
0,
0,
0,
0,
0,
0,
0,
0,
0,
0,
0,
0,
1,
0,
0,
0,
0,
0,
1,
0,
0,
0,
0,
0,
0,
0,
0,
0,
0,
0,
0,
0,
0,
0,
0,
0,
0,
0,
0,
0,
0,
0,
0,
0,
0,
0,
0,
0,
0,
0,
1,
0,
0,
0,
0,
0,
0,
0,
0,
0,
0,
0,
0,
0,
0,
0,
0,
0,
0,
0,
0,
0,
0,
0,
0,
0,
0,
0,
0,
0,
0,
0,
0,
0,
0,
0,
0,
0,
0,
0,
0,
0,
0,
0,
0,
0,
0,
0,
0,
0,
0,
0,
0,
0,
0,
0,
0,
0,
0,
0,
0,
0,
0,
0,
0,
0,
0,
0,
0,
0,
0,
0,
0,
0,
0,
0,
0,
0,
0,
0,
0,
0,
0,
0,
0,
0,
0,
0,
0,
0,
0,
0,
0,
0,
0,
0,
0,
0,
0,
0,
0,
0,
0,
0,
0,
0,
0,
0,
0,
0,
0,
0,
0,
0,
0,
0,
0,
0,
0,
0,
0,
0,
0,
0,
0,
0,
0,
0,
0,
0,
0,
0,
0,
0,
0,
0,
0,
0,
0,
0,
0,
0,
0,
0,
0,
0,
0,
0,
0,
0,
0,
0,
0,
0,
0,
0,
0,
#ENDOFDATA   :