File: N132962/Quantification/20 keV/MMM1/SPI MM1 Chlorite[1][4].msa
#FORMAT      : EMSA/MAS Spectral Data File
#VERSION     : 1.0
#TITLE       : SPI MM1dup Chlorite[1][all]
#DATE        : 12-MAR-2025
#TIME        : 14:19
#OWNER       : Unknown
#NPOINTS     : 4096
#NCOLUMNS    : 1
#XUNITS      : eV
#YUNITS      : counts
#DATATYPE    : Y
#XPERCHAN    : 9.99778
#OFFSET      : 1.69135
#BEAMKV      : 20
#SIGNALTYPE  : EDS
#ELEVANGLE   : 35
#AZIMANGLE   : 0
#LIVETIME    : 239.762
#REALTIME    : 254.634
#PROBECUR    : 1.02867
#TAUWIND     : 0
#TDEADLYR    : 0
#TACTLYR     : 0.045
#TALWIND     : 0.025
#CHOFFSET    : 0.0
#XLABEL      : Energy (eV)
#YLABEL      : Counts
#XPOSITION   : 6.15716
#YPOSITION   : -0.3659
#ZPOSITION   : 31.03608
#EDSDET      : SD
##SPECIMEN   : SPI MM1dup Chlorite[1][all]
##DET_HASH   : 12273538-fd48-a23f-0a19-f1e6fa85caef
##CALIB_HASH : 6abaa72c-aa41-8738-0be9-f592914732f3
##WORKING    : 15.0 mm
##DET_NAME   : EDAX All
##DET_MODE   : MediumLE
#SPECTRUM    :
17,
29,
8,
10,
69,
301,
777,
2505,
7217,
9842,
5290,
2736,
2997,
4086,
7503,
30269,
123909,
243519,
178786,
46884,
5969,
2292,
2860,
4145,
3960,
2695,
2388,
2459,
2749,
2780,
2730,
2678,
3016,
3316,
3747,
3916,
4133,
4418,
5666,
12961,
50044,
125289,
152302,
84724,
24953,
6264,
4345,
9272,
28673,
57443,
58330,
30762,
10869,
4760,
4073,
7938,
28382,
72383,
97876,
69695,
28855,
10438,
5397,
3244,
2348,
2237,
2420,
2314,
2316,
2178,
2126,
2192,
2177,
2245,
2351,
2555,
2468,
2343,
2248,
2189,
2180,
2168,
2182,
2328,
2222,
2221,
2258,
2230,
2213,
2239,
2142,
2238,
2276,
2117,
2138,
2032,
2055,
2162,
2086,
2198,
2131,
2055,
2018,
1949,
1983,
2023,
1906,
1903,
1917,
1958,
1905,
1840,
1894,
1829,
1771,
1791,
1772,
1806,
1817,
1699,
1741,
1805,
1691,
1711,
1650,
1603,
1716,
1575,
1650,
1563,
1573,
1565,
1570,
1526,
1552,
1581,
1549,
1474,
1512,
1483,
1426,
1436,
1514,
1425,
1454,
1491,
1413,
1465,
1390,
1377,
1370,
1382,
1361,
1302,
1314,
1295,
1312,
1366,
1339,
1272,
1297,
1297,
1246,
1209,
1263,
1225,
1232,
1253,
1248,
1261,
1201,
1146,
1142,
1186,
1155,
1119,
1303,
1674,
2509,
3500,
4318,
4203,
3224,
2198,
1541,
1147,
1091,
1058,
1061,
991,
1027,
1068,
1024,
1011,
1028,
1136,
1264,
1354,
1399,
1339,
1164,
1070,
1034,
952,
939,
882,
931,
947,
1010,
1223,
1936,
3152,
4453,
5306,
4964,
3918,
2511,
1586,
1017,
824,
851,
808,
805,
720,
744,
781,
766,
791,
790,
734,
810,
860,
922,
1096,
1257,
1321,
1230,
1094,
956,
803,
735,
704,
675,
730,
662,
664,
732,
816,
864,
896,
883,
865,
691,
674,
631,
569,
607,
601,
633,
607,
631,
605,
585,
591,
558,
603,
619,
580,
565,
541,
554,
530,
578,
516,
518,
564,
539,
525,
558,
552,
500,
512,
496,
511,
501,
464,
443,
496,
505,
476,
463,
479,
508,
456,
461,
456,
431,
466,
438,
437,
466,
458,
432,
425,
390,
426,
381,
388,
422,
411,
392,
401,
416,
429,
402,
394,
366,
378,
388,
363,
377,
352,
374,
328,
349,
388,
344,
350,
365,
370,
349,
314,
311,
333,
317,
329,
323,
330,
324,
350,
295,
336,
282,
336,
301,
310,
284,
297,
304,
299,
308,
292,
296,
282,
261,
288,
284,
276,
291,
273,
312,
259,
284,
253,
283,
274,
272,
246,
257,
246,
259,
267,
246,
261,
234,
249,
256,
255,
207,
212,
226,
213,
255,
232,
223,
212,
219,
213,
228,
227,
215,
233,
203,
197,
205,
195,
183,
193,
195,
169,
199,
188,
175,
201,
188,
163,
157,
155,
178,
180,
183,
175,
189,
162,
168,
157,
157,
179,
165,
175,
170,
152,
151,
172,
164,
169,
168,
149,
133,
131,
167,
121,
134,
141,
134,
149,
123,
129,
130,
129,
130,
135,
116,
100,
127,
125,
128,
118,
125,
121,
127,
94,
107,
103,
112,
108,
92,
127,
114,
102,
118,
102,
101,
113,
102,
115,
93,
93,
102,
81,
94,
99,
102,
77,
96,
104,
82,
93,
92,
80,
73,
69,
89,
67,
75,
89,
63,
70,
85,
67,
67,
75,
70,
72,
73,
71,
66,
69,
58,
59,
72,
49,
75,
55,
59,
62,
65,
51,
52,
45,
55,
43,
67,
55,
55,
40,
58,
57,
56,
48,
52,
44,
49,
45,
47,
47,
60,
45,
56,
43,
40,
43,
34,
44,
44,
44,
39,
49,
33,
40,
32,
34,
45,
36,
33,
33,
29,
26,
39,
35,
40,
28,
29,
40,
25,
29,
37,
27,
37,
30,
29,
30,
20,
22,
15,
31,
20,
25,
28,
22,
27,
21,
21,
26,
26,
23,
25,
23,
21,
21,
23,
19,
14,
20,
20,
19,
12,
12,
23,
12,
16,
14,
13,
13,
10,
15,
14,
20,
15,
12,
25,
9,
8,
9,
13,
11,
10,
8,
11,
13,
9,
11,
7,
10,
18,
13,
9,
7,
10,
6,
12,
7,
7,
4,
9,
10,
7,
6,
3,
3,
10,
5,
8,
7,
5,
7,
8,
7,
5,
2,
5,
5,
3,
1,
3,
5,
2,
4,
2,
0,
2,
5,
3,
5,
2,
1,
2,
2,
2,
1,
3,
0,
1,
0,
0,
0,
0,
0,
0,
0,
0,
0,
0,
0,
1,
0,
0,
0,
0,
0,
0,
0,
0,
0,
0,
0,
0,
0,
0,
1,
0,
0,
0,
0,
0,
0,
0,
0,
0,
0,
0,
0,
0,
0,
0,
1,
0,
0,
0,
0,
0,
0,
0,
0,
0,
0,
0,
0,
0,
0,
0,
0,
0,
0,
0,
0,
0,
0,
0,
0,
0,
0,
0,
0,
0,
0,
0,
0,
0,
0,
0,
0,
0,
0,
0,
0,
0,
0,
0,
0,
0,
0,
0,
0,
0,
0,
0,
0,
0,
0,
0,
0,
0,
0,
1,
1,
0,
0,
0,
0,
0,
0,
0,
0,
0,
0,
0,
0,
1,
0,
0,
0,
0,
0,
0,
1,
0,
0,
0,
0,
0,
0,
0,
0,
0,
0,
1,
0,
0,
0,
0,
0,
0,
0,
0,
0,
0,
0,
0,
0,
0,
0,
0,
0,
0,
0,
0,
0,
0,
0,
0,
0,
0,
0,
0,
0,
0,
0,
0,
0,
0,
0,
0,
0,
0,
0,
0,
0,
0,
0,
0,
0,
0,
0,
0,
0,
0,
0,
0,
0,
0,
0,
0,
0,
0,
0,
0,
0,
0,
0,
0,
0,
0,
0,
0,
0,
0,
0,
0,
0,
0,
0,
0,
0,
0,
0,
0,
0,
0,
0,
0,
0,
0,
0,
0,
0,
0,
0,
0,
0,
0,
0,
0,
0,
0,
0,
0,
0,
0,
0,
0,
0,
0,
0,
0,
0,
0,
0,
0,
0,
0,
0,
0,
0,
0,
0,
0,
0,
0,
0,
0,
0,
0,
0,
0,
0,
0,
0,
0,
0,
0,
0,
0,
0,
0,
0,
0,
0,
0,
0,
0,
0,
0,
0,
0,
0,
0,
0,
0,
0,
0,
0,
0,
0,
0,
0,
0,
0,
0,
0,
0,
0,
0,
1,
0,
0,
0,
0,
0,
0,
0,
0,
0,
0,
0,
0,
0,
0,
0,
0,
0,
0,
0,
0,
0,
0,
0,
0,
0,
0,
0,
0,
0,
0,
0,
0,
0,
0,
0,
0,
0,
0,
0,
0,
0,
0,
0,
0,
0,
0,
0,
0,
0,
0,
0,
0,
0,
0,
0,
0,
0,
0,
0,
0,
0,
0,
0,
0,
0,
0,
0,
0,
0,
0,
0,
0,
0,
0,
0,
0,
0,
0,
0,
0,
0,
0,
0,
0,
0,
0,
0,
0,
0,
0,
0,
0,
0,
0,
0,
0,
0,
0,
0,
0,
0,
0,
0,
0,
0,
0,
0,
0,
0,
0,
0,
0,
0,
0,
0,
0,
0,
0,
0,
0,
0,
0,
0,
0,
0,
0,
0,
0,
0,
0,
0,
0,
0,
0,
0,
0,
0,
0,
0,
0,
0,
0,
0,
0,
0,
0,
0,
0,
0,
0,
0,
0,
0,
0,
0,
0,
0,
0,
0,
0,
0,
0,
0,
0,
0,
0,
0,
0,
0,
0,
0,
0,
0,
0,
0,
0,
0,
0,
0,
0,
0,
0,
0,
0,
0,
0,
0,
0,
0,
0,
0,
0,
0,
0,
0,
0,
0,
0,
0,
0,
0,
0,
0,
0,
0,
0,
0,
0,
0,
0,
0,
0,
0,
0,
0,
0,
0,
0,
0,
0,
0,
0,
0,
0,
0,
0,
0,
0,
0,
0,
0,
0,
0,
0,
0,
0,
0,
0,
0,
0,
0,
0,
0,
0,
0,
0,
0,
0,
0,
0,
0,
0,
0,
0,
0,
0,
0,
0,
0,
0,
0,
0,
0,
0,
0,
0,
0,
0,
0,
0,
0,
0,
0,
0,
0,
0,
0,
0,
0,
0,
0,
0,
0,
0,
0,
0,
0,
0,
0,
0,
0,
0,
0,
0,
0,
0,
0,
0,
0,
0,
0,
0,
0,
0,
0,
0,
0,
0,
0,
0,
0,
0,
0,
0,
0,
0,
0,
0,
0,
0,
0,
0,
0,
0,
0,
0,
0,
0,
0,
0,
0,
0,
0,
0,
0,
0,
0,
0,
0,
0,
0,
0,
0,
0,
0,
0,
0,
0,
0,
0,
0,
0,
0,
0,
0,
0,
0,
0,
0,
0,
0,
0,
0,
0,
0,
0,
0,
0,
0,
0,
0,
0,
0,
0,
0,
0,
0,
0,
0,
0,
0,
0,
0,
0,
0,
0,
0,
0,
0,
0,
0,
0,
0,
0,
0,
0,
0,
0,
0,
0,
0,
0,
#ENDOFDATA   :