File: N132962/Quantification/20 keV/MMM1/SPI MM1 Kaersutite[4][4].msa
#FORMAT      : EMSA/MAS Spectral Data File
#VERSION     : 1.0
#TITLE       : SPI MM1dup Kaersutite[4][all]
#DATE        : 12-MAR-2025
#TIME        : 16:24
#OWNER       : Unknown
#NPOINTS     : 4096
#NCOLUMNS    : 1
#XUNITS      : eV
#YUNITS      : counts
#DATATYPE    : Y
#XPERCHAN    : 9.99778
#OFFSET      : 1.69135
#BEAMKV      : 20
#SIGNALTYPE  : EDS
#ELEVANGLE   : 35
#AZIMANGLE   : 0
#LIVETIME    : 239.842
#REALTIME    : 254.4407
#PROBECUR    : 1.02709
#TAUWIND     : 0
#TDEADLYR    : 0
#TACTLYR     : 0.045
#TALWIND     : 0.025
#CHOFFSET    : 0.0
#XLABEL      : Energy (eV)
#YLABEL      : Counts
#XPOSITION   : -1.60215
#YPOSITION   : 3.57365
#ZPOSITION   : 31.03608
#EDSDET      : SD
##SPECIMEN   : SPI MM1dup Kaersutite[4][all]
##DET_HASH   : 12273538-fd48-a23f-0a19-f1e6fa85caef
##CALIB_HASH : 6abaa72c-aa41-8738-0be9-f592914732f3
##WORKING    : 15.0 mm
##DET_NAME   : EDAX All
##DET_MODE   : MediumLE
#SPECTRUM    :
27,
25,
10,
14,
79,
283,
865,
2919,
8601,
11884,
6764,
3532,
3182,
3819,
5721,
17326,
64301,
125530,
91813,
24952,
4913,
3260,
5046,
8124,
7858,
4380,
2714,
2484,
2587,
2579,
2669,
2915,
3525,
6184,
10751,
11775,
7435,
4597,
4358,
6907,
19115,
44846,
53840,
31394,
11224,
5112,
5011,
8966,
25359,
48938,
50021,
27341,
10575,
5610,
5334,
11600,
41737,
106288,
145081,
102881,
42334,
15415,
7722,
4504,
3484,
3168,
3102,
2834,
2929,
2756,
2734,
2654,
2748,
2822,
2973,
3030,
3174,
2968,
2907,
2803,
2729,
2685,
2657,
2842,
2746,
2811,
2763,
2730,
2823,
2680,
2616,
2799,
2787,
2614,
2635,
2592,
2499,
2570,
2600,
2563,
2621,
2678,
2463,
2458,
2543,
2479,
2511,
2885,
3593,
4967,
6230,
6528,
4986,
3379,
2610,
2435,
2520,
2711,
3083,
4314,
8189,
17422,
31239,
39240,
33176,
18990,
8470,
3721,
2449,
2266,
2447,
3109,
4512,
5948,
6381,
5341,
3709,
2565,
2050,
1833,
1830,
1842,
1844,
1784,
1814,
1903,
2153,
3244,
5766,
9182,
11789,
11146,
7860,
4585,
2669,
1903,
1616,
1696,
1642,
1613,
1698,
1911,
2124,
2529,
2988,
2905,
2535,
1991,
1709,
1504,
1458,
1454,
1413,
1392,
1444,
1382,
1433,
1395,
1417,
1434,
1436,
1380,
1419,
1327,
1312,
1285,
1329,
1282,
1243,
1247,
1291,
1251,
1238,
1325,
1328,
1371,
1484,
1363,
1350,
1255,
1219,
1165,
1190,
1102,
1156,
1178,
1162,
1312,
1608,
2568,
5018,
9175,
14101,
16816,
15894,
11678,
6961,
3610,
1832,
1230,
1117,
1014,
1007,
1038,
995,
971,
983,
915,
992,
1069,
1115,
1262,
1578,
2173,
2753,
2959,
2740,
2195,
1534,
1204,
973,
944,
837,
848,
826,
862,
841,
843,
869,
847,
876,
827,
855,
765,
766,
843,
739,
787,
747,
747,
778,
752,
729,
689,
711,
709,
721,
763,
701,
722,
673,
733,
717,
705,
725,
646,
687,
659,
685,
660,
691,
632,
638,
644,
624,
627,
633,
583,
620,
601,
611,
561,
597,
605,
575,
525,
572,
571,
580,
549,
531,
543,
551,
548,
558,
524,
582,
512,
528,
498,
514,
520,
530,
499,
516,
470,
481,
479,
513,
489,
502,
461,
509,
466,
508,
467,
461,
450,
489,
484,
468,
427,
409,
414,
421,
442,
401,
460,
458,
399,
420,
394,
395,
387,
422,
422,
412,
399,
393,
419,
348,
351,
392,
348,
332,
390,
360,
352,
351,
391,
359,
374,
363,
361,
360,
353,
347,
306,
340,
320,
336,
321,
294,
328,
311,
329,
311,
364,
274,
295,
294,
328,
297,
289,
294,
275,
282,
311,
283,
272,
277,
297,
287,
237,
270,
250,
236,
256,
285,
259,
280,
263,
265,
267,
249,
222,
227,
231,
219,
230,
227,
209,
223,
208,
211,
215,
224,
220,
229,
230,
229,
219,
198,
208,
196,
186,
191,
190,
193,
188,
207,
191,
164,
200,
186,
160,
192,
164,
185,
165,
175,
186,
191,
166,
188,
181,
155,
167,
158,
155,
159,
153,
161,
154,
137,
166,
151,
150,
144,
149,
117,
139,
134,
111,
123,
140,
139,
149,
133,
125,
126,
129,
135,
127,
109,
105,
119,
117,
117,
95,
107,
99,
101,
92,
86,
107,
104,
99,
104,
93,
97,
82,
110,
92,
87,
86,
93,
76,
89,
99,
90,
84,
78,
95,
90,
68,
77,
92,
71,
74,
66,
76,
81,
81,
78,
69,
72,
53,
68,
74,
64,
60,
61,
57,
74,
73,
58,
62,
51,
54,
70,
57,
52,
55,
59,
52,
53,
68,
60,
52,
42,
58,
48,
46,
58,
42,
52,
46,
39,
43,
32,
45,
40,
45,
41,
40,
39,
46,
39,
46,
43,
34,
32,
40,
42,
32,
29,
26,
31,
47,
44,
20,
28,
27,
30,
30,
22,
16,
32,
25,
24,
23,
34,
19,
25,
20,
29,
25,
27,
22,
25,
21,
19,
15,
21,
20,
19,
17,
24,
18,
15,
15,
15,
19,
14,
13,
12,
11,
22,
13,
16,
16,
11,
10,
11,
19,
8,
13,
15,
14,
8,
10,
13,
4,
9,
4,
15,
12,
14,
9,
12,
6,
10,
13,
9,
4,
7,
5,
7,
5,
3,
5,
4,
7,
5,
5,
7,
4,
6,
9,
3,
1,
3,
2,
0,
2,
2,
0,
4,
2,
1,
0,
0,
0,
1,
1,
0,
0,
1,
0,
1,
1,
0,
0,
0,
0,
0,
0,
0,
0,
0,
0,
0,
2,
0,
0,
0,
0,
0,
0,
0,
0,
0,
0,
0,
0,
0,
1,
0,
0,
0,
0,
0,
0,
0,
0,
0,
0,
0,
1,
0,
0,
0,
0,
1,
0,
0,
0,
0,
0,
0,
0,
1,
0,
0,
0,
0,
0,
0,
0,
0,
0,
0,
0,
0,
0,
0,
0,
0,
0,
0,
0,
0,
0,
0,
0,
0,
0,
0,
0,
0,
1,
0,
0,
0,
0,
0,
0,
0,
0,
0,
0,
1,
0,
1,
0,
0,
0,
0,
0,
0,
0,
0,
0,
0,
0,
0,
0,
0,
0,
0,
0,
0,
0,
0,
0,
0,
0,
0,
0,
0,
0,
0,
0,
0,
0,
0,
0,
0,
0,
0,
0,
0,
0,
0,
0,
0,
0,
0,
0,
0,
0,
0,
0,
0,
0,
0,
0,
0,
0,
0,
0,
0,
0,
0,
0,
0,
0,
0,
0,
0,
0,
0,
0,
0,
0,
0,
0,
0,
0,
0,
0,
0,
0,
0,
0,
0,
0,
0,
0,
0,
0,
0,
0,
0,
0,
0,
0,
0,
0,
0,
0,
0,
0,
1,
0,
0,
0,
0,
0,
0,
1,
0,
0,
0,
0,
0,
0,
0,
0,
0,
0,
0,
0,
0,
0,
0,
0,
0,
0,
0,
0,
0,
0,
0,
0,
0,
0,
0,
0,
0,
0,
0,
0,
0,
0,
0,
0,
0,
0,
0,
0,
0,
0,
0,
0,
0,
0,
0,
0,
0,
0,
0,
0,
0,
0,
0,
0,
0,
0,
0,
0,
0,
0,
0,
0,
0,
0,
0,
0,
0,
0,
0,
0,
0,
0,
0,
0,
0,
0,
0,
0,
0,
0,
0,
0,
0,
0,
0,
0,
0,
0,
0,
0,
0,
0,
0,
0,
0,
0,
0,
0,
0,
0,
0,
0,
0,
0,
0,
0,
0,
0,
0,
0,
0,
0,
0,
0,
0,
0,
0,
0,
0,
0,
0,
1,
0,
0,
0,
0,
0,
0,
0,
0,
0,
0,
0,
0,
0,
0,
0,
0,
0,
0,
0,
0,
0,
0,
0,
0,
0,
0,
0,
0,
0,
0,
0,
0,
0,
0,
0,
0,
0,
0,
0,
0,
0,
0,
0,
0,
0,
0,
0,
0,
0,
0,
0,
0,
0,
0,
0,
0,
0,
0,
0,
0,
0,
0,
0,
0,
0,
0,
0,
0,
0,
0,
0,
0,
0,
0,
0,
0,
0,
0,
0,
0,
0,
0,
0,
0,
0,
0,
0,
0,
0,
0,
0,
0,
0,
0,
0,
0,
0,
0,
0,
0,
0,
0,
0,
0,
0,
0,
0,
0,
0,
0,
0,
0,
0,
0,
0,
0,
0,
0,
0,
0,
0,
0,
0,
0,
0,
0,
0,
0,
0,
0,
0,
0,
0,
0,
0,
0,
0,
0,
0,
0,
0,
0,
0,
0,
0,
0,
0,
0,
0,
0,
0,
0,
0,
0,
0,
0,
0,
0,
0,
0,
0,
0,
0,
0,
0,
0,
0,
0,
0,
0,
0,
0,
0,
0,
0,
0,
0,
0,
0,
0,
0,
0,
0,
0,
0,
0,
0,
0,
0,
0,
0,
0,
0,
0,
0,
0,
0,
0,
0,
0,
0,
0,
0,
0,
0,
0,
0,
0,
0,
0,
0,
0,
0,
0,
0,
0,
0,
0,
0,
0,
0,
0,
0,
0,
0,
0,
0,
0,
0,
0,
0,
0,
0,
0,
0,
0,
0,
0,
0,
0,
0,
0,
0,
0,
0,
0,
0,
0,
0,
0,
0,
0,
0,
0,
0,
0,
0,
0,
0,
0,
0,
0,
0,
0,
0,
0,
0,
0,
0,
0,
0,
0,
0,
0,
0,
0,
0,
0,
0,
0,
0,
0,
0,
0,
0,
0,
0,
0,
0,
0,
0,
0,
0,
0,
0,
0,
0,
0,
0,
0,
0,
0,
0,
0,
0,
0,
0,
0,
0,
0,
0,
0,
0,
0,
0,
0,
0,
0,
0,
0,
0,
0,
0,
0,
0,
0,
0,
0,
0,
0,
0,
0,
0,
0,
0,
0,
0,
0,
0,
0,
0,
0,
0,
0,
0,
0,
0,
0,
0,
0,
0,
0,
0,
0,
0,
0,
0,
0,
0,
0,
0,
0,
0,
0,
0,
0,
0,
0,
0,
0,
#ENDOFDATA   :