File: N132962/Quantification/20 keV/MMM1/SPI MM1 Chlorite[6][4].msa
#FORMAT      : EMSA/MAS Spectral Data File
#VERSION     : 1.0
#TITLE       : SPI MM1dup Chlorite[6][all]
#DATE        : 12-MAR-2025
#TIME        : 14:25
#OWNER       : Unknown
#NPOINTS     : 4096
#NCOLUMNS    : 1
#XUNITS      : eV
#YUNITS      : counts
#DATATYPE    : Y
#XPERCHAN    : 9.99778
#OFFSET      : 1.69135
#BEAMKV      : 20
#SIGNALTYPE  : EDS
#ELEVANGLE   : 35
#AZIMANGLE   : 0
#LIVETIME    : 239.773
#REALTIME    : 254.573
#PROBECUR    : 1.02867
#TAUWIND     : 0
#TDEADLYR    : 0
#TACTLYR     : 0.045
#TALWIND     : 0.025
#CHOFFSET    : 0.0
#XLABEL      : Energy (eV)
#YLABEL      : Counts
#XPOSITION   : 6.52357
#YPOSITION   : 0.0255
#ZPOSITION   : 31.03608
#EDSDET      : SD
##SPECIMEN   : SPI MM1dup Chlorite[6][all]
##DET_HASH   : 12273538-fd48-a23f-0a19-f1e6fa85caef
##CALIB_HASH : 6abaa72c-aa41-8738-0be9-f592914732f3
##WORKING    : 15.0 mm
##DET_NAME   : EDAX All
##DET_MODE   : MediumLE
#SPECTRUM    :
19,
26,
8,
13,
67,
288,
875,
2529,
7549,
10057,
5325,
2646,
2899,
3977,
7537,
29743,
122104,
241116,
176995,
45674,
6075,
2395,
3001,
4100,
3930,
2729,
2276,
2388,
2715,
2851,
2774,
2739,
2882,
3412,
3766,
4048,
4095,
4452,
5619,
13177,
49772,
125063,
150639,
85060,
24679,
6240,
4360,
8921,
28906,
57724,
58540,
30934,
10958,
4766,
3989,
7968,
28185,
71769,
97074,
69734,
28710,
10561,
5522,
3132,
2369,
2228,
2344,
2339,
2319,
2189,
2135,
2154,
2125,
2256,
2410,
2519,
2440,
2395,
2231,
2194,
2209,
2145,
2209,
2322,
2283,
2236,
2187,
2118,
2154,
2234,
2161,
2162,
2103,
2138,
2118,
2087,
2048,
2100,
2180,
2200,
2106,
2146,
2052,
2022,
1961,
1951,
1902,
1972,
1982,
1862,
1947,
1922,
1847,
1774,
1808,
1867,
1846,
1768,
1698,
1725,
1724,
1763,
1803,
1837,
1739,
1712,
1626,
1563,
1628,
1542,
1630,
1564,
1512,
1513,
1612,
1518,
1531,
1552,
1482,
1478,
1424,
1485,
1403,
1427,
1459,
1351,
1443,
1409,
1406,
1349,
1330,
1401,
1321,
1334,
1320,
1384,
1309,
1304,
1351,
1237,
1316,
1250,
1262,
1214,
1343,
1270,
1287,
1189,
1181,
1188,
1156,
1182,
1153,
1152,
1199,
1185,
1310,
1655,
2407,
3530,
4318,
4155,
3255,
2171,
1468,
1146,
1079,
1098,
1033,
998,
1025,
990,
1014,
983,
1019,
1072,
1217,
1282,
1457,
1375,
1206,
1043,
983,
959,
899,
919,
954,
900,
958,
1245,
1863,
3065,
4380,
5218,
4915,
3696,
2413,
1538,
1005,
850,
862,
758,
831,
759,
762,
758,
756,
773,
797,
812,
800,
834,
904,
1084,
1250,
1267,
1227,
1058,
877,
724,
723,
690,
695,
689,
708,
707,
703,
804,
911,
918,
829,
766,
688,
709,
625,
549,
620,
581,
585,
590,
573,
614,
606,
580,
564,
596,
539,
567,
558,
570,
554,
553,
587,
549,
584,
559,
558,
570,
539,
481,
518,
479,
464,
493,
515,
460,
470,
485,
463,
491,
469,
487,
498,
463,
413,
426,
387,
441,
481,
423,
426,
447,
443,
436,
421,
414,
384,
434,
421,
396,
413,
406,
389,
403,
365,
388,
406,
377,
404,
405,
381,
376,
357,
389,
357,
357,
351,
357,
345,
347,
320,
355,
322,
362,
338,
358,
303,
327,
362,
313,
353,
307,
296,
325,
304,
318,
330,
288,
303,
307,
310,
315,
277,
284,
276,
313,
291,
278,
293,
276,
284,
240,
229,
251,
298,
256,
258,
275,
251,
247,
260,
231,
257,
264,
255,
224,
252,
237,
233,
248,
237,
227,
234,
210,
231,
200,
213,
241,
211,
204,
201,
188,
226,
208,
205,
196,
194,
224,
184,
193,
181,
176,
182,
183,
159,
177,
176,
157,
189,
197,
176,
183,
174,
162,
179,
145,
151,
136,
163,
179,
140,
166,
145,
156,
155,
162,
141,
150,
151,
119,
142,
139,
149,
153,
128,
149,
141,
114,
126,
125,
110,
114,
127,
135,
110,
131,
135,
103,
124,
111,
116,
101,
120,
105,
110,
97,
107,
105,
109,
104,
91,
90,
118,
95,
119,
111,
92,
81,
92,
85,
93,
82,
94,
101,
85,
83,
104,
80,
73,
80,
83,
78,
89,
86,
61,
77,
78,
82,
63,
76,
69,
62,
72,
87,
65,
73,
71,
60,
53,
66,
79,
55,
64,
74,
60,
61,
56,
53,
58,
41,
53,
46,
47,
54,
46,
53,
51,
54,
42,
37,
54,
48,
49,
49,
37,
52,
55,
42,
45,
42,
54,
38,
37,
43,
36,
42,
52,
43,
36,
44,
37,
39,
33,
34,
42,
36,
32,
28,
26,
26,
40,
36,
20,
29,
21,
38,
27,
31,
35,
26,
26,
14,
24,
21,
38,
29,
22,
24,
20,
28,
14,
36,
26,
13,
23,
21,
22,
22,
24,
10,
20,
18,
15,
18,
22,
16,
20,
11,
24,
18,
15,
16,
16,
18,
10,
15,
10,
20,
18,
10,
10,
13,
14,
16,
11,
13,
5,
19,
11,
8,
18,
5,
13,
11,
10,
5,
14,
6,
8,
7,
1,
6,
5,
8,
7,
6,
10,
3,
6,
5,
4,
5,
5,
1,
1,
5,
3,
6,
5,
5,
2,
4,
2,
2,
4,
3,
1,
5,
4,
1,
0,
2,
2,
2,
1,
2,
1,
2,
0,
0,
2,
4,
1,
1,
0,
1,
0,
0,
0,
0,
0,
0,
0,
0,
0,
0,
0,
0,
0,
1,
0,
0,
0,
0,
0,
0,
0,
0,
0,
0,
0,
0,
0,
0,
0,
0,
0,
0,
0,
0,
0,
0,
0,
0,
0,
0,
0,
0,
0,
0,
0,
0,
0,
0,
0,
1,
0,
0,
0,
0,
0,
0,
0,
0,
0,
0,
0,
0,
0,
0,
0,
0,
0,
0,
0,
0,
0,
0,
0,
0,
0,
0,
0,
0,
0,
0,
0,
0,
0,
0,
0,
0,
0,
0,
0,
0,
0,
0,
0,
0,
0,
0,
0,
0,
0,
0,
0,
0,
1,
0,
0,
1,
0,
0,
0,
0,
0,
0,
0,
0,
0,
0,
0,
0,
0,
0,
0,
0,
0,
0,
0,
0,
0,
0,
0,
0,
0,
0,
0,
0,
0,
0,
0,
0,
0,
0,
0,
0,
0,
0,
0,
0,
0,
0,
0,
0,
0,
1,
0,
0,
0,
0,
0,
1,
0,
0,
0,
0,
0,
0,
0,
0,
0,
0,
0,
0,
0,
0,
0,
0,
0,
0,
0,
0,
0,
0,
0,
0,
0,
0,
0,
0,
0,
0,
0,
0,
0,
0,
0,
0,
0,
0,
0,
0,
0,
0,
0,
0,
0,
0,
0,
0,
0,
0,
0,
0,
0,
0,
0,
0,
0,
0,
0,
0,
0,
0,
0,
0,
0,
0,
0,
0,
0,
0,
0,
0,
0,
0,
0,
0,
0,
0,
0,
0,
0,
0,
0,
0,
0,
0,
0,
0,
0,
0,
0,
0,
0,
0,
0,
0,
0,
0,
0,
0,
0,
0,
0,
0,
0,
0,
0,
0,
0,
0,
0,
0,
0,
0,
0,
0,
0,
0,
0,
0,
0,
0,
0,
0,
0,
0,
0,
0,
0,
0,
0,
0,
0,
0,
0,
0,
0,
0,
0,
0,
0,
0,
0,
0,
0,
0,
0,
0,
0,
0,
0,
0,
0,
0,
0,
0,
0,
0,
0,
0,
0,
0,
0,
0,
0,
0,
0,
0,
0,
0,
0,
0,
0,
0,
0,
0,
0,
0,
0,
0,
0,
0,
0,
0,
0,
0,
0,
0,
0,
0,
0,
0,
0,
0,
0,
0,
0,
0,
0,
0,
0,
0,
0,
0,
0,
0,
0,
0,
0,
0,
0,
0,
0,
0,
0,
0,
0,
0,
0,
0,
0,
0,
0,
0,
0,
0,
0,
0,
0,
0,
0,
0,
0,
0,
0,
0,
0,
0,
0,
0,
0,
0,
0,
0,
0,
0,
0,
0,
0,
0,
0,
0,
0,
0,
0,
0,
0,
0,
0,
0,
0,
0,
0,
0,
0,
0,
0,
0,
0,
0,
0,
0,
0,
0,
0,
0,
0,
0,
0,
0,
0,
0,
0,
0,
0,
0,
0,
0,
0,
0,
0,
0,
0,
0,
0,
0,
0,
0,
0,
0,
0,
0,
0,
0,
0,
0,
0,
0,
0,
0,
0,
0,
0,
0,
0,
0,
0,
0,
0,
0,
0,
0,
0,
0,
0,
0,
0,
0,
0,
0,
0,
0,
0,
0,
0,
0,
0,
0,
0,
0,
0,
0,
0,
0,
0,
0,
0,
0,
0,
0,
0,
0,
0,
0,
0,
0,
0,
0,
0,
0,
0,
0,
0,
0,
0,
0,
0,
0,
0,
0,
0,
0,
0,
0,
0,
0,
0,
0,
0,
0,
0,
0,
0,
0,
0,
0,
0,
0,
0,
0,
0,
0,
0,
0,
0,
0,
0,
0,
0,
0,
0,
0,
0,
0,
0,
0,
0,
0,
0,
0,
0,
0,
0,
0,
0,
0,
0,
0,
0,
0,
0,
0,
0,
0,
0,
0,
0,
0,
0,
0,
0,
0,
0,
0,
0,
0,
0,
0,
0,
0,
0,
0,
0,
0,
0,
0,
0,
0,
0,
0,
0,
0,
0,
0,
0,
0,
0,
0,
0,
0,
0,
0,
0,
0,
0,
0,
0,
0,
0,
0,
0,
0,
0,
0,
0,
0,
0,
0,
0,
0,
0,
0,
0,
0,
0,
0,
0,
0,
0,
0,
0,
0,
0,
0,
0,
0,
0,
0,
0,
0,
0,
0,
0,
0,
0,
0,
0,
0,
0,
0,
0,
0,
0,
0,
0,
0,
0,
0,
0,
0,
0,
0,
0,
0,
0,
0,
0,
0,
0,
0,
0,
0,
0,
0,
0,
0,
0,
0,
0,
0,
0,
0,
#ENDOFDATA   :