File: N132962/Quantification/20 keV/MMM1/SPI MM1 Andradite[2][4].msa
#FORMAT      : EMSA/MAS Spectral Data File
#VERSION     : 1.0
#TITLE       : SPI MM1 Andradite[2][all]
#DATE        : 11-MAR-2025
#TIME        : 13:09
#OWNER       : Unknown
#NPOINTS     : 4096
#NCOLUMNS    : 1
#XUNITS      : eV
#YUNITS      : counts
#DATATYPE    : Y
#XPERCHAN    : 9.99778
#OFFSET      : 1.69135
#BEAMKV      : 20
#SIGNALTYPE  : EDS
#ELEVANGLE   : 35
#AZIMANGLE   : 0
#LIVETIME    : 239.888
#REALTIME    : 255.396
#PROBECUR    : 1.02699
#TAUWIND     : 0
#TDEADLYR    : 0
#TACTLYR     : 0.045
#TALWIND     : 0.025
#CHOFFSET    : 0.0
#XLABEL      : Energy (eV)
#YLABEL      : Counts
#XPOSITION   : -2.20217
#YPOSITION   : -8.01797
#ZPOSITION   : 30.9284
#EDSDET      : SD
##SPECIMEN   : SPI MM1 Andradite[2][all]
##D2STDCMP   : Andradite,(O:37.7805),(Si:16.5802),(Ca:23.6603),(Fe:21.979),3.86
##DET_HASH   : 12273538-fd48-a23f-0a19-f1e6fa85caef
##CALIB_HASH : 6abaa72c-aa41-8738-0be9-f592914732f3
##WORKING    : 15.0 mm
##DET_NAME   : EDAX All
##DET_MODE   : MediumLE
#SPECTRUM    :
24,
27,
4,
7,
84,
271,
912,
3043,
8954,
13313,
9388,
5190,
3501,
2975,
3995,
12070,
45816,
89605,
66171,
19066,
5461,
4728,
7313,
12848,
12822,
6406,
3051,
2407,
2438,
2522,
2488,
2653,
2758,
2842,
3094,
3081,
3309,
3325,
3376,
3579,
3690,
3805,
4102,
4249,
4198,
4397,
4729,
6370,
12553,
21595,
22065,
13519,
7395,
5553,
5871,
12440,
42536,
105843,
143969,
102243,
42360,
15539,
8283,
5416,
4763,
4690,
4226,
3770,
3518,
3525,
3393,
3373,
3407,
3450,
3555,
3651,
3660,
3525,
3463,
3407,
3348,
3237,
3319,
3299,
3368,
3382,
3374,
3248,
3314,
3213,
3241,
3223,
3166,
3175,
3164,
3125,
3227,
3081,
3146,
3040,
3025,
3007,
3024,
3109,
3029,
3030,
3040,
3001,
3105,
2959,
2954,
2830,
2856,
2764,
2952,
3052,
3327,
3578,
4373,
7576,
19436,
48617,
89774,
113129,
95594,
54073,
21548,
7370,
3570,
3128,
3745,
5812,
9764,
14199,
15972,
12722,
7861,
4159,
2648,
2201,
2080,
2100,
2086,
2002,
1904,
2041,
1939,
1881,
1904,
1924,
1928,
1920,
1847,
1915,
1927,
1876,
1941,
1896,
1838,
1838,
1806,
1706,
1747,
1831,
1749,
1686,
1755,
1750,
1714,
1665,
1658,
1660,
1636,
1640,
1630,
1669,
1650,
1658,
1657,
1720,
1774,
1790,
1725,
1666,
1606,
1578,
1460,
1473,
1528,
1490,
1502,
1486,
1468,
1518,
1727,
1883,
1955,
1919,
1912,
1580,
1426,
1407,
1426,
1390,
1348,
1446,
1467,
1616,
2186,
4271,
9291,
17832,
27690,
33847,
31571,
23249,
13374,
6280,
2829,
1674,
1320,
1223,
1202,
1212,
1263,
1216,
1281,
1216,
1228,
1302,
1428,
1759,
2597,
3697,
4811,
5302,
4978,
3785,
2556,
1721,
1285,
1060,
958,
1034,
1035,
1043,
1029,
1038,
1021,
1045,
1074,
1002,
910,
896,
926,
908,
920,
932,
955,
930,
928,
867,
879,
870,
849,
830,
845,
886,
820,
791,
891,
876,
870,
841,
859,
792,
823,
767,
796,
804,
837,
777,
812,
764,
738,
768,
714,
766,
757,
674,
714,
705,
677,
708,
685,
708,
674,
699,
678,
721,
697,
713,
676,
671,
676,
658,
662,
673,
684,
596,
649,
612,
600,
582,
633,
633,
577,
603,
571,
619,
620,
641,
629,
563,
601,
578,
589,
597,
576,
606,
541,
528,
564,
569,
543,
551,
611,
571,
576,
533,
515,
470,
466,
551,
489,
513,
519,
491,
497,
509,
481,
501,
446,
461,
476,
479,
475,
440,
427,
417,
421,
480,
414,
423,
422,
393,
411,
406,
396,
457,
403,
406,
389,
444,
423,
379,
372,
419,
377,
391,
372,
389,
388,
370,
403,
354,
339,
312,
380,
360,
338,
372,
317,
310,
340,
306,
326,
377,
330,
326,
354,
292,
302,
312,
284,
292,
283,
300,
279,
287,
324,
277,
276,
298,
260,
263,
269,
283,
267,
266,
241,
249,
257,
284,
228,
244,
250,
227,
254,
251,
255,
238,
225,
241,
248,
241,
252,
248,
210,
219,
223,
232,
191,
200,
220,
217,
216,
185,
208,
179,
201,
194,
224,
195,
192,
196,
174,
194,
196,
184,
192,
196,
152,
182,
165,
177,
157,
156,
164,
146,
147,
165,
146,
145,
134,
131,
134,
145,
151,
142,
143,
121,
117,
133,
143,
142,
119,
119,
110,
120,
132,
137,
122,
110,
114,
127,
137,
119,
111,
105,
102,
109,
104,
106,
108,
83,
94,
76,
116,
100,
103,
102,
96,
88,
93,
107,
84,
82,
93,
86,
87,
81,
94,
82,
87,
91,
103,
80,
77,
73,
75,
102,
80,
68,
88,
70,
78,
73,
61,
74,
56,
71,
63,
57,
68,
71,
72,
67,
57,
59,
57,
58,
47,
42,
54,
58,
55,
49,
57,
43,
44,
52,
48,
56,
37,
46,
49,
32,
47,
54,
41,
28,
30,
35,
32,
38,
57,
37,
37,
40,
37,
36,
32,
39,
37,
33,
30,
36,
30,
23,
41,
34,
26,
36,
29,
26,
21,
27,
22,
20,
21,
17,
22,
18,
29,
21,
21,
25,
20,
22,
16,
16,
17,
17,
12,
12,
18,
16,
13,
16,
14,
9,
20,
9,
16,
11,
10,
10,
15,
7,
14,
9,
9,
12,
12,
5,
10,
9,
13,
7,
2,
9,
7,
9,
12,
6,
2,
7,
4,
4,
8,
7,
8,
2,
4,
3,
4,
3,
1,
1,
1,
1,
3,
1,
1,
2,
1,
0,
0,
0,
0,
0,
0,
0,
2,
0,
0,
1,
0,
0,
0,
0,
1,
0,
0,
0,
0,
0,
1,
1,
1,
0,
0,
0,
1,
0,
0,
0,
0,
0,
0,
0,
0,
0,
1,
0,
0,
0,
0,
0,
0,
1,
0,
1,
0,
0,
0,
0,
2,
1,
0,
0,
0,
0,
1,
0,
0,
0,
1,
0,
0,
0,
0,
0,
0,
0,
0,
0,
0,
0,
0,
0,
0,
0,
0,
0,
0,
0,
0,
0,
0,
1,
0,
0,
0,
0,
0,
0,
0,
0,
0,
0,
0,
0,
0,
0,
1,
0,
0,
0,
0,
0,
0,
0,
0,
0,
0,
1,
0,
0,
1,
0,
0,
0,
0,
0,
0,
0,
0,
0,
0,
0,
0,
0,
0,
0,
0,
0,
0,
0,
0,
0,
0,
0,
0,
0,
0,
0,
0,
0,
0,
0,
0,
1,
0,
1,
0,
0,
0,
0,
0,
0,
0,
0,
1,
1,
0,
0,
0,
0,
0,
0,
0,
0,
0,
0,
0,
0,
0,
0,
0,
0,
0,
0,
0,
0,
0,
0,
0,
1,
1,
0,
0,
0,
0,
0,
0,
1,
0,
0,
0,
0,
1,
0,
0,
0,
0,
0,
0,
0,
0,
0,
0,
0,
0,
0,
0,
0,
0,
0,
0,
0,
0,
0,
0,
0,
0,
0,
0,
0,
0,
0,
0,
0,
0,
0,
0,
0,
0,
0,
0,
0,
0,
0,
0,
0,
0,
0,
0,
0,
0,
0,
0,
0,
0,
0,
0,
1,
0,
0,
0,
0,
0,
0,
0,
0,
0,
0,
0,
0,
0,
0,
0,
0,
0,
0,
0,
0,
0,
0,
0,
0,
0,
0,
0,
0,
0,
0,
0,
0,
0,
0,
0,
0,
0,
0,
0,
0,
0,
0,
0,
0,
0,
0,
0,
0,
0,
0,
0,
0,
0,
0,
0,
0,
0,
0,
0,
0,
0,
0,
0,
0,
0,
0,
0,
0,
0,
0,
0,
0,
0,
0,
0,
1,
0,
0,
0,
0,
0,
0,
0,
0,
0,
0,
0,
0,
0,
0,
0,
0,
0,
0,
0,
0,
0,
0,
0,
0,
0,
0,
0,
0,
0,
0,
0,
0,
0,
0,
0,
0,
0,
0,
0,
0,
0,
0,
0,
0,
0,
0,
0,
0,
0,
0,
0,
0,
0,
0,
0,
0,
0,
0,
0,
0,
0,
0,
0,
0,
0,
0,
0,
0,
0,
0,
0,
0,
0,
0,
0,
0,
0,
0,
0,
0,
0,
0,
0,
0,
0,
0,
0,
0,
0,
0,
0,
0,
0,
0,
0,
0,
0,
0,
0,
0,
0,
0,
0,
0,
0,
0,
0,
0,
0,
0,
0,
0,
0,
0,
0,
0,
0,
0,
0,
0,
0,
0,
0,
0,
0,
0,
0,
0,
0,
0,
0,
0,
0,
0,
0,
0,
0,
0,
0,
0,
0,
0,
0,
0,
0,
0,
0,
0,
0,
0,
0,
0,
0,
0,
0,
0,
0,
0,
0,
0,
0,
0,
0,
0,
0,
0,
0,
0,
0,
0,
0,
0,
0,
0,
0,
0,
0,
0,
0,
0,
0,
0,
0,
0,
0,
0,
0,
0,
0,
0,
0,
0,
0,
0,
0,
0,
0,
0,
0,
0,
0,
0,
0,
0,
0,
0,
0,
0,
0,
0,
0,
0,
0,
0,
0,
0,
0,
0,
0,
0,
0,
0,
0,
0,
0,
0,
0,
0,
0,
0,
0,
0,
0,
0,
0,
0,
0,
0,
0,
0,
0,
0,
0,
0,
0,
0,
0,
0,
0,
0,
0,
0,
0,
0,
0,
0,
0,
0,
0,
0,
0,
0,
0,
0,
0,
0,
0,
0,
0,
0,
0,
0,
0,
0,
0,
0,
0,
0,
0,
0,
0,
0,
0,
0,
0,
0,
0,
0,
0,
0,
0,
0,
0,
0,
0,
0,
0,
0,
0,
0,
0,
0,
0,
0,
0,
0,
0,
0,
0,
0,
0,
0,
0,
0,
0,
0,
0,
0,
0,
0,
0,
0,
0,
0,
0,
0,
0,
0,
0,
0,
0,
0,
0,
0,
0,
0,
0,
0,
0,
0,
0,
0,
0,
0,
0,
0,
0,
0,
0,
0,
0,
0,
0,
0,
0,
0,
0,
0,
0,
0,
0,
0,
0,
0,
0,
0,
0,
0,
0,
0,
0,
0,
#ENDOFDATA   :