File: N132962/Quantification/20 keV/MMM1/SPI MM1 Jadeite[7][4].msa
#FORMAT      : EMSA/MAS Spectral Data File
#VERSION     : 1.0
#TITLE       : SPI MM1dup Jadeite[7][all]
#DATE        : 12-MAR-2025
#TIME        : 16:37
#OWNER       : Unknown
#NPOINTS     : 4096
#NCOLUMNS    : 1
#XUNITS      : eV
#YUNITS      : counts
#DATATYPE    : Y
#XPERCHAN    : 9.99778
#OFFSET      : 1.69135
#BEAMKV      : 20
#SIGNALTYPE  : EDS
#ELEVANGLE   : 35
#AZIMANGLE   : 0
#LIVETIME    : 239.772
#REALTIME    : 255.531
#PROBECUR    : 1.02709
#TAUWIND     : 0
#TDEADLYR    : 0
#TACTLYR     : 0.045
#TALWIND     : 0.025
#CHOFFSET    : 0.0
#XLABEL      : Energy (eV)
#YLABEL      : Counts
#XPOSITION   : 0.9548
#YPOSITION   : 4.34766
#ZPOSITION   : 31.03608
#EDSDET      : SD
##SPECIMEN   : SPI MM1dup Jadeite[7][all]
##D2STDCMP   : Jadeite,(O:47.4904),(Na:11.3733),(Al:13.348),(Si:27.7883),5.0
##DET_HASH   : 12273538-fd48-a23f-0a19-f1e6fa85caef
##CALIB_HASH : 6abaa72c-aa41-8738-0be9-f592914732f3
##WORKING    : 15.0 mm
##DET_NAME   : EDAX All
##DET_MODE   : MediumLE
#SPECTRUM    :
22,
33,
10,
14,
65,
266,
808,
2246,
6545,
8817,
4580,
2432,
2453,
3258,
6112,
24871,
100149,
198139,
144437,
37474,
4646,
1828,
1786,
1990,
2080,
2194,
2250,
2539,
2898,
3030,
3449,
4164,
8115,
26307,
62557,
69625,
34538,
9559,
3778,
3133,
3487,
3924,
4364,
4143,
4109,
4399,
5882,
15327,
51224,
103709,
104984,
55238,
18487,
7287,
5970,
14903,
60291,
155743,
212796,
150560,
60294,
20029,
8851,
4355,
2500,
2216,
2259,
2355,
2309,
2115,
2139,
2052,
2125,
2224,
2518,
2736,
2714,
2349,
2244,
2173,
2094,
2127,
2180,
2117,
2227,
2168,
2159,
2114,
2091,
2140,
2090,
2227,
2263,
2248,
2137,
2118,
2070,
1980,
2115,
2104,
2064,
1981,
2062,
1941,
1987,
1988,
2090,
2215,
2130,
2079,
1948,
1888,
1853,
1907,
1918,
2039,
2068,
2019,
1947,
1874,
1784,
1969,
2249,
2394,
2279,
2033,
1761,
1779,
1703,
1712,
1620,
1620,
1668,
1592,
1618,
1683,
1631,
1561,
1576,
1505,
1530,
1552,
1488,
1435,
1441,
1441,
1396,
1476,
1489,
1388,
1410,
1386,
1390,
1347,
1407,
1330,
1306,
1304,
1285,
1318,
1289,
1310,
1310,
1283,
1294,
1187,
1190,
1240,
1165,
1215,
1220,
1189,
1203,
1259,
1164,
1174,
1129,
1160,
1130,
1215,
1146,
1107,
1119,
1115,
1091,
1054,
1057,
1049,
1123,
1038,
1097,
1068,
986,
982,
1054,
1058,
973,
979,
989,
928,
964,
960,
916,
936,
957,
971,
899,
903,
869,
964,
910,
918,
968,
1022,
1003,
1002,
886,
830,
801,
867,
889,
838,
818,
781,
832,
821,
803,
828,
781,
761,
785,
784,
795,
755,
764,
710,
769,
707,
736,
717,
678,
659,
713,
670,
719,
722,
684,
706,
733,
723,
697,
716,
642,
685,
670,
685,
624,
615,
598,
642,
559,
596,
603,
576,
623,
598,
611,
598,
603,
579,
581,
554,
604,
572,
561,
574,
565,
532,
534,
525,
543,
549,
517,
556,
562,
530,
481,
533,
557,
504,
498,
483,
491,
490,
470,
471,
487,
479,
483,
470,
494,
492,
465,
472,
423,
434,
448,
428,
425,
434,
402,
431,
406,
403,
429,
403,
422,
365,
432,
439,
421,
381,
397,
408,
415,
365,
387,
396,
375,
374,
368,
353,
352,
349,
378,
339,
386,
330,
353,
331,
346,
320,
334,
326,
307,
340,
319,
322,
328,
313,
314,
280,
285,
312,
307,
284,
294,
308,
285,
249,
301,
286,
273,
298,
270,
290,
298,
275,
265,
268,
281,
259,
229,
246,
268,
218,
223,
266,
280,
244,
248,
222,
244,
208,
228,
229,
218,
218,
222,
224,
230,
208,
196,
194,
200,
228,
186,
196,
191,
204,
200,
180,
201,
181,
200,
205,
182,
169,
186,
199,
165,
169,
196,
194,
183,
166,
171,
187,
146,
175,
166,
160,
142,
152,
159,
162,
165,
172,
137,
148,
141,
153,
144,
133,
157,
121,
149,
146,
123,
137,
161,
156,
120,
128,
149,
123,
139,
134,
139,
139,
119,
120,
127,
118,
129,
120,
114,
118,
95,
115,
108,
116,
101,
95,
104,
99,
95,
92,
95,
96,
99,
84,
98,
93,
88,
92,
93,
89,
82,
83,
85,
88,
90,
85,
75,
70,
86,
80,
62,
90,
83,
84,
90,
80,
71,
66,
78,
74,
72,
70,
73,
63,
66,
70,
78,
63,
60,
65,
63,
63,
63,
60,
60,
69,
48,
44,
51,
50,
45,
65,
51,
59,
60,
54,
43,
45,
47,
55,
38,
59,
49,
51,
37,
40,
43,
34,
54,
48,
35,
41,
42,
42,
44,
45,
35,
39,
27,
30,
39,
41,
44,
27,
29,
39,
35,
25,
33,
30,
30,
28,
24,
22,
26,
30,
19,
29,
22,
35,
20,
28,
21,
20,
28,
26,
21,
28,
23,
17,
18,
15,
12,
21,
18,
21,
20,
22,
25,
12,
26,
17,
19,
19,
17,
20,
15,
14,
11,
18,
14,
21,
13,
16,
11,
14,
14,
16,
11,
10,
19,
9,
7,
11,
10,
10,
11,
5,
6,
6,
10,
4,
15,
7,
5,
3,
6,
3,
5,
4,
1,
5,
6,
7,
5,
6,
3,
5,
7,
4,
5,
4,
2,
2,
2,
2,
4,
4,
5,
4,
1,
2,
5,
5,
3,
1,
1,
1,
4,
3,
2,
2,
2,
0,
3,
0,
0,
0,
1,
0,
0,
0,
0,
0,
0,
0,
0,
0,
0,
0,
0,
0,
0,
0,
0,
0,
0,
0,
0,
1,
0,
1,
0,
0,
0,
0,
0,
0,
1,
0,
0,
0,
0,
0,
0,
0,
1,
0,
0,
0,
0,
0,
0,
0,
0,
0,
1,
0,
0,
0,
0,
0,
0,
0,
0,
0,
0,
0,
0,
0,
0,
0,
0,
0,
0,
0,
0,
0,
0,
0,
0,
0,
0,
0,
0,
0,
0,
1,
0,
0,
0,
0,
0,
0,
0,
0,
0,
0,
0,
0,
0,
0,
0,
0,
0,
0,
0,
0,
0,
0,
0,
0,
0,
0,
0,
0,
0,
0,
0,
0,
0,
0,
0,
0,
1,
0,
0,
0,
0,
0,
0,
0,
0,
0,
0,
0,
0,
0,
0,
0,
0,
0,
0,
0,
0,
0,
0,
0,
0,
0,
0,
0,
0,
0,
0,
0,
0,
0,
0,
0,
0,
0,
0,
0,
0,
0,
0,
0,
1,
0,
0,
0,
0,
0,
0,
0,
0,
0,
0,
0,
0,
0,
0,
0,
0,
0,
0,
0,
0,
0,
0,
0,
0,
0,
0,
0,
0,
0,
0,
0,
0,
0,
0,
0,
0,
0,
0,
0,
0,
0,
1,
0,
0,
0,
0,
0,
0,
0,
0,
0,
0,
0,
0,
0,
0,
0,
0,
0,
0,
0,
0,
0,
0,
0,
0,
0,
0,
0,
0,
0,
0,
0,
0,
0,
0,
0,
0,
0,
0,
0,
0,
0,
0,
0,
0,
0,
0,
0,
0,
0,
0,
0,
0,
0,
0,
0,
0,
0,
0,
0,
0,
0,
0,
0,
0,
0,
0,
0,
0,
0,
0,
0,
0,
0,
0,
0,
0,
0,
0,
0,
0,
0,
0,
0,
0,
0,
0,
0,
0,
0,
0,
0,
0,
0,
0,
0,
0,
0,
0,
0,
0,
0,
0,
0,
0,
0,
0,
0,
0,
0,
0,
0,
0,
0,
0,
0,
0,
0,
0,
0,
0,
0,
0,
0,
0,
0,
0,
0,
0,
0,
0,
0,
0,
0,
0,
0,
0,
0,
0,
0,
0,
0,
0,
0,
0,
0,
0,
0,
0,
0,
0,
0,
0,
0,
0,
0,
0,
0,
0,
0,
0,
0,
0,
0,
0,
0,
0,
0,
0,
0,
0,
0,
0,
0,
0,
0,
0,
0,
0,
0,
0,
0,
0,
0,
0,
0,
0,
0,
0,
0,
0,
0,
0,
0,
0,
0,
0,
0,
0,
0,
0,
0,
0,
0,
0,
0,
0,
0,
0,
0,
0,
0,
0,
0,
0,
0,
0,
0,
0,
0,
0,
0,
0,
0,
0,
0,
0,
0,
0,
0,
0,
0,
0,
0,
0,
0,
0,
0,
0,
0,
0,
0,
0,
0,
0,
0,
0,
0,
0,
0,
0,
0,
0,
0,
0,
0,
0,
0,
0,
0,
0,
0,
0,
0,
0,
0,
0,
0,
0,
0,
0,
0,
0,
0,
0,
0,
0,
0,
0,
0,
0,
0,
0,
0,
0,
0,
0,
0,
0,
0,
0,
0,
0,
0,
0,
0,
0,
0,
0,
0,
0,
0,
0,
0,
0,
0,
0,
0,
0,
0,
0,
0,
0,
0,
0,
0,
0,
0,
0,
0,
0,
0,
0,
0,
0,
0,
0,
0,
0,
0,
0,
0,
0,
0,
0,
0,
0,
0,
0,
0,
0,
0,
0,
0,
0,
0,
0,
0,
0,
0,
0,
0,
0,
0,
0,
0,
0,
0,
0,
0,
0,
0,
0,
0,
0,
0,
0,
0,
0,
0,
0,
0,
0,
0,
0,
0,
0,
0,
0,
0,
0,
0,
0,
0,
0,
0,
0,
0,
0,
0,
0,
0,
0,
0,
0,
0,
0,
0,
0,
0,
0,
0,
0,
0,
0,
0,
0,
0,
0,
0,
0,
0,
0,
0,
0,
0,
0,
0,
0,
0,
0,
0,
0,
0,
0,
0,
0,
0,
0,
0,
0,
0,
0,
0,
0,
0,
0,
0,
0,
0,
0,
0,
0,
0,
0,
0,
0,
0,
0,
0,
0,
0,
0,
0,
0,
0,
0,
0,
0,
0,
0,
0,
0,
0,
0,
0,
0,
0,
0,
0,
0,
0,
0,
0,
0,
0,
0,
0,
0,
0,
0,
0,
0,
0,
0,
0,
0,
0,
0,
0,
0,
0,
0,
0,
0,
0,
0,
0,
#ENDOFDATA   :