File: N132962/Quantification/20 keV/MMM1/SPI MM1 Cryolite[7][4].msa
#FORMAT      : EMSA/MAS Spectral Data File
#VERSION     : 1.0
#TITLE       : SPI MM1dup Cryolite[7][all]
#DATE        : 12-MAR-2025
#TIME        : 13:48
#OWNER       : Unknown
#NPOINTS     : 4096
#NCOLUMNS    : 1
#XUNITS      : eV
#YUNITS      : counts
#DATATYPE    : Y
#XPERCHAN    : 9.99778
#OFFSET      : 1.69135
#BEAMKV      : 20
#SIGNALTYPE  : EDS
#ELEVANGLE   : 35
#AZIMANGLE   : 0
#LIVETIME    : 239.962
#REALTIME    : 258.532
#PROBECUR    : 1.02627
#TAUWIND     : 0
#TDEADLYR    : 0
#TACTLYR     : 0.045
#TALWIND     : 0.025
#CHOFFSET    : 0.0
#XLABEL      : Energy (eV)
#YLABEL      : Counts
#XPOSITION   : -3.98482
#YPOSITION   : -0.54513
#ZPOSITION   : 31.03608
#EDSDET      : SD
##SPECIMEN   : SPI MM1dup Cryolite[7][all]
##D2STDCMP   : Cryolite,(F:54.2963),(Na:32.8517),(Al:12.8519)
##DET_HASH   : 12273538-fd48-a23f-0a19-f1e6fa85caef
##CALIB_HASH : 6abaa72c-aa41-8738-0be9-f592914732f3
##WORKING    : 15.0 mm
##DET_NAME   : EDAX All
##DET_MODE   : MediumLE
#SPECTRUM    :
24,
30,
12,
29,
158,
522,
1347,
3269,
8138,
10608,
6033,
3408,
3394,
3875,
4396,
5342,
7130,
9380,
11265,
16455,
54839,
223723,
495890,
436444,
143211,
19062,
2905,
2178,
2459,
2821,
3610,
5136,
14614,
59941,
148980,
166900,
80175,
17889,
3427,
2055,
1996,
1999,
2363,
2915,
3975,
4588,
4791,
10443,
34849,
70680,
72519,
37605,
12158,
4440,
2765,
2658,
3175,
3831,
3781,
2892,
2649,
2424,
2134,
2175,
2134,
2152,
2236,
2289,
2429,
2495,
2543,
2819,
2902,
2642,
2466,
2256,
2406,
2249,
2269,
2162,
2254,
2232,
2257,
2363,
2366,
2371,
2318,
2291,
2233,
2253,
2225,
2080,
2197,
2198,
2154,
2033,
2061,
2109,
2147,
2119,
2088,
2060,
1962,
2015,
1989,
1931,
1942,
1868,
1882,
1902,
1892,
1895,
1957,
1868,
1881,
1805,
1749,
1791,
1769,
1745,
1746,
1798,
1776,
1729,
1742,
1708,
1683,
1693,
1672,
1627,
1570,
1576,
1587,
1577,
1512,
1643,
1577,
1514,
1476,
1586,
1516,
1473,
1503,
1468,
1453,
1535,
1405,
1406,
1440,
1386,
1345,
1340,
1373,
1373,
1401,
1344,
1346,
1398,
1287,
1288,
1271,
1237,
1297,
1211,
1212,
1224,
1298,
1216,
1229,
1171,
1168,
1171,
1151,
1154,
1124,
1119,
1151,
1158,
1129,
1093,
1075,
1108,
1097,
1054,
1068,
1050,
1033,
1024,
1006,
1037,
1041,
956,
975,
996,
935,
928,
958,
959,
945,
935,
926,
918,
874,
958,
906,
929,
867,
930,
885,
901,
876,
943,
909,
925,
919,
924,
832,
853,
853,
797,
755,
761,
795,
799,
739,
797,
745,
762,
765,
667,
755,
731,
724,
770,
717,
703,
718,
706,
668,
653,
682,
676,
667,
672,
611,
675,
697,
658,
730,
683,
672,
665,
639,
608,
605,
606,
637,
630,
601,
580,
555,
633,
593,
579,
587,
590,
581,
580,
587,
615,
575,
528,
502,
529,
553,
530,
514,
526,
530,
533,
520,
529,
516,
522,
519,
491,
497,
501,
442,
475,
501,
428,
448,
465,
464,
444,
414,
450,
424,
460,
464,
454,
424,
458,
422,
413,
422,
423,
400,
416,
399,
415,
380,
412,
369,
369,
375,
410,
386,
398,
380,
382,
371,
374,
349,
348,
367,
352,
331,
362,
357,
352,
311,
372,
359,
322,
325,
321,
315,
333,
324,
323,
309,
296,
296,
281,
274,
316,
284,
320,
309,
282,
302,
295,
259,
292,
263,
258,
256,
269,
288,
295,
258,
249,
270,
266,
261,
261,
249,
248,
223,
260,
250,
263,
239,
250,
234,
216,
217,
221,
227,
224,
219,
229,
234,
235,
197,
215,
206,
234,
195,
206,
226,
228,
184,
202,
203,
207,
205,
196,
175,
219,
196,
193,
176,
144,
187,
177,
172,
172,
195,
157,
196,
178,
141,
164,
156,
151,
166,
163,
155,
163,
160,
155,
146,
151,
138,
156,
152,
163,
142,
130,
137,
153,
116,
142,
123,
136,
149,
106,
125,
133,
136,
113,
144,
111,
126,
102,
115,
109,
116,
112,
115,
92,
118,
121,
111,
98,
96,
102,
115,
93,
109,
112,
96,
101,
111,
95,
87,
103,
77,
104,
75,
63,
85,
87,
83,
89,
83,
80,
83,
92,
80,
76,
86,
58,
79,
72,
71,
72,
62,
64,
72,
82,
96,
72,
77,
51,
70,
76,
47,
65,
67,
65,
52,
62,
56,
53,
58,
50,
61,
49,
49,
47,
60,
48,
50,
67,
49,
53,
57,
42,
51,
58,
41,
44,
48,
36,
53,
48,
40,
56,
45,
46,
25,
36,
36,
32,
44,
32,
38,
38,
47,
37,
38,
36,
24,
27,
23,
32,
38,
40,
33,
28,
38,
33,
30,
26,
27,
26,
28,
24,
36,
31,
28,
25,
25,
16,
22,
25,
23,
35,
21,
24,
23,
23,
15,
21,
26,
18,
19,
24,
12,
15,
11,
16,
10,
17,
12,
22,
23,
14,
16,
17,
16,
18,
14,
14,
16,
10,
19,
11,
6,
9,
14,
13,
9,
12,
14,
9,
12,
8,
11,
14,
6,
11,
9,
7,
10,
10,
8,
14,
5,
10,
11,
6,
5,
7,
10,
9,
7,
5,
3,
6,
6,
5,
4,
8,
2,
9,
3,
3,
3,
5,
5,
1,
2,
4,
3,
2,
5,
5,
2,
0,
0,
1,
4,
1,
1,
1,
0,
0,
1,
1,
2,
0,
1,
0,
0,
0,
1,
0,
1,
0,
1,
0,
0,
1,
0,
0,
0,
0,
0,
0,
0,
0,
0,
0,
0,
0,
0,
0,
0,
0,
0,
0,
0,
0,
0,
0,
0,
0,
0,
0,
0,
0,
0,
0,
0,
0,
0,
0,
0,
0,
0,
0,
1,
0,
0,
0,
0,
0,
0,
0,
0,
0,
0,
0,
0,
0,
0,
0,
0,
0,
0,
0,
0,
0,
0,
0,
1,
0,
0,
0,
0,
0,
0,
0,
0,
0,
0,
0,
0,
0,
0,
0,
0,
0,
0,
0,
0,
0,
0,
0,
0,
0,
0,
0,
0,
0,
0,
0,
0,
0,
0,
0,
0,
0,
0,
0,
0,
0,
0,
0,
0,
0,
0,
0,
0,
1,
0,
0,
0,
0,
0,
0,
0,
0,
0,
0,
0,
0,
0,
0,
0,
0,
0,
0,
0,
0,
0,
1,
0,
0,
0,
0,
0,
0,
0,
0,
0,
0,
0,
0,
0,
0,
0,
0,
0,
0,
0,
0,
0,
0,
0,
0,
0,
0,
0,
0,
0,
0,
0,
0,
0,
0,
0,
0,
0,
0,
0,
0,
0,
0,
0,
0,
0,
0,
0,
0,
0,
0,
0,
0,
0,
0,
0,
0,
0,
0,
0,
0,
0,
0,
0,
0,
0,
0,
1,
0,
0,
0,
0,
0,
0,
0,
0,
0,
0,
0,
0,
0,
0,
0,
0,
0,
0,
0,
0,
0,
0,
0,
0,
0,
0,
0,
0,
0,
0,
0,
0,
0,
0,
0,
0,
1,
0,
0,
0,
0,
0,
0,
0,
0,
0,
0,
0,
0,
0,
0,
0,
0,
0,
0,
0,
0,
0,
0,
0,
0,
0,
0,
0,
0,
0,
0,
0,
0,
0,
0,
0,
0,
0,
0,
0,
0,
0,
0,
0,
0,
0,
0,
0,
0,
0,
0,
0,
0,
0,
0,
0,
0,
0,
0,
0,
0,
0,
0,
0,
0,
0,
0,
0,
0,
0,
0,
0,
0,
0,
0,
0,
0,
0,
0,
0,
0,
0,
0,
0,
0,
0,
0,
0,
0,
0,
0,
0,
0,
0,
0,
0,
0,
0,
0,
0,
0,
0,
0,
0,
0,
0,
0,
0,
0,
0,
0,
0,
0,
0,
0,
0,
0,
0,
0,
0,
0,
0,
0,
0,
0,
0,
0,
0,
0,
0,
0,
0,
0,
0,
0,
0,
0,
0,
0,
0,
0,
0,
0,
0,
0,
0,
0,
0,
0,
0,
0,
0,
0,
0,
0,
0,
0,
0,
0,
0,
0,
0,
0,
0,
0,
0,
0,
0,
0,
0,
0,
0,
0,
0,
0,
0,
0,
0,
0,
0,
0,
0,
0,
0,
0,
0,
0,
0,
0,
0,
0,
0,
0,
0,
0,
0,
0,
0,
0,
0,
0,
0,
0,
0,
0,
0,
0,
0,
0,
0,
0,
0,
0,
0,
0,
0,
0,
0,
0,
0,
0,
0,
0,
0,
0,
0,
0,
0,
0,
0,
0,
0,
0,
0,
0,
0,
0,
0,
0,
0,
0,
0,
0,
0,
0,
0,
0,
0,
0,
0,
0,
0,
0,
0,
0,
0,
0,
0,
0,
0,
0,
0,
0,
0,
0,
0,
0,
0,
0,
0,
0,
0,
0,
0,
0,
0,
0,
0,
0,
0,
0,
0,
0,
0,
0,
0,
0,
0,
0,
0,
0,
0,
0,
0,
0,
0,
0,
0,
0,
0,
0,
0,
0,
0,
0,
0,
0,
0,
0,
0,
0,
0,
0,
0,
0,
0,
0,
0,
0,
0,
0,
0,
0,
0,
0,
0,
0,
0,
0,
0,
0,
0,
0,
0,
0,
0,
0,
0,
0,
0,
0,
0,
0,
0,
0,
0,
0,
0,
0,
0,
0,
0,
0,
0,
0,
0,
0,
0,
0,
0,
0,
0,
0,
0,
0,
0,
0,
0,
0,
0,
0,
0,
0,
0,
0,
0,
0,
0,
0,
0,
0,
0,
0,
0,
0,
0,
0,
0,
0,
0,
0,
0,
0,
0,
0,
0,
0,
0,
0,
0,
0,
0,
0,
0,
0,
0,
0,
0,
0,
0,
0,
0,
0,
0,
0,
0,
0,
0,
0,
0,
0,
0,
0,
0,
0,
0,
0,
0,
0,
0,
0,
0,
0,
0,
0,
0,
0,
0,
0,
0,
0,
0,
0,
0,
0,
0,
0,
0,
0,
0,
0,
#ENDOFDATA   :