File: N132962/Quantification/20 keV/MMM1/SPI MM1 Chalcopyrite[5][4].msa
#FORMAT      : EMSA/MAS Spectral Data File
#VERSION     : 1.0
#TITLE       : SPI MM1 Chalcopyrite[5][all]
#DATE        : 11-MAR-2025
#TIME        : 14:32
#OWNER       : Unknown
#NPOINTS     : 4096
#NCOLUMNS    : 1
#XUNITS      : eV
#YUNITS      : counts
#DATATYPE    : Y
#XPERCHAN    : 9.99778
#OFFSET      : 1.69135
#BEAMKV      : 20
#SIGNALTYPE  : EDS
#ELEVANGLE   : 35
#AZIMANGLE   : 0
#LIVETIME    : 239.841
#REALTIME    : 260.396
#PROBECUR    : 1.02809
#TAUWIND     : 0
#TDEADLYR    : 0
#TACTLYR     : 0.045
#TALWIND     : 0.025
#CHOFFSET    : 0.0
#XLABEL      : Energy (eV)
#YLABEL      : Counts
#XPOSITION   : -4.97109
#YPOSITION   : -3.90795
#ZPOSITION   : 30.9284
#EDSDET      : SD
##SPECIMEN   : SPI MM1 Chalcopyrite[5][all]
##D2STDCMP   : Chalcopyrite,(S:34.9407),(Fe:30.4314),(Cu:34.6279),4.2
##DET_HASH   : 12273538-fd48-a23f-0a19-f1e6fa85caef
##CALIB_HASH : 6abaa72c-aa41-8738-0be9-f592914732f3
##WORKING    : 15.0 mm
##DET_NAME   : EDAX All
##DET_MODE   : MediumLE
#SPECTRUM    :
29,
28,
14,
33,
227,
574,
1169,
3288,
9156,
12070,
6447,
2899,
2682,
2946,
3152,
3798,
4807,
6721,
10139,
14717,
17505,
17683,
24768,
40555,
35797,
17065,
10953,
11349,
11773,
22400,
58224,
84569,
55836,
19058,
6299,
4064,
3460,
3386,
3465,
3739,
3813,
3769,
3943,
4016,
4149,
4273,
4513,
4696,
4776,
5022,
5132,
5079,
5114,
5101,
5190,
5423,
5573,
5905,
6244,
6198,
6238,
5823,
5549,
5277,
5306,
5383,
5347,
5539,
5706,
5536,
5832,
6337,
8163,
14341,
33691,
91334,
186578,
232669,
169504,
74125,
26517,
19332,
21536,
17794,
10937,
5972,
4217,
3728,
3701,
3591,
3685,
3758,
3722,
3745,
3733,
3794,
3743,
3784,
3911,
3901,
3902,
3817,
3808,
3760,
3783,
3847,
3709,
3800,
3897,
3881,
3829,
3858,
3619,
3663,
3602,
3594,
3553,
3545,
3542,
3611,
3545,
3448,
3511,
3558,
3448,
3419,
3495,
3420,
3419,
3323,
3241,
3470,
3261,
3186,
3318,
3336,
3178,
3307,
3235,
3199,
3234,
3180,
3150,
3271,
3130,
3182,
3133,
3022,
3104,
3056,
3030,
3073,
3193,
3376,
3415,
3382,
3325,
3074,
3050,
2841,
2863,
2768,
2867,
2651,
2838,
2751,
2801,
2690,
2739,
2728,
2685,
2730,
2713,
2628,
2621,
2704,
2692,
2669,
2631,
2580,
2552,
2569,
2600,
2537,
2507,
2390,
2418,
2389,
2375,
2310,
2411,
2403,
2378,
2338,
2336,
2291,
2348,
2218,
2332,
2292,
2231,
2257,
2268,
2348,
2304,
2356,
2498,
2847,
4040,
8077,
17565,
34230,
53365,
65010,
60369,
44297,
25584,
11630,
5197,
2835,
2177,
2067,
1997,
2087,
2053,
1975,
2038,
1920,
1972,
2177,
2423,
3183,
4467,
6743,
8973,
9850,
9088,
6923,
4763,
3099,
2119,
1717,
1729,
1614,
1693,
1690,
1678,
1689,
1680,
1653,
1657,
1606,
1567,
1612,
1519,
1515,
1456,
1504,
1427,
1569,
1575,
1748,
2334,
4107,
8145,
15404,
25163,
33906,
36770,
32296,
23364,
13897,
7083,
3503,
1991,
1566,
1416,
1357,
1291,
1399,
1224,
1251,
1255,
1311,
1294,
1328,
1364,
1348,
1397,
1434,
1545,
1567,
1948,
2628,
3512,
4776,
5565,
5802,
5056,
3862,
2636,
1815,
1365,
1134,
1071,
1031,
1006,
1050,
1036,
981,
1034,
1088,
1050,
1003,
981,
991,
998,
927,
975,
932,
1008,
956,
934,
880,
932,
909,
936,
917,
886,
909,
917,
922,
885,
826,
859,
845,
879,
885,
833,
830,
848,
865,
927,
901,
918,
904,
892,
865,
851,
821,
797,
744,
767,
789,
738,
789,
785,
774,
766,
735,
741,
717,
673,
743,
751,
722,
707,
655,
685,
721,
736,
649,
664,
641,
665,
714,
704,
659,
635,
670,
613,
623,
609,
656,
598,
620,
673,
620,
619,
566,
595,
546,
595,
555,
554,
527,
537,
564,
538,
533,
544,
535,
529,
509,
536,
518,
543,
474,
520,
526,
511,
517,
479,
492,
493,
494,
461,
484,
448,
455,
438,
451,
443,
490,
469,
434,
465,
441,
453,
405,
426,
400,
411,
389,
384,
394,
374,
420,
381,
385,
381,
386,
394,
386,
348,
371,
337,
355,
332,
353,
348,
356,
341,
337,
328,
348,
341,
322,
302,
319,
300,
292,
286,
295,
294,
282,
295,
300,
286,
259,
267,
284,
288,
258,
291,
265,
287,
266,
272,
287,
291,
265,
248,
273,
244,
241,
257,
223,
220,
236,
224,
233,
235,
222,
225,
205,
183,
226,
206,
208,
194,
199,
203,
197,
208,
196,
189,
197,
184,
189,
188,
201,
176,
171,
178,
154,
156,
158,
190,
184,
156,
159,
143,
160,
160,
165,
126,
165,
167,
156,
150,
142,
148,
123,
126,
140,
132,
119,
140,
150,
111,
126,
114,
114,
131,
129,
118,
92,
101,
84,
102,
94,
112,
85,
84,
99,
106,
105,
104,
95,
91,
107,
91,
84,
85,
92,
99,
89,
86,
80,
85,
68,
93,
94,
73,
75,
74,
72,
83,
76,
82,
74,
66,
62,
60,
50,
50,
61,
48,
63,
66,
49,
57,
59,
57,
43,
47,
49,
65,
48,
36,
53,
36,
58,
41,
37,
34,
41,
49,
39,
37,
31,
37,
38,
38,
29,
36,
29,
29,
31,
32,
36,
28,
29,
26,
32,
22,
22,
26,
15,
26,
22,
21,
20,
22,
25,
12,
24,
23,
11,
23,
24,
16,
17,
17,
12,
17,
13,
17,
12,
14,
7,
6,
7,
6,
6,
9,
8,
2,
7,
6,
4,
5,
2,
3,
0,
3,
1,
2,
2,
1,
1,
0,
2,
0,
2,
1,
1,
3,
2,
2,
1,
1,
2,
0,
1,
2,
0,
0,
0,
1,
1,
1,
0,
0,
0,
1,
1,
1,
0,
1,
1,
0,
1,
0,
0,
2,
1,
0,
0,
0,
1,
1,
0,
1,
1,
0,
1,
0,
1,
0,
0,
1,
1,
0,
1,
0,
3,
0,
3,
1,
0,
1,
0,
1,
1,
1,
1,
0,
0,
0,
2,
1,
1,
2,
0,
0,
2,
2,
0,
0,
0,
0,
3,
1,
0,
1,
1,
2,
1,
1,
1,
0,
0,
0,
0,
0,
1,
0,
1,
0,
1,
0,
0,
0,
0,
2,
0,
0,
1,
1,
0,
1,
0,
0,
0,
0,
1,
1,
0,
1,
0,
0,
0,
0,
0,
0,
0,
1,
1,
0,
1,
0,
0,
0,
0,
0,
0,
0,
2,
0,
1,
2,
0,
0,
0,
0,
0,
1,
0,
1,
0,
0,
0,
0,
1,
0,
0,
0,
0,
0,
0,
0,
0,
0,
0,
0,
0,
0,
1,
0,
0,
0,
0,
0,
0,
0,
0,
0,
0,
0,
0,
0,
0,
0,
0,
0,
0,
0,
0,
1,
0,
0,
1,
1,
0,
0,
0,
0,
0,
0,
0,
0,
0,
0,
1,
0,
0,
0,
0,
0,
0,
0,
0,
1,
0,
0,
0,
1,
0,
0,
0,
0,
0,
0,
1,
0,
0,
0,
0,
1,
0,
0,
0,
0,
2,
0,
0,
0,
0,
0,
0,
0,
0,
0,
0,
0,
0,
0,
0,
0,
0,
0,
0,
0,
0,
0,
0,
0,
0,
0,
0,
0,
1,
0,
0,
0,
1,
0,
0,
0,
0,
0,
0,
0,
0,
0,
0,
0,
0,
0,
0,
0,
0,
0,
0,
0,
0,
0,
0,
0,
0,
0,
0,
0,
0,
0,
0,
0,
0,
0,
0,
0,
0,
0,
0,
0,
0,
0,
0,
0,
0,
0,
0,
0,
0,
0,
0,
0,
0,
0,
0,
0,
0,
0,
0,
0,
0,
0,
0,
0,
0,
0,
0,
0,
0,
0,
0,
0,
0,
0,
0,
0,
0,
0,
0,
0,
0,
0,
0,
0,
0,
0,
0,
0,
0,
0,
0,
0,
0,
0,
0,
0,
0,
0,
0,
0,
0,
0,
0,
0,
0,
0,
0,
0,
0,
0,
0,
0,
0,
0,
0,
0,
0,
0,
0,
0,
0,
0,
0,
0,
0,
0,
0,
0,
0,
0,
0,
1,
0,
0,
0,
0,
0,
0,
0,
0,
0,
0,
0,
0,
0,
0,
0,
0,
0,
0,
0,
0,
0,
0,
0,
0,
0,
0,
0,
0,
0,
0,
0,
0,
0,
0,
0,
0,
0,
0,
0,
0,
0,
0,
0,
0,
0,
0,
0,
0,
0,
0,
0,
0,
0,
0,
0,
0,
0,
0,
0,
0,
0,
0,
0,
0,
0,
0,
0,
0,
0,
0,
0,
0,
0,
0,
0,
0,
0,
0,
0,
0,
0,
0,
0,
0,
0,
0,
0,
0,
0,
0,
0,
0,
0,
0,
0,
0,
0,
0,
0,
0,
0,
0,
0,
0,
0,
0,
0,
0,
0,
0,
0,
0,
0,
0,
0,
0,
0,
0,
0,
0,
0,
0,
0,
0,
0,
0,
0,
0,
0,
0,
0,
0,
0,
0,
0,
0,
0,
0,
0,
0,
0,
0,
0,
0,
0,
0,
0,
0,
0,
0,
0,
0,
0,
0,
0,
0,
0,
0,
0,
0,
0,
0,
0,
0,
0,
0,
0,
0,
0,
0,
0,
0,
0,
0,
0,
0,
0,
0,
0,
0,
0,
0,
0,
0,
0,
0,
0,
0,
0,
0,
0,
0,
0,
0,
0,
0,
0,
0,
0,
0,
0,
0,
0,
0,
0,
0,
0,
0,
0,
0,
0,
0,
0,
0,
0,
0,
0,
0,
0,
0,
0,
0,
0,
0,
0,
0,
0,
0,
0,
0,
0,
0,
0,
0,
0,
0,
0,
0,
0,
0,
0,
0,
0,
0,
0,
0,
0,
0,
0,
0,
0,
0,
0,
0,
0,
0,
0,
0,
0,
0,
0,
0,
0,
0,
0,
0,
0,
0,
0,
0,
0,
0,
0,
0,
0,
0,
0,
0,
0,
0,
0,
0,
0,
0,
0,
0,
0,
0,
0,
0,
0,
0,
0,
0,
0,
0,
0,
#ENDOFDATA   :