File: N132962/Quantification/20 keV/MMM1/SPI MM1 Chromite[3][4].msa
#FORMAT      : EMSA/MAS Spectral Data File
#VERSION     : 1.0
#TITLE       : SPI MM1dup Chromite[3][all]
#DATE        : 12-MAR-2025
#TIME        : 14:12
#OWNER       : Unknown
#NPOINTS     : 4096
#NCOLUMNS    : 1
#XUNITS      : eV
#YUNITS      : counts
#DATATYPE    : Y
#XPERCHAN    : 9.99778
#OFFSET      : 1.69135
#BEAMKV      : 20
#SIGNALTYPE  : EDS
#ELEVANGLE   : 35
#AZIMANGLE   : 0
#LIVETIME    : 239.456
#REALTIME    : 255.794
#PROBECUR    : 1.02867
#TAUWIND     : 0
#TDEADLYR    : 0
#TACTLYR     : 0.045
#TALWIND     : 0.025
#CHOFFSET    : 0.0
#XLABEL      : Energy (eV)
#YLABEL      : Counts
#XPOSITION   : 4.22141
#YPOSITION   : -0.17041
#ZPOSITION   : 31.03608
#EDSDET      : SD
##SPECIMEN   : SPI MM1dup Chromite[3][all]
##DET_HASH   : 12273538-fd48-a23f-0a19-f1e6fa85caef
##CALIB_HASH : 6abaa72c-aa41-8738-0be9-f592914732f3
##WORKING    : 15.0 mm
##DET_NAME   : EDAX All
##DET_MODE   : MediumLE
#SPECTRUM    :
21,
28,
4,
8,
97,
361,
1046,
3061,
8081,
10745,
6382,
3776,
4300,
5639,
10598,
36649,
129911,
237014,
171072,
50960,
10959,
4347,
4514,
6766,
6654,
3720,
2362,
2317,
2389,
2377,
2393,
2482,
2657,
2986,
3281,
3509,
3444,
3479,
4090,
7010,
20626,
48520,
57514,
33305,
11700,
5062,
4958,
11241,
35703,
71245,
72243,
38032,
13277,
5428,
3849,
3468,
3594,
3857,
4149,
4195,
3930,
3737,
3358,
3307,
3223,
3288,
3559,
3492,
3540,
3417,
3287,
3356,
3415,
3369,
3439,
3326,
3352,
3430,
3295,
3367,
3352,
3336,
3407,
3332,
3376,
3271,
3254,
3283,
3249,
3254,
3363,
3241,
3306,
3200,
3206,
3288,
3117,
3163,
3143,
3082,
3095,
3084,
2989,
3044,
3024,
2986,
3019,
2927,
2967,
2861,
2901,
2743,
2881,
2856,
2780,
2818,
2764,
2642,
2671,
2812,
2813,
3008,
3015,
3001,
2785,
2751,
2563,
2552,
2478,
2496,
2491,
2429,
2392,
2463,
2417,
2371,
2397,
2403,
2252,
2333,
2325,
2186,
2363,
2243,
2289,
2303,
2309,
2207,
2327,
2425,
2424,
2310,
2210,
2310,
2195,
2136,
2143,
2114,
1991,
1959,
1916,
1976,
2095,
2153,
2193,
2325,
2286,
2109,
1949,
1908,
1959,
1944,
2079,
2189,
2376,
3237,
6680,
16365,
36695,
64577,
84161,
81188,
58098,
30943,
13007,
5011,
2454,
1884,
1847,
1672,
1682,
1755,
1985,
2159,
2821,
4781,
7767,
10975,
12622,
11310,
8228,
4900,
2623,
1735,
1473,
1413,
1419,
1479,
1738,
2784,
5358,
9862,
15304,
18331,
17507,
12799,
7589,
3913,
2139,
1476,
1247,
1209,
1255,
1209,
1201,
1185,
1213,
1163,
1228,
1316,
1395,
1585,
1943,
2427,
3055,
3291,
3078,
2465,
1894,
1418,
1185,
1070,
975,
957,
928,
952,
1063,
1125,
1114,
1188,
1114,
1042,
1050,
984,
906,
949,
916,
908,
875,
905,
903,
871,
886,
877,
946,
900,
860,
832,
832,
827,
861,
817,
854,
834,
845,
806,
835,
828,
842,
802,
766,
795,
752,
759,
781,
812,
735,
756,
768,
769,
793,
707,
694,
714,
685,
685,
740,
703,
646,
708,
681,
686,
635,
652,
639,
648,
624,
659,
625,
648,
624,
636,
651,
594,
628,
636,
586,
657,
639,
628,
586,
623,
612,
647,
645,
587,
570,
546,
558,
550,
545,
581,
543,
539,
544,
572,
588,
573,
530,
532,
534,
526,
551,
478,
512,
557,
513,
495,
491,
512,
458,
486,
504,
486,
508,
469,
504,
458,
480,
467,
508,
509,
509,
471,
472,
445,
412,
447,
409,
427,
411,
399,
453,
436,
428,
403,
375,
407,
421,
423,
375,
395,
422,
402,
355,
337,
379,
390,
342,
379,
356,
394,
367,
383,
372,
369,
357,
323,
341,
327,
351,
313,
330,
305,
298,
319,
267,
280,
278,
345,
307,
295,
263,
291,
252,
267,
310,
294,
286,
266,
254,
266,
247,
237,
283,
255,
268,
285,
258,
230,
236,
274,
253,
223,
243,
229,
234,
225,
217,
219,
248,
212,
216,
187,
182,
192,
194,
177,
217,
226,
194,
204,
180,
186,
202,
181,
174,
168,
195,
187,
169,
192,
158,
176,
176,
170,
149,
157,
160,
154,
171,
178,
149,
156,
146,
163,
172,
153,
152,
135,
152,
133,
125,
148,
153,
122,
132,
137,
131,
128,
142,
120,
123,
124,
119,
105,
135,
114,
109,
119,
124,
103,
106,
108,
113,
109,
89,
104,
92,
104,
81,
95,
90,
94,
110,
98,
78,
98,
104,
102,
102,
78,
79,
90,
91,
88,
71,
95,
91,
100,
81,
81,
76,
71,
69,
71,
84,
61,
67,
75,
75,
68,
61,
76,
66,
61,
61,
67,
44,
52,
56,
51,
59,
50,
65,
58,
60,
46,
59,
52,
55,
49,
58,
60,
47,
43,
41,
46,
37,
51,
38,
42,
47,
34,
39,
36,
53,
26,
41,
29,
35,
41,
50,
43,
40,
31,
35,
37,
33,
41,
31,
44,
37,
32,
26,
32,
28,
21,
26,
35,
25,
20,
14,
16,
21,
31,
19,
19,
20,
19,
14,
13,
13,
23,
31,
16,
15,
20,
7,
14,
21,
13,
12,
16,
12,
17,
10,
11,
9,
9,
10,
7,
6,
12,
12,
12,
12,
10,
10,
6,
7,
9,
5,
8,
6,
3,
3,
4,
9,
7,
5,
3,
2,
1,
3,
2,
2,
5,
7,
7,
2,
2,
1,
0,
2,
2,
0,
2,
0,
0,
1,
0,
2,
0,
0,
0,
0,
1,
0,
1,
0,
0,
1,
0,
0,
2,
0,
0,
0,
0,
1,
0,
0,
0,
0,
3,
0,
0,
0,
1,
0,
1,
0,
0,
0,
1,
1,
0,
1,
1,
1,
0,
0,
0,
1,
0,
0,
0,
0,
0,
0,
0,
1,
0,
0,
0,
0,
0,
0,
0,
0,
1,
0,
0,
0,
0,
0,
0,
0,
0,
0,
0,
0,
0,
0,
0,
0,
0,
0,
0,
0,
0,
0,
0,
0,
0,
0,
0,
0,
0,
0,
0,
0,
0,
0,
0,
0,
0,
0,
1,
0,
0,
0,
0,
0,
0,
0,
0,
0,
0,
0,
0,
0,
0,
0,
0,
0,
0,
0,
0,
0,
0,
0,
0,
0,
0,
0,
0,
0,
0,
1,
0,
0,
0,
0,
0,
0,
0,
0,
0,
0,
0,
0,
1,
0,
0,
0,
0,
0,
1,
0,
0,
0,
0,
0,
0,
1,
0,
0,
0,
0,
0,
0,
0,
0,
0,
0,
0,
0,
0,
0,
0,
0,
0,
0,
0,
0,
0,
0,
0,
0,
0,
0,
0,
0,
0,
0,
0,
1,
0,
0,
0,
0,
0,
0,
0,
0,
0,
0,
0,
0,
0,
0,
0,
0,
0,
0,
0,
0,
0,
0,
0,
0,
0,
0,
0,
0,
0,
0,
0,
0,
0,
0,
0,
0,
0,
0,
0,
0,
0,
0,
0,
0,
0,
0,
0,
0,
0,
0,
0,
0,
0,
0,
0,
0,
0,
0,
0,
0,
0,
0,
0,
0,
0,
0,
0,
0,
0,
0,
0,
0,
0,
0,
0,
0,
0,
0,
0,
0,
0,
0,
0,
0,
0,
0,
0,
0,
0,
0,
0,
0,
0,
0,
0,
0,
0,
0,
0,
0,
0,
0,
0,
0,
0,
0,
0,
0,
0,
0,
0,
0,
0,
0,
0,
0,
0,
0,
0,
0,
0,
0,
0,
0,
0,
0,
0,
0,
0,
0,
0,
0,
0,
0,
0,
0,
0,
0,
0,
0,
0,
0,
0,
0,
0,
0,
0,
0,
0,
0,
0,
0,
0,
0,
0,
0,
0,
0,
0,
0,
0,
0,
0,
0,
0,
0,
0,
0,
0,
0,
0,
0,
0,
0,
0,
0,
0,
0,
0,
0,
0,
0,
0,
0,
0,
0,
0,
0,
0,
0,
0,
0,
0,
0,
0,
0,
0,
0,
0,
0,
0,
0,
0,
0,
0,
0,
0,
0,
0,
0,
0,
0,
0,
0,
0,
0,
0,
0,
0,
0,
0,
0,
0,
0,
0,
0,
0,
0,
0,
0,
0,
0,
0,
0,
0,
0,
0,
0,
0,
0,
0,
0,
0,
0,
0,
0,
0,
0,
0,
0,
0,
0,
0,
0,
0,
0,
0,
0,
0,
0,
0,
0,
0,
0,
0,
0,
0,
0,
0,
0,
0,
0,
0,
0,
0,
0,
0,
0,
0,
0,
0,
0,
0,
0,
0,
0,
0,
0,
0,
0,
0,
0,
0,
0,
0,
0,
0,
0,
0,
0,
0,
0,
0,
0,
0,
0,
0,
0,
0,
0,
0,
0,
0,
0,
0,
0,
0,
0,
0,
0,
0,
0,
0,
0,
0,
0,
0,
0,
0,
0,
0,
0,
0,
0,
0,
0,
0,
0,
0,
0,
0,
0,
0,
0,
0,
0,
0,
0,
0,
0,
0,
0,
0,
0,
0,
0,
0,
0,
0,
0,
0,
0,
0,
0,
0,
0,
0,
0,
0,
0,
0,
0,
0,
0,
0,
0,
0,
0,
0,
0,
0,
0,
0,
0,
0,
0,
0,
0,
0,
0,
0,
0,
0,
0,
0,
0,
0,
0,
0,
0,
0,
0,
0,
0,
0,
0,
0,
0,
0,
0,
0,
0,
0,
0,
0,
0,
0,
0,
0,
0,
0,
0,
0,
0,
0,
0,
0,
0,
0,
0,
0,
0,
0,
0,
0,
0,
0,
0,
0,
0,
0,
0,
0,
0,
0,
0,
0,
0,
0,
0,
0,
0,
0,
0,
0,
0,
0,
0,
0,
0,
0,
0,
0,
0,
0,
0,
0,
0,
0,
0,
0,
0,
0,
0,
0,
0,
0,
0,
0,
0,
0,
0,
0,
0,
0,
0,
0,
0,
0,
0,
0,
0,
0,
0,
0,
0,
0,
0,
0,
0,
0,
0,
0,
0,
0,
0,
0,
#ENDOFDATA   :