File: N132962/Quantification/20 keV/MMM1/SPI MM1 Chalcopyrite[6][4].msa
#FORMAT      : EMSA/MAS Spectral Data File
#VERSION     : 1.0
#TITLE       : SPI MM1 Chalcopyrite[6][all]
#DATE        : 11-MAR-2025
#TIME        : 14:33
#OWNER       : Unknown
#NPOINTS     : 4096
#NCOLUMNS    : 1
#XUNITS      : eV
#YUNITS      : counts
#DATATYPE    : Y
#XPERCHAN    : 9.99778
#OFFSET      : 1.69135
#BEAMKV      : 20
#SIGNALTYPE  : EDS
#ELEVANGLE   : 35
#AZIMANGLE   : 0
#LIVETIME    : 239.835
#REALTIME    : 260.399
#PROBECUR    : 1.02809
#TAUWIND     : 0
#TDEADLYR    : 0
#TACTLYR     : 0.045
#TALWIND     : 0.025
#CHOFFSET    : 0.0
#XLABEL      : Energy (eV)
#YLABEL      : Counts
#XPOSITION   : -4.82437
#YPOSITION   : -3.88173
#ZPOSITION   : 30.9284
#EDSDET      : SD
##SPECIMEN   : SPI MM1 Chalcopyrite[6][all]
##D2STDCMP   : Chalcopyrite,(S:34.9407),(Fe:30.4314),(Cu:34.6279),4.2
##DET_HASH   : 12273538-fd48-a23f-0a19-f1e6fa85caef
##CALIB_HASH : 6abaa72c-aa41-8738-0be9-f592914732f3
##WORKING    : 15.0 mm
##DET_NAME   : EDAX All
##DET_MODE   : MediumLE
#SPECTRUM    :
27,
21,
10,
40,
203,
521,
1155,
3318,
9334,
12150,
6331,
2813,
2708,
2984,
3219,
3876,
4757,
6608,
10205,
14567,
17934,
17846,
25145,
40338,
36015,
17365,
10861,
11512,
11634,
22102,
58358,
84698,
56108,
18856,
6275,
4087,
3626,
3396,
3515,
3579,
3767,
3865,
4099,
4147,
4254,
4539,
4592,
4668,
4941,
4936,
5132,
4950,
5079,
5178,
5355,
5376,
5586,
5874,
6222,
6269,
5923,
5677,
5443,
5272,
5284,
5322,
5414,
5585,
5625,
5559,
5706,
6396,
8304,
13985,
33398,
91797,
186350,
233422,
169135,
73521,
26334,
19136,
21573,
18084,
10927,
5981,
4281,
3818,
3741,
3709,
3762,
3869,
3752,
3747,
3657,
3817,
3885,
3750,
3782,
4026,
3807,
3849,
3820,
3845,
3726,
3742,
3853,
3979,
3958,
3853,
3756,
3699,
3745,
3553,
3613,
3598,
3564,
3513,
3563,
3592,
3519,
3477,
3555,
3483,
3403,
3407,
3431,
3321,
3499,
3453,
3344,
3300,
3260,
3276,
3314,
3424,
3230,
3304,
3215,
3227,
3180,
3211,
3112,
3234,
3132,
3105,
3105,
3097,
3081,
3073,
3124,
3117,
3199,
3384,
3426,
3400,
3339,
3050,
3040,
2850,
2950,
2818,
2899,
2791,
2771,
2878,
2819,
2736,
2654,
2654,
2642,
2717,
2591,
2606,
2724,
2662,
2599,
2569,
2579,
2695,
2499,
2606,
2560,
2563,
2457,
2492,
2404,
2413,
2305,
2448,
2325,
2347,
2317,
2342,
2308,
2227,
2303,
2370,
2257,
2234,
2170,
2275,
2306,
2331,
2254,
2284,
2452,
2857,
4001,
7918,
17550,
34223,
53577,
65393,
61149,
43873,
24975,
11609,
5192,
2797,
2199,
2009,
1988,
1981,
1907,
1941,
2019,
1921,
2050,
2234,
2370,
3230,
4617,
6628,
9022,
9902,
9191,
6823,
4633,
2912,
2117,
1724,
1595,
1598,
1677,
1660,
1602,
1737,
1641,
1654,
1727,
1600,
1505,
1508,
1523,
1476,
1587,
1491,
1566,
1496,
1614,
1740,
2441,
4075,
8069,
15605,
24880,
33753,
37128,
32328,
23585,
13893,
7056,
3578,
1999,
1485,
1372,
1342,
1314,
1282,
1321,
1306,
1255,
1257,
1301,
1258,
1252,
1397,
1396,
1470,
1507,
1657,
1956,
2485,
3649,
4736,
5650,
5848,
5110,
3810,
2615,
1741,
1406,
1189,
1039,
1056,
1049,
1066,
1066,
998,
1033,
1042,
985,
1021,
1040,
960,
1009,
992,
999,
952,
945,
976,
956,
971,
974,
933,
906,
927,
924,
908,
838,
898,
871,
906,
941,
876,
851,
842,
866,
873,
833,
886,
834,
980,
910,
902,
938,
835,
825,
835,
754,
788,
759,
802,
753,
775,
731,
746,
733,
747,
717,
717,
774,
717,
705,
748,
708,
708,
666,
683,
697,
716,
658,
718,
678,
703,
675,
652,
621,
613,
612,
685,
624,
667,
632,
627,
622,
612,
573,
579,
596,
588,
597,
583,
562,
552,
593,
536,
609,
532,
542,
505,
516,
495,
541,
501,
513,
525,
555,
500,
503,
557,
442,
452,
463,
492,
447,
466,
470,
454,
466,
473,
452,
483,
467,
450,
482,
446,
410,
424,
424,
421,
380,
383,
413,
411,
361,
421,
400,
396,
372,
394,
385,
340,
383,
358,
375,
349,
360,
371,
353,
339,
356,
356,
336,
329,
336,
352,
333,
324,
325,
325,
280,
302,
308,
289,
296,
308,
273,
294,
297,
279,
272,
281,
272,
313,
242,
275,
278,
265,
291,
285,
286,
257,
244,
221,
267,
260,
262,
239,
223,
247,
224,
242,
218,
233,
217,
231,
225,
225,
195,
213,
207,
180,
185,
195,
181,
212,
207,
187,
166,
183,
195,
193,
175,
187,
176,
161,
170,
168,
188,
171,
146,
149,
142,
125,
155,
140,
120,
165,
152,
136,
136,
124,
151,
135,
137,
134,
146,
135,
115,
133,
126,
137,
139,
92,
108,
108,
110,
109,
124,
92,
123,
99,
89,
105,
96,
93,
113,
86,
106,
99,
102,
93,
84,
95,
100,
84,
90,
84,
92,
79,
67,
68,
63,
74,
82,
73,
81,
73,
68,
69,
73,
68,
64,
61,
57,
68,
66,
59,
64,
57,
53,
67,
50,
47,
54,
51,
57,
46,
39,
59,
53,
41,
29,
45,
38,
36,
48,
35,
42,
38,
39,
37,
27,
36,
41,
26,
34,
31,
35,
32,
17,
25,
30,
29,
24,
27,
22,
28,
25,
21,
19,
15,
27,
26,
23,
19,
12,
15,
17,
15,
20,
17,
12,
11,
11,
15,
14,
11,
10,
15,
7,
11,
7,
7,
6,
6,
9,
4,
3,
6,
2,
1,
6,
2,
2,
2,
0,
0,
0,
0,
1,
0,
3,
1,
3,
1,
0,
4,
0,
1,
0,
3,
1,
1,
1,
1,
1,
0,
0,
1,
0,
4,
1,
1,
1,
1,
2,
0,
0,
1,
0,
0,
0,
1,
0,
1,
1,
2,
1,
0,
0,
0,
1,
1,
1,
2,
2,
1,
1,
0,
0,
0,
2,
0,
1,
0,
0,
1,
1,
0,
1,
0,
2,
1,
1,
0,
0,
3,
1,
0,
3,
0,
1,
1,
0,
0,
1,
1,
1,
0,
1,
2,
0,
2,
0,
0,
1,
1,
1,
2,
1,
1,
1,
0,
0,
0,
1,
1,
0,
1,
0,
0,
1,
0,
1,
0,
0,
0,
0,
1,
0,
0,
0,
0,
0,
1,
0,
1,
0,
0,
0,
0,
0,
0,
0,
1,
0,
0,
1,
1,
1,
0,
0,
1,
1,
0,
2,
0,
0,
0,
0,
0,
0,
0,
0,
1,
0,
0,
0,
1,
2,
0,
1,
1,
0,
1,
0,
0,
1,
0,
0,
0,
0,
0,
0,
0,
0,
0,
0,
0,
0,
0,
0,
0,
1,
0,
0,
0,
0,
0,
0,
0,
0,
0,
0,
0,
0,
1,
0,
0,
0,
0,
1,
0,
1,
0,
0,
0,
0,
0,
0,
0,
0,
0,
0,
1,
0,
0,
0,
0,
1,
0,
0,
0,
0,
0,
0,
0,
0,
0,
0,
0,
0,
0,
0,
0,
0,
0,
0,
0,
0,
1,
0,
0,
0,
0,
0,
0,
0,
0,
0,
0,
0,
0,
0,
1,
0,
1,
1,
0,
0,
1,
0,
0,
0,
0,
0,
0,
0,
0,
0,
0,
0,
0,
0,
0,
0,
0,
0,
0,
1,
0,
1,
0,
0,
0,
0,
0,
0,
0,
0,
0,
0,
0,
0,
0,
1,
0,
0,
0,
0,
0,
0,
0,
0,
0,
0,
0,
0,
0,
0,
0,
0,
0,
0,
0,
0,
0,
0,
0,
0,
0,
0,
0,
0,
0,
0,
0,
0,
0,
0,
0,
0,
0,
0,
0,
0,
0,
0,
0,
0,
0,
0,
0,
0,
0,
0,
0,
0,
0,
0,
0,
0,
0,
0,
0,
0,
0,
0,
0,
0,
0,
0,
0,
0,
0,
0,
0,
0,
0,
0,
0,
0,
0,
0,
0,
0,
0,
0,
0,
0,
0,
0,
0,
0,
0,
0,
0,
0,
0,
0,
0,
0,
0,
0,
0,
0,
0,
0,
0,
0,
0,
0,
0,
0,
0,
0,
0,
0,
0,
0,
0,
0,
0,
0,
0,
0,
0,
0,
0,
0,
0,
0,
0,
0,
0,
0,
0,
1,
0,
0,
0,
0,
0,
0,
0,
0,
0,
0,
0,
0,
0,
0,
0,
0,
0,
0,
0,
0,
0,
0,
0,
0,
0,
0,
0,
0,
0,
0,
0,
0,
0,
0,
0,
0,
0,
0,
0,
0,
0,
0,
0,
0,
0,
0,
0,
0,
0,
0,
0,
0,
0,
0,
0,
0,
0,
0,
0,
0,
0,
0,
0,
0,
0,
0,
0,
0,
0,
0,
0,
0,
0,
0,
0,
0,
0,
0,
0,
0,
0,
0,
0,
0,
0,
0,
0,
0,
0,
0,
0,
0,
0,
0,
0,
0,
0,
0,
0,
0,
0,
0,
0,
0,
0,
0,
0,
0,
0,
0,
0,
0,
0,
0,
0,
0,
0,
0,
0,
0,
0,
0,
0,
0,
0,
0,
0,
0,
0,
0,
0,
0,
0,
0,
0,
0,
0,
0,
0,
0,
0,
0,
0,
0,
0,
0,
0,
0,
0,
0,
0,
0,
0,
0,
0,
0,
0,
0,
0,
0,
0,
0,
0,
0,
0,
0,
0,
0,
0,
0,
0,
0,
0,
0,
0,
0,
0,
0,
0,
0,
0,
0,
0,
0,
0,
0,
0,
0,
0,
0,
0,
0,
0,
0,
0,
0,
0,
0,
0,
0,
0,
0,
0,
0,
0,
0,
0,
0,
0,
0,
0,
0,
0,
0,
0,
0,
0,
0,
0,
0,
0,
0,
0,
0,
0,
0,
0,
0,
0,
0,
0,
0,
0,
0,
0,
0,
0,
0,
0,
0,
0,
0,
0,
0,
0,
0,
0,
0,
0,
0,
0,
0,
0,
0,
0,
0,
0,
0,
0,
0,
0,
0,
0,
0,
0,
0,
0,
0,
0,
0,
0,
0,
0,
0,
0,
#ENDOFDATA   :