File: N132962/Quantification/20 keV/MMM1/SPI MM1 Andradite[6][4].msa
#FORMAT      : EMSA/MAS Spectral Data File
#VERSION     : 1.0
#TITLE       : SPI MM1 Andradite[6][all]
#DATE        : 11-MAR-2025
#TIME        : 13:13
#OWNER       : Unknown
#NPOINTS     : 4096
#NCOLUMNS    : 1
#XUNITS      : eV
#YUNITS      : counts
#DATATYPE    : Y
#XPERCHAN    : 9.99778
#OFFSET      : 1.69135
#BEAMKV      : 20
#SIGNALTYPE  : EDS
#ELEVANGLE   : 35
#AZIMANGLE   : 0
#LIVETIME    : 239.886
#REALTIME    : 255.404
#PROBECUR    : 1.02699
#TAUWIND     : 0
#TDEADLYR    : 0
#TACTLYR     : 0.045
#TALWIND     : 0.025
#CHOFFSET    : 0.0
#XLABEL      : Energy (eV)
#YLABEL      : Counts
#XPOSITION   : -2.19067
#YPOSITION   : -7.9886
#ZPOSITION   : 30.9284
#EDSDET      : SD
##SPECIMEN   : SPI MM1 Andradite[6][all]
##D2STDCMP   : Andradite,(O:37.7805),(Si:16.5802),(Ca:23.6603),(Fe:21.979),3.86
##DET_HASH   : 12273538-fd48-a23f-0a19-f1e6fa85caef
##CALIB_HASH : 6abaa72c-aa41-8738-0be9-f592914732f3
##WORKING    : 15.0 mm
##DET_NAME   : EDAX All
##DET_MODE   : MediumLE
#SPECTRUM    :
25,
30,
12,
12,
87,
304,
946,
3089,
9072,
13505,
9303,
5050,
3278,
2928,
3967,
11966,
46386,
90424,
66446,
19017,
5293,
4833,
7258,
13033,
12655,
6357,
3061,
2488,
2551,
2477,
2555,
2528,
2819,
2803,
3041,
3195,
3256,
3243,
3546,
3682,
3771,
3906,
4088,
4194,
4231,
4356,
4639,
6433,
12889,
22380,
22630,
13897,
7457,
5689,
6044,
12315,
42832,
106418,
143895,
102198,
42170,
15502,
8182,
5433,
4712,
4641,
4231,
3707,
3497,
3408,
3452,
3335,
3437,
3403,
3560,
3809,
3681,
3640,
3360,
3344,
3316,
3395,
3394,
3283,
3220,
3245,
3365,
3404,
3217,
3384,
3178,
3161,
3168,
3118,
3138,
3105,
3235,
3091,
3081,
3060,
3015,
3011,
3102,
3164,
3025,
2967,
2940,
2969,
2972,
2947,
2935,
2895,
2803,
2854,
3001,
2941,
3262,
3507,
4364,
7499,
19189,
48209,
89793,
113163,
95467,
53690,
21191,
7301,
3521,
3161,
3795,
5713,
9875,
14469,
15882,
12789,
7785,
4177,
2540,
2252,
2109,
2048,
2006,
2030,
2065,
1951,
1830,
1899,
1965,
1862,
1844,
1969,
1930,
1886,
1931,
1978,
1999,
1965,
1851,
1852,
1765,
1805,
1813,
1704,
1795,
1663,
1681,
1795,
1781,
1647,
1700,
1656,
1768,
1635,
1627,
1665,
1686,
1659,
1618,
1748,
1724,
1792,
1797,
1670,
1624,
1546,
1550,
1550,
1490,
1474,
1506,
1502,
1541,
1607,
1767,
1868,
2048,
2086,
1862,
1597,
1515,
1453,
1400,
1415,
1384,
1355,
1419,
1574,
2232,
4417,
9307,
17603,
27725,
33625,
31467,
22937,
13071,
6402,
2845,
1705,
1302,
1275,
1234,
1233,
1255,
1232,
1253,
1225,
1260,
1317,
1440,
1800,
2560,
3599,
4702,
5298,
4846,
3807,
2558,
1674,
1286,
1103,
986,
1001,
961,
1092,
1001,
1006,
1060,
1039,
1017,
997,
999,
912,
908,
960,
888,
906,
968,
916,
852,
832,
870,
820,
887,
890,
830,
859,
834,
865,
868,
866,
851,
865,
820,
863,
841,
778,
775,
762,
771,
747,
750,
717,
753,
768,
774,
725,
726,
721,
677,
715,
701,
737,
694,
696,
712,
713,
653,
684,
725,
708,
681,
638,
643,
670,
662,
672,
639,
633,
637,
613,
640,
601,
617,
633,
593,
607,
619,
614,
614,
593,
565,
576,
568,
626,
539,
607,
555,
537,
516,
570,
566,
535,
558,
558,
591,
562,
571,
537,
531,
500,
516,
532,
515,
503,
541,
511,
485,
495,
488,
494,
442,
484,
446,
482,
457,
467,
498,
416,
471,
433,
497,
406,
442,
413,
412,
471,
416,
414,
430,
434,
392,
391,
408,
388,
339,
401,
361,
357,
378,
348,
355,
355,
375,
346,
368,
363,
383,
351,
340,
328,
367,
353,
373,
338,
334,
328,
359,
353,
314,
339,
295,
298,
310,
329,
286,
275,
267,
284,
290,
309,
260,
270,
256,
299,
251,
290,
287,
246,
291,
266,
249,
270,
245,
252,
242,
263,
268,
244,
205,
203,
222,
214,
227,
250,
227,
205,
236,
230,
229,
220,
229,
219,
200,
194,
221,
203,
215,
196,
209,
194,
217,
178,
164,
171,
187,
179,
149,
179,
181,
183,
175,
159,
161,
160,
163,
147,
192,
151,
149,
149,
169,
158,
152,
171,
159,
154,
142,
149,
126,
138,
154,
141,
125,
147,
120,
142,
123,
103,
119,
133,
131,
114,
123,
123,
105,
117,
104,
103,
114,
122,
103,
104,
99,
104,
94,
101,
104,
130,
99,
84,
77,
91,
84,
99,
107,
97,
77,
90,
67,
83,
85,
86,
64,
82,
94,
93,
90,
76,
65,
77,
64,
85,
79,
90,
68,
69,
65,
70,
63,
61,
78,
72,
50,
55,
51,
65,
50,
53,
65,
54,
55,
54,
54,
53,
48,
49,
45,
49,
64,
41,
50,
49,
42,
45,
38,
40,
48,
50,
58,
43,
40,
43,
45,
33,
38,
30,
36,
32,
49,
38,
36,
29,
29,
26,
37,
26,
37,
38,
31,
20,
35,
28,
30,
28,
28,
27,
20,
20,
20,
16,
26,
18,
18,
24,
23,
16,
22,
22,
21,
26,
16,
13,
15,
18,
15,
16,
19,
11,
12,
11,
14,
13,
10,
11,
13,
10,
18,
11,
7,
6,
6,
15,
16,
7,
5,
10,
7,
4,
8,
11,
8,
5,
7,
7,
6,
4,
6,
9,
5,
5,
3,
5,
5,
5,
2,
2,
2,
3,
2,
0,
3,
2,
3,
1,
1,
1,
0,
0,
0,
2,
1,
0,
0,
0,
0,
0,
0,
0,
0,
0,
2,
1,
0,
1,
0,
0,
0,
0,
0,
1,
1,
0,
0,
0,
0,
0,
0,
0,
0,
1,
0,
0,
0,
0,
1,
1,
1,
1,
0,
0,
0,
1,
0,
1,
1,
0,
0,
0,
0,
0,
0,
0,
0,
0,
1,
0,
0,
0,
1,
1,
0,
0,
0,
0,
0,
0,
0,
0,
0,
0,
0,
0,
0,
0,
0,
0,
0,
0,
1,
1,
0,
0,
0,
0,
0,
0,
0,
0,
0,
0,
0,
0,
1,
0,
0,
0,
0,
0,
0,
0,
0,
0,
0,
0,
0,
0,
0,
0,
0,
1,
0,
0,
1,
0,
0,
0,
0,
0,
0,
0,
0,
0,
1,
0,
0,
1,
0,
0,
0,
0,
0,
0,
1,
0,
0,
0,
0,
0,
0,
1,
0,
0,
0,
0,
0,
0,
0,
0,
0,
0,
0,
0,
0,
0,
1,
0,
0,
0,
0,
0,
0,
0,
0,
0,
0,
0,
0,
0,
0,
0,
0,
0,
0,
0,
0,
0,
0,
0,
0,
0,
0,
0,
0,
0,
0,
0,
0,
0,
0,
0,
0,
0,
0,
0,
0,
0,
0,
0,
0,
1,
0,
0,
0,
0,
0,
0,
0,
0,
0,
0,
0,
0,
0,
0,
0,
0,
0,
0,
0,
0,
0,
0,
0,
0,
0,
0,
0,
0,
0,
0,
0,
0,
0,
0,
0,
0,
0,
0,
0,
0,
0,
0,
0,
0,
0,
0,
0,
0,
0,
0,
0,
0,
0,
0,
0,
0,
0,
0,
0,
0,
0,
0,
0,
0,
0,
0,
0,
0,
0,
0,
0,
0,
0,
0,
0,
0,
0,
0,
0,
0,
0,
0,
0,
0,
0,
0,
0,
0,
0,
0,
0,
0,
0,
0,
0,
0,
0,
0,
0,
0,
0,
0,
0,
0,
0,
0,
0,
0,
0,
0,
0,
0,
0,
0,
0,
0,
0,
0,
0,
0,
0,
0,
0,
0,
0,
0,
0,
0,
0,
0,
0,
0,
0,
0,
0,
0,
0,
0,
0,
0,
0,
0,
0,
0,
0,
0,
0,
0,
0,
0,
0,
0,
0,
0,
0,
0,
0,
0,
0,
0,
0,
0,
0,
0,
0,
0,
0,
0,
0,
0,
0,
0,
0,
0,
0,
0,
0,
0,
0,
0,
0,
0,
0,
0,
0,
0,
0,
0,
0,
0,
0,
0,
0,
0,
0,
0,
0,
0,
0,
0,
0,
0,
0,
0,
0,
0,
0,
0,
0,
0,
0,
0,
0,
0,
0,
0,
0,
0,
0,
0,
0,
0,
0,
0,
0,
0,
0,
0,
0,
0,
0,
0,
0,
0,
0,
0,
0,
0,
0,
0,
0,
0,
0,
0,
0,
0,
0,
0,
0,
0,
0,
0,
0,
0,
0,
0,
0,
0,
0,
0,
0,
0,
0,
0,
0,
0,
0,
0,
0,
0,
0,
0,
0,
0,
0,
0,
0,
0,
0,
0,
0,
0,
0,
0,
0,
0,
0,
0,
0,
0,
0,
0,
0,
0,
0,
0,
0,
0,
0,
0,
0,
0,
0,
0,
0,
0,
0,
0,
0,
0,
0,
0,
0,
0,
0,
0,
0,
0,
0,
0,
0,
0,
0,
0,
0,
0,
0,
0,
0,
0,
0,
0,
0,
0,
0,
0,
0,
0,
0,
0,
0,
0,
0,
0,
0,
0,
0,
0,
0,
0,
0,
0,
0,
0,
0,
0,
0,
0,
0,
0,
0,
0,
0,
0,
0,
0,
0,
0,
0,
0,
0,
0,
0,
0,
0,
0,
0,
0,
0,
0,
0,
0,
0,
0,
0,
0,
0,
0,
0,
0,
0,
0,
0,
0,
0,
0,
0,
0,
0,
0,
0,
0,
0,
0,
0,
0,
0,
0,
0,
0,
0,
0,
0,
0,
0,
0,
0,
0,
0,
0,
0,
0,
0,
0,
0,
0,
0,
0,
0,
0,
0,
0,
0,
0,
0,
0,
0,
0,
0,
0,
0,
0,
0,
0,
0,
0,
0,
0,
0,
0,
0,
0,
0,
0,
0,
0,
0,
0,
0,
0,
0,
0,
0,
0,
0,
0,
0,
0,
0,
0,
0,
0,
0,
0,
0,
0,
0,
0,
0,
0,
0,
0,
0,
0,
0,
0,
0,
0,
0,
0,
0,
0,
0,
0,
#ENDOFDATA   :