File: N132962/Quantification/20 keV/MMM1/SPI MM1 Bustamite[3][4].msa
#FORMAT      : EMSA/MAS Spectral Data File
#VERSION     : 1.0
#TITLE       : SPI MM1 Bustamite[3][all]
#DATE        : 11-MAR-2025
#TIME        : 14:06
#OWNER       : Unknown
#NPOINTS     : 4096
#NCOLUMNS    : 1
#XUNITS      : eV
#YUNITS      : counts
#DATATYPE    : Y
#XPERCHAN    : 9.99778
#OFFSET      : 1.69135
#BEAMKV      : 20
#SIGNALTYPE  : EDS
#ELEVANGLE   : 35
#AZIMANGLE   : 0
#LIVETIME    : 239.8339
#REALTIME    : 255.663
#PROBECUR    : 1.02902
#TAUWIND     : 0
#TDEADLYR    : 0
#TACTLYR     : 0.045
#TALWIND     : 0.025
#CHOFFSET    : 0.0
#XLABEL      : Energy (eV)
#YLABEL      : Counts
#XPOSITION   : 2.64822
#YPOSITION   : -2.68444
#ZPOSITION   : 30.9284
#EDSDET      : SD
##SPECIMEN   : SPI MM1 Bustamite[3][all]
##D2STDCMP   : Bustamite,(O:38.8357),(Si:22.7243),(Ca:16.2141),(Mn:22.2259),6.0
##DET_HASH   : 12273538-fd48-a23f-0a19-f1e6fa85caef
##CALIB_HASH : 6abaa72c-aa41-8738-0be9-f592914732f3
##WORKING    : 15.0 mm
##DET_NAME   : EDAX All
##DET_MODE   : MediumLE
#SPECTRUM    :
21,
22,
13,
15,
81,
295,
943,
2958,
8327,
12023,
7561,
4054,
3236,
3255,
4838,
15525,
60053,
117787,
87499,
25584,
8928,
10493,
9282,
7423,
5828,
3472,
2343,
2233,
2325,
2494,
2518,
2567,
2927,
3300,
3523,
3448,
3327,
3232,
3482,
3443,
3889,
4392,
4622,
4377,
4080,
4093,
4369,
4402,
4752,
4891,
5007,
5215,
5294,
5371,
6366,
15378,
55962,
142189,
192865,
136507,
55825,
19579,
9592,
5536,
4169,
3965,
3651,
3310,
3227,
3207,
3205,
3175,
3252,
3368,
3511,
3624,
3550,
3472,
3300,
3412,
3272,
3198,
3313,
3226,
3149,
3309,
3205,
3203,
3035,
3204,
3085,
3037,
3091,
3100,
3066,
3097,
3049,
3076,
2922,
2908,
2935,
2965,
2862,
2919,
2960,
2970,
2848,
2808,
2857,
2840,
2730,
2803,
2729,
2716,
2756,
2893,
3110,
3226,
3712,
5329,
12053,
29020,
53387,
66716,
56139,
32296,
13568,
5225,
3026,
2791,
3197,
4319,
6651,
9391,
10305,
8358,
5353,
3448,
2572,
2348,
2307,
2171,
2065,
2057,
2043,
1978,
2041,
2000,
1965,
1985,
1916,
1901,
1977,
1977,
1851,
1901,
1971,
1918,
1890,
1929,
1879,
1830,
1783,
1777,
1731,
1680,
1781,
1716,
1739,
1713,
1734,
1739,
1680,
1686,
1697,
1706,
1670,
1676,
1686,
1663,
1664,
1710,
1743,
1658,
1615,
1572,
1622,
1569,
1654,
1617,
1824,
2252,
4025,
8402,
17726,
30421,
40188,
39669,
29959,
17181,
8115,
3436,
1945,
1488,
1414,
1448,
1421,
1514,
1684,
2430,
4125,
7465,
11140,
14300,
14593,
13081,
10615,
7556,
5131,
3248,
1997,
1462,
1193,
1164,
1137,
1087,
1076,
1141,
1186,
1131,
1200,
1311,
1612,
1928,
2288,
2389,
2272,
1938,
1478,
1259,
1029,
1057,
1024,
982,
998,
997,
1025,
1004,
1040,
939,
937,
987,
983,
943,
984,
995,
975,
910,
940,
932,
895,
924,
861,
862,
785,
895,
791,
875,
862,
808,
814,
869,
823,
817,
883,
831,
818,
791,
792,
804,
746,
736,
716,
792,
800,
841,
886,
920,
895,
905,
820,
785,
713,
748,
755,
755,
697,
687,
728,
715,
646,
685,
649,
655,
645,
641,
671,
625,
612,
601,
663,
603,
601,
586,
654,
579,
658,
609,
688,
639,
635,
655,
604,
577,
601,
551,
593,
606,
586,
548,
567,
536,
567,
524,
528,
526,
547,
505,
477,
534,
508,
501,
514,
513,
474,
511,
489,
477,
476,
460,
469,
436,
439,
474,
423,
459,
420,
473,
461,
432,
448,
435,
427,
424,
398,
442,
379,
450,
418,
383,
437,
427,
408,
377,
412,
416,
360,
409,
362,
403,
391,
390,
381,
325,
354,
367,
368,
331,
353,
331,
354,
325,
333,
352,
343,
348,
328,
322,
350,
339,
312,
305,
292,
304,
283,
290,
278,
313,
309,
313,
277,
289,
302,
265,
279,
287,
306,
265,
289,
234,
253,
236,
267,
244,
270,
259,
250,
244,
253,
250,
244,
263,
247,
225,
233,
231,
238,
223,
207,
206,
217,
211,
216,
257,
209,
199,
200,
204,
217,
203,
175,
207,
201,
185,
195,
179,
186,
172,
172,
181,
172,
196,
194,
194,
168,
170,
168,
165,
158,
150,
180,
153,
153,
148,
139,
130,
135,
132,
146,
154,
143,
137,
123,
134,
144,
135,
141,
122,
144,
131,
129,
139,
133,
134,
126,
126,
106,
110,
110,
124,
121,
108,
103,
110,
89,
112,
118,
84,
106,
90,
117,
110,
100,
115,
95,
94,
73,
86,
85,
104,
95,
99,
94,
91,
88,
97,
65,
68,
52,
67,
68,
78,
62,
73,
65,
79,
79,
67,
74,
70,
61,
65,
64,
62,
62,
72,
39,
69,
63,
58,
57,
39,
61,
61,
61,
61,
56,
59,
54,
49,
55,
47,
39,
41,
41,
48,
47,
49,
48,
51,
36,
39,
31,
41,
43,
39,
39,
25,
38,
43,
43,
32,
37,
42,
38,
29,
32,
31,
29,
24,
32,
33,
20,
24,
26,
34,
26,
25,
16,
21,
24,
17,
19,
19,
27,
24,
19,
25,
21,
23,
19,
13,
11,
18,
16,
10,
21,
10,
20,
10,
17,
13,
9,
11,
15,
9,
11,
8,
13,
17,
13,
16,
14,
12,
8,
12,
7,
7,
6,
7,
11,
6,
8,
8,
4,
8,
6,
8,
5,
8,
3,
5,
4,
3,
2,
5,
7,
8,
1,
5,
0,
4,
0,
0,
0,
2,
1,
0,
0,
0,
0,
1,
0,
0,
1,
0,
0,
0,
0,
1,
0,
0,
0,
2,
0,
0,
0,
0,
0,
0,
0,
0,
1,
0,
0,
1,
1,
0,
1,
0,
0,
0,
0,
0,
1,
1,
0,
0,
0,
0,
1,
0,
0,
0,
0,
0,
0,
0,
1,
1,
0,
0,
0,
0,
0,
0,
0,
0,
0,
0,
0,
0,
0,
0,
0,
0,
0,
0,
0,
0,
0,
0,
0,
0,
0,
1,
0,
0,
0,
0,
0,
0,
0,
0,
0,
0,
0,
0,
0,
0,
0,
1,
0,
0,
0,
0,
0,
0,
0,
1,
0,
0,
0,
0,
0,
0,
0,
0,
0,
0,
0,
0,
0,
1,
0,
0,
0,
0,
0,
0,
0,
0,
0,
0,
0,
0,
0,
0,
0,
0,
0,
0,
0,
0,
0,
0,
0,
0,
0,
0,
0,
0,
0,
1,
0,
0,
0,
0,
0,
0,
0,
0,
0,
0,
1,
0,
0,
0,
0,
0,
0,
0,
0,
0,
0,
0,
0,
0,
0,
0,
0,
1,
0,
0,
0,
0,
0,
0,
0,
0,
0,
0,
0,
0,
0,
0,
0,
0,
0,
0,
0,
0,
0,
0,
0,
0,
0,
0,
0,
0,
0,
0,
0,
0,
0,
0,
0,
0,
0,
0,
0,
0,
0,
0,
0,
0,
0,
0,
0,
0,
0,
0,
0,
0,
0,
0,
0,
0,
0,
0,
0,
0,
0,
1,
0,
0,
0,
0,
0,
0,
0,
0,
0,
0,
0,
0,
0,
0,
0,
0,
0,
0,
0,
0,
0,
0,
0,
0,
0,
0,
0,
0,
0,
0,
0,
0,
0,
0,
0,
0,
0,
0,
0,
0,
0,
0,
0,
0,
0,
0,
0,
0,
0,
0,
0,
0,
0,
0,
0,
0,
0,
0,
0,
0,
0,
0,
0,
0,
0,
0,
0,
0,
1,
0,
0,
0,
0,
0,
0,
0,
1,
0,
0,
0,
0,
0,
0,
0,
0,
0,
0,
0,
0,
0,
0,
0,
0,
0,
0,
0,
0,
0,
0,
0,
0,
0,
0,
0,
0,
0,
0,
0,
0,
0,
0,
0,
0,
0,
0,
0,
0,
0,
0,
0,
0,
0,
0,
0,
0,
0,
0,
0,
0,
0,
0,
0,
0,
0,
0,
0,
0,
0,
0,
0,
0,
0,
0,
0,
0,
0,
0,
0,
0,
0,
0,
0,
0,
0,
0,
0,
0,
0,
0,
0,
0,
0,
0,
0,
0,
0,
0,
0,
0,
0,
0,
0,
0,
0,
0,
0,
0,
0,
0,
0,
0,
0,
0,
0,
0,
0,
0,
0,
0,
0,
0,
0,
0,
0,
0,
0,
0,
0,
0,
0,
0,
0,
0,
0,
0,
0,
0,
0,
0,
0,
0,
0,
0,
0,
0,
0,
0,
0,
0,
0,
0,
0,
0,
0,
0,
0,
0,
0,
0,
0,
0,
0,
0,
0,
0,
0,
0,
0,
0,
0,
0,
0,
0,
0,
0,
0,
0,
0,
0,
0,
0,
0,
0,
0,
0,
0,
0,
0,
0,
0,
0,
0,
0,
0,
0,
0,
0,
0,
0,
0,
0,
0,
0,
0,
0,
0,
0,
0,
0,
0,
0,
0,
0,
0,
0,
0,
0,
0,
0,
0,
0,
0,
0,
0,
0,
0,
0,
0,
0,
0,
0,
0,
0,
0,
0,
0,
0,
0,
0,
0,
0,
0,
0,
0,
0,
0,
0,
0,
0,
0,
0,
0,
0,
0,
0,
0,
0,
0,
0,
0,
0,
0,
0,
0,
0,
0,
0,
0,
0,
0,
0,
0,
0,
0,
0,
0,
0,
0,
0,
0,
0,
0,
0,
0,
0,
0,
0,
0,
0,
0,
0,
0,
0,
0,
0,
0,
0,
0,
0,
0,
0,
0,
0,
0,
0,
0,
0,
0,
0,
0,
0,
0,
0,
0,
0,
0,
0,
0,
0,
0,
0,
0,
0,
0,
0,
0,
0,
0,
0,
0,
0,
0,
0,
0,
0,
0,
0,
0,
0,
0,
0,
0,
0,
0,
0,
0,
0,
0,
0,
0,
0,
0,
0,
0,
0,
0,
0,
0,
0,
0,
0,
0,
0,
0,
0,
0,
0,
0,
0,
0,
0,
0,
0,
0,
0,
0,
0,
0,
0,
0,
0,
0,
0,
0,
0,
0,
0,
0,
0,
0,
0,
0,
#ENDOFDATA   :