File: N132962/Quantification/20 keV/MMM1/SPI MM1 Barite[4][4].msa
#FORMAT      : EMSA/MAS Spectral Data File
#VERSION     : 1.0
#TITLE       : SPI MM1 Barite[4][all]
#DATE        : 11-MAR-2025
#TIME        : 13:30
#OWNER       : Unknown
#NPOINTS     : 4096
#NCOLUMNS    : 1
#XUNITS      : eV
#YUNITS      : counts
#DATATYPE    : Y
#XPERCHAN    : 9.99778
#OFFSET      : 1.69135
#BEAMKV      : 20
#SIGNALTYPE  : EDS
#ELEVANGLE   : 35
#AZIMANGLE   : 0
#LIVETIME    : 239.962
#REALTIME    : 259.014
#PROBECUR    : 1.02853
#TAUWIND     : 0
#TDEADLYR    : 0
#TACTLYR     : 0.045
#TALWIND     : 0.025
#CHOFFSET    : 0.0
#XLABEL      : Energy (eV)
#YLABEL      : Counts
#XPOSITION   : -0.37549
#YPOSITION   : -4.97811
#ZPOSITION   : 30.9284
#EDSDET      : SD
##SPECIMEN   : SPI MM1 Barite[4][all]
##DET_HASH   : 12273538-fd48-a23f-0a19-f1e6fa85caef
##CALIB_HASH : 6abaa72c-aa41-8738-0be9-f592914732f3
##WORKING    : 15.0 mm
##DET_NAME   : EDAX All
##DET_MODE   : MediumLE
#SPECTRUM    :
19,
29,
13,
51,
424,
1356,
2447,
5122,
12134,
15640,
8827,
5152,
5091,
5989,
8126,
21213,
72636,
138141,
104836,
38291,
16515,
9287,
5999,
5667,
7040,
9615,
10552,
7958,
5308,
4204,
3980,
4546,
5845,
5888,
5681,
5630,
4932,
4353,
4222,
4167,
4230,
4335,
4307,
4385,
4551,
4618,
4753,
4732,
4920,
5077,
5158,
5140,
5344,
5231,
5429,
5473,
5817,
6050,
6459,
6424,
6549,
6267,
5906,
5629,
5482,
5496,
5779,
5633,
5836,
5674,
5575,
5891,
6738,
8827,
15985,
37481,
73909,
92601,
69898,
33308,
13905,
10520,
10769,
9189,
7156,
5603,
5071,
5074,
5102,
5304,
5443,
5557,
5414,
5074,
5129,
4951,
4854,
4849,
5025,
4789,
4760,
4924,
5081,
4969,
4933,
4902,
4717,
4745,
4647,
4700,
4673,
4744,
4645,
4625,
4511,
4645,
4615,
4444,
4592,
4384,
4431,
4413,
4414,
4369,
4341,
4458,
4392,
4362,
4495,
4965,
5804,
6867,
7233,
6655,
5595,
4859,
4327,
4176,
4147,
4136,
4238,
4324,
4699,
5320,
6942,
11332,
24113,
48354,
75973,
85722,
69815,
41060,
18666,
8434,
5092,
4470,
4802,
6484,
12098,
23168,
36166,
43110,
39668,
29510,
19866,
13505,
9529,
7073,
6108,
7490,
10896,
14887,
16619,
14675,
10380,
6500,
4149,
3466,
3264,
3269,
3396,
3825,
5077,
6650,
7736,
7608,
6234,
4490,
3450,
3082,
3209,
3757,
4358,
4681,
4479,
3892,
3397,
2993,
2911,
2808,
2764,
2558,
2425,
2364,
2361,
2307,
2333,
2320,
2326,
2401,
2302,
2426,
2587,
2636,
2525,
2438,
2262,
2135,
2254,
2187,
2151,
2286,
2216,
2308,
2135,
2230,
2233,
2157,
2162,
2075,
2090,
2165,
2071,
2061,
2105,
2092,
2053,
2070,
1981,
2099,
1985,
2049,
2023,
2069,
2039,
1968,
1944,
2085,
2062,
2172,
2107,
2095,
1993,
1905,
1888,
1877,
1841,
1823,
1846,
1925,
1789,
1766,
1894,
1820,
1798,
1770,
1810,
1747,
1759,
1723,
1646,
1668,
1674,
1711,
1697,
1769,
1735,
1696,
1583,
1669,
1672,
1658,
1566,
1640,
1615,
1578,
1656,
1543,
1598,
1570,
1552,
1593,
1491,
1506,
1474,
1569,
1517,
1521,
1544,
1508,
1497,
1489,
1463,
1442,
1381,
1404,
1427,
1450,
1420,
1462,
1412,
1341,
1313,
1436,
1439,
1358,
1295,
1317,
1370,
1311,
1361,
1311,
1342,
1310,
1297,
1347,
1266,
1249,
1240,
1268,
1168,
1175,
1221,
1186,
1269,
1171,
1228,
1157,
1202,
1180,
1153,
1156,
1203,
1092,
1151,
1132,
1096,
1097,
1135,
1069,
1084,
1134,
1051,
1063,
1061,
1048,
1023,
1017,
1027,
1032,
977,
996,
1049,
1007,
981,
943,
982,
917,
936,
1000,
930,
950,
895,
948,
920,
932,
942,
899,
856,
909,
881,
843,
836,
858,
894,
914,
860,
878,
861,
847,
821,
753,
766,
798,
778,
802,
774,
771,
793,
802,
765,
758,
710,
715,
691,
667,
744,
688,
675,
747,
661,
696,
673,
713,
684,
670,
703,
654,
661,
657,
660,
623,
615,
643,
649,
627,
577,
553,
585,
571,
599,
600,
593,
583,
561,
577,
580,
530,
526,
578,
508,
542,
502,
548,
471,
537,
481,
508,
516,
479,
493,
528,
498,
457,
471,
440,
416,
454,
440,
439,
501,
446,
461,
440,
447,
426,
416,
477,
425,
405,
401,
391,
443,
377,
401,
388,
351,
386,
336,
387,
346,
360,
374,
345,
349,
354,
377,
301,
328,
338,
347,
343,
318,
317,
316,
297,
306,
324,
299,
286,
285,
304,
290,
290,
291,
308,
277,
261,
237,
293,
287,
261,
253,
259,
219,
241,
217,
261,
215,
245,
240,
232,
235,
220,
221,
233,
230,
230,
213,
198,
190,
188,
204,
199,
189,
204,
192,
185,
187,
187,
182,
163,
206,
192,
151,
178,
164,
164,
142,
152,
146,
156,
173,
149,
134,
167,
146,
156,
152,
150,
137,
153,
138,
122,
131,
133,
131,
114,
125,
108,
118,
106,
137,
106,
107,
111,
128,
105,
109,
102,
84,
108,
94,
77,
108,
74,
76,
80,
84,
96,
57,
85,
89,
83,
76,
75,
66,
70,
65,
57,
62,
69,
84,
53,
76,
54,
70,
60,
53,
67,
77,
61,
69,
37,
48,
56,
56,
47,
50,
48,
46,
49,
35,
50,
43,
52,
32,
39,
49,
34,
38,
28,
33,
25,
35,
40,
26,
31,
19,
29,
17,
22,
18,
16,
28,
22,
19,
20,
17,
24,
13,
14,
17,
19,
12,
8,
7,
7,
3,
7,
6,
5,
13,
1,
4,
5,
5,
1,
3,
1,
3,
1,
1,
1,
2,
2,
0,
1,
2,
3,
1,
2,
2,
1,
2,
1,
2,
2,
0,
2,
0,
1,
2,
1,
0,
2,
1,
3,
0,
1,
0,
1,
0,
2,
2,
0,
1,
1,
2,
1,
1,
0,
1,
1,
1,
2,
3,
0,
1,
0,
1,
1,
1,
1,
1,
0,
0,
0,
0,
0,
0,
0,
0,
1,
0,
2,
0,
2,
0,
1,
2,
0,
0,
0,
0,
2,
1,
0,
1,
1,
0,
1,
0,
0,
0,
1,
4,
1,
0,
0,
0,
2,
0,
3,
1,
0,
0,
2,
1,
0,
0,
1,
0,
0,
0,
2,
1,
1,
1,
0,
0,
0,
2,
2,
0,
2,
0,
0,
0,
0,
0,
1,
0,
1,
0,
2,
1,
2,
0,
1,
0,
0,
0,
0,
0,
1,
0,
1,
0,
0,
0,
0,
0,
0,
0,
0,
0,
1,
0,
0,
1,
1,
0,
0,
0,
0,
0,
0,
0,
0,
1,
0,
1,
0,
0,
0,
1,
0,
1,
0,
0,
0,
1,
0,
0,
0,
0,
0,
0,
0,
1,
0,
0,
0,
0,
0,
1,
0,
1,
0,
0,
0,
0,
0,
0,
0,
0,
0,
0,
0,
1,
0,
0,
0,
0,
0,
0,
1,
0,
1,
1,
0,
0,
0,
0,
0,
0,
0,
0,
0,
0,
0,
1,
0,
0,
0,
0,
0,
1,
0,
0,
0,
0,
2,
0,
0,
0,
0,
0,
0,
0,
0,
0,
0,
0,
0,
0,
0,
0,
0,
0,
0,
0,
0,
0,
0,
0,
0,
1,
0,
0,
0,
0,
0,
0,
0,
0,
0,
0,
0,
0,
0,
0,
0,
0,
1,
0,
0,
0,
0,
0,
0,
0,
0,
0,
0,
0,
0,
0,
0,
0,
0,
0,
0,
0,
0,
0,
0,
0,
0,
0,
0,
0,
0,
0,
0,
0,
0,
0,
0,
0,
0,
0,
0,
0,
0,
1,
0,
0,
0,
0,
0,
0,
0,
0,
0,
0,
0,
0,
0,
0,
0,
0,
0,
0,
0,
0,
0,
0,
0,
0,
0,
0,
0,
0,
0,
0,
0,
0,
0,
0,
0,
0,
0,
0,
0,
0,
0,
0,
0,
0,
0,
0,
0,
0,
0,
0,
0,
0,
0,
0,
0,
0,
0,
0,
0,
0,
0,
0,
0,
0,
0,
0,
0,
0,
0,
0,
0,
0,
0,
0,
0,
0,
0,
0,
0,
0,
0,
0,
0,
0,
0,
0,
0,
0,
0,
0,
0,
0,
0,
0,
0,
0,
0,
0,
0,
0,
0,
0,
0,
0,
0,
0,
0,
0,
0,
0,
0,
0,
0,
0,
0,
0,
0,
0,
0,
0,
0,
0,
0,
0,
0,
0,
0,
0,
0,
0,
0,
0,
0,
0,
0,
0,
0,
0,
0,
0,
0,
0,
0,
0,
0,
0,
0,
0,
0,
0,
0,
0,
0,
0,
0,
0,
0,
0,
0,
0,
0,
0,
0,
0,
0,
0,
0,
0,
0,
0,
0,
0,
0,
0,
0,
0,
0,
0,
0,
0,
0,
0,
0,
0,
0,
0,
0,
0,
0,
0,
0,
0,
0,
0,
0,
0,
0,
0,
0,
0,
0,
0,
0,
0,
0,
0,
0,
0,
0,
0,
0,
0,
0,
0,
0,
0,
0,
0,
0,
0,
0,
0,
0,
0,
0,
0,
0,
0,
0,
0,
0,
0,
0,
0,
0,
0,
0,
0,
0,
0,
0,
0,
0,
0,
0,
0,
0,
0,
0,
0,
0,
0,
0,
0,
0,
0,
0,
0,
0,
0,
0,
0,
0,
0,
0,
0,
0,
0,
0,
0,
0,
0,
0,
0,
0,
0,
0,
0,
0,
0,
0,
0,
0,
0,
0,
0,
0,
0,
0,
0,
0,
0,
0,
0,
0,
0,
0,
0,
0,
0,
0,
0,
0,
0,
0,
0,
0,
0,
0,
0,
0,
0,
0,
0,
0,
0,
0,
0,
0,
0,
0,
0,
0,
0,
0,
0,
0,
0,
0,
0,
0,
0,
0,
0,
0,
0,
0,
0,
0,
0,
0,
0,
0,
0,
0,
0,
0,
0,
0,
0,
0,
0,
0,
0,
0,
0,
0,
0,
0,
0,
0,
0,
0,
0,
0,
0,
0,
0,
0,
0,
0,
0,
0,
0,
0,
0,
0,
0,
0,
#ENDOFDATA   :