File: N132962/Quantification/20 keV/MMM1/SPI MM1 Arsenopyrite[2][4].msa
#FORMAT      : EMSA/MAS Spectral Data File
#VERSION     : 1.0
#TITLE       : SPI MM1 Arsenopyrite[2][all]
#DATE        : 11-MAR-2025
#TIME        : 13:37
#OWNER       : Unknown
#NPOINTS     : 4096
#NCOLUMNS    : 1
#XUNITS      : eV
#YUNITS      : counts
#DATATYPE    : Y
#XPERCHAN    : 9.99778
#OFFSET      : 1.69135
#BEAMKV      : 20
#SIGNALTYPE  : EDS
#ELEVANGLE   : 35
#AZIMANGLE   : 0
#LIVETIME    : 239.8424
#REALTIME    : 260.782
#PROBECUR    : 1.02853
#TAUWIND     : 0
#TDEADLYR    : 0
#TACTLYR     : 0.045
#TALWIND     : 0.025
#CHOFFSET    : 0.0
#XLABEL      : Energy (eV)
#YLABEL      : Counts
#XPOSITION   : 2.19181
#YPOSITION   : -5.04083
#ZPOSITION   : 30.9284
#EDSDET      : SD
##SPECIMEN   : SPI MM1 Arsenopyrite[2][all]
##D2STDCMP   : Arsenopyrite,(S:19.6897),(Fe:34.2972),(As:46.0131),6.0
##DET_HASH   : 12273538-fd48-a23f-0a19-f1e6fa85caef
##CALIB_HASH : 6abaa72c-aa41-8738-0be9-f592914732f3
##WORKING    : 15.0 mm
##DET_NAME   : EDAX All
##DET_MODE   : MediumLE
#SPECTRUM    :
19,
28,
7,
23,
162,
532,
1213,
3527,
9990,
13166,
6735,
3045,
2815,
3071,
3329,
3874,
4932,
6297,
8636,
12944,
17326,
19778,
32511,
56138,
47221,
18544,
7087,
5039,
4990,
4889,
4875,
5068,
5198,
5495,
5884,
6903,
9934,
13807,
14422,
12727,
18797,
58593,
143901,
194305,
145842,
64455,
20544,
7992,
5236,
4427,
4432,
4298,
4139,
4285,
4325,
4364,
4575,
4989,
5319,
5148,
4988,
4900,
4605,
4538,
4578,
4618,
4858,
4864,
4955,
4904,
5069,
5410,
6206,
8974,
18235,
45595,
92006,
113881,
83443,
37616,
15199,
11564,
12810,
11159,
7727,
5514,
4683,
4341,
4326,
4321,
4154,
4190,
4279,
4274,
4336,
4152,
4274,
4177,
4255,
4203,
4287,
4319,
4209,
4045,
4243,
4190,
4156,
4160,
4116,
4081,
4098,
4037,
4097,
4057,
4005,
4070,
4093,
4127,
4021,
4164,
4097,
4195,
4137,
4056,
3872,
3882,
3848,
3864,
3867,
3885,
3865,
3766,
3741,
3797,
3780,
3823,
3692,
3753,
3663,
3593,
3656,
3599,
3578,
3590,
3613,
3536,
3565,
3493,
3475,
3477,
3495,
3468,
3467,
3600,
3544,
3756,
3630,
3522,
3332,
3299,
3304,
3230,
3287,
3127,
3181,
3255,
3122,
3130,
3081,
3019,
3055,
2995,
3145,
3140,
3032,
3006,
3073,
3089,
2948,
2977,
2977,
2877,
2900,
2780,
2943,
2766,
2713,
2699,
2718,
2776,
2699,
2715,
2723,
2665,
2607,
2662,
2638,
2584,
2711,
2575,
2759,
2580,
2570,
2482,
2701,
2669,
2810,
3098,
4511,
9077,
19809,
38488,
60394,
74372,
69702,
50330,
28380,
13422,
5872,
3180,
2454,
2366,
2284,
2286,
2199,
2229,
2336,
2313,
2328,
2459,
2813,
3535,
5132,
7837,
10191,
11522,
10539,
7742,
5290,
3367,
2488,
1984,
1939,
1770,
1767,
1769,
1838,
1919,
1870,
1960,
1876,
1853,
1781,
1813,
1861,
1876,
1841,
1842,
1734,
1698,
1639,
1732,
1652,
1584,
1647,
1618,
1574,
1619,
1535,
1563,
1567,
1512,
1498,
1617,
1572,
1528,
1553,
1577,
1554,
1504,
1501,
1471,
1485,
1476,
1359,
1448,
1402,
1413,
1449,
1435,
1468,
1513,
1418,
1454,
1425,
1376,
1355,
1350,
1269,
1264,
1258,
1303,
1271,
1299,
1262,
1236,
1204,
1283,
1262,
1284,
1215,
1235,
1261,
1207,
1223,
1234,
1209,
1241,
1198,
1159,
1164,
1136,
1146,
1130,
1162,
1143,
1193,
1104,
1123,
993,
1115,
1111,
1111,
1084,
1023,
1053,
1137,
1048,
1053,
1019,
1066,
1093,
1044,
1197,
1483,
2152,
3597,
6368,
9894,
14359,
17434,
18301,
16393,
12470,
8182,
4939,
2779,
1588,
1166,
986,
902,
937,
844,
861,
883,
821,
910,
821,
806,
817,
861,
796,
868,
819,
860,
821,
804,
799,
785,
824,
824,
782,
797,
855,
854,
1013,
1279,
1681,
2196,
2728,
3093,
3041,
2666,
2169,
1709,
1249,
1018,
867,
714,
623,
630,
642,
613,
587,
575,
590,
582,
583,
570,
574,
594,
580,
551,
541,
595,
547,
553,
550,
503,
548,
536,
504,
556,
539,
547,
516,
596,
534,
544,
547,
511,
540,
454,
494,
481,
467,
431,
429,
438,
447,
454,
435,
442,
426,
428,
454,
470,
430,
430,
408,
388,
395,
406,
388,
377,
380,
375,
391,
384,
390,
408,
388,
331,
363,
367,
333,
361,
335,
371,
366,
315,
327,
342,
359,
329,
352,
329,
300,
301,
311,
309,
291,
322,
299,
279,
291,
320,
276,
260,
267,
267,
281,
260,
273,
273,
260,
238,
222,
225,
244,
261,
267,
217,
237,
235,
212,
220,
238,
204,
220,
194,
193,
217,
219,
214,
187,
222,
194,
201,
203,
194,
180,
180,
172,
190,
180,
181,
173,
173,
208,
150,
157,
172,
167,
170,
137,
201,
153,
154,
144,
146,
144,
147,
146,
146,
133,
149,
143,
119,
138,
132,
129,
128,
127,
125,
121,
111,
113,
127,
129,
103,
137,
135,
113,
133,
136,
125,
128,
99,
115,
105,
103,
97,
87,
95,
96,
81,
96,
85,
93,
85,
101,
88,
91,
82,
61,
90,
75,
65,
70,
83,
88,
63,
63,
60,
94,
81,
64,
60,
69,
56,
54,
62,
51,
63,
49,
56,
59,
48,
60,
45,
48,
47,
39,
46,
39,
46,
48,
31,
38,
29,
35,
31,
38,
26,
38,
28,
25,
33,
26,
29,
24,
26,
28,
23,
28,
28,
24,
34,
24,
23,
15,
26,
12,
20,
13,
13,
12,
16,
17,
12,
10,
11,
7,
8,
10,
10,
9,
7,
8,
9,
8,
2,
5,
4,
5,
6,
3,
5,
0,
3,
0,
0,
0,
3,
5,
0,
0,
1,
3,
4,
0,
1,
0,
4,
1,
5,
1,
2,
5,
3,
0,
1,
1,
2,
0,
5,
3,
3,
3,
3,
5,
4,
4,
1,
6,
2,
1,
3,
2,
1,
0,
1,
2,
1,
1,
3,
1,
1,
1,
3,
2,
2,
2,
1,
1,
3,
4,
3,
2,
1,
0,
2,
1,
0,
0,
1,
2,
1,
2,
2,
0,
2,
2,
0,
1,
0,
3,
2,
0,
1,
1,
1,
0,
3,
0,
0,
0,
0,
2,
1,
2,
1,
1,
0,
1,
2,
0,
1,
1,
0,
0,
0,
0,
0,
0,
0,
3,
1,
1,
1,
1,
2,
0,
0,
0,
0,
0,
0,
2,
0,
1,
1,
0,
1,
0,
0,
0,
1,
1,
0,
2,
2,
1,
0,
1,
1,
1,
0,
1,
0,
0,
1,
0,
0,
0,
0,
0,
0,
0,
1,
0,
0,
0,
0,
1,
0,
0,
0,
0,
0,
0,
1,
0,
1,
1,
1,
1,
0,
1,
0,
0,
1,
0,
2,
0,
0,
0,
0,
1,
0,
0,
0,
0,
0,
1,
0,
0,
0,
0,
0,
0,
0,
0,
0,
0,
0,
0,
0,
0,
0,
0,
1,
0,
0,
0,
1,
0,
1,
0,
0,
0,
0,
0,
0,
0,
0,
0,
0,
0,
0,
0,
0,
2,
0,
0,
0,
0,
1,
0,
0,
0,
0,
0,
0,
0,
0,
0,
0,
0,
0,
0,
0,
0,
0,
0,
0,
0,
0,
0,
0,
0,
0,
0,
0,
0,
0,
0,
0,
0,
0,
0,
0,
0,
0,
0,
0,
0,
0,
0,
0,
0,
0,
0,
0,
0,
0,
0,
0,
0,
0,
0,
0,
0,
0,
0,
0,
0,
0,
0,
0,
0,
0,
0,
0,
0,
0,
0,
0,
0,
0,
0,
0,
0,
0,
0,
0,
0,
0,
0,
0,
1,
0,
0,
0,
0,
0,
0,
0,
0,
0,
0,
0,
1,
0,
0,
0,
0,
0,
0,
0,
0,
1,
0,
0,
0,
0,
0,
0,
0,
0,
0,
0,
0,
0,
0,
1,
0,
0,
0,
0,
0,
0,
0,
0,
0,
0,
0,
0,
0,
0,
0,
0,
0,
0,
0,
0,
0,
0,
0,
0,
0,
0,
0,
0,
0,
0,
0,
0,
0,
0,
0,
0,
0,
0,
0,
0,
0,
0,
0,
0,
0,
0,
0,
0,
0,
0,
0,
0,
0,
0,
0,
0,
0,
0,
0,
0,
0,
0,
0,
0,
0,
0,
0,
0,
0,
0,
0,
0,
0,
0,
0,
0,
0,
0,
0,
0,
0,
0,
0,
0,
0,
0,
0,
0,
0,
0,
0,
0,
0,
0,
0,
0,
0,
0,
0,
0,
0,
0,
0,
0,
0,
0,
0,
0,
0,
0,
0,
0,
0,
0,
0,
0,
0,
0,
0,
0,
0,
0,
0,
0,
0,
0,
0,
0,
0,
0,
0,
0,
0,
0,
0,
0,
0,
0,
0,
0,
0,
0,
0,
0,
0,
0,
0,
0,
0,
0,
0,
0,
0,
0,
0,
0,
0,
0,
0,
0,
0,
0,
0,
0,
0,
0,
0,
0,
0,
0,
0,
0,
0,
0,
0,
0,
0,
0,
0,
0,
0,
0,
0,
0,
0,
0,
0,
0,
0,
0,
0,
0,
0,
0,
0,
0,
0,
0,
0,
0,
0,
0,
0,
0,
0,
0,
0,
0,
0,
0,
0,
0,
0,
0,
0,
0,
0,
0,
0,
0,
0,
0,
0,
0,
0,
0,
0,
0,
0,
0,
0,
0,
0,
0,
0,
0,
0,
0,
0,
0,
0,
0,
0,
0,
0,
0,
0,
0,
0,
0,
0,
0,
0,
0,
0,
0,
0,
0,
0,
0,
0,
0,
0,
0,
0,
0,
0,
0,
0,
0,
0,
0,
0,
0,
0,
0,
0,
0,
0,
0,
0,
0,
0,
0,
0,
0,
0,
0,
0,
0,
0,
0,
0,
0,
0,
0,
0,
0,
0,
0,
0,
0,
0,
0,
0,
0,
0,
0,
0,
0,
0,
0,
0,
0,
0,
0,
0,
0,
0,
0,
0,
0,
0,
0,
0,
0,
0,
0,
0,
0,
0,
0,
0,
0,
0,
0,
0,
0,
0,
0,
0,
0,
0,
0,
0,
0,
0,
0,
0,
#ENDOFDATA   :