File: N132962/Quantification/20 keV/MMM1/SPI MM1 Dolomite[2][4].msa
#FORMAT      : EMSA/MAS Spectral Data File
#VERSION     : 1.0
#TITLE       : SPI MM1dup Dolomite[2][all]
#DATE        : 12-MAR-2025
#TIME        : 15:47
#OWNER       : Unknown
#NPOINTS     : 4096
#NCOLUMNS    : 1
#XUNITS      : eV
#YUNITS      : counts
#DATATYPE    : Y
#XPERCHAN    : 9.99778
#OFFSET      : 1.69135
#BEAMKV      : 20
#SIGNALTYPE  : EDS
#ELEVANGLE   : 35
#AZIMANGLE   : 0
#LIVETIME    : 239.862
#REALTIME    : 250.732
#PROBECUR    : 1.02695
#TAUWIND     : 0
#TDEADLYR    : 0
#TACTLYR     : 0.045
#TALWIND     : 0.025
#CHOFFSET    : 0.0
#XLABEL      : Energy (eV)
#YLABEL      : Counts
#XPOSITION   : -0.17938
#YPOSITION   : 2.012
#ZPOSITION   : 31.03608
#EDSDET      : SD
##SPECIMEN   : SPI MM1dup Dolomite[2][all]
##DET_HASH   : 12273538-fd48-a23f-0a19-f1e6fa85caef
##CALIB_HASH : 6abaa72c-aa41-8738-0be9-f592914732f3
##WORKING    : 15.0 mm
##DET_NAME   : EDAX All
##DET_MODE   : MediumLE
#SPECTRUM    :
25,
24,
15,
16,
75,
360,
1359,
6262,
21194,
29987,
15228,
4939,
2583,
2344,
3707,
13271,
53764,
104839,
77178,
20460,
2884,
1294,
1385,
1543,
1680,
1617,
1734,
1869,
2073,
2165,
2182,
2332,
2384,
2573,
2732,
3053,
3170,
3329,
4135,
8321,
29062,
71756,
86595,
49786,
14864,
4542,
2991,
2901,
2947,
3089,
3049,
3057,
2980,
3062,
3083,
3131,
3227,
3536,
3838,
3774,
3626,
3401,
3263,
3387,
3713,
3962,
3652,
3068,
2956,
2958,
2878,
2826,
2818,
2756,
2867,
2927,
3007,
2863,
2876,
2762,
2726,
2611,
2670,
2631,
2542,
2799,
2558,
2511,
2547,
2510,
2533,
2578,
2492,
2437,
2425,
2454,
2353,
2315,
2370,
2281,
2297,
2366,
2244,
2249,
2316,
2231,
2229,
2320,
2184,
2202,
2122,
2112,
2140,
2067,
2078,
2092,
2228,
2684,
3402,
6228,
17022,
43135,
80466,
102235,
85979,
48420,
19143,
6153,
2865,
2431,
2932,
4845,
8400,
12448,
13792,
10997,
6528,
3354,
1938,
1576,
1564,
1458,
1461,
1365,
1410,
1242,
1341,
1384,
1301,
1290,
1331,
1283,
1258,
1295,
1270,
1240,
1273,
1285,
1238,
1229,
1177,
1324,
1247,
1229,
1249,
1312,
1182,
1224,
1210,
1210,
1157,
1214,
1160,
1136,
1085,
1091,
1148,
1062,
1091,
1077,
1044,
1109,
993,
1038,
1026,
996,
998,
1045,
1012,
996,
1010,
992,
977,
1024,
1010,
945,
1022,
1000,
967,
942,
936,
889,
880,
918,
922,
851,
907,
842,
876,
894,
875,
946,
1058,
1089,
1115,
983,
900,
893,
804,
779,
798,
781,
784,
796,
752,
811,
773,
726,
713,
717,
737,
744,
725,
745,
747,
758,
741,
732,
729,
712,
675,
742,
696,
695,
708,
720,
678,
731,
688,
679,
686,
719,
642,
665,
625,
642,
646,
634,
612,
610,
665,
590,
578,
579,
601,
583,
560,
578,
551,
561,
534,
532,
534,
540,
532,
549,
538,
527,
539,
509,
518,
499,
489,
503,
477,
547,
483,
486,
495,
519,
472,
503,
506,
467,
455,
438,
462,
412,
481,
452,
437,
424,
409,
396,
407,
430,
431,
446,
391,
381,
428,
382,
410,
418,
403,
412,
398,
406,
397,
419,
354,
387,
419,
366,
350,
396,
384,
360,
347,
349,
366,
307,
351,
323,
351,
351,
308,
341,
349,
365,
329,
322,
326,
287,
307,
345,
325,
301,
323,
291,
268,
312,
304,
294,
274,
288,
292,
298,
267,
303,
215,
294,
261,
254,
279,
266,
280,
254,
272,
254,
284,
242,
259,
258,
260,
233,
258,
235,
240,
239,
206,
248,
215,
222,
247,
220,
194,
211,
219,
203,
198,
218,
191,
219,
216,
178,
204,
233,
208,
212,
185,
206,
189,
201,
205,
200,
168,
190,
182,
181,
185,
173,
191,
176,
148,
152,
151,
152,
159,
167,
150,
151,
169,
154,
164,
165,
131,
165,
172,
155,
146,
130,
131,
131,
136,
150,
141,
134,
121,
120,
130,
133,
131,
134,
133,
113,
126,
121,
123,
104,
130,
89,
122,
118,
116,
120,
87,
113,
105,
99,
98,
96,
84,
111,
111,
105,
102,
97,
91,
75,
87,
88,
101,
100,
86,
82,
80,
99,
68,
99,
96,
86,
76,
67,
83,
68,
69,
80,
82,
63,
70,
71,
63,
71,
70,
65,
60,
59,
61,
58,
48,
68,
76,
61,
61,
63,
67,
54,
51,
66,
50,
48,
54,
59,
60,
54,
43,
49,
54,
49,
50,
51,
54,
50,
31,
57,
36,
43,
39,
34,
47,
43,
39,
40,
31,
33,
49,
38,
27,
40,
44,
30,
30,
39,
26,
41,
32,
35,
39,
29,
37,
27,
31,
30,
25,
28,
25,
24,
27,
29,
34,
31,
29,
31,
20,
30,
29,
30,
23,
23,
28,
22,
27,
15,
19,
20,
21,
19,
13,
18,
16,
22,
25,
16,
23,
10,
18,
11,
13,
21,
14,
21,
13,
11,
16,
20,
15,
14,
10,
9,
9,
19,
14,
15,
9,
7,
10,
17,
5,
16,
7,
9,
10,
14,
18,
7,
8,
11,
10,
7,
9,
5,
11,
9,
7,
6,
3,
3,
5,
5,
5,
4,
7,
3,
3,
4,
4,
6,
2,
1,
4,
3,
5,
4,
3,
5,
2,
1,
2,
1,
3,
4,
2,
1,
1,
0,
3,
2,
0,
0,
2,
1,
0,
0,
0,
0,
0,
0,
0,
1,
0,
0,
0,
0,
0,
0,
0,
0,
0,
1,
0,
0,
0,
0,
0,
0,
0,
0,
0,
0,
0,
0,
0,
0,
1,
0,
0,
0,
0,
0,
0,
0,
0,
0,
1,
1,
0,
1,
2,
0,
0,
0,
0,
0,
0,
0,
0,
0,
0,
0,
0,
0,
0,
0,
0,
0,
0,
0,
0,
0,
0,
0,
0,
0,
0,
0,
0,
0,
1,
0,
0,
0,
0,
0,
0,
1,
0,
0,
0,
0,
0,
0,
0,
0,
0,
0,
0,
0,
0,
0,
0,
0,
0,
0,
0,
0,
0,
0,
0,
0,
0,
0,
0,
0,
0,
0,
0,
1,
0,
0,
0,
0,
0,
0,
0,
0,
0,
0,
0,
1,
0,
0,
0,
0,
0,
0,
0,
0,
0,
0,
0,
0,
0,
0,
0,
0,
0,
0,
0,
0,
0,
0,
0,
0,
0,
0,
0,
0,
0,
0,
0,
0,
0,
0,
0,
0,
0,
0,
0,
0,
0,
0,
0,
0,
0,
0,
0,
0,
0,
0,
0,
0,
0,
0,
0,
0,
0,
0,
0,
0,
0,
0,
0,
0,
0,
0,
0,
0,
0,
0,
0,
0,
0,
0,
0,
0,
0,
0,
0,
0,
0,
0,
0,
0,
0,
0,
0,
0,
0,
0,
0,
0,
0,
0,
0,
0,
0,
0,
0,
0,
0,
0,
0,
0,
0,
0,
0,
0,
0,
0,
0,
0,
0,
0,
0,
0,
0,
0,
0,
0,
0,
0,
0,
0,
0,
0,
0,
0,
0,
0,
0,
0,
0,
0,
0,
0,
0,
0,
0,
0,
0,
0,
0,
0,
0,
0,
0,
0,
0,
0,
0,
0,
0,
0,
0,
0,
0,
0,
0,
0,
0,
0,
0,
0,
0,
0,
0,
0,
0,
0,
0,
0,
0,
0,
0,
0,
0,
0,
0,
0,
0,
0,
0,
0,
0,
0,
0,
0,
0,
0,
0,
0,
0,
0,
0,
0,
0,
0,
0,
0,
0,
0,
0,
0,
0,
0,
0,
0,
0,
0,
0,
0,
0,
0,
0,
0,
0,
0,
0,
0,
0,
0,
0,
0,
0,
0,
0,
0,
0,
0,
0,
0,
0,
0,
1,
0,
0,
0,
0,
0,
0,
0,
0,
0,
0,
0,
0,
0,
0,
0,
0,
0,
0,
0,
0,
0,
0,
0,
0,
0,
0,
0,
0,
0,
0,
0,
0,
0,
0,
0,
0,
0,
0,
0,
0,
0,
0,
0,
0,
0,
0,
0,
0,
0,
0,
0,
0,
0,
0,
0,
0,
0,
0,
0,
0,
0,
0,
0,
0,
0,
0,
0,
0,
0,
0,
0,
0,
0,
0,
0,
0,
0,
0,
0,
0,
0,
0,
0,
0,
0,
0,
0,
0,
0,
0,
0,
0,
0,
0,
0,
0,
0,
0,
0,
0,
0,
0,
0,
0,
0,
0,
0,
0,
0,
0,
0,
0,
0,
0,
0,
0,
0,
0,
0,
0,
0,
0,
0,
0,
0,
0,
0,
0,
0,
0,
0,
0,
0,
0,
0,
0,
0,
0,
0,
0,
0,
0,
0,
0,
0,
0,
0,
0,
0,
0,
0,
0,
0,
0,
0,
0,
0,
0,
0,
0,
0,
0,
0,
0,
0,
0,
0,
0,
0,
0,
0,
0,
0,
0,
0,
0,
0,
0,
0,
0,
0,
0,
0,
0,
0,
0,
0,
0,
0,
0,
0,
0,
0,
0,
0,
0,
0,
0,
0,
0,
0,
0,
0,
0,
0,
0,
0,
0,
0,
0,
0,
0,
0,
0,
0,
0,
0,
0,
0,
0,
0,
0,
0,
0,
0,
0,
0,
0,
0,
0,
0,
0,
0,
0,
0,
0,
0,
0,
0,
0,
0,
0,
0,
0,
0,
0,
0,
0,
0,
0,
0,
0,
0,
0,
0,
0,
0,
0,
0,
0,
0,
0,
0,
0,
0,
0,
0,
0,
0,
0,
0,
0,
0,
0,
0,
0,
0,
0,
0,
0,
0,
0,
0,
0,
0,
0,
0,
0,
0,
0,
0,
0,
0,
0,
0,
0,
0,
0,
0,
0,
0,
0,
0,
0,
0,
0,
0,
0,
0,
0,
0,
0,
0,
0,
0,
0,
0,
0,
0,
0,
0,
0,
0,
0,
0,
0,
0,
0,
0,
0,
0,
0,
0,
0,
0,
0,
0,
0,
0,
0,
0,
#ENDOFDATA   :