File: N132962/Quantification/20 keV/MMM1/SPI MM1 Cryolite[6][4].msa
#FORMAT      : EMSA/MAS Spectral Data File
#VERSION     : 1.0
#TITLE       : SPI MM1dup Cryolite[6][all]
#DATE        : 12-MAR-2025
#TIME        : 13:47
#OWNER       : Unknown
#NPOINTS     : 4096
#NCOLUMNS    : 1
#XUNITS      : eV
#YUNITS      : counts
#DATATYPE    : Y
#XPERCHAN    : 9.99778
#OFFSET      : 1.69135
#BEAMKV      : 20
#SIGNALTYPE  : EDS
#ELEVANGLE   : 35
#AZIMANGLE   : 0
#LIVETIME    : 239.981
#REALTIME    : 258.535
#PROBECUR    : 1.02627
#TAUWIND     : 0
#TDEADLYR    : 0
#TACTLYR     : 0.045
#TALWIND     : 0.025
#CHOFFSET    : 0.0
#XLABEL      : Energy (eV)
#YLABEL      : Counts
#XPOSITION   : -3.97434
#YPOSITION   : -0.62182
#ZPOSITION   : 31.03608
#EDSDET      : SD
##SPECIMEN   : SPI MM1dup Cryolite[6][all]
##D2STDCMP   : Cryolite,(F:54.2963),(Na:32.8517),(Al:12.8519)
##DET_HASH   : 12273538-fd48-a23f-0a19-f1e6fa85caef
##CALIB_HASH : 6abaa72c-aa41-8738-0be9-f592914732f3
##WORKING    : 15.0 mm
##DET_NAME   : EDAX All
##DET_MODE   : MediumLE
#SPECTRUM    :
26,
21,
13,
24,
149,
528,
1367,
3362,
8292,
10592,
6239,
3407,
3489,
3945,
4316,
5186,
7409,
10274,
11284,
16322,
53193,
220498,
490051,
431222,
140885,
18783,
2797,
2257,
2536,
3048,
3604,
5234,
14917,
61747,
155538,
172910,
82711,
18160,
3467,
2039,
1962,
2097,
2381,
2905,
3895,
4437,
4736,
10156,
34656,
70415,
72104,
37338,
11927,
4201,
2798,
2637,
3212,
3823,
3780,
3042,
2562,
2396,
2203,
2085,
2129,
2193,
2190,
2311,
2320,
2488,
2638,
2769,
2840,
2606,
2368,
2292,
2210,
2283,
2338,
2219,
2208,
2268,
2316,
2233,
2397,
2393,
2373,
2372,
2316,
2290,
2273,
2256,
2118,
2090,
2054,
2194,
2119,
2102,
2115,
2065,
2010,
2001,
2000,
1985,
2002,
2024,
1926,
1961,
1957,
1920,
1910,
1876,
1954,
1858,
1863,
1834,
1780,
1843,
1825,
1750,
1741,
1716,
1789,
1759,
1716,
1680,
1726,
1695,
1637,
1623,
1651,
1625,
1628,
1594,
1582,
1573,
1605,
1497,
1505,
1521,
1402,
1533,
1448,
1446,
1419,
1437,
1467,
1383,
1426,
1449,
1363,
1357,
1329,
1366,
1383,
1343,
1323,
1288,
1334,
1260,
1262,
1252,
1309,
1316,
1236,
1190,
1187,
1231,
1197,
1185,
1202,
1144,
1161,
1148,
1071,
1198,
1111,
1125,
1056,
1134,
1108,
1143,
1064,
1041,
1024,
1103,
1012,
1013,
1068,
1035,
1067,
1052,
965,
1076,
955,
979,
963,
949,
983,
900,
944,
894,
905,
900,
893,
942,
847,
913,
860,
843,
828,
909,
896,
969,
908,
883,
868,
775,
835,
816,
796,
811,
786,
760,
786,
788,
782,
727,
815,
689,
720,
722,
701,
744,
733,
693,
769,
722,
728,
678,
681,
705,
715,
715,
677,
650,
655,
663,
668,
654,
674,
644,
598,
646,
554,
616,
579,
604,
584,
594,
635,
568,
552,
576,
558,
569,
574,
523,
611,
575,
562,
531,
532,
549,
538,
510,
534,
545,
516,
496,
531,
551,
534,
488,
521,
482,
461,
538,
444,
493,
486,
464,
497,
473,
477,
459,
447,
480,
456,
424,
408,
417,
463,
412,
405,
446,
425,
420,
423,
422,
429,
386,
374,
382,
386,
395,
392,
376,
366,
380,
365,
387,
385,
402,
368,
373,
376,
389,
354,
326,
361,
390,
384,
350,
348,
324,
323,
337,
312,
319,
332,
331,
319,
350,
297,
299,
340,
315,
292,
276,
303,
303,
299,
292,
287,
303,
299,
261,
266,
265,
266,
288,
292,
253,
272,
262,
267,
255,
258,
250,
242,
248,
238,
228,
231,
273,
231,
227,
248,
250,
204,
214,
242,
236,
267,
226,
211,
222,
222,
233,
193,
200,
210,
195,
233,
189,
206,
191,
179,
191,
172,
196,
199,
208,
191,
192,
190,
174,
172,
171,
170,
153,
191,
171,
190,
171,
157,
165,
151,
150,
165,
144,
153,
162,
182,
169,
132,
157,
164,
146,
128,
156,
146,
148,
138,
145,
110,
143,
126,
125,
125,
128,
122,
135,
138,
111,
115,
132,
111,
116,
99,
115,
109,
112,
116,
109,
94,
103,
102,
106,
105,
112,
111,
120,
107,
85,
113,
110,
87,
113,
102,
95,
104,
82,
91,
96,
85,
87,
77,
86,
83,
78,
82,
85,
89,
67,
71,
75,
64,
60,
85,
55,
63,
62,
65,
79,
65,
77,
62,
61,
64,
63,
65,
68,
66,
53,
57,
59,
52,
66,
54,
59,
58,
61,
52,
48,
49,
56,
53,
52,
54,
46,
39,
47,
40,
36,
50,
40,
37,
43,
45,
45,
55,
40,
37,
43,
32,
49,
36,
33,
39,
37,
43,
32,
31,
28,
37,
30,
45,
20,
30,
23,
31,
21,
35,
34,
23,
23,
26,
28,
19,
26,
17,
23,
21,
31,
22,
35,
22,
30,
14,
18,
15,
25,
16,
23,
16,
28,
14,
22,
13,
18,
27,
17,
22,
19,
13,
20,
28,
17,
14,
19,
16,
15,
12,
22,
14,
8,
19,
15,
11,
11,
5,
13,
17,
17,
13,
14,
7,
10,
12,
11,
8,
8,
17,
14,
8,
6,
11,
12,
8,
8,
1,
9,
6,
7,
5,
6,
6,
2,
3,
8,
10,
3,
10,
7,
6,
3,
6,
6,
2,
9,
5,
4,
5,
0,
1,
0,
4,
0,
2,
3,
3,
1,
2,
3,
2,
0,
0,
0,
0,
1,
0,
0,
1,
2,
0,
0,
0,
0,
0,
0,
0,
0,
0,
0,
0,
1,
0,
0,
0,
0,
0,
0,
0,
0,
0,
0,
0,
0,
0,
0,
0,
0,
0,
0,
0,
0,
0,
0,
0,
0,
0,
0,
0,
1,
0,
0,
0,
0,
0,
0,
0,
0,
1,
0,
0,
1,
0,
0,
0,
0,
0,
0,
0,
0,
0,
1,
0,
0,
0,
0,
0,
0,
0,
0,
0,
0,
0,
0,
0,
0,
0,
0,
0,
0,
0,
1,
0,
0,
0,
0,
0,
0,
0,
0,
0,
0,
0,
0,
0,
0,
0,
0,
0,
0,
0,
0,
0,
0,
0,
0,
0,
0,
0,
0,
0,
0,
0,
0,
0,
0,
0,
0,
0,
0,
0,
0,
0,
0,
0,
0,
0,
0,
0,
0,
0,
0,
0,
0,
0,
0,
0,
0,
0,
0,
0,
0,
0,
0,
0,
0,
0,
0,
0,
0,
0,
0,
0,
0,
0,
1,
0,
0,
0,
0,
0,
0,
0,
1,
0,
0,
0,
0,
0,
0,
0,
0,
0,
0,
0,
0,
0,
0,
0,
0,
0,
0,
0,
0,
0,
0,
0,
0,
0,
0,
0,
0,
0,
0,
0,
0,
0,
0,
0,
0,
0,
0,
0,
0,
0,
0,
0,
0,
0,
0,
0,
0,
0,
0,
0,
0,
0,
0,
0,
0,
0,
0,
0,
0,
0,
0,
0,
0,
0,
0,
0,
0,
0,
0,
0,
0,
0,
0,
0,
0,
0,
0,
0,
0,
0,
0,
0,
0,
0,
0,
0,
0,
0,
0,
0,
0,
0,
0,
0,
0,
0,
0,
0,
0,
0,
0,
0,
0,
0,
0,
0,
0,
0,
0,
0,
0,
0,
0,
0,
0,
0,
0,
0,
0,
0,
0,
0,
0,
0,
0,
0,
0,
0,
0,
0,
0,
0,
0,
0,
0,
0,
0,
0,
0,
0,
0,
0,
0,
0,
0,
0,
0,
0,
0,
0,
0,
0,
0,
0,
0,
0,
0,
0,
0,
0,
0,
0,
0,
0,
0,
0,
0,
0,
0,
0,
0,
0,
0,
0,
0,
0,
0,
0,
0,
0,
0,
0,
0,
0,
0,
0,
0,
0,
0,
0,
0,
0,
0,
0,
0,
0,
0,
0,
0,
0,
0,
0,
0,
0,
0,
0,
0,
0,
0,
0,
0,
0,
0,
0,
0,
0,
0,
0,
0,
0,
0,
0,
0,
0,
0,
0,
0,
0,
0,
0,
0,
0,
0,
0,
0,
0,
0,
0,
0,
0,
0,
0,
0,
0,
0,
0,
0,
0,
0,
0,
0,
0,
0,
0,
0,
0,
0,
0,
0,
0,
0,
0,
0,
0,
0,
0,
0,
0,
0,
0,
0,
0,
0,
0,
0,
0,
0,
0,
0,
0,
0,
0,
0,
0,
0,
0,
0,
0,
0,
0,
0,
0,
0,
0,
0,
0,
0,
0,
0,
0,
0,
0,
0,
0,
0,
0,
0,
0,
0,
0,
0,
0,
0,
0,
0,
0,
0,
0,
0,
0,
0,
0,
0,
0,
0,
0,
0,
0,
0,
0,
0,
0,
0,
0,
0,
0,
0,
0,
0,
0,
0,
0,
0,
0,
0,
0,
0,
0,
0,
0,
0,
0,
0,
0,
0,
0,
0,
0,
0,
0,
0,
0,
0,
0,
0,
0,
0,
0,
0,
0,
0,
0,
0,
0,
0,
0,
0,
0,
0,
0,
0,
0,
0,
0,
0,
0,
0,
0,
0,
0,
0,
0,
0,
0,
0,
0,
0,
0,
0,
0,
0,
0,
0,
0,
0,
0,
0,
0,
0,
0,
0,
0,
0,
0,
0,
0,
0,
0,
0,
0,
0,
0,
0,
0,
0,
0,
0,
0,
0,
0,
0,
0,
0,
0,
0,
0,
0,
0,
0,
0,
0,
0,
0,
0,
0,
0,
0,
0,
0,
0,
0,
0,
0,
0,
0,
0,
0,
0,
0,
0,
0,
0,
0,
0,
0,
0,
0,
0,
0,
0,
0,
0,
0,
0,
0,
0,
0,
0,
0,
0,
0,
0,
0,
0,
0,
0,
0,
0,
0,
0,
0,
0,
0,
0,
0,
0,
0,
0,
0,
0,
0,
0,
0,
0,
0,
0,
0,
0,
0,
0,
0,
0,
0,
0,
0,
0,
0,
0,
0,
0,
0,
0,
0,
0,
0,
0,
0,
0,
0,
0,
0,
0,
0,
0,
0,
#ENDOFDATA   :