File: N132962/Quantification/20 keV/MMM1/SPI MM1 Dolomite[4][4].msa
#FORMAT      : EMSA/MAS Spectral Data File
#VERSION     : 1.0
#TITLE       : SPI MM1dup Dolomite[4][all]
#DATE        : 12-MAR-2025
#TIME        : 15:49
#OWNER       : Unknown
#NPOINTS     : 4096
#NCOLUMNS    : 1
#XUNITS      : eV
#YUNITS      : counts
#DATATYPE    : Y
#XPERCHAN    : 9.99778
#OFFSET      : 1.69135
#BEAMKV      : 20
#SIGNALTYPE  : EDS
#ELEVANGLE   : 35
#AZIMANGLE   : 0
#LIVETIME    : 239.783
#REALTIME    : 250.724
#PROBECUR    : 1.02695
#TAUWIND     : 0
#TDEADLYR    : 0
#TACTLYR     : 0.045
#TALWIND     : 0.025
#CHOFFSET    : 0.0
#XLABEL      : Energy (eV)
#YLABEL      : Counts
#XPOSITION   : -0.06651
#YPOSITION   : 1.94004
#ZPOSITION   : 31.03608
#EDSDET      : SD
##SPECIMEN   : SPI MM1dup Dolomite[4][all]
##DET_HASH   : 12273538-fd48-a23f-0a19-f1e6fa85caef
##CALIB_HASH : 6abaa72c-aa41-8738-0be9-f592914732f3
##WORKING    : 15.0 mm
##DET_NAME   : EDAX All
##DET_MODE   : MediumLE
#SPECTRUM    :
22,
36,
9,
16,
86,
360,
1335,
6486,
22229,
30584,
15632,
4975,
2591,
2440,
3657,
13174,
53351,
104059,
77507,
20379,
3040,
1372,
1615,
1759,
1750,
1643,
1705,
1832,
2048,
2143,
2154,
2258,
2354,
2611,
2817,
2947,
3200,
3523,
4156,
8362,
28901,
70733,
86154,
48708,
15192,
4544,
3047,
2899,
2941,
3145,
3268,
3143,
3002,
3122,
2971,
3305,
3336,
3667,
3980,
3925,
3681,
3335,
3255,
3470,
3768,
4018,
3705,
3171,
2874,
2876,
2829,
2936,
2873,
2982,
2952,
2936,
2910,
2822,
2797,
2780,
2711,
2713,
2798,
2733,
2644,
2690,
2743,
2629,
2663,
2610,
2597,
2506,
2534,
2509,
2464,
2392,
2376,
2370,
2490,
2337,
2252,
2316,
2301,
2345,
2344,
2373,
2352,
2233,
2224,
2182,
2086,
2159,
2120,
2164,
2037,
2114,
2278,
2625,
3461,
6308,
16952,
43472,
81077,
102891,
87123,
49281,
19411,
6302,
2823,
2397,
2951,
4789,
8462,
12531,
13945,
11166,
6665,
3307,
2080,
1638,
1543,
1529,
1434,
1373,
1370,
1368,
1316,
1357,
1318,
1322,
1331,
1332,
1325,
1258,
1304,
1321,
1248,
1286,
1263,
1220,
1216,
1177,
1225,
1289,
1311,
1261,
1245,
1228,
1178,
1203,
1196,
1180,
1143,
1037,
1143,
1097,
1091,
1153,
1137,
1137,
1060,
1099,
1006,
1114,
1028,
1063,
1000,
993,
1008,
971,
1019,
1010,
951,
1012,
930,
1007,
999,
1025,
1041,
1017,
934,
950,
946,
926,
909,
914,
902,
889,
863,
875,
951,
1013,
1149,
1140,
1145,
1084,
900,
897,
798,
827,
807,
788,
822,
773,
793,
741,
778,
737,
801,
760,
764,
761,
767,
761,
778,
749,
754,
725,
731,
672,
698,
697,
624,
663,
699,
779,
736,
756,
742,
681,
712,
621,
656,
653,
632,
671,
638,
641,
573,
613,
610,
633,
603,
567,
586,
576,
573,
569,
557,
604,
577,
536,
557,
559,
551,
553,
540,
541,
511,
556,
549,
507,
502,
515,
522,
499,
523,
546,
471,
484,
501,
492,
474,
491,
481,
459,
489,
476,
462,
456,
457,
497,
412,
416,
410,
455,
415,
434,
431,
374,
452,
408,
430,
407,
372,
441,
391,
410,
382,
394,
397,
389,
370,
389,
370,
367,
383,
375,
364,
363,
345,
345,
313,
345,
346,
342,
317,
320,
361,
285,
319,
346,
312,
324,
332,
335,
295,
315,
302,
332,
313,
280,
269,
299,
283,
278,
269,
290,
317,
270,
277,
266,
277,
289,
259,
259,
250,
257,
287,
250,
257,
261,
238,
251,
253,
232,
241,
250,
207,
237,
237,
249,
239,
246,
252,
233,
219,
233,
237,
239,
191,
211,
213,
231,
196,
221,
212,
198,
209,
199,
207,
199,
218,
178,
197,
172,
185,
184,
218,
171,
176,
191,
169,
167,
166,
174,
161,
165,
186,
174,
161,
181,
174,
166,
132,
148,
154,
132,
135,
134,
153,
135,
129,
149,
148,
145,
136,
120,
128,
128,
122,
132,
130,
132,
116,
118,
111,
135,
127,
122,
129,
118,
117,
110,
133,
114,
124,
103,
107,
95,
118,
104,
94,
116,
113,
105,
101,
141,
110,
88,
95,
95,
99,
91,
75,
78,
90,
73,
91,
98,
77,
77,
87,
73,
78,
87,
88,
75,
78,
87,
72,
74,
56,
81,
69,
75,
66,
58,
50,
67,
80,
76,
74,
84,
62,
54,
64,
56,
64,
54,
55,
55,
71,
56,
61,
46,
63,
51,
57,
47,
47,
49,
40,
53,
45,
44,
44,
61,
44,
37,
42,
44,
37,
32,
42,
45,
46,
46,
32,
41,
35,
37,
35,
48,
43,
44,
31,
35,
24,
39,
29,
28,
26,
34,
31,
29,
28,
22,
28,
21,
34,
31,
26,
22,
21,
29,
27,
25,
22,
31,
20,
22,
21,
18,
22,
15,
23,
21,
20,
21,
17,
20,
10,
16,
19,
19,
26,
15,
15,
14,
15,
23,
16,
11,
12,
18,
10,
11,
21,
16,
16,
12,
10,
16,
14,
15,
13,
13,
8,
5,
14,
9,
9,
17,
10,
13,
8,
11,
6,
6,
13,
5,
9,
10,
4,
10,
7,
7,
5,
9,
7,
6,
6,
8,
11,
6,
2,
3,
5,
8,
2,
4,
4,
3,
3,
4,
3,
2,
2,
0,
3,
4,
0,
0,
3,
6,
4,
0,
2,
1,
1,
1,
0,
1,
1,
1,
0,
0,
0,
0,
1,
0,
0,
0,
1,
0,
0,
0,
0,
0,
0,
1,
0,
0,
0,
1,
0,
1,
0,
0,
1,
0,
0,
0,
0,
1,
0,
0,
0,
0,
0,
1,
0,
0,
0,
0,
0,
0,
0,
0,
0,
0,
0,
0,
0,
0,
0,
0,
0,
0,
0,
0,
0,
0,
0,
0,
0,
0,
0,
0,
0,
0,
0,
0,
0,
1,
0,
1,
0,
0,
0,
0,
0,
0,
0,
0,
0,
0,
0,
0,
0,
0,
0,
0,
0,
0,
0,
0,
0,
0,
0,
0,
1,
0,
0,
0,
0,
0,
0,
0,
0,
0,
0,
0,
0,
1,
0,
0,
0,
0,
0,
0,
0,
0,
0,
0,
0,
0,
0,
0,
0,
0,
0,
0,
0,
0,
0,
0,
0,
0,
0,
0,
0,
0,
0,
0,
0,
0,
0,
0,
0,
0,
0,
0,
0,
0,
0,
0,
0,
0,
0,
0,
0,
0,
0,
0,
0,
0,
0,
0,
0,
0,
0,
0,
0,
0,
0,
0,
0,
0,
0,
0,
0,
0,
0,
0,
0,
0,
0,
0,
0,
0,
0,
0,
0,
0,
0,
0,
0,
0,
0,
0,
0,
0,
0,
0,
0,
0,
0,
0,
0,
0,
0,
0,
0,
0,
0,
0,
0,
0,
0,
0,
0,
0,
0,
0,
0,
0,
0,
0,
0,
0,
0,
0,
1,
0,
0,
0,
0,
0,
0,
0,
0,
0,
0,
0,
0,
0,
0,
0,
0,
0,
0,
0,
0,
0,
0,
0,
0,
0,
0,
0,
0,
0,
0,
0,
0,
0,
0,
0,
0,
0,
0,
0,
0,
0,
0,
0,
0,
0,
0,
0,
0,
0,
0,
0,
0,
0,
0,
0,
0,
0,
0,
0,
0,
0,
0,
0,
0,
0,
0,
0,
0,
0,
0,
0,
0,
0,
0,
0,
0,
0,
0,
0,
0,
0,
0,
0,
0,
0,
0,
0,
0,
0,
0,
0,
0,
0,
0,
0,
0,
0,
0,
0,
0,
0,
0,
0,
0,
0,
0,
0,
0,
0,
0,
0,
0,
0,
0,
0,
0,
0,
0,
0,
0,
0,
0,
0,
0,
0,
0,
0,
0,
0,
0,
0,
0,
0,
0,
0,
0,
0,
0,
0,
0,
0,
0,
0,
0,
0,
0,
0,
0,
0,
0,
0,
0,
0,
0,
0,
0,
0,
0,
0,
0,
0,
0,
0,
0,
0,
0,
0,
0,
0,
0,
0,
0,
0,
0,
0,
0,
0,
0,
0,
0,
0,
0,
0,
0,
0,
0,
0,
0,
0,
0,
0,
0,
0,
0,
0,
0,
0,
0,
0,
0,
0,
0,
0,
0,
0,
0,
0,
0,
0,
0,
0,
0,
0,
0,
0,
0,
0,
0,
0,
0,
0,
0,
0,
0,
0,
0,
0,
0,
0,
0,
0,
0,
0,
0,
0,
0,
0,
0,
0,
0,
0,
0,
0,
0,
0,
0,
0,
0,
0,
0,
0,
0,
0,
0,
0,
0,
0,
0,
0,
0,
0,
0,
0,
0,
0,
0,
0,
0,
0,
0,
0,
0,
0,
0,
0,
0,
0,
0,
0,
0,
0,
0,
0,
0,
0,
0,
0,
0,
0,
0,
0,
0,
0,
0,
0,
0,
0,
0,
0,
0,
0,
0,
0,
0,
0,
0,
0,
0,
0,
0,
0,
0,
0,
0,
0,
0,
0,
0,
0,
0,
0,
0,
0,
0,
0,
0,
0,
0,
0,
0,
0,
0,
0,
0,
0,
0,
0,
0,
0,
0,
0,
0,
0,
0,
0,
0,
0,
0,
0,
0,
0,
0,
0,
0,
0,
0,
0,
0,
0,
0,
0,
0,
0,
0,
0,
0,
0,
0,
0,
0,
0,
0,
0,
0,
0,
0,
0,
0,
0,
0,
0,
0,
0,
0,
0,
0,
0,
0,
0,
0,
0,
0,
0,
0,
0,
0,
0,
0,
0,
0,
0,
0,
0,
0,
0,
0,
0,
0,
0,
0,
0,
0,
0,
0,
0,
0,
0,
0,
0,
0,
0,
0,
0,
0,
0,
0,
0,
0,
0,
0,
0,
0,
0,
0,
0,
0,
0,
0,
0,
0,
0,
0,
0,
0,
0,
0,
0,
0,
0,
0,
0,
0,
0,
0,
0,
0,
0,
0,
0,
0,
0,
0,
0,
0,
0,
0,
0,
0,
0,
0,
0,
#ENDOFDATA   :