File: N132962/Quantification/20 keV/MMM1/SPI MM1 Benitoite[7][4].msa
#FORMAT      : EMSA/MAS Spectral Data File
#VERSION     : 1.0
#TITLE       : SPI MM1 Benitoite[7][all]
#DATE        : 11-MAR-2025
#TIME        : 13:24
#OWNER       : Unknown
#NPOINTS     : 4096
#NCOLUMNS    : 1
#XUNITS      : eV
#YUNITS      : counts
#DATATYPE    : Y
#XPERCHAN    : 9.99778
#OFFSET      : 1.69135
#BEAMKV      : 20
#SIGNALTYPE  : EDS
#ELEVANGLE   : 35
#AZIMANGLE   : 0
#LIVETIME    : 239.8495
#REALTIME    : 256.741
#PROBECUR    : 1.02853
#TAUWIND     : 0
#TDEADLYR    : 0
#TACTLYR     : 0.045
#TALWIND     : 0.025
#CHOFFSET    : 0.0
#XLABEL      : Energy (eV)
#YLABEL      : Counts
#XPOSITION   : -3.26161
#YPOSITION   : -4.84117
#ZPOSITION   : 30.9284
#EDSDET      : SD
##SPECIMEN   : SPI MM1 Benitoite[7][all]
##D2STDCMP   : Benitoite,(O:34.828),(Si:20.3791),(Ti:11.5776),(Ba:33.2153)
##DET_HASH   : 12273538-fd48-a23f-0a19-f1e6fa85caef
##CALIB_HASH : 6abaa72c-aa41-8738-0be9-f592914732f3
##WORKING    : 15.0 mm
##DET_NAME   : EDAX All
##DET_MODE   : MediumLE
#SPECTRUM    :
30,
37,
15,
22,
103,
419,
1256,
3780,
9754,
12740,
7524,
5193,
7288,
9772,
12031,
22834,
66859,
123728,
91737,
27629,
7962,
4580,
3480,
3643,
4168,
5480,
6231,
5155,
4064,
3542,
3330,
3802,
4646,
4893,
4778,
4670,
4136,
3997,
3950,
3844,
3923,
4011,
4103,
4135,
4374,
4466,
4608,
4728,
4844,
5368,
5431,
5483,
5532,
5652,
6589,
13610,
46315,
114575,
153726,
109850,
45930,
17234,
9107,
5582,
4159,
3812,
3819,
3953,
3961,
4030,
3893,
4157,
4216,
4201,
4301,
4379,
4368,
4208,
4134,
4149,
4090,
4075,
4131,
4070,
4063,
3991,
4067,
4021,
4146,
4299,
4373,
4669,
4546,
4333,
4120,
4004,
4093,
3939,
3833,
3831,
3839,
3937,
3920,
3926,
3873,
3903,
3687,
3885,
3772,
3721,
3796,
3888,
3713,
3678,
3812,
3709,
3657,
3686,
3684,
3552,
3397,
3555,
3474,
3527,
3405,
3369,
3471,
3364,
3535,
3717,
4070,
4720,
5131,
4603,
4096,
3556,
3308,
3242,
3246,
3223,
3260,
3235,
3612,
3974,
4852,
7724,
16056,
33277,
58079,
77984,
78891,
60685,
35283,
16270,
7201,
4042,
3557,
4514,
7575,
13562,
20923,
25123,
24541,
20810,
16744,
13173,
9250,
6233,
4643,
4690,
6575,
8756,
9496,
8433,
6067,
4007,
2920,
2433,
2359,
2407,
2445,
2791,
3383,
4209,
4940,
4867,
4085,
3076,
2509,
2237,
2361,
2538,
2983,
3096,
2998,
2746,
2380,
2219,
1973,
2104,
2013,
1919,
1843,
1831,
1806,
1858,
1875,
1842,
1993,
1845,
1912,
1966,
1964,
1963,
2078,
1900,
1738,
1707,
1685,
1695,
1634,
1706,
1624,
1591,
1596,
1713,
1575,
1611,
1600,
1556,
1618,
1625,
1598,
1633,
1513,
1516,
1459,
1562,
1531,
1442,
1556,
1412,
1443,
1445,
1565,
1446,
1393,
1552,
1614,
1541,
1483,
1549,
1419,
1400,
1454,
1339,
1360,
1347,
1337,
1343,
1388,
1348,
1279,
1308,
1249,
1324,
1199,
1282,
1275,
1225,
1260,
1318,
1302,
1206,
1300,
1213,
1265,
1182,
1226,
1185,
1180,
1208,
1241,
1159,
1156,
1108,
1126,
1140,
1172,
1097,
1110,
1126,
1122,
1110,
1141,
1112,
1133,
1076,
1072,
1142,
1086,
1118,
1042,
1016,
1090,
1008,
1038,
1033,
947,
1068,
1028,
968,
1086,
966,
976,
911,
918,
971,
957,
953,
955,
974,
971,
940,
876,
955,
886,
878,
882,
877,
873,
876,
860,
860,
841,
879,
829,
843,
856,
871,
811,
863,
784,
840,
806,
784,
740,
782,
792,
718,
778,
720,
761,
746,
777,
746,
707,
736,
721,
703,
735,
653,
694,
679,
719,
707,
665,
676,
687,
632,
718,
651,
671,
654,
620,
627,
641,
653,
598,
622,
619,
652,
660,
598,
563,
581,
608,
586,
603,
585,
586,
572,
550,
588,
541,
545,
530,
571,
562,
544,
542,
480,
546,
505,
506,
494,
529,
510,
490,
469,
470,
474,
463,
487,
472,
449,
448,
446,
462,
462,
437,
455,
401,
413,
407,
423,
401,
369,
420,
378,
363,
436,
366,
389,
420,
377,
401,
395,
346,
366,
397,
336,
351,
357,
344,
356,
318,
350,
341,
361,
323,
330,
327,
312,
309,
335,
320,
297,
328,
300,
322,
312,
313,
294,
273,
292,
256,
288,
253,
263,
250,
280,
245,
271,
249,
249,
259,
262,
261,
259,
247,
217,
233,
227,
219,
233,
248,
252,
239,
229,
211,
201,
231,
204,
223,
210,
203,
214,
218,
212,
206,
226,
184,
194,
205,
190,
184,
158,
153,
171,
174,
169,
184,
158,
163,
185,
152,
155,
162,
158,
155,
175,
153,
145,
134,
131,
139,
140,
126,
140,
155,
136,
139,
129,
120,
141,
117,
132,
118,
126,
115,
121,
116,
114,
109,
113,
118,
102,
122,
97,
83,
92,
101,
77,
92,
86,
86,
99,
94,
85,
78,
90,
97,
94,
70,
79,
88,
71,
77,
70,
82,
77,
78,
69,
68,
81,
72,
60,
70,
60,
56,
62,
64,
53,
48,
54,
50,
57,
68,
48,
43,
59,
70,
60,
43,
57,
46,
47,
51,
47,
36,
50,
54,
38,
36,
36,
37,
30,
52,
34,
44,
33,
42,
41,
34,
31,
32,
25,
40,
34,
27,
27,
26,
25,
18,
27,
15,
26,
25,
29,
23,
17,
13,
19,
19,
21,
20,
26,
12,
15,
9,
20,
8,
12,
18,
15,
8,
9,
11,
10,
5,
12,
11,
8,
5,
5,
4,
6,
7,
4,
8,
4,
4,
2,
2,
5,
1,
3,
1,
1,
0,
0,
2,
2,
2,
2,
0,
0,
2,
0,
1,
1,
0,
2,
0,
0,
2,
1,
0,
0,
0,
0,
0,
0,
0,
2,
1,
0,
0,
3,
1,
1,
1,
1,
1,
1,
2,
1,
0,
0,
1,
0,
0,
0,
0,
1,
0,
1,
1,
0,
0,
0,
0,
1,
0,
1,
0,
0,
2,
0,
0,
0,
1,
1,
0,
0,
0,
0,
0,
1,
0,
0,
1,
1,
1,
0,
0,
1,
1,
1,
0,
1,
0,
0,
1,
0,
0,
0,
0,
1,
0,
0,
1,
0,
0,
0,
0,
0,
0,
0,
0,
0,
0,
0,
0,
0,
0,
0,
0,
0,
0,
0,
0,
0,
1,
1,
0,
0,
0,
0,
0,
0,
0,
0,
0,
0,
0,
0,
0,
0,
0,
0,
0,
0,
0,
0,
0,
0,
0,
0,
0,
0,
1,
1,
0,
0,
0,
0,
0,
0,
0,
0,
0,
0,
0,
1,
0,
0,
0,
0,
0,
0,
0,
0,
0,
0,
0,
0,
0,
0,
0,
1,
0,
0,
0,
0,
0,
0,
0,
0,
0,
0,
1,
0,
0,
0,
0,
0,
0,
0,
0,
0,
0,
0,
0,
0,
0,
0,
0,
0,
0,
0,
0,
0,
0,
0,
0,
0,
1,
2,
0,
0,
0,
0,
0,
1,
0,
0,
0,
0,
0,
0,
1,
0,
0,
0,
0,
0,
0,
0,
0,
1,
0,
0,
0,
0,
0,
0,
0,
0,
0,
0,
0,
0,
0,
0,
0,
0,
0,
0,
0,
0,
0,
0,
0,
0,
0,
0,
0,
0,
0,
0,
0,
0,
0,
1,
0,
0,
1,
0,
0,
0,
0,
0,
0,
0,
0,
0,
0,
0,
0,
0,
0,
0,
0,
0,
0,
0,
0,
0,
0,
0,
0,
0,
0,
0,
0,
0,
0,
0,
0,
0,
0,
0,
0,
0,
0,
0,
0,
0,
0,
0,
0,
0,
0,
0,
0,
0,
0,
0,
0,
0,
0,
0,
0,
0,
0,
0,
0,
0,
0,
0,
0,
0,
0,
0,
0,
0,
0,
0,
0,
0,
0,
0,
0,
0,
1,
0,
0,
0,
0,
0,
0,
0,
0,
0,
0,
0,
0,
0,
0,
0,
0,
0,
0,
0,
0,
0,
0,
0,
0,
0,
0,
0,
0,
0,
0,
0,
0,
0,
0,
0,
0,
0,
0,
0,
0,
0,
0,
0,
0,
0,
0,
0,
0,
0,
0,
0,
0,
0,
0,
0,
0,
0,
0,
0,
0,
0,
0,
0,
0,
0,
0,
0,
0,
0,
0,
0,
0,
0,
0,
0,
0,
0,
0,
0,
0,
0,
0,
0,
0,
0,
0,
0,
0,
0,
0,
0,
0,
0,
0,
0,
0,
0,
0,
0,
0,
0,
0,
0,
0,
0,
0,
0,
0,
0,
0,
0,
0,
0,
0,
0,
0,
0,
1,
0,
0,
0,
0,
0,
0,
0,
0,
0,
0,
0,
0,
0,
0,
0,
0,
0,
0,
0,
0,
0,
0,
0,
0,
0,
0,
0,
0,
0,
0,
0,
0,
0,
0,
0,
0,
0,
0,
0,
0,
0,
0,
0,
0,
0,
0,
0,
0,
0,
0,
0,
0,
0,
0,
0,
0,
0,
0,
0,
0,
0,
0,
0,
0,
0,
0,
0,
0,
0,
0,
0,
0,
0,
0,
0,
0,
0,
0,
0,
0,
0,
0,
0,
0,
0,
0,
0,
0,
0,
0,
0,
0,
0,
0,
0,
0,
0,
0,
0,
0,
0,
0,
0,
0,
0,
0,
0,
0,
0,
0,
0,
0,
0,
0,
0,
0,
0,
0,
0,
0,
0,
0,
0,
0,
0,
0,
0,
0,
0,
0,
0,
0,
0,
0,
0,
0,
0,
0,
0,
0,
0,
0,
0,
0,
0,
0,
0,
0,
0,
0,
0,
0,
0,
0,
0,
0,
0,
0,
0,
0,
0,
0,
0,
0,
0,
0,
0,
0,
0,
0,
0,
0,
0,
0,
0,
0,
0,
0,
0,
0,
0,
0,
0,
0,
0,
0,
0,
0,
0,
0,
0,
0,
0,
0,
0,
0,
0,
0,
0,
0,
0,
0,
0,
0,
0,
0,
0,
0,
0,
0,
0,
0,
0,
0,
0,
0,
0,
0,
0,
0,
0,
0,
0,
0,
0,
0,
0,
0,
0,
0,
0,
#ENDOFDATA   :