File: N132962/Quantification/20 keV/MMM1/SPI MM1 Kaersutite[6][4].msa
#FORMAT      : EMSA/MAS Spectral Data File
#VERSION     : 1.0
#TITLE       : SPI MM1dup Kaersutite[6][all]
#DATE        : 12-MAR-2025
#TIME        : 16:26
#OWNER       : Unknown
#NPOINTS     : 4096
#NCOLUMNS    : 1
#XUNITS      : eV
#YUNITS      : counts
#DATATYPE    : Y
#XPERCHAN    : 9.99778
#OFFSET      : 1.69135
#BEAMKV      : 20
#SIGNALTYPE  : EDS
#ELEVANGLE   : 35
#AZIMANGLE   : 0
#LIVETIME    : 239.744
#REALTIME    : 254.382
#PROBECUR    : 1.02709
#TAUWIND     : 0
#TDEADLYR    : 0
#TACTLYR     : 0.045
#TALWIND     : 0.025
#CHOFFSET    : 0.0
#XLABEL      : Energy (eV)
#YLABEL      : Counts
#XPOSITION   : -1.62292
#YPOSITION   : 3.58446
#ZPOSITION   : 31.03608
#EDSDET      : SD
##SPECIMEN   : SPI MM1dup Kaersutite[6][all]
##DET_HASH   : 12273538-fd48-a23f-0a19-f1e6fa85caef
##CALIB_HASH : 6abaa72c-aa41-8738-0be9-f592914732f3
##WORKING    : 15.0 mm
##DET_NAME   : EDAX All
##DET_MODE   : MediumLE
#SPECTRUM    :
29,
24,
9,
6,
73,
269,
863,
2614,
7685,
10763,
6229,
3445,
3194,
3701,
5835,
17232,
65449,
128085,
94609,
25349,
4889,
3303,
5049,
8166,
7942,
4407,
2629,
2444,
2640,
2685,
2651,
2885,
3478,
6075,
10664,
11873,
7538,
4552,
4317,
6872,
19459,
44499,
53312,
31605,
11165,
5152,
4863,
9166,
25404,
49486,
49731,
27270,
10701,
5805,
5407,
11635,
41973,
106309,
144626,
103336,
42728,
15263,
7756,
4534,
3417,
3287,
3117,
2998,
2905,
2811,
2755,
2755,
2798,
2841,
2914,
3060,
3099,
2953,
2780,
2771,
2789,
2676,
2738,
2659,
2731,
2731,
2748,
2761,
2805,
2750,
2788,
2652,
2799,
2683,
2638,
2630,
2533,
2542,
2562,
2668,
2641,
2500,
2534,
2374,
2396,
2520,
2479,
2871,
3625,
4958,
6286,
6455,
4884,
3403,
2623,
2461,
2518,
2699,
3105,
4321,
8181,
17728,
31394,
39194,
32906,
19513,
8483,
3673,
2366,
2212,
2482,
3196,
4594,
5987,
6452,
5414,
3724,
2533,
1981,
1861,
1893,
1822,
1844,
1797,
1759,
1837,
2157,
3244,
5595,
9408,
11714,
11088,
7837,
4505,
2563,
1849,
1698,
1665,
1677,
1619,
1671,
1887,
2137,
2557,
3002,
2832,
2560,
2056,
1682,
1506,
1428,
1459,
1450,
1496,
1401,
1388,
1354,
1329,
1423,
1436,
1429,
1398,
1420,
1353,
1309,
1378,
1292,
1319,
1279,
1235,
1261,
1237,
1183,
1279,
1304,
1383,
1441,
1442,
1312,
1306,
1158,
1254,
1183,
1070,
1178,
1136,
1189,
1279,
1635,
2568,
4886,
9025,
13867,
17048,
16013,
11538,
6947,
3501,
1849,
1245,
1021,
1009,
976,
957,
990,
1022,
969,
994,
1002,
1067,
1135,
1238,
1625,
2240,
2623,
2953,
2810,
2179,
1600,
1188,
1008,
921,
865,
811,
861,
826,
823,
842,
917,
871,
836,
819,
794,
791,
785,
768,
817,
742,
740,
785,
702,
722,
761,
752,
751,
729,
689,
681,
709,
718,
785,
718,
725,
723,
724,
695,
653,
667,
659,
646,
631,
694,
599,
651,
628,
639,
623,
602,
587,
609,
616,
618,
575,
610,
603,
578,
565,
569,
560,
576,
572,
561,
509,
542,
530,
574,
532,
511,
550,
497,
567,
561,
552,
530,
494,
494,
485,
505,
489,
507,
499,
484,
444,
502,
463,
484,
458,
470,
476,
450,
479,
467,
435,
475,
501,
443,
395,
453,
435,
412,
378,
476,
412,
419,
387,
407,
393,
452,
427,
391,
358,
385,
397,
388,
358,
383,
397,
350,
361,
354,
376,
365,
349,
352,
364,
361,
331,
357,
326,
332,
344,
313,
313,
318,
298,
321,
314,
275,
291,
283,
298,
315,
294,
285,
328,
292,
319,
297,
253,
275,
288,
261,
264,
262,
268,
261,
278,
241,
259,
226,
266,
255,
252,
241,
258,
256,
213,
232,
219,
257,
247,
242,
239,
197,
237,
194,
222,
221,
190,
211,
235,
196,
189,
199,
204,
197,
179,
209,
187,
198,
190,
182,
201,
182,
166,
160,
186,
178,
182,
174,
190,
181,
163,
173,
176,
161,
164,
166,
186,
154,
157,
136,
140,
145,
143,
161,
138,
142,
128,
130,
141,
165,
139,
124,
118,
123,
119,
143,
115,
119,
123,
133,
116,
123,
138,
119,
107,
131,
117,
115,
130,
120,
90,
127,
121,
106,
88,
117,
98,
105,
107,
101,
106,
90,
87,
91,
90,
92,
80,
96,
87,
88,
85,
77,
86,
84,
83,
88,
91,
85,
82,
69,
64,
93,
72,
76,
73,
73,
69,
59,
73,
53,
62,
79,
67,
54,
69,
67,
64,
62,
65,
73,
62,
42,
66,
65,
63,
57,
47,
56,
54,
44,
44,
50,
51,
46,
41,
41,
38,
31,
42,
32,
54,
41,
38,
41,
43,
47,
44,
50,
33,
39,
36,
39,
39,
33,
41,
38,
37,
33,
30,
36,
28,
33,
41,
37,
34,
19,
30,
33,
22,
22,
16,
29,
26,
19,
24,
21,
24,
21,
17,
23,
17,
29,
21,
25,
22,
14,
21,
9,
15,
19,
17,
18,
21,
16,
16,
8,
15,
9,
12,
14,
12,
13,
13,
11,
14,
14,
14,
14,
12,
10,
11,
4,
11,
12,
7,
11,
11,
8,
11,
6,
3,
7,
6,
7,
12,
4,
7,
6,
6,
6,
5,
3,
5,
4,
1,
5,
3,
5,
4,
6,
1,
3,
4,
1,
3,
2,
1,
0,
0,
2,
0,
1,
0,
0,
1,
0,
0,
0,
0,
0,
0,
0,
0,
0,
1,
1,
0,
0,
1,
0,
0,
0,
0,
0,
0,
0,
0,
0,
1,
0,
0,
0,
1,
0,
0,
1,
0,
0,
1,
0,
1,
0,
0,
0,
0,
0,
0,
0,
0,
0,
0,
0,
0,
0,
0,
0,
0,
0,
1,
0,
1,
0,
0,
0,
1,
1,
0,
0,
0,
0,
0,
0,
0,
0,
0,
0,
0,
0,
0,
0,
0,
0,
0,
0,
0,
0,
0,
0,
0,
0,
0,
0,
0,
0,
0,
0,
0,
1,
1,
0,
0,
0,
0,
0,
0,
0,
0,
0,
0,
0,
1,
0,
0,
0,
0,
0,
0,
0,
0,
0,
0,
0,
0,
0,
0,
0,
0,
0,
0,
0,
0,
0,
0,
0,
0,
0,
0,
0,
0,
0,
0,
0,
0,
0,
0,
0,
0,
0,
0,
0,
0,
0,
0,
0,
0,
0,
0,
0,
0,
0,
0,
0,
0,
0,
0,
0,
0,
0,
0,
0,
0,
1,
0,
0,
0,
0,
0,
0,
0,
0,
0,
0,
0,
0,
0,
1,
0,
0,
0,
0,
0,
0,
0,
0,
0,
0,
0,
0,
0,
0,
0,
0,
0,
0,
0,
0,
0,
0,
0,
0,
0,
0,
0,
0,
0,
0,
0,
0,
0,
0,
0,
0,
0,
0,
0,
0,
0,
0,
0,
0,
0,
0,
0,
0,
0,
0,
0,
0,
0,
0,
0,
0,
0,
0,
0,
0,
0,
0,
0,
0,
0,
0,
0,
0,
0,
0,
0,
0,
0,
0,
0,
0,
0,
0,
0,
0,
0,
0,
0,
0,
0,
0,
0,
0,
0,
0,
0,
0,
0,
0,
0,
0,
0,
0,
0,
0,
0,
0,
0,
0,
0,
0,
0,
0,
0,
0,
0,
0,
0,
0,
0,
0,
0,
0,
0,
0,
0,
0,
0,
0,
0,
0,
0,
0,
0,
0,
0,
0,
0,
0,
0,
0,
0,
0,
0,
0,
0,
0,
0,
0,
0,
0,
0,
0,
0,
0,
0,
0,
0,
0,
0,
0,
0,
0,
0,
0,
0,
0,
0,
0,
0,
0,
0,
0,
0,
0,
0,
0,
0,
0,
0,
0,
0,
0,
0,
0,
0,
0,
0,
0,
0,
0,
0,
0,
0,
0,
0,
0,
0,
0,
0,
0,
0,
0,
0,
0,
0,
0,
0,
0,
0,
0,
0,
0,
0,
0,
0,
0,
0,
0,
0,
0,
0,
0,
0,
0,
0,
0,
0,
0,
0,
0,
0,
0,
0,
0,
0,
0,
0,
0,
0,
0,
0,
0,
0,
0,
0,
0,
0,
0,
0,
0,
0,
0,
0,
0,
0,
0,
0,
0,
0,
0,
0,
0,
0,
0,
0,
0,
0,
0,
0,
0,
0,
0,
0,
0,
0,
0,
0,
0,
0,
0,
0,
0,
0,
0,
0,
0,
0,
0,
0,
0,
0,
0,
0,
0,
0,
0,
0,
0,
0,
0,
0,
0,
0,
0,
0,
0,
0,
0,
0,
0,
0,
0,
0,
0,
0,
0,
0,
0,
0,
0,
0,
0,
0,
0,
0,
0,
0,
0,
0,
0,
0,
0,
0,
0,
0,
0,
0,
0,
0,
0,
0,
0,
0,
0,
0,
0,
0,
0,
0,
0,
0,
0,
0,
0,
0,
0,
0,
0,
0,
0,
0,
0,
0,
0,
0,
0,
0,
0,
0,
0,
0,
0,
0,
0,
0,
0,
0,
0,
0,
0,
0,
0,
0,
0,
0,
0,
0,
0,
0,
0,
0,
0,
0,
0,
0,
0,
0,
0,
0,
0,
0,
0,
0,
0,
0,
0,
0,
0,
0,
0,
0,
0,
0,
0,
0,
0,
0,
0,
0,
0,
0,
0,
0,
0,
0,
0,
0,
0,
0,
0,
0,
0,
0,
0,
0,
0,
0,
0,
0,
0,
0,
0,
0,
0,
0,
0,
0,
0,
0,
0,
0,
0,
0,
0,
0,
0,
0,
0,
0,
0,
0,
0,
0,
0,
0,
0,
0,
0,
0,
0,
0,
0,
0,
0,
0,
0,
0,
0,
0,
0,
0,
0,
0,
0,
0,
0,
0,
0,
0,
0,
0,
0,
0,
0,
0,
0,
0,
0,
0,
0,
0,
0,
0,
0,
0,
0,
0,
0,
0,
0,
0,
0,
0,
0,
0,
0,
0,
0,
0,
0,
0,
0,
#ENDOFDATA   :