File: N132962/Quantification/20 keV/MMM1/SPI MM1 Fluorapatite[0][4].msa
#FORMAT      : EMSA/MAS Spectral Data File
#VERSION     : 1.0
#TITLE       : SPI MM1 Fluorapatite[0][all]
#DATE        : 11-MAR-2025
#TIME        : 14:36
#OWNER       : Unknown
#NPOINTS     : 4096
#NCOLUMNS    : 1
#XUNITS      : eV
#YUNITS      : counts
#DATATYPE    : Y
#XPERCHAN    : 9.99778
#OFFSET      : 1.69135
#BEAMKV      : 20
#SIGNALTYPE  : EDS
#ELEVANGLE   : 35
#AZIMANGLE   : 0
#LIVETIME    : 239.887
#REALTIME    : 255.655
#PROBECUR    : 1.02809
#TAUWIND     : 0
#TDEADLYR    : 0
#TACTLYR     : 0.045
#TALWIND     : 0.025
#CHOFFSET    : 0.0
#XLABEL      : Energy (eV)
#YLABEL      : Counts
#XPOSITION   : -2.61176
#YPOSITION   : 1.88828
#ZPOSITION   : 30.9284
#EDSDET      : SD
##SPECIMEN   : SPI MM1 Fluorapatite[0][all]
##D2STDCMP   : Fluorapatite,(O:35.868),(F:3.5492),(P:23.146),(Ca:37.4368)
##DET_HASH   : 12273538-fd48-a23f-0a19-f1e6fa85caef
##CALIB_HASH : 6abaa72c-aa41-8738-0be9-f592914732f3
##WORKING    : 15.0 mm
##DET_NAME   : EDAX All
##DET_MODE   : MediumLE
#SPECTRUM    :
28,
15,
17,
23,
120,
403,
1066,
3354,
11409,
18542,
13506,
6560,
3503,
2653,
3129,
8339,
30562,
59236,
44184,
12740,
3337,
4573,
8137,
7607,
4034,
2522,
2358,
2601,
2771,
2965,
3055,
3068,
3097,
3728,
4270,
4460,
4019,
3863,
3799,
4004,
4093,
4191,
4280,
4349,
4518,
4538,
4692,
4699,
4823,
4938,
5098,
4940,
5011,
4987,
5194,
5069,
5311,
6239,
7018,
7303,
7543,
7283,
7515,
10318,
19629,
48120,
101979,
139113,
108120,
50074,
19155,
11696,
8914,
5902,
4429,
4255,
4863,
4957,
4518,
3780,
3421,
3265,
3274,
3374,
3459,
3297,
3288,
3162,
3127,
3101,
3102,
3037,
3056,
3112,
3113,
3062,
3089,
3007,
2991,
3002,
2981,
2948,
3005,
2958,
2970,
2908,
2955,
2945,
2924,
2722,
2874,
2740,
2710,
2721,
2731,
2885,
3189,
3806,
5194,
10536,
29814,
76652,
144279,
182345,
153688,
86267,
32950,
10224,
4177,
3404,
4535,
7898,
14417,
21765,
24161,
19167,
10858,
5263,
2854,
1943,
1906,
1913,
1817,
1728,
1807,
1677,
1720,
1698,
1708,
1618,
1727,
1745,
1680,
1660,
1779,
1774,
1687,
1724,
1645,
1702,
1862,
1859,
1934,
1691,
1711,
1634,
1581,
1525,
1709,
1634,
1590,
1605,
1611,
1649,
1671,
1724,
1646,
1600,
1566,
1560,
1422,
1507,
1437,
1419,
1478,
1454,
1486,
1572,
1600,
1684,
1659,
1607,
1559,
1393,
1343,
1358,
1398,
1331,
1322,
1315,
1363,
1303,
1274,
1258,
1248,
1216,
1215,
1239,
1227,
1246,
1193,
1246,
1286,
1307,
1259,
1287,
1244,
1202,
1110,
1096,
1141,
1157,
1145,
1049,
1113,
1068,
1098,
1064,
1031,
1053,
974,
1036,
1016,
962,
1038,
969,
934,
965,
999,
914,
986,
1013,
995,
972,
960,
985,
1104,
1132,
1072,
1032,
1008,
969,
903,
906,
866,
886,
926,
863,
898,
866,
879,
867,
793,
839,
866,
825,
812,
817,
764,
812,
818,
804,
774,
801,
782,
747,
766,
778,
703,
759,
767,
730,
754,
732,
743,
704,
687,
705,
699,
674,
634,
650,
616,
659,
705,
718,
622,
633,
639,
631,
653,
622,
637,
591,
599,
615,
590,
606,
641,
617,
601,
621,
559,
545,
642,
554,
611,
594,
514,
586,
548,
570,
534,
543,
576,
527,
530,
567,
498,
515,
529,
525,
517,
491,
505,
516,
492,
513,
489,
462,
490,
483,
448,
492,
500,
496,
426,
449,
427,
477,
443,
432,
431,
443,
446,
408,
408,
436,
445,
432,
414,
430,
406,
428,
386,
413,
425,
417,
392,
357,
390,
331,
354,
376,
390,
379,
343,
374,
358,
343,
360,
344,
329,
351,
357,
322,
311,
348,
319,
347,
336,
300,
313,
328,
315,
325,
312,
281,
302,
303,
289,
286,
274,
318,
312,
277,
308,
283,
259,
286,
274,
263,
275,
258,
293,
266,
249,
241,
250,
250,
250,
250,
261,
249,
214,
242,
213,
210,
229,
242,
224,
235,
216,
243,
199,
214,
206,
214,
191,
189,
197,
194,
182,
224,
179,
196,
157,
172,
169,
164,
200,
169,
203,
175,
160,
165,
195,
161,
166,
189,
155,
153,
151,
145,
146,
149,
150,
147,
157,
190,
150,
164,
168,
167,
147,
136,
153,
150,
140,
141,
134,
136,
124,
119,
127,
123,
122,
119,
108,
126,
112,
96,
118,
101,
109,
99,
85,
112,
109,
101,
100,
109,
105,
92,
79,
98,
92,
98,
91,
93,
103,
88,
96,
71,
81,
85,
74,
82,
85,
95,
76,
78,
82,
81,
82,
57,
80,
79,
68,
68,
71,
70,
74,
58,
61,
55,
59,
80,
65,
81,
64,
68,
67,
42,
62,
56,
54,
43,
63,
54,
42,
67,
45,
44,
54,
38,
46,
50,
48,
48,
42,
38,
43,
42,
42,
43,
36,
46,
55,
31,
44,
33,
34,
29,
48,
36,
43,
40,
37,
29,
25,
23,
32,
31,
33,
30,
37,
28,
22,
35,
24,
23,
30,
25,
23,
27,
29,
24,
22,
15,
21,
18,
22,
14,
24,
20,
18,
21,
20,
18,
18,
16,
12,
15,
12,
13,
17,
13,
8,
13,
21,
14,
10,
14,
13,
13,
9,
10,
5,
8,
7,
4,
10,
7,
11,
7,
7,
7,
8,
7,
8,
10,
6,
5,
10,
6,
5,
3,
5,
3,
5,
8,
6,
6,
1,
4,
3,
1,
3,
2,
3,
2,
2,
0,
0,
0,
0,
0,
1,
0,
0,
0,
0,
1,
0,
1,
0,
1,
0,
0,
0,
1,
0,
1,
0,
1,
0,
0,
0,
0,
1,
0,
1,
1,
0,
0,
0,
0,
0,
0,
2,
0,
0,
0,
0,
1,
0,
0,
0,
0,
0,
0,
1,
0,
1,
0,
0,
0,
0,
0,
0,
0,
0,
0,
0,
0,
0,
0,
0,
0,
1,
0,
0,
0,
0,
0,
0,
0,
0,
0,
1,
0,
0,
0,
0,
0,
1,
0,
0,
0,
0,
0,
1,
0,
0,
0,
0,
0,
0,
0,
0,
0,
0,
0,
0,
0,
0,
0,
0,
0,
0,
0,
0,
0,
0,
0,
0,
0,
0,
0,
0,
1,
0,
0,
0,
0,
0,
0,
0,
0,
0,
0,
0,
0,
0,
0,
0,
0,
0,
0,
0,
0,
0,
0,
0,
0,
0,
0,
0,
0,
0,
1,
0,
0,
0,
0,
0,
0,
0,
0,
0,
0,
0,
0,
0,
0,
0,
0,
0,
0,
0,
0,
0,
0,
0,
0,
0,
0,
0,
0,
0,
0,
0,
0,
0,
0,
0,
0,
0,
0,
0,
0,
0,
0,
0,
0,
0,
0,
0,
0,
0,
0,
0,
0,
0,
0,
0,
0,
0,
0,
0,
0,
0,
0,
0,
0,
0,
0,
0,
0,
0,
0,
0,
0,
0,
0,
0,
0,
0,
0,
1,
0,
0,
0,
0,
0,
0,
0,
0,
0,
0,
0,
0,
0,
0,
0,
0,
0,
0,
0,
0,
0,
0,
0,
0,
0,
0,
0,
0,
0,
0,
0,
0,
0,
0,
0,
0,
0,
0,
0,
0,
0,
0,
0,
0,
0,
0,
0,
0,
0,
0,
0,
0,
0,
0,
0,
0,
0,
0,
0,
0,
0,
0,
0,
0,
0,
0,
0,
0,
0,
0,
0,
0,
0,
0,
0,
0,
0,
0,
0,
0,
0,
0,
0,
0,
1,
0,
0,
0,
0,
0,
0,
0,
0,
0,
0,
1,
0,
0,
0,
0,
0,
0,
0,
0,
0,
0,
0,
0,
0,
0,
0,
0,
0,
0,
0,
0,
0,
0,
0,
0,
0,
0,
0,
0,
0,
0,
0,
0,
0,
0,
0,
0,
0,
0,
0,
0,
0,
0,
1,
0,
0,
0,
0,
0,
0,
0,
0,
0,
0,
0,
0,
0,
0,
0,
0,
0,
0,
0,
0,
0,
0,
0,
0,
0,
0,
0,
0,
0,
0,
0,
0,
0,
0,
0,
0,
0,
0,
0,
0,
0,
0,
0,
0,
0,
0,
0,
0,
0,
0,
0,
0,
0,
0,
0,
0,
0,
0,
0,
0,
0,
0,
0,
0,
0,
0,
0,
0,
0,
0,
0,
0,
0,
0,
0,
0,
0,
0,
0,
0,
0,
0,
0,
0,
0,
0,
0,
0,
0,
0,
0,
0,
0,
0,
0,
0,
0,
0,
0,
0,
0,
0,
0,
0,
0,
0,
0,
0,
0,
0,
0,
0,
0,
0,
0,
0,
0,
0,
0,
0,
0,
0,
0,
0,
0,
0,
0,
0,
0,
0,
0,
0,
0,
0,
0,
0,
0,
0,
0,
0,
0,
0,
0,
0,
0,
0,
0,
0,
0,
0,
0,
0,
0,
0,
0,
0,
0,
0,
0,
0,
0,
0,
0,
0,
0,
0,
0,
0,
0,
0,
0,
0,
0,
0,
0,
0,
0,
0,
0,
0,
0,
0,
0,
0,
0,
0,
0,
0,
0,
0,
0,
0,
0,
0,
0,
0,
0,
0,
0,
0,
0,
0,
0,
0,
0,
0,
0,
0,
0,
0,
0,
0,
0,
0,
0,
0,
0,
0,
0,
0,
0,
0,
0,
0,
0,
0,
0,
0,
0,
0,
0,
0,
0,
0,
0,
0,
0,
0,
0,
0,
0,
0,
0,
0,
0,
0,
0,
0,
0,
0,
0,
0,
0,
0,
0,
0,
0,
0,
0,
0,
0,
0,
0,
0,
0,
0,
0,
0,
0,
0,
0,
0,
0,
0,
0,
0,
0,
0,
0,
0,
0,
0,
0,
0,
0,
0,
0,
0,
0,
0,
0,
0,
0,
0,
0,
0,
0,
0,
0,
0,
0,
0,
0,
0,
0,
0,
0,
0,
0,
0,
0,
0,
0,
0,
0,
0,
0,
0,
0,
0,
0,
0,
0,
0,
0,
0,
0,
0,
0,
0,
0,
0,
0,
0,
0,
0,
#ENDOFDATA   :