File: N132962/Quantification/20 keV/MMM1/SPI MM1 Chalcopyrite[3][4].msa
#FORMAT      : EMSA/MAS Spectral Data File
#VERSION     : 1.0
#TITLE       : SPI MM1 Chalcopyrite[3][all]
#DATE        : 11-MAR-2025
#TIME        : 14:30
#OWNER       : Unknown
#NPOINTS     : 4096
#NCOLUMNS    : 1
#XUNITS      : eV
#YUNITS      : counts
#DATATYPE    : Y
#XPERCHAN    : 9.99778
#OFFSET      : 1.69135
#BEAMKV      : 20
#SIGNALTYPE  : EDS
#ELEVANGLE   : 35
#AZIMANGLE   : 0
#LIVETIME    : 239.785
#REALTIME    : 260.327
#PROBECUR    : 1.02809
#TAUWIND     : 0
#TDEADLYR    : 0
#TACTLYR     : 0.045
#TALWIND     : 0.025
#CHOFFSET    : 0.0
#XLABEL      : Energy (eV)
#YLABEL      : Counts
#XPOSITION   : -4.86775
#YPOSITION   : -3.78377
#ZPOSITION   : 30.9284
#EDSDET      : SD
##SPECIMEN   : SPI MM1 Chalcopyrite[3][all]
##D2STDCMP   : Chalcopyrite,(S:34.9407),(Fe:30.4314),(Cu:34.6279),4.2
##DET_HASH   : 12273538-fd48-a23f-0a19-f1e6fa85caef
##CALIB_HASH : 6abaa72c-aa41-8738-0be9-f592914732f3
##WORKING    : 15.0 mm
##DET_NAME   : EDAX All
##DET_MODE   : MediumLE
#SPECTRUM    :
27,
37,
11,
39,
193,
547,
1047,
3255,
9361,
12188,
6414,
2849,
2697,
3006,
3209,
3676,
4977,
6725,
10504,
14849,
17649,
17611,
24567,
40674,
36021,
17211,
10925,
11428,
11604,
22431,
58364,
84519,
55905,
18734,
6194,
4016,
3672,
3530,
3550,
3711,
3809,
3967,
3952,
4127,
4349,
4423,
4460,
4654,
4803,
4956,
5020,
5049,
5051,
4969,
5243,
5320,
5518,
6068,
6231,
6260,
5802,
5642,
5275,
5379,
5205,
5467,
5431,
5625,
5670,
5674,
5693,
6349,
8211,
14052,
33401,
90859,
186239,
232700,
168841,
73775,
26267,
19104,
21364,
18076,
10854,
6004,
4322,
3784,
3742,
3714,
3683,
3723,
3742,
3815,
3705,
3644,
3629,
3770,
3760,
3897,
3845,
3733,
3827,
3772,
3716,
3737,
3854,
3844,
3909,
3981,
3756,
3680,
3715,
3561,
3542,
3694,
3542,
3606,
3492,
3661,
3644,
3520,
3466,
3498,
3355,
3426,
3373,
3432,
3380,
3413,
3385,
3363,
3336,
3298,
3233,
3303,
3317,
3283,
3300,
3206,
3189,
3091,
3096,
3205,
3153,
3130,
3027,
3098,
3033,
3147,
3183,
3161,
3176,
3281,
3433,
3431,
3242,
3069,
2947,
2962,
2972,
2868,
2944,
2748,
2804,
2656,
2815,
2777,
2688,
2700,
2681,
2628,
2677,
2669,
2678,
2617,
2607,
2671,
2537,
2590,
2562,
2594,
2540,
2497,
2492,
2475,
2399,
2390,
2358,
2327,
2410,
2307,
2371,
2356,
2347,
2293,
2400,
2345,
2226,
2307,
2251,
2302,
2207,
2293,
2271,
2473,
2461,
2786,
4178,
8096,
17513,
34005,
52971,
64742,
60881,
43807,
25129,
11638,
5145,
2865,
2223,
2020,
1933,
2031,
2069,
1957,
1989,
2080,
2028,
2171,
2401,
3032,
4568,
6731,
8979,
9931,
9142,
7062,
4762,
2991,
2197,
1823,
1640,
1599,
1672,
1636,
1642,
1670,
1605,
1703,
1633,
1618,
1466,
1573,
1508,
1527,
1524,
1507,
1548,
1547,
1589,
1771,
2343,
4064,
8158,
15659,
25336,
34134,
36509,
32770,
23383,
13808,
6910,
3477,
2040,
1570,
1373,
1285,
1276,
1321,
1366,
1277,
1287,
1295,
1286,
1319,
1316,
1345,
1331,
1466,
1518,
1642,
1932,
2523,
3664,
4810,
5654,
5798,
5086,
3884,
2575,
1818,
1350,
1144,
1078,
1036,
1022,
996,
1038,
1037,
1069,
1014,
1003,
1019,
1031,
944,
951,
965,
930,
963,
942,
942,
923,
958,
911,
947,
941,
908,
899,
848,
938,
894,
900,
862,
822,
927,
868,
901,
865,
841,
848,
904,
939,
865,
911,
883,
918,
857,
837,
828,
840,
769,
829,
776,
731,
741,
756,
763,
810,
741,
737,
687,
727,
693,
778,
731,
693,
702,
712,
653,
657,
684,
675,
682,
699,
670,
700,
668,
650,
626,
604,
637,
549,
627,
588,
581,
626,
594,
600,
586,
584,
590,
558,
584,
576,
568,
547,
535,
558,
558,
532,
521,
542,
541,
514,
513,
481,
516,
509,
515,
495,
456,
524,
505,
495,
510,
503,
494,
468,
453,
478,
449,
477,
454,
479,
463,
464,
440,
447,
423,
408,
394,
420,
398,
378,
425,
411,
436,
402,
396,
423,
399,
357,
364,
354,
365,
401,
332,
331,
355,
363,
337,
335,
349,
346,
328,
340,
303,
301,
315,
291,
304,
313,
293,
310,
268,
279,
276,
276,
316,
273,
281,
288,
256,
267,
289,
275,
296,
249,
269,
264,
280,
243,
253,
268,
251,
209,
218,
254,
223,
197,
257,
239,
248,
206,
206,
221,
230,
237,
223,
210,
193,
196,
191,
202,
205,
196,
199,
215,
187,
184,
172,
197,
182,
182,
179,
152,
186,
156,
172,
168,
151,
132,
170,
145,
154,
141,
167,
157,
161,
140,
122,
152,
153,
127,
143,
142,
114,
129,
115,
103,
145,
114,
116,
103,
122,
117,
128,
107,
102,
83,
101,
115,
113,
93,
104,
105,
103,
94,
101,
85,
92,
65,
84,
93,
111,
100,
81,
81,
77,
103,
99,
88,
79,
77,
61,
81,
75,
71,
63,
84,
66,
72,
47,
64,
61,
53,
64,
56,
62,
67,
50,
55,
55,
62,
46,
54,
48,
50,
42,
49,
51,
38,
47,
62,
45,
47,
49,
32,
29,
38,
38,
32,
30,
30,
24,
28,
27,
30,
34,
32,
24,
38,
23,
25,
29,
20,
22,
27,
24,
18,
24,
27,
22,
24,
19,
21,
17,
14,
17,
25,
21,
13,
10,
10,
15,
9,
10,
14,
16,
7,
7,
8,
12,
8,
5,
4,
3,
7,
3,
4,
4,
5,
3,
8,
3,
4,
1,
4,
1,
3,
0,
1,
0,
3,
0,
2,
2,
0,
1,
0,
6,
0,
1,
1,
3,
2,
1,
0,
2,
1,
0,
1,
0,
1,
1,
1,
1,
1,
0,
0,
0,
1,
0,
1,
2,
0,
1,
1,
0,
2,
0,
1,
0,
1,
0,
3,
2,
0,
1,
2,
0,
1,
0,
0,
2,
2,
1,
0,
2,
1,
1,
0,
1,
0,
0,
1,
1,
0,
1,
0,
0,
1,
0,
1,
1,
1,
0,
2,
0,
1,
0,
0,
0,
0,
2,
1,
1,
0,
1,
0,
0,
1,
0,
1,
0,
0,
0,
1,
0,
1,
0,
0,
0,
0,
0,
0,
1,
0,
0,
0,
0,
0,
0,
0,
0,
0,
0,
1,
0,
0,
0,
0,
1,
0,
0,
1,
0,
0,
0,
1,
0,
0,
0,
1,
0,
0,
0,
0,
0,
2,
0,
1,
0,
0,
0,
1,
0,
1,
0,
1,
2,
1,
0,
1,
0,
2,
1,
0,
0,
0,
0,
1,
0,
0,
0,
0,
0,
0,
0,
0,
0,
0,
1,
0,
0,
0,
0,
0,
0,
0,
0,
0,
0,
0,
0,
0,
0,
0,
1,
0,
1,
0,
0,
0,
0,
0,
0,
0,
0,
0,
0,
0,
0,
0,
0,
0,
0,
0,
0,
0,
0,
0,
0,
1,
0,
0,
0,
0,
0,
0,
0,
0,
0,
0,
0,
0,
0,
0,
0,
0,
0,
0,
0,
0,
0,
0,
0,
0,
0,
0,
0,
0,
0,
0,
0,
0,
0,
0,
0,
0,
0,
1,
0,
0,
0,
1,
0,
0,
0,
0,
0,
0,
0,
0,
0,
0,
0,
0,
0,
0,
0,
0,
0,
0,
0,
0,
0,
1,
0,
0,
0,
0,
0,
0,
0,
0,
1,
0,
0,
0,
0,
0,
0,
0,
0,
0,
0,
0,
0,
0,
0,
0,
0,
0,
0,
0,
0,
0,
0,
0,
0,
0,
0,
0,
0,
0,
0,
0,
0,
0,
0,
0,
0,
0,
0,
1,
0,
0,
1,
0,
0,
0,
0,
0,
0,
0,
0,
0,
0,
0,
0,
0,
0,
0,
0,
0,
0,
0,
0,
0,
0,
0,
0,
0,
0,
0,
0,
0,
0,
0,
0,
0,
0,
0,
0,
0,
0,
0,
0,
0,
0,
0,
0,
0,
0,
0,
0,
0,
0,
0,
0,
0,
0,
0,
0,
0,
0,
0,
0,
0,
0,
0,
0,
0,
0,
0,
0,
0,
0,
0,
0,
0,
0,
0,
0,
0,
0,
0,
0,
1,
0,
0,
0,
0,
0,
0,
0,
0,
0,
0,
0,
0,
0,
0,
0,
0,
0,
0,
0,
0,
0,
0,
0,
0,
0,
0,
0,
0,
0,
0,
0,
0,
0,
0,
0,
0,
0,
0,
0,
0,
0,
0,
0,
0,
0,
0,
0,
0,
0,
0,
0,
0,
0,
0,
0,
0,
0,
0,
0,
0,
0,
0,
0,
0,
0,
0,
0,
0,
0,
0,
0,
0,
0,
0,
0,
0,
0,
0,
0,
0,
0,
0,
0,
0,
0,
0,
0,
0,
0,
0,
0,
0,
0,
0,
0,
0,
0,
0,
0,
0,
0,
0,
0,
0,
0,
0,
0,
0,
0,
0,
0,
0,
0,
0,
0,
0,
0,
0,
0,
0,
0,
0,
0,
0,
0,
0,
0,
0,
0,
0,
0,
0,
0,
0,
0,
0,
0,
0,
0,
0,
0,
0,
0,
0,
0,
0,
0,
0,
0,
0,
0,
0,
0,
0,
0,
0,
0,
0,
0,
0,
0,
0,
0,
0,
0,
0,
0,
0,
0,
0,
0,
0,
0,
0,
0,
0,
0,
0,
0,
0,
0,
0,
0,
0,
0,
0,
0,
0,
0,
0,
0,
0,
0,
0,
0,
0,
0,
0,
0,
0,
0,
0,
0,
0,
0,
0,
0,
0,
0,
0,
0,
0,
0,
0,
0,
0,
0,
0,
0,
0,
0,
0,
0,
0,
0,
0,
0,
0,
0,
0,
0,
0,
0,
0,
0,
0,
0,
0,
0,
0,
0,
0,
0,
0,
0,
0,
0,
0,
0,
0,
0,
0,
0,
0,
0,
0,
0,
0,
0,
0,
0,
0,
0,
0,
0,
0,
0,
0,
0,
0,
0,
0,
0,
0,
0,
0,
0,
0,
0,
0,
0,
0,
0,
0,
0,
#ENDOFDATA   :