File: N132962/Quantification/20 keV/MMM1/SPI MM1 Crocoite[4][4].msa
#FORMAT      : EMSA/MAS Spectral Data File
#VERSION     : 1.0
#TITLE       : SPI MM1dup Crocoite[4][all]
#DATE        : 12-MAR-2025
#TIME        : 13:54
#OWNER       : Unknown
#NPOINTS     : 4096
#NCOLUMNS    : 1
#XUNITS      : eV
#YUNITS      : counts
#DATATYPE    : Y
#XPERCHAN    : 9.99778
#OFFSET      : 1.69135
#BEAMKV      : 20
#SIGNALTYPE  : EDS
#ELEVANGLE   : 35
#AZIMANGLE   : 0
#LIVETIME    : 239.841
#REALTIME    : 261.99
#PROBECUR    : 1.02627
#TAUWIND     : 0
#TDEADLYR    : 0
#TACTLYR     : 0.045
#TALWIND     : 0.025
#CHOFFSET    : 0.0
#XLABEL      : Energy (eV)
#YLABEL      : Counts
#XPOSITION   : -1.08272
#YPOSITION   : -0.62904
#ZPOSITION   : 31.03608
#EDSDET      : SD
##SPECIMEN   : SPI MM1dup Crocoite[4][all]
##DET_HASH   : 12273538-fd48-a23f-0a19-f1e6fa85caef
##CALIB_HASH : 6abaa72c-aa41-8738-0be9-f592914732f3
##WORKING    : 15.0 mm
##DET_NAME   : EDAX All
##DET_MODE   : MediumLE
#SPECTRUM    :
25,
30,
10,
46,
238,
1177,
3311,
7753,
16452,
20291,
11558,
6127,
5289,
5477,
6659,
13309,
36788,
65022,
51404,
21914,
10894,
6894,
5592,
6310,
5955,
5024,
4718,
4950,
5363,
5445,
5695,
5563,
5650,
5746,
5941,
6243,
6291,
6523,
6651,
6664,
6645,
7035,
7455,
7385,
7535,
7813,
8025,
8041,
8147,
8414,
8522,
8529,
8339,
8315,
8497,
8567,
9230,
9749,
11094,
12718,
16447,
18220,
15151,
11208,
9378,
8640,
8537,
8470,
8492,
8267,
8974,
9682,
10825,
11658,
13453,
21340,
48813,
104995,
154872,
148947,
119484,
108769,
93665,
55748,
23425,
10276,
7986,
9363,
11366,
10720,
8349,
6335,
5192,
4810,
4992,
5062,
5353,
5535,
5530,
5526,
5717,
6050,
6587,
6757,
6443,
6014,
5342,
5147,
4932,
4728,
4646,
4787,
4789,
4690,
4776,
4724,
4756,
4788,
4820,
4719,
4739,
4844,
4863,
4952,
4852,
4711,
4736,
4649,
4529,
4415,
4599,
4445,
4556,
4468,
4538,
4354,
4562,
4452,
4463,
4617,
4513,
4488,
4526,
4484,
4584,
4426,
4467,
4468,
4489,
4371,
4455,
4373,
4460,
4355,
4447,
4329,
4431,
4384,
4457,
4547,
4448,
4422,
4275,
4260,
4224,
4335,
4258,
4271,
4113,
4123,
4128,
4181,
4250,
4246,
4265,
4748,
6602,
11773,
22229,
36196,
46561,
44753,
32585,
18836,
9855,
5543,
4227,
4039,
3944,
3957,
3880,
3919,
3979,
4127,
4551,
5369,
7054,
8718,
9289,
8881,
7186,
5539,
4264,
3797,
3461,
3415,
3419,
3354,
3337,
3430,
3423,
3552,
3697,
3723,
3881,
3600,
3501,
3410,
3299,
3272,
3191,
3116,
3154,
3264,
3155,
3172,
3114,
3211,
3143,
3039,
3057,
3057,
3007,
3086,
3040,
3147,
3070,
3038,
2960,
2996,
2898,
3048,
2958,
2787,
2907,
2828,
2849,
3061,
3079,
2994,
2955,
2952,
2893,
2783,
2795,
2745,
2782,
2731,
2820,
2645,
2764,
2758,
2666,
2732,
2673,
2544,
2572,
2580,
2609,
2623,
2459,
2480,
2484,
2499,
2569,
2479,
2477,
2515,
2388,
2392,
2374,
2405,
2322,
2421,
2334,
2364,
2312,
2413,
2291,
2352,
2185,
2268,
2355,
2359,
2217,
2179,
2178,
2166,
2254,
2143,
2196,
2123,
2255,
2409,
2467,
2626,
2632,
2599,
2460,
2157,
2303,
2087,
1946,
1998,
2040,
1932,
2096,
2076,
1912,
1910,
1920,
1967,
1933,
1902,
1875,
1899,
1822,
1884,
1823,
1845,
1807,
1884,
1758,
1829,
1782,
1782,
1752,
1788,
1726,
1746,
1784,
1769,
1762,
1944,
2059,
2420,
3117,
4268,
5947,
8061,
10049,
11067,
10783,
9273,
7062,
4877,
3208,
2315,
1897,
1658,
1608,
1603,
1579,
1520,
1490,
1421,
1485,
1441,
1443,
1429,
1467,
1404,
1435,
1407,
1368,
1402,
1466,
1433,
1437,
1328,
1347,
1344,
1306,
1293,
1281,
1253,
1286,
1291,
1263,
1263,
1239,
1222,
1203,
1195,
1226,
1204,
1150,
1202,
1154,
1241,
1216,
1189,
1174,
1181,
1268,
1218,
1280,
1242,
1183,
1239,
1231,
1271,
1124,
1189,
1289,
1626,
2117,
2589,
3520,
4077,
4536,
4305,
3942,
3034,
2374,
1802,
1440,
1221,
1093,
1046,
1083,
1045,
1061,
1064,
1101,
1049,
986,
903,
827,
744,
831,
841,
802,
793,
790,
755,
783,
749,
709,
753,
758,
729,
759,
715,
704,
693,
643,
674,
713,
666,
625,
669,
647,
630,
593,
677,
657,
604,
607,
631,
635,
628,
612,
597,
612,
582,
625,
567,
581,
583,
577,
588,
566,
499,
547,
548,
603,
612,
653,
740,
734,
803,
792,
754,
703,
651,
568,
532,
467,
565,
521,
481,
509,
534,
484,
515,
498,
464,
496,
444,
412,
441,
368,
423,
390,
403,
373,
355,
429,
369,
369,
358,
397,
353,
340,
351,
375,
316,
342,
326,
347,
307,
327,
334,
304,
305,
281,
307,
295,
278,
293,
279,
242,
258,
255,
261,
233,
267,
271,
268,
279,
255,
276,
260,
262,
217,
207,
236,
229,
198,
235,
253,
223,
220,
218,
174,
184,
192,
214,
211,
203,
184,
197,
190,
183,
193,
162,
191,
187,
178,
173,
177,
190,
141,
174,
142,
150,
144,
149,
150,
157,
147,
139,
145,
138,
128,
113,
142,
119,
114,
120,
123,
124,
124,
123,
100,
106,
104,
109,
111,
106,
95,
88,
88,
100,
102,
87,
91,
80,
67,
75,
100,
69,
78,
81,
84,
59,
63,
61,
51,
53,
68,
83,
55,
59,
62,
60,
55,
52,
43,
37,
48,
47,
40,
49,
28,
29,
41,
33,
33,
32,
39,
29,
20,
23,
20,
24,
17,
11,
16,
14,
14,
8,
9,
9,
6,
9,
2,
4,
4,
6,
3,
2,
3,
3,
4,
2,
2,
1,
5,
4,
4,
2,
6,
1,
3,
6,
3,
0,
0,
3,
2,
2,
2,
4,
3,
1,
2,
3,
2,
2,
2,
4,
2,
3,
2,
4,
3,
4,
1,
3,
3,
3,
1,
4,
2,
5,
3,
4,
1,
1,
0,
1,
3,
1,
2,
1,
0,
0,
0,
3,
1,
2,
2,
2,
2,
0,
3,
3,
4,
3,
2,
2,
0,
1,
1,
0,
0,
2,
7,
2,
2,
1,
4,
0,
3,
3,
1,
1,
1,
2,
5,
3,
2,
1,
0,
1,
4,
0,
2,
0,
3,
0,
1,
1,
5,
0,
0,
1,
2,
1,
0,
0,
3,
1,
0,
1,
1,
0,
1,
0,
0,
0,
0,
0,
2,
0,
2,
1,
0,
0,
0,
3,
0,
2,
0,
2,
1,
1,
1,
1,
1,
2,
0,
0,
0,
0,
0,
0,
1,
3,
2,
1,
0,
1,
1,
2,
1,
1,
1,
0,
0,
0,
2,
2,
0,
2,
1,
1,
2,
3,
2,
1,
1,
0,
0,
0,
2,
1,
1,
0,
1,
2,
0,
0,
0,
1,
2,
2,
0,
0,
1,
0,
0,
2,
0,
0,
1,
1,
0,
2,
1,
1,
0,
3,
0,
1,
0,
0,
0,
0,
0,
1,
2,
1,
0,
2,
0,
0,
0,
2,
1,
0,
1,
1,
1,
0,
0,
1,
0,
1,
0,
2,
0,
2,
0,
0,
0,
0,
1,
0,
1,
1,
1,
1,
1,
0,
0,
0,
0,
1,
3,
1,
1,
0,
2,
0,
0,
1,
1,
0,
1,
2,
0,
0,
1,
0,
0,
0,
0,
0,
0,
0,
2,
2,
0,
0,
0,
0,
0,
0,
0,
1,
0,
0,
1,
0,
0,
0,
0,
0,
0,
0,
0,
0,
0,
0,
0,
0,
0,
0,
1,
0,
2,
0,
0,
0,
0,
0,
0,
0,
0,
0,
0,
1,
1,
0,
0,
0,
0,
0,
0,
0,
0,
0,
0,
0,
0,
1,
0,
0,
0,
0,
0,
0,
1,
0,
0,
0,
1,
0,
0,
0,
0,
0,
0,
0,
0,
0,
1,
0,
0,
0,
0,
0,
0,
0,
0,
0,
0,
0,
0,
0,
0,
0,
0,
0,
0,
0,
0,
0,
0,
0,
0,
0,
0,
0,
0,
0,
0,
0,
0,
0,
0,
0,
0,
0,
0,
0,
0,
0,
0,
0,
0,
0,
0,
0,
0,
0,
0,
0,
0,
0,
0,
0,
0,
0,
0,
0,
0,
0,
0,
0,
0,
0,
0,
0,
0,
0,
0,
0,
0,
0,
0,
0,
0,
0,
0,
0,
0,
0,
0,
0,
0,
0,
0,
0,
0,
0,
0,
0,
0,
0,
0,
0,
0,
0,
0,
0,
0,
0,
0,
0,
0,
0,
0,
0,
0,
0,
0,
0,
0,
0,
0,
0,
0,
0,
0,
0,
0,
0,
0,
0,
0,
0,
0,
0,
0,
0,
0,
0,
0,
0,
0,
0,
0,
0,
0,
0,
0,
0,
0,
0,
0,
0,
0,
0,
0,
0,
0,
0,
0,
0,
0,
0,
0,
0,
0,
0,
0,
0,
0,
0,
0,
0,
0,
0,
0,
0,
0,
0,
0,
0,
0,
0,
0,
0,
0,
0,
0,
0,
0,
0,
0,
0,
0,
0,
0,
0,
0,
0,
0,
0,
0,
0,
0,
0,
0,
0,
0,
0,
0,
0,
0,
0,
0,
0,
0,
0,
0,
0,
0,
0,
0,
0,
0,
0,
0,
0,
0,
0,
0,
0,
0,
0,
0,
0,
0,
0,
0,
0,
0,
0,
0,
0,
0,
0,
0,
0,
0,
0,
0,
0,
0,
0,
0,
0,
0,
0,
0,
0,
0,
0,
0,
0,
0,
0,
0,
0,
0,
0,
0,
0,
0,
0,
0,
0,
0,
0,
0,
0,
0,
0,
0,
0,
0,
0,
0,
0,
0,
0,
0,
0,
0,
0,
0,
0,
0,
0,
0,
0,
0,
0,
0,
0,
0,
0,
0,
0,
0,
0,
0,
0,
0,
0,
0,
0,
0,
0,
0,
0,
0,
0,
0,
0,
0,
0,
0,
0,
0,
0,
0,
0,
0,
0,
0,
0,
0,
0,
0,
0,
0,
0,
0,
0,
0,
0,
0,
0,
0,
0,
0,
0,
0,
0,
0,
#ENDOFDATA   :