File: N132962/Quantification/20 keV/MMM1/SPI MM1 Diopside[0][4].msa
#FORMAT      : EMSA/MAS Spectral Data File
#VERSION     : 1.0
#TITLE       : SPI MM1dup Diopside[0][all]
#DATE        : 12-MAR-2025
#TIME        : 15:35
#OWNER       : Unknown
#NPOINTS     : 4096
#NCOLUMNS    : 1
#XUNITS      : eV
#YUNITS      : counts
#DATATYPE    : Y
#XPERCHAN    : 9.99778
#OFFSET      : 1.69135
#BEAMKV      : 20
#SIGNALTYPE  : EDS
#ELEVANGLE   : 35
#AZIMANGLE   : 0
#LIVETIME    : 239.871
#REALTIME    : 255.276
#PROBECUR    : 1.02695
#TAUWIND     : 0
#TDEADLYR    : 0
#TACTLYR     : 0.045
#TALWIND     : 0.025
#CHOFFSET    : 0.0
#XLABEL      : Energy (eV)
#YLABEL      : Counts
#XPOSITION   : 2.16343
#YPOSITION   : 1.43719
#ZPOSITION   : 31.03609
#EDSDET      : SD
##SPECIMEN   : SPI MM1dup Diopside[0][all]
##D2STDCMP   : Diopside,(O:44.3298),(Mg:11.2237),(Si:25.939),(Ca:18.5075)
##DET_HASH   : 12273538-fd48-a23f-0a19-f1e6fa85caef
##CALIB_HASH : 6abaa72c-aa41-8738-0be9-f592914732f3
##WORKING    : 15.0 mm
##DET_NAME   : EDAX All
##DET_MODE   : MediumLE
#SPECTRUM    :
31,
27,
9,
13,
43,
284,
775,
2550,
7712,
11114,
7153,
3655,
2619,
2711,
3965,
13572,
53846,
104962,
77174,
20682,
3295,
1801,
2034,
2481,
2623,
2385,
2274,
2455,
2637,
2829,
2876,
3097,
3274,
3735,
4734,
5125,
4611,
4360,
4980,
8795,
28032,
68134,
81164,
47007,
15269,
5473,
4056,
4233,
5045,
6259,
6407,
5632,
4797,
5000,
6258,
16003,
63593,
161874,
221336,
156595,
62913,
21241,
9920,
5369,
3814,
3551,
3111,
2751,
2558,
2589,
2649,
2648,
2590,
2648,
2870,
3022,
2965,
2853,
2613,
2643,
2540,
2549,
2672,
2624,
2659,
2642,
2552,
2520,
2525,
2383,
2555,
2489,
2426,
2478,
2485,
2521,
2389,
2490,
2640,
2601,
2692,
2497,
2523,
2412,
2452,
2419,
2452,
2320,
2302,
2312,
2274,
2212,
2214,
2246,
2379,
2491,
2713,
2970,
3527,
5528,
14080,
34721,
64827,
82404,
69249,
39686,
15631,
5397,
2734,
2401,
2898,
4355,
7234,
10467,
11669,
9441,
5837,
3204,
2035,
1804,
1750,
1675,
1624,
1644,
1573,
1586,
1595,
1559,
1569,
1620,
1576,
1563,
1483,
1499,
1454,
1461,
1380,
1442,
1443,
1371,
1368,
1426,
1465,
1475,
1493,
1468,
1451,
1428,
1389,
1303,
1294,
1367,
1251,
1322,
1301,
1329,
1266,
1351,
1345,
1313,
1367,
1495,
1404,
1342,
1364,
1256,
1220,
1173,
1178,
1205,
1158,
1142,
1210,
1166,
1174,
1199,
1300,
1154,
1170,
1160,
1146,
1059,
1135,
1066,
1019,
1110,
1099,
1018,
1104,
1152,
1271,
1621,
1931,
2049,
2138,
1801,
1443,
1141,
1041,
991,
968,
940,
897,
930,
941,
920,
935,
966,
866,
890,
893,
924,
880,
987,
964,
1043,
999,
900,
913,
825,
822,
828,
817,
832,
803,
837,
913,
851,
868,
830,
783,
787,
747,
762,
756,
696,
757,
731,
706,
717,
701,
736,
725,
690,
659,
660,
712,
710,
670,
714,
674,
670,
658,
661,
611,
676,
644,
593,
612,
623,
629,
619,
602,
582,
610,
628,
617,
584,
567,
581,
523,
573,
525,
550,
577,
580,
528,
556,
539,
532,
544,
548,
539,
500,
543,
509,
518,
511,
486,
526,
503,
512,
499,
504,
500,
499,
500,
484,
453,
447,
446,
466,
475,
456,
490,
516,
436,
423,
448,
413,
453,
413,
421,
436,
430,
403,
437,
418,
390,
403,
391,
398,
375,
419,
407,
370,
392,
393,
357,
397,
371,
358,
354,
373,
350,
368,
367,
354,
354,
344,
329,
331,
358,
318,
351,
325,
292,
324,
346,
334,
319,
335,
317,
324,
353,
328,
297,
296,
312,
298,
318,
330,
280,
268,
321,
270,
304,
245,
277,
280,
268,
269,
239,
251,
265,
227,
265,
248,
271,
270,
257,
256,
235,
221,
222,
248,
229,
251,
236,
204,
187,
194,
224,
225,
206,
204,
200,
218,
179,
200,
198,
184,
187,
203,
184,
205,
194,
196,
182,
180,
165,
179,
160,
196,
180,
160,
172,
149,
153,
174,
165,
149,
159,
159,
130,
161,
172,
154,
143,
151,
137,
149,
142,
147,
146,
135,
132,
140,
125,
126,
123,
136,
122,
126,
112,
126,
129,
112,
129,
135,
124,
141,
119,
124,
109,
127,
97,
115,
108,
103,
121,
98,
105,
102,
91,
96,
89,
97,
89,
98,
91,
91,
105,
88,
97,
92,
93,
81,
88,
76,
78,
89,
88,
72,
79,
102,
75,
82,
68,
83,
71,
77,
79,
84,
73,
69,
59,
63,
69,
86,
60,
63,
62,
58,
63,
52,
57,
46,
61,
65,
57,
59,
70,
54,
45,
43,
63,
45,
51,
54,
56,
47,
54,
53,
51,
41,
39,
41,
45,
39,
52,
42,
35,
51,
36,
36,
35,
39,
38,
34,
38,
33,
29,
33,
31,
42,
30,
39,
32,
38,
30,
34,
26,
31,
28,
25,
31,
24,
19,
33,
29,
29,
25,
21,
21,
22,
23,
22,
20,
18,
25,
22,
17,
19,
24,
12,
15,
19,
19,
16,
24,
23,
24,
13,
16,
13,
23,
22,
20,
6,
19,
15,
11,
13,
12,
13,
11,
14,
11,
11,
9,
8,
8,
9,
10,
12,
6,
10,
3,
10,
9,
8,
13,
11,
6,
5,
3,
4,
3,
5,
8,
4,
2,
7,
5,
6,
4,
2,
3,
5,
7,
5,
0,
0,
4,
2,
3,
0,
3,
2,
1,
1,
0,
0,
0,
0,
0,
0,
0,
0,
0,
0,
0,
0,
1,
0,
0,
0,
0,
0,
0,
0,
0,
0,
1,
0,
0,
0,
1,
0,
0,
0,
0,
0,
0,
0,
0,
0,
0,
0,
0,
0,
0,
1,
0,
1,
0,
0,
0,
0,
0,
1,
0,
0,
0,
0,
0,
0,
0,
0,
0,
0,
0,
0,
0,
0,
0,
0,
0,
0,
0,
0,
0,
0,
0,
0,
0,
0,
0,
0,
0,
0,
0,
0,
0,
0,
0,
1,
0,
0,
0,
0,
0,
0,
0,
0,
0,
0,
0,
0,
0,
0,
0,
0,
0,
0,
0,
0,
0,
0,
2,
0,
0,
0,
0,
0,
0,
0,
0,
0,
0,
0,
0,
0,
0,
0,
0,
0,
0,
0,
0,
0,
0,
0,
0,
1,
0,
0,
0,
0,
0,
0,
0,
0,
0,
0,
0,
0,
0,
0,
0,
0,
0,
0,
0,
0,
0,
0,
0,
0,
0,
0,
0,
0,
0,
0,
0,
0,
0,
0,
0,
0,
0,
0,
0,
0,
0,
0,
0,
0,
0,
0,
0,
0,
0,
0,
0,
0,
0,
0,
0,
0,
0,
0,
0,
0,
0,
0,
0,
0,
0,
0,
0,
0,
0,
0,
0,
0,
0,
0,
0,
0,
0,
0,
0,
0,
0,
0,
0,
0,
0,
0,
0,
0,
0,
0,
0,
0,
0,
0,
0,
0,
0,
0,
0,
0,
0,
0,
0,
0,
0,
0,
0,
0,
0,
0,
0,
0,
0,
0,
0,
0,
0,
0,
0,
0,
0,
0,
0,
0,
0,
0,
0,
0,
0,
0,
0,
1,
0,
0,
0,
0,
0,
0,
0,
0,
0,
0,
0,
0,
0,
0,
0,
0,
0,
0,
0,
0,
0,
0,
0,
0,
0,
0,
0,
0,
0,
0,
0,
0,
0,
0,
0,
0,
0,
0,
0,
0,
0,
0,
0,
0,
0,
0,
0,
0,
0,
0,
0,
0,
0,
0,
0,
0,
0,
0,
0,
0,
0,
0,
0,
0,
0,
0,
0,
0,
0,
0,
0,
0,
0,
0,
0,
0,
0,
0,
0,
0,
0,
0,
0,
0,
0,
0,
0,
0,
0,
0,
0,
0,
0,
0,
0,
0,
0,
0,
0,
0,
0,
0,
0,
0,
0,
0,
0,
0,
0,
0,
0,
0,
0,
0,
0,
0,
0,
0,
0,
0,
0,
0,
0,
0,
0,
0,
0,
0,
0,
0,
0,
0,
0,
0,
0,
0,
0,
0,
0,
0,
0,
0,
0,
0,
0,
0,
0,
0,
0,
0,
0,
0,
0,
0,
0,
0,
0,
0,
0,
0,
0,
0,
0,
0,
0,
0,
0,
0,
0,
0,
0,
0,
0,
0,
0,
0,
0,
0,
0,
0,
0,
0,
0,
0,
0,
0,
0,
0,
0,
0,
0,
0,
0,
0,
0,
0,
0,
0,
0,
0,
0,
0,
0,
0,
0,
0,
0,
0,
0,
0,
0,
0,
0,
0,
0,
0,
0,
0,
0,
0,
0,
0,
0,
0,
0,
0,
0,
0,
0,
0,
0,
0,
0,
0,
0,
0,
0,
0,
0,
0,
0,
0,
0,
0,
0,
0,
0,
0,
0,
0,
0,
0,
0,
0,
0,
0,
0,
0,
0,
0,
0,
0,
0,
0,
0,
0,
0,
0,
0,
0,
0,
0,
0,
0,
0,
0,
0,
0,
0,
0,
0,
0,
0,
0,
0,
0,
0,
0,
0,
0,
0,
0,
0,
0,
0,
0,
0,
0,
0,
0,
0,
0,
0,
0,
0,
0,
0,
0,
0,
0,
0,
0,
0,
0,
0,
0,
0,
0,
0,
0,
0,
0,
0,
0,
0,
0,
0,
0,
0,
0,
0,
0,
0,
0,
0,
0,
0,
0,
0,
0,
0,
0,
0,
0,
0,
0,
0,
0,
0,
0,
0,
0,
0,
0,
0,
0,
0,
0,
0,
0,
0,
0,
0,
0,
0,
0,
0,
0,
0,
0,
0,
0,
0,
0,
0,
0,
0,
0,
0,
0,
0,
0,
0,
0,
0,
0,
0,
0,
0,
0,
0,
0,
0,
0,
0,
0,
0,
0,
0,
0,
0,
0,
0,
0,
0,
0,
0,
0,
0,
0,
0,
0,
0,
0,
0,
0,
0,
0,
0,
0,
0,
0,
0,
0,
0,
0,
0,
0,
0,
0,
0,
0,
0,
0,
0,
0,
0,
0,
#ENDOFDATA   :