File: N132962/Quantification/20 keV/MMM1/SPI MM1 Albite[4][4].msa
#FORMAT      : EMSA/MAS Spectral Data File
#VERSION     : 1.0
#TITLE       : SPI MM1 Albite[4][all]
#DATE        : 11-MAR-2025
#TIME        : 12:53
#OWNER       : Unknown
#NPOINTS     : 4096
#NCOLUMNS    : 1
#XUNITS      : eV
#YUNITS      : counts
#DATATYPE    : Y
#XPERCHAN    : 9.99778
#OFFSET      : 1.69135
#BEAMKV      : 20
#SIGNALTYPE  : EDS
#ELEVANGLE   : 35
#AZIMANGLE   : 0
#LIVETIME    : 239.841
#REALTIME    : 255.969
#PROBECUR    : 1.02699
#TAUWIND     : 0
#TDEADLYR    : 0
#TACTLYR     : 0.045
#TALWIND     : 0.025
#CHOFFSET    : 0.0
#XLABEL      : Energy (eV)
#YLABEL      : Counts
#XPOSITION   : 3.44344
#YPOSITION   : -7.03335
#ZPOSITION   : 30.9284
#EDSDET      : SD
##SPECIMEN   : SPI MM1 Albite[4][all]
##D2STDCMP   : Albite,(O:48.8112),(Na:8.7674),(Al:10.2897),(Si:32.1316)
##DET_HASH   : 12273538-fd48-a23f-0a19-f1e6fa85caef
##CALIB_HASH : 6abaa72c-aa41-8738-0be9-f592914732f3
##WORKING    : 15.0 mm
##DET_NAME   : EDAX All
##DET_MODE   : MediumLE
#SPECTRUM    :
32,
44,
9,
19,
80,
291,
770,
2362,
6517,
8531,
4786,
2529,
2555,
3425,
6411,
25349,
101927,
197622,
146098,
38941,
5219,
1848,
1884,
2044,
2208,
2313,
2347,
2541,
2696,
2931,
3132,
3719,
6893,
20683,
47232,
52423,
26807,
8118,
3769,
3416,
3402,
3638,
3773,
3949,
4295,
4533,
5776,
13594,
43074,
84742,
85335,
46008,
16510,
7232,
6614,
18408,
73775,
189173,
258322,
182895,
73382,
24186,
10251,
4900,
2648,
2276,
2209,
2324,
2183,
2126,
2033,
2040,
2140,
2205,
2581,
2865,
2772,
2473,
2295,
2212,
2193,
2136,
2131,
2184,
2227,
2110,
2084,
2175,
2125,
2088,
2193,
2139,
2264,
2240,
2147,
2131,
2076,
2055,
2048,
2021,
2070,
2013,
1915,
1983,
2085,
2039,
2066,
2245,
2367,
2450,
2473,
2517,
2308,
2043,
2072,
2218,
2276,
2217,
2109,
2019,
1920,
2028,
2132,
2246,
2162,
1879,
1754,
1645,
1713,
1592,
1650,
1619,
1617,
1632,
1662,
1603,
1592,
1571,
1508,
1513,
1544,
1463,
1495,
1542,
1420,
1490,
1442,
1477,
1398,
1469,
1386,
1368,
1383,
1413,
1387,
1392,
1292,
1397,
1375,
1293,
1263,
1252,
1310,
1337,
1299,
1313,
1266,
1224,
1306,
1244,
1238,
1312,
1243,
1141,
1245,
1173,
1103,
1179,
1155,
1165,
1121,
1102,
1127,
1084,
1124,
1080,
1146,
1109,
1047,
1123,
1022,
1004,
1016,
985,
977,
1037,
1000,
964,
998,
948,
987,
975,
917,
975,
938,
955,
962,
934,
883,
917,
907,
934,
980,
1024,
961,
955,
864,
896,
867,
849,
875,
872,
861,
820,
817,
790,
792,
775,
727,
789,
795,
809,
736,
746,
737,
777,
752,
757,
783,
754,
699,
749,
682,
678,
703,
734,
733,
725,
662,
674,
690,
654,
666,
653,
658,
627,
642,
597,
603,
596,
600,
606,
593,
618,
579,
592,
611,
582,
555,
580,
575,
619,
571,
559,
553,
536,
583,
534,
522,
556,
544,
550,
542,
514,
503,
490,
572,
506,
510,
499,
488,
553,
499,
496,
476,
472,
471,
484,
429,
472,
445,
447,
460,
473,
443,
455,
451,
431,
396,
434,
431,
426,
422,
449,
419,
416,
376,
423,
394,
388,
427,
379,
415,
398,
372,
383,
399,
382,
383,
365,
378,
362,
320,
352,
344,
315,
350,
333,
338,
374,
369,
369,
383,
357,
337,
351,
305,
309,
329,
315,
304,
320,
303,
311,
330,
292,
311,
326,
294,
288,
271,
253,
294,
298,
310,
282,
261,
249,
283,
277,
252,
275,
281,
259,
276,
249,
238,
250,
253,
238,
228,
249,
249,
242,
228,
246,
262,
232,
232,
211,
219,
220,
205,
226,
206,
210,
216,
205,
211,
194,
201,
225,
183,
179,
228,
192,
204,
187,
211,
189,
177,
209,
169,
189,
175,
157,
162,
176,
185,
173,
157,
165,
141,
177,
173,
159,
144,
174,
145,
143,
172,
135,
136,
176,
145,
137,
137,
134,
122,
130,
142,
121,
133,
124,
136,
142,
107,
123,
112,
118,
121,
132,
133,
118,
118,
128,
112,
112,
125,
90,
111,
101,
94,
106,
120,
108,
110,
109,
91,
106,
105,
111,
82,
91,
89,
102,
81,
106,
82,
72,
96,
79,
85,
85,
74,
98,
83,
70,
76,
69,
77,
81,
82,
85,
92,
71,
72,
77,
66,
81,
75,
84,
72,
72,
51,
64,
55,
52,
73,
70,
62,
45,
56,
52,
45,
59,
69,
59,
46,
57,
48,
50,
59,
44,
55,
43,
44,
32,
37,
50,
48,
41,
36,
46,
40,
50,
47,
49,
42,
37,
37,
45,
35,
36,
38,
35,
34,
29,
36,
36,
38,
30,
36,
32,
37,
37,
30,
31,
43,
20,
36,
37,
27,
34,
36,
29,
25,
38,
23,
19,
27,
26,
22,
28,
20,
15,
21,
26,
21,
24,
19,
19,
16,
15,
20,
15,
21,
18,
16,
17,
18,
18,
11,
17,
17,
19,
12,
14,
10,
13,
15,
9,
13,
12,
9,
13,
15,
11,
5,
13,
15,
12,
14,
15,
17,
12,
13,
6,
6,
7,
8,
13,
13,
9,
5,
12,
12,
6,
4,
8,
8,
4,
6,
6,
4,
3,
6,
8,
2,
5,
2,
6,
2,
4,
3,
4,
1,
3,
5,
3,
3,
2,
0,
1,
2,
3,
2,
1,
1,
1,
3,
0,
0,
0,
0,
0,
2,
0,
0,
0,
0,
0,
1,
1,
0,
0,
0,
0,
0,
0,
0,
0,
0,
0,
0,
0,
0,
0,
0,
0,
0,
0,
0,
0,
0,
1,
0,
0,
0,
0,
0,
0,
0,
0,
0,
0,
0,
0,
0,
0,
0,
0,
1,
0,
1,
0,
0,
0,
0,
0,
0,
0,
0,
0,
0,
0,
0,
0,
0,
0,
1,
0,
0,
0,
0,
0,
2,
0,
0,
0,
0,
0,
0,
0,
0,
0,
0,
0,
0,
0,
0,
0,
0,
0,
0,
0,
0,
0,
0,
0,
0,
0,
1,
0,
0,
0,
0,
0,
0,
0,
0,
0,
0,
0,
0,
0,
0,
0,
0,
0,
0,
0,
0,
0,
0,
0,
0,
0,
0,
0,
0,
0,
0,
0,
0,
0,
0,
0,
0,
0,
0,
0,
0,
0,
0,
0,
0,
0,
0,
0,
0,
0,
0,
0,
0,
0,
0,
0,
0,
0,
0,
0,
0,
0,
0,
0,
0,
0,
0,
0,
0,
0,
0,
0,
0,
0,
0,
0,
0,
0,
0,
0,
0,
0,
0,
0,
0,
0,
0,
0,
0,
0,
0,
0,
0,
0,
0,
0,
0,
0,
0,
0,
0,
0,
0,
0,
0,
0,
0,
0,
0,
0,
0,
0,
0,
0,
0,
0,
0,
0,
0,
0,
0,
0,
0,
0,
0,
0,
0,
0,
0,
0,
0,
0,
0,
0,
0,
0,
0,
0,
0,
0,
0,
0,
0,
0,
0,
0,
0,
0,
0,
0,
0,
0,
0,
0,
0,
0,
0,
0,
0,
0,
0,
0,
0,
0,
0,
1,
0,
0,
0,
0,
0,
0,
0,
0,
0,
0,
0,
0,
0,
0,
0,
0,
0,
0,
0,
0,
0,
0,
0,
0,
0,
0,
0,
0,
0,
0,
0,
0,
0,
0,
0,
0,
0,
0,
0,
0,
0,
0,
0,
0,
0,
0,
0,
0,
0,
0,
0,
0,
0,
0,
0,
0,
0,
0,
0,
0,
0,
0,
0,
0,
0,
0,
0,
0,
0,
0,
0,
0,
0,
0,
0,
0,
0,
0,
0,
0,
0,
0,
0,
0,
0,
0,
0,
0,
0,
0,
0,
0,
0,
0,
0,
0,
0,
0,
0,
0,
0,
0,
0,
0,
0,
0,
0,
0,
0,
0,
0,
0,
0,
0,
0,
0,
0,
0,
0,
0,
0,
0,
0,
0,
0,
0,
0,
0,
0,
0,
0,
0,
0,
0,
0,
0,
0,
0,
0,
0,
0,
0,
0,
0,
0,
0,
0,
0,
0,
0,
0,
0,
0,
0,
0,
0,
0,
0,
0,
0,
0,
0,
0,
0,
0,
0,
0,
0,
0,
0,
0,
0,
0,
0,
0,
0,
0,
0,
0,
0,
0,
0,
0,
0,
0,
0,
0,
0,
0,
0,
0,
0,
0,
0,
0,
0,
0,
0,
0,
0,
0,
0,
0,
0,
0,
0,
0,
0,
0,
0,
0,
0,
0,
0,
0,
0,
0,
0,
0,
0,
0,
0,
0,
0,
0,
0,
0,
0,
0,
0,
0,
0,
0,
0,
0,
0,
0,
0,
0,
0,
0,
0,
0,
0,
0,
0,
0,
0,
0,
0,
0,
0,
0,
0,
0,
0,
0,
0,
0,
0,
0,
0,
0,
0,
0,
0,
0,
0,
0,
0,
0,
0,
0,
0,
0,
0,
0,
0,
0,
0,
0,
0,
0,
0,
0,
0,
0,
0,
0,
0,
0,
0,
0,
0,
0,
0,
0,
0,
0,
0,
0,
0,
0,
0,
0,
0,
0,
0,
0,
0,
0,
0,
0,
0,
0,
0,
0,
0,
0,
0,
0,
0,
0,
0,
0,
0,
0,
0,
0,
0,
0,
0,
0,
0,
0,
0,
0,
0,
0,
0,
0,
0,
0,
0,
0,
0,
0,
0,
0,
0,
0,
0,
0,
0,
0,
0,
0,
0,
0,
0,
0,
0,
0,
0,
0,
0,
0,
0,
0,
0,
0,
0,
0,
0,
0,
0,
0,
0,
0,
0,
0,
0,
0,
0,
0,
0,
0,
0,
0,
0,
0,
0,
0,
0,
0,
0,
0,
0,
0,
0,
0,
0,
0,
0,
0,
0,
0,
0,
0,
0,
0,
0,
0,
0,
0,
0,
0,
0,
0,
0,
0,
0,
0,
0,
0,
0,
0,
0,
0,
0,
0,
0,
0,
0,
0,
0,
0,
0,
#ENDOFDATA   :