File: N132962/Quantification/20 keV/MMM1/SPI MM1 Hematite[0][4].msa
#FORMAT      : EMSA/MAS Spectral Data File
#VERSION     : 1.0
#TITLE       : SPI MM1dup Hematite[0][all]
#DATE        : 12-MAR-2025
#TIME        : 16:46
#OWNER       : Unknown
#NPOINTS     : 4096
#NCOLUMNS    : 1
#XUNITS      : eV
#YUNITS      : counts
#DATATYPE    : Y
#XPERCHAN    : 9.99778
#OFFSET      : 1.69135
#BEAMKV      : 20
#SIGNALTYPE  : EDS
#ELEVANGLE   : 35
#AZIMANGLE   : 0
#LIVETIME    : 239.833
#REALTIME    : 256.681
#PROBECUR    : 1.026781
#TAUWIND     : 0
#TDEADLYR    : 0
#TACTLYR     : 0.045
#TALWIND     : 0.025
#CHOFFSET    : 0.0
#XLABEL      : Energy (eV)
#YLABEL      : Counts
#XPOSITION   : 3.58633
#YPOSITION   : 4.19776
#ZPOSITION   : 31.03609
#EDSDET      : SD
##SPECIMEN   : SPI MM1dup Hematite[0][all]
##D2STDCMP   : Hematite,(O:30.0574),(Fe:69.9426),5.0
##DET_HASH   : 12273538-fd48-a23f-0a19-f1e6fa85caef
##CALIB_HASH : 6abaa72c-aa41-8738-0be9-f592914732f3
##WORKING    : 15.0 mm
##DET_NAME   : EDAX All
##DET_MODE   : MediumLE
#SPECTRUM    :
25,
32,
9,
23,
94,
452,
1333,
3803,
10016,
13302,
7789,
4748,
5276,
6312,
9846,
28499,
103369,
196904,
145006,
45992,
22366,
21430,
30316,
51170,
45645,
17517,
4975,
2678,
2298,
2161,
1989,
2080,
2253,
2471,
2782,
2825,
2804,
2784,
2801,
2953,
3123,
3253,
3368,
3314,
3429,
3468,
3652,
3811,
4073,
4082,
4320,
4321,
4185,
4218,
4243,
4521,
4725,
4773,
5173,
5098,
4975,
4777,
4248,
4182,
4204,
4346,
4185,
4362,
4357,
4400,
4386,
4202,
4359,
4229,
4348,
4361,
4294,
4400,
4261,
4421,
4424,
4232,
4321,
4252,
4210,
4234,
4193,
4195,
4176,
4218,
4213,
4134,
4085,
4056,
4051,
3962,
4071,
3858,
3907,
3960,
3936,
3885,
3898,
3836,
3771,
3695,
3794,
3714,
3771,
3677,
3647,
3576,
3644,
3524,
3606,
3467,
3675,
3524,
3427,
3373,
3333,
3456,
3416,
3441,
3357,
3281,
3325,
3132,
3194,
3245,
3050,
3186,
3096,
3096,
3076,
3036,
3073,
3063,
2962,
2965,
2849,
2867,
2876,
2860,
2919,
2798,
2832,
2790,
2840,
2869,
2853,
2814,
2850,
2974,
3198,
3171,
3117,
2848,
2801,
2709,
2544,
2517,
2584,
2537,
2472,
2502,
2550,
2408,
2356,
2421,
2437,
2319,
2435,
2303,
2408,
2379,
2309,
2373,
2373,
2353,
2360,
2334,
2244,
2282,
2262,
2183,
2098,
2118,
2126,
2053,
2131,
2067,
1995,
2067,
2026,
2009,
1969,
2064,
2048,
2022,
2018,
2107,
2053,
2144,
2161,
2219,
2479,
3207,
5790,
14343,
34439,
69414,
111701,
136306,
128054,
92455,
50614,
22710,
8800,
3609,
2218,
1868,
1879,
1796,
1784,
1714,
1922,
1905,
2100,
2427,
3084,
4588,
7685,
12156,
16819,
18910,
17332,
12603,
7876,
4291,
2261,
1473,
1307,
1201,
1248,
1233,
1241,
1232,
1215,
1297,
1241,
1298,
1218,
1248,
1217,
1183,
1143,
1160,
1175,
1138,
1084,
1152,
1129,
1088,
1076,
1099,
1053,
1046,
1146,
1087,
1041,
1108,
1029,
1017,
1065,
1045,
1065,
1081,
1028,
1028,
1058,
1039,
968,
967,
1003,
979,
1001,
972,
955,
994,
975,
965,
940,
973,
963,
953,
913,
932,
893,
894,
897,
894,
884,
909,
828,
856,
863,
842,
841,
869,
822,
813,
867,
826,
880,
855,
779,
802,
810,
788,
813,
820,
767,
826,
820,
777,
777,
771,
763,
770,
726,
705,
740,
741,
716,
714,
705,
731,
665,
730,
729,
693,
697,
684,
694,
642,
666,
682,
639,
666,
656,
624,
643,
663,
640,
641,
639,
647,
580,
646,
619,
582,
615,
577,
614,
567,
607,
602,
574,
578,
599,
540,
573,
601,
554,
544,
571,
551,
537,
519,
577,
511,
480,
536,
522,
480,
502,
517,
458,
467,
513,
485,
463,
502,
460,
492,
430,
449,
431,
434,
416,
424,
452,
436,
382,
434,
425,
394,
420,
412,
419,
398,
400,
407,
411,
393,
411,
406,
373,
370,
372,
389,
382,
399,
399,
421,
434,
468,
446,
415,
393,
385,
340,
339,
333,
333,
309,
298,
313,
328,
312,
294,
311,
311,
300,
310,
306,
324,
320,
296,
319,
298,
263,
286,
264,
260,
259,
291,
296,
270,
274,
272,
226,
238,
243,
237,
283,
233,
223,
243,
231,
244,
237,
228,
221,
208,
211,
210,
190,
198,
204,
203,
174,
186,
214,
200,
195,
201,
177,
172,
189,
165,
183,
155,
161,
156,
164,
170,
181,
165,
156,
151,
177,
160,
146,
159,
144,
152,
138,
156,
130,
148,
138,
146,
131,
142,
131,
150,
134,
127,
120,
135,
152,
120,
120,
108,
99,
102,
115,
114,
113,
100,
104,
110,
108,
90,
101,
106,
94,
114,
113,
100,
99,
84,
104,
91,
87,
108,
86,
79,
103,
82,
93,
77,
75,
79,
70,
77,
78,
68,
74,
65,
67,
62,
61,
54,
61,
70,
56,
74,
51,
72,
55,
68,
62,
50,
74,
60,
70,
58,
53,
38,
52,
57,
40,
46,
53,
47,
60,
43,
47,
38,
42,
61,
42,
41,
30,
34,
45,
36,
37,
36,
29,
29,
28,
35,
32,
34,
36,
32,
40,
29,
25,
26,
38,
21,
19,
19,
28,
27,
25,
26,
15,
25,
27,
14,
19,
21,
25,
23,
11,
17,
12,
15,
19,
29,
15,
15,
12,
14,
7,
8,
11,
10,
16,
8,
15,
10,
6,
17,
7,
7,
5,
5,
8,
9,
4,
4,
5,
4,
3,
1,
7,
3,
1,
2,
1,
1,
1,
0,
2,
3,
1,
2,
2,
1,
0,
1,
0,
1,
0,
0,
0,
0,
0,
0,
0,
1,
0,
0,
0,
0,
1,
1,
1,
0,
0,
3,
0,
0,
1,
1,
1,
0,
3,
0,
0,
0,
0,
0,
0,
0,
1,
1,
1,
0,
0,
0,
0,
1,
1,
1,
0,
1,
1,
1,
1,
0,
1,
1,
0,
0,
0,
1,
0,
0,
0,
1,
0,
1,
0,
1,
0,
1,
0,
1,
1,
0,
0,
1,
1,
2,
1,
0,
0,
0,
2,
0,
0,
0,
0,
0,
1,
0,
0,
0,
0,
2,
0,
0,
0,
0,
0,
1,
1,
0,
0,
0,
0,
0,
2,
0,
0,
0,
1,
0,
0,
0,
0,
0,
0,
0,
0,
0,
1,
0,
0,
0,
0,
0,
0,
0,
0,
0,
0,
0,
0,
0,
0,
0,
0,
0,
0,
0,
0,
0,
0,
0,
0,
0,
0,
1,
0,
0,
0,
2,
0,
0,
0,
0,
0,
0,
0,
0,
0,
0,
0,
0,
0,
0,
0,
0,
0,
0,
0,
0,
0,
0,
0,
0,
0,
1,
0,
0,
0,
0,
0,
0,
0,
0,
0,
0,
0,
0,
0,
0,
0,
0,
0,
0,
0,
0,
0,
0,
0,
0,
0,
0,
0,
0,
0,
0,
0,
0,
0,
0,
0,
0,
0,
0,
0,
0,
0,
0,
0,
0,
0,
0,
1,
0,
0,
0,
0,
0,
0,
0,
0,
0,
0,
0,
0,
0,
0,
0,
0,
0,
0,
0,
0,
0,
1,
0,
0,
0,
0,
0,
0,
0,
0,
0,
0,
0,
0,
0,
0,
0,
0,
0,
0,
0,
0,
0,
0,
0,
0,
0,
0,
0,
0,
0,
0,
0,
0,
0,
0,
0,
0,
0,
0,
0,
0,
0,
0,
0,
0,
0,
0,
0,
0,
0,
0,
0,
0,
0,
0,
0,
0,
0,
0,
0,
0,
0,
0,
0,
0,
0,
0,
0,
0,
0,
0,
0,
0,
0,
0,
0,
0,
0,
0,
0,
0,
0,
0,
0,
0,
0,
0,
0,
0,
0,
0,
0,
0,
0,
0,
0,
0,
0,
0,
0,
0,
0,
0,
0,
0,
0,
0,
0,
0,
0,
0,
0,
0,
0,
0,
0,
0,
0,
0,
0,
0,
0,
0,
0,
0,
0,
0,
0,
0,
0,
0,
0,
0,
0,
0,
0,
0,
0,
0,
0,
0,
0,
0,
0,
0,
0,
0,
0,
0,
0,
0,
0,
0,
0,
0,
0,
0,
0,
0,
0,
0,
0,
0,
0,
0,
0,
0,
0,
0,
0,
0,
0,
0,
0,
0,
0,
0,
0,
0,
0,
0,
0,
0,
0,
0,
0,
0,
0,
0,
0,
0,
0,
0,
0,
0,
0,
0,
0,
0,
0,
0,
0,
0,
0,
0,
0,
0,
0,
0,
0,
0,
0,
0,
0,
0,
0,
0,
0,
0,
0,
0,
0,
0,
0,
0,
0,
0,
0,
0,
0,
0,
0,
0,
0,
0,
0,
0,
0,
0,
0,
0,
0,
0,
0,
0,
0,
0,
0,
0,
0,
0,
0,
0,
0,
0,
0,
0,
0,
0,
0,
0,
0,
0,
0,
0,
0,
0,
0,
0,
0,
0,
0,
0,
0,
0,
0,
0,
0,
0,
0,
0,
0,
0,
0,
0,
0,
0,
0,
0,
0,
0,
0,
0,
0,
0,
0,
0,
0,
0,
0,
0,
0,
0,
0,
0,
0,
0,
0,
0,
0,
0,
0,
0,
0,
0,
0,
0,
0,
0,
0,
0,
0,
0,
0,
0,
0,
0,
0,
0,
0,
0,
0,
0,
0,
0,
0,
0,
0,
0,
0,
0,
0,
0,
0,
0,
0,
0,
0,
0,
0,
0,
0,
0,
0,
0,
0,
0,
0,
0,
0,
0,
0,
0,
0,
0,
0,
0,
0,
0,
0,
0,
0,
0,
0,
0,
0,
0,
0,
0,
0,
0,
0,
0,
0,
0,
0,
0,
0,
0,
0,
0,
0,
0,
0,
0,
0,
0,
0,
0,
0,
0,
0,
0,
0,
0,
0,
0,
0,
0,
0,
0,
0,
0,
0,
0,
0,
0,
0,
0,
0,
0,
0,
0,
0,
0,
0,
0,
0,
0,
0,
0,
0,
0,
0,
0,
0,
0,
0,
0,
0,
0,
0,
0,
0,
0,
0,
#ENDOFDATA   :