File: N132962/Quantification/20 keV/MMM1/SPI MM1 Calcite[2][4].msa
#FORMAT      : EMSA/MAS Spectral Data File
#VERSION     : 1.0
#TITLE       : SPI MM1 Calcite[2][all]
#DATE        : 11-MAR-2025
#TIME        : 14:14
#OWNER       : Unknown
#NPOINTS     : 4096
#NCOLUMNS    : 1
#XUNITS      : eV
#YUNITS      : counts
#DATATYPE    : Y
#XPERCHAN    : 9.99778
#OFFSET      : 1.69135
#BEAMKV      : 20
#SIGNALTYPE  : EDS
#ELEVANGLE   : 35
#AZIMANGLE   : 0
#LIVETIME    : 239.922
#REALTIME    : 252.206
#PROBECUR    : 1.02902
#TAUWIND     : 0
#TDEADLYR    : 0
#TACTLYR     : 0.045
#TALWIND     : 0.025
#CHOFFSET    : 0.0
#XLABEL      : Energy (eV)
#YLABEL      : Counts
#XPOSITION   : 0.11014
#YPOSITION   : -2.9602
#ZPOSITION   : 30.9284
#EDSDET      : SD
##SPECIMEN   : SPI MM1 Calcite[2][all]
##D2STDCMP   : Calcite,(C:12.0003),(O:47.9565),(Ca:40.0432),5.0
##DET_HASH   : 12273538-fd48-a23f-0a19-f1e6fa85caef
##CALIB_HASH : 6abaa72c-aa41-8738-0be9-f592914732f3
##WORKING    : 15.0 mm
##DET_NAME   : EDAX All
##DET_MODE   : MediumLE
#SPECTRUM    :
30,
38,
6,
11,
95,
462,
1834,
8856,
30261,
43022,
23571,
7423,
3241,
2143,
2882,
9033,
34981,
68960,
50915,
13866,
2379,
1347,
1439,
1552,
1645,
1707,
1791,
1828,
2151,
2178,
2279,
2278,
2349,
2493,
2734,
2905,
2891,
3021,
2989,
3249,
3292,
3294,
3554,
3531,
3662,
3737,
3784,
3905,
3999,
4021,
3949,
4156,
4139,
4029,
4086,
4213,
4249,
4505,
4641,
4514,
4337,
4311,
4278,
4491,
5422,
5742,
5041,
4210,
3666,
3616,
3633,
3590,
3583,
3503,
3549,
3765,
3650,
3547,
3552,
3294,
3363,
3187,
3154,
3279,
3161,
3124,
3247,
3206,
3045,
3100,
3007,
3035,
3016,
3073,
2941,
2995,
2830,
2878,
2836,
2816,
2854,
2781,
2810,
2766,
2757,
2733,
2824,
2765,
2759,
2734,
2649,
2576,
2424,
2435,
2598,
2741,
2925,
3690,
5126,
10754,
31097,
80433,
152465,
191985,
161897,
90361,
34863,
10531,
4086,
3325,
4430,
7812,
14532,
22148,
24849,
19812,
11274,
5056,
2498,
1767,
1663,
1626,
1594,
1555,
1581,
1478,
1485,
1430,
1458,
1396,
1432,
1443,
1415,
1428,
1390,
1400,
1471,
1381,
1413,
1330,
1404,
1262,
1402,
1337,
1315,
1302,
1383,
1266,
1296,
1277,
1277,
1288,
1297,
1253,
1331,
1292,
1256,
1188,
1172,
1207,
1247,
1237,
1247,
1196,
1225,
1210,
1214,
1131,
1142,
1194,
1161,
1113,
1178,
1112,
1211,
1192,
1278,
1203,
1208,
1137,
1163,
1080,
1120,
1078,
1080,
1040,
1030,
1061,
1033,
977,
988,
1099,
1078,
1139,
1064,
1036,
1006,
989,
952,
912,
921,
878,
928,
961,
880,
889,
950,
886,
823,
861,
874,
890,
904,
884,
831,
911,
838,
893,
812,
843,
785,
808,
846,
828,
859,
917,
949,
928,
943,
849,
850,
795,
799,
716,
793,
778,
739,
774,
722,
689,
684,
669,
690,
674,
703,
654,
648,
624,
639,
644,
712,
678,
599,
628,
638,
677,
677,
626,
618,
608,
622,
626,
627,
582,
602,
547,
577,
592,
594,
562,
529,
539,
624,
567,
553,
590,
575,
573,
520,
527,
497,
524,
568,
516,
496,
526,
524,
537,
519,
508,
509,
479,
507,
496,
455,
472,
480,
469,
490,
473,
497,
414,
493,
475,
414,
423,
452,
452,
408,
463,
402,
405,
440,
413,
412,
441,
409,
402,
422,
378,
372,
379,
398,
389,
413,
366,
363,
399,
364,
382,
367,
351,
351,
358,
352,
354,
359,
327,
320,
339,
366,
344,
341,
340,
344,
348,
333,
346,
309,
326,
302,
268,
309,
310,
286,
309,
276,
305,
277,
277,
246,
292,
304,
277,
286,
266,
268,
257,
259,
263,
273,
282,
250,
272,
260,
258,
267,
235,
263,
243,
258,
217,
253,
232,
226,
252,
221,
219,
206,
254,
231,
211,
224,
212,
207,
185,
209,
187,
207,
201,
181,
192,
200,
175,
214,
154,
176,
177,
163,
166,
166,
172,
172,
181,
179,
186,
157,
170,
163,
181,
171,
156,
140,
168,
173,
152,
167,
160,
162,
132,
122,
131,
173,
151,
140,
153,
145,
144,
140,
129,
125,
145,
120,
135,
126,
111,
125,
133,
110,
109,
118,
119,
114,
119,
118,
98,
122,
114,
108,
110,
110,
108,
90,
103,
103,
100,
96,
97,
91,
88,
102,
108,
83,
97,
92,
86,
106,
71,
79,
101,
66,
95,
89,
66,
95,
81,
91,
79,
81,
75,
74,
86,
75,
77,
72,
72,
64,
64,
78,
72,
74,
74,
55,
66,
61,
52,
55,
55,
57,
48,
51,
67,
56,
60,
60,
51,
62,
54,
53,
40,
35,
50,
40,
43,
46,
43,
48,
37,
38,
33,
45,
34,
43,
33,
42,
43,
36,
40,
32,
33,
32,
36,
41,
34,
36,
35,
30,
33,
26,
29,
29,
30,
31,
26,
35,
29,
30,
26,
31,
17,
31,
30,
33,
28,
25,
24,
22,
19,
16,
21,
20,
19,
19,
16,
20,
22,
22,
17,
25,
19,
11,
16,
13,
17,
14,
14,
15,
15,
8,
14,
11,
7,
17,
12,
23,
9,
9,
12,
12,
5,
10,
11,
16,
12,
4,
11,
7,
9,
10,
11,
11,
13,
8,
8,
7,
4,
2,
4,
4,
6,
6,
9,
2,
5,
3,
4,
5,
3,
2,
3,
5,
2,
2,
1,
0,
1,
1,
2,
0,
2,
2,
0,
2,
0,
0,
0,
1,
0,
1,
1,
0,
0,
1,
0,
0,
1,
0,
0,
0,
0,
1,
0,
0,
0,
0,
0,
1,
0,
0,
0,
0,
0,
0,
0,
0,
0,
0,
0,
0,
0,
0,
0,
0,
0,
0,
0,
0,
0,
0,
0,
0,
0,
0,
0,
0,
0,
0,
0,
0,
0,
0,
0,
0,
0,
0,
1,
0,
1,
0,
0,
0,
0,
0,
0,
0,
0,
0,
0,
0,
0,
0,
0,
0,
0,
0,
0,
0,
0,
0,
0,
0,
0,
0,
0,
0,
0,
0,
0,
0,
0,
0,
0,
0,
0,
1,
0,
0,
0,
0,
0,
0,
0,
0,
0,
0,
0,
0,
0,
0,
0,
0,
0,
0,
0,
0,
0,
0,
0,
0,
0,
0,
1,
0,
0,
0,
0,
0,
0,
0,
0,
0,
0,
0,
0,
1,
0,
0,
0,
0,
0,
1,
0,
0,
0,
0,
0,
0,
0,
0,
0,
0,
0,
0,
0,
0,
0,
0,
0,
0,
0,
0,
0,
0,
0,
0,
0,
1,
0,
0,
0,
0,
0,
0,
0,
0,
0,
0,
0,
0,
0,
0,
0,
0,
0,
0,
0,
0,
0,
0,
1,
0,
0,
0,
0,
0,
0,
0,
0,
0,
0,
0,
0,
0,
0,
0,
0,
0,
0,
0,
1,
0,
0,
0,
0,
0,
0,
0,
0,
0,
0,
0,
0,
0,
0,
0,
0,
0,
0,
0,
0,
0,
0,
0,
0,
0,
0,
0,
0,
0,
0,
0,
0,
0,
0,
0,
0,
0,
0,
0,
0,
0,
0,
0,
0,
0,
0,
0,
0,
0,
0,
0,
0,
0,
0,
0,
0,
0,
0,
0,
0,
0,
0,
0,
0,
0,
0,
0,
0,
0,
0,
0,
0,
0,
0,
0,
0,
0,
0,
0,
0,
0,
0,
0,
0,
0,
0,
0,
0,
0,
0,
0,
0,
0,
0,
0,
0,
0,
0,
0,
0,
0,
0,
0,
0,
0,
0,
0,
0,
0,
0,
0,
0,
0,
0,
0,
0,
0,
0,
0,
0,
0,
0,
0,
0,
0,
0,
0,
0,
0,
0,
0,
0,
0,
0,
0,
0,
0,
0,
0,
0,
0,
0,
0,
0,
0,
0,
0,
0,
0,
0,
0,
0,
0,
0,
0,
0,
0,
0,
0,
0,
0,
0,
0,
0,
0,
0,
0,
0,
0,
0,
0,
0,
0,
0,
0,
0,
0,
0,
0,
0,
0,
0,
0,
0,
0,
0,
0,
0,
0,
0,
0,
0,
0,
0,
0,
0,
0,
0,
0,
0,
0,
0,
0,
0,
0,
0,
0,
0,
0,
0,
0,
0,
0,
0,
0,
0,
0,
0,
0,
0,
0,
0,
0,
0,
0,
0,
0,
0,
0,
0,
0,
0,
0,
0,
0,
0,
0,
0,
0,
0,
0,
0,
0,
0,
0,
0,
0,
0,
0,
0,
0,
0,
0,
0,
0,
0,
0,
0,
0,
0,
0,
0,
0,
0,
0,
0,
0,
0,
0,
0,
0,
0,
0,
0,
0,
0,
0,
0,
0,
0,
0,
0,
0,
0,
0,
0,
0,
0,
0,
0,
0,
0,
0,
0,
0,
0,
0,
0,
0,
0,
0,
0,
0,
0,
0,
0,
0,
0,
0,
0,
0,
0,
0,
0,
0,
0,
0,
0,
0,
0,
0,
0,
0,
0,
0,
0,
0,
0,
0,
0,
0,
0,
0,
0,
0,
0,
0,
0,
0,
0,
0,
0,
0,
0,
0,
0,
0,
0,
0,
0,
0,
0,
0,
0,
0,
0,
0,
0,
0,
0,
0,
0,
0,
0,
0,
0,
0,
0,
0,
0,
0,
0,
0,
0,
0,
0,
0,
0,
0,
0,
0,
0,
0,
0,
0,
0,
0,
0,
0,
0,
0,
0,
0,
0,
0,
0,
0,
0,
0,
0,
0,
0,
0,
0,
0,
0,
0,
0,
0,
0,
0,
0,
0,
0,
0,
0,
0,
0,
0,
0,
0,
0,
0,
0,
0,
0,
0,
0,
0,
0,
0,
0,
0,
0,
0,
0,
0,
0,
0,
0,
0,
0,
0,
0,
0,
0,
0,
0,
0,
0,
0,
0,
0,
0,
0,
0,
0,
0,
0,
0,
0,
0,
0,
0,
0,
0,
0,
0,
0,
0,
0,
0,
0,
0,
0,
0,
0,
0,
0,
0,
0,
0,
0,
0,
0,
0,
#ENDOFDATA   :