File: N132962/Quantification/20 keV/MMM1/SPI MM1 Fluorapatite[7][4].msa
#FORMAT      : EMSA/MAS Spectral Data File
#VERSION     : 1.0
#TITLE       : SPI MM1 Fluorapatite[7][all]
#DATE        : 11-MAR-2025
#TIME        : 14:44
#OWNER       : Unknown
#NPOINTS     : 4096
#NCOLUMNS    : 1
#XUNITS      : eV
#YUNITS      : counts
#DATATYPE    : Y
#XPERCHAN    : 9.99778
#OFFSET      : 1.69135
#BEAMKV      : 20
#SIGNALTYPE  : EDS
#ELEVANGLE   : 35
#AZIMANGLE   : 0
#LIVETIME    : 239.875
#REALTIME    : 255.652
#PROBECUR    : 1.02809
#TAUWIND     : 0
#TDEADLYR    : 0
#TACTLYR     : 0.045
#TALWIND     : 0.025
#CHOFFSET    : 0.0
#XLABEL      : Energy (eV)
#YLABEL      : Counts
#XPOSITION   : -2.66226
#YPOSITION   : 1.85912
#ZPOSITION   : 30.9284
#EDSDET      : SD
##SPECIMEN   : SPI MM1 Fluorapatite[7][all]
##D2STDCMP   : Fluorapatite,(O:35.868),(F:3.5492),(P:23.146),(Ca:37.4368)
##DET_HASH   : 12273538-fd48-a23f-0a19-f1e6fa85caef
##CALIB_HASH : 6abaa72c-aa41-8738-0be9-f592914732f3
##WORKING    : 15.0 mm
##DET_NAME   : EDAX All
##DET_MODE   : MediumLE
#SPECTRUM    :
26,
30,
7,
22,
94,
347,
1002,
3496,
11241,
18278,
13272,
6601,
3480,
2607,
3022,
8378,
30797,
59653,
44371,
12684,
3210,
4488,
8022,
7627,
4009,
2553,
2375,
2523,
2742,
2944,
3000,
3059,
3293,
3723,
4340,
4569,
4092,
3737,
3812,
4050,
4043,
4156,
4287,
4281,
4317,
4545,
4652,
4730,
4931,
4962,
5080,
5096,
4993,
4948,
5011,
5137,
5627,
6174,
7000,
7614,
7731,
7393,
7450,
10070,
19744,
47293,
101449,
138830,
109533,
49819,
18956,
11516,
8933,
6039,
4343,
4281,
4872,
5036,
4611,
3733,
3386,
3279,
3370,
3466,
3319,
3175,
3252,
3145,
3194,
3141,
3062,
3081,
3059,
3010,
3060,
3110,
2976,
2981,
3013,
3024,
2911,
3003,
2933,
3012,
2903,
2852,
2962,
2864,
2865,
2836,
2786,
2751,
2702,
2783,
2834,
2896,
3183,
3753,
5304,
10679,
29729,
76856,
144531,
181914,
152964,
85723,
32979,
10438,
4145,
3489,
4602,
7820,
14626,
22033,
23911,
19036,
10938,
5351,
2710,
2045,
1958,
1859,
1853,
1710,
1693,
1712,
1704,
1698,
1708,
1683,
1693,
1683,
1727,
1704,
1694,
1800,
1747,
1780,
1702,
1698,
1869,
1976,
1978,
1773,
1610,
1731,
1582,
1692,
1687,
1674,
1588,
1685,
1640,
1722,
1777,
1792,
1743,
1717,
1608,
1572,
1517,
1528,
1443,
1483,
1447,
1414,
1521,
1597,
1679,
1680,
1672,
1727,
1511,
1478,
1401,
1467,
1430,
1337,
1363,
1286,
1317,
1337,
1408,
1311,
1295,
1270,
1171,
1218,
1196,
1195,
1236,
1258,
1269,
1338,
1276,
1197,
1226,
1247,
1172,
1091,
1206,
1148,
1060,
1126,
1033,
1087,
1082,
1025,
1097,
1020,
1095,
1053,
1029,
1004,
961,
1013,
1042,
1023,
1002,
969,
1010,
972,
931,
1025,
1018,
1083,
1115,
1142,
1113,
1050,
1002,
932,
877,
871,
873,
913,
928,
870,
875,
869,
871,
791,
864,
824,
826,
777,
842,
823,
869,
811,
783,
781,
790,
755,
801,
772,
750,
775,
737,
787,
730,
710,
676,
727,
715,
695,
692,
698,
688,
659,
680,
658,
668,
679,
621,
650,
661,
640,
622,
631,
653,
629,
627,
663,
603,
618,
669,
597,
606,
582,
546,
561,
586,
616,
559,
596,
580,
588,
597,
560,
576,
545,
548,
554,
552,
556,
492,
499,
521,
568,
537,
521,
520,
522,
533,
507,
530,
493,
485,
493,
499,
510,
493,
502,
448,
473,
462,
438,
426,
448,
463,
425,
499,
458,
428,
410,
411,
420,
437,
408,
393,
424,
395,
402,
387,
417,
404,
417,
368,
375,
413,
371,
376,
384,
383,
367,
351,
385,
360,
341,
355,
356,
305,
353,
351,
371,
362,
350,
318,
323,
321,
329,
300,
307,
314,
279,
340,
297,
298,
296,
318,
342,
297,
287,
319,
316,
261,
265,
300,
261,
276,
283,
266,
291,
247,
253,
260,
254,
277,
259,
250,
259,
252,
243,
226,
225,
248,
242,
235,
226,
207,
229,
212,
236,
211,
207,
210,
219,
223,
189,
208,
186,
184,
190,
164,
187,
200,
201,
160,
182,
187,
168,
187,
169,
202,
167,
142,
181,
168,
168,
169,
180,
158,
154,
160,
147,
185,
134,
167,
186,
158,
158,
152,
156,
156,
138,
147,
131,
129,
131,
140,
135,
113,
148,
118,
130,
127,
126,
122,
131,
125,
108,
111,
111,
101,
102,
110,
130,
109,
120,
103,
103,
90,
98,
94,
98,
102,
75,
105,
86,
90,
91,
95,
90,
92,
70,
86,
80,
79,
86,
80,
85,
78,
74,
87,
77,
82,
63,
75,
79,
73,
62,
64,
79,
73,
73,
72,
58,
58,
61,
55,
65,
49,
56,
52,
69,
57,
60,
43,
68,
53,
58,
52,
52,
57,
37,
48,
57,
51,
55,
49,
40,
28,
60,
43,
47,
47,
32,
41,
44,
47,
43,
30,
43,
27,
32,
36,
31,
43,
34,
28,
41,
22,
28,
17,
31,
30,
21,
22,
28,
28,
24,
25,
19,
23,
20,
21,
26,
18,
18,
26,
22,
13,
25,
24,
13,
17,
11,
15,
25,
18,
17,
21,
18,
19,
7,
21,
17,
10,
23,
18,
15,
10,
8,
12,
10,
12,
8,
10,
16,
13,
10,
11,
5,
9,
5,
5,
4,
7,
10,
13,
8,
6,
6,
8,
7,
7,
1,
7,
6,
3,
4,
0,
1,
3,
7,
0,
1,
4,
4,
2,
4,
0,
1,
3,
0,
0,
1,
0,
0,
0,
1,
0,
0,
0,
0,
0,
0,
1,
2,
2,
1,
0,
0,
0,
0,
0,
0,
1,
0,
0,
2,
0,
0,
0,
1,
0,
0,
0,
1,
0,
1,
1,
1,
0,
0,
0,
0,
0,
1,
0,
0,
0,
1,
0,
1,
0,
0,
1,
0,
0,
0,
0,
0,
0,
0,
1,
0,
0,
0,
0,
0,
1,
1,
0,
0,
1,
0,
0,
1,
0,
1,
0,
0,
0,
0,
0,
0,
0,
1,
0,
0,
0,
0,
0,
0,
0,
0,
0,
0,
0,
0,
0,
0,
0,
0,
1,
0,
0,
0,
0,
1,
0,
0,
0,
1,
0,
0,
0,
0,
0,
0,
0,
0,
0,
0,
0,
0,
0,
0,
0,
0,
0,
1,
0,
0,
0,
0,
0,
0,
0,
0,
0,
0,
0,
0,
0,
0,
0,
0,
0,
1,
0,
0,
0,
1,
0,
0,
0,
0,
0,
0,
0,
0,
0,
0,
0,
0,
0,
0,
0,
0,
0,
0,
0,
0,
0,
0,
0,
1,
0,
0,
0,
0,
0,
0,
0,
0,
0,
0,
1,
0,
0,
0,
0,
0,
0,
0,
0,
0,
0,
0,
0,
0,
0,
0,
0,
0,
1,
0,
0,
0,
0,
0,
0,
0,
0,
0,
0,
0,
0,
0,
0,
0,
0,
0,
0,
0,
0,
0,
0,
0,
0,
0,
0,
0,
0,
0,
0,
0,
0,
1,
0,
0,
0,
0,
0,
0,
0,
0,
0,
0,
0,
0,
0,
0,
0,
0,
0,
0,
0,
0,
0,
0,
0,
0,
0,
0,
0,
0,
0,
0,
0,
0,
0,
0,
0,
0,
0,
0,
0,
0,
0,
0,
0,
0,
0,
0,
0,
0,
0,
0,
0,
0,
0,
0,
0,
0,
0,
0,
0,
0,
0,
0,
0,
0,
0,
0,
0,
0,
0,
0,
0,
0,
0,
0,
0,
0,
0,
0,
0,
0,
0,
0,
0,
0,
0,
0,
0,
0,
0,
0,
0,
0,
0,
0,
0,
0,
0,
0,
0,
0,
0,
0,
0,
0,
0,
0,
0,
0,
0,
0,
0,
0,
0,
0,
0,
0,
0,
0,
0,
0,
0,
0,
0,
0,
0,
0,
0,
0,
0,
0,
0,
0,
0,
0,
0,
0,
0,
0,
0,
0,
0,
0,
0,
0,
0,
0,
0,
0,
0,
0,
0,
0,
0,
0,
0,
0,
0,
0,
0,
0,
0,
0,
0,
0,
0,
0,
0,
0,
0,
0,
0,
0,
0,
0,
0,
0,
0,
0,
0,
0,
0,
0,
0,
0,
0,
0,
1,
0,
0,
0,
0,
0,
0,
0,
0,
0,
0,
0,
0,
0,
0,
0,
0,
0,
0,
0,
0,
0,
0,
0,
0,
0,
0,
0,
0,
0,
0,
0,
0,
0,
0,
0,
0,
0,
0,
0,
0,
0,
0,
0,
0,
0,
0,
0,
0,
0,
0,
0,
0,
0,
0,
0,
0,
0,
0,
0,
0,
0,
0,
0,
0,
0,
0,
0,
0,
0,
0,
0,
0,
0,
0,
0,
0,
0,
0,
0,
0,
0,
0,
0,
0,
0,
0,
0,
0,
0,
0,
0,
0,
0,
0,
0,
0,
0,
0,
0,
0,
0,
0,
0,
0,
0,
0,
0,
0,
0,
0,
0,
0,
0,
0,
0,
0,
0,
0,
0,
0,
0,
0,
0,
0,
0,
0,
0,
0,
0,
0,
0,
0,
0,
0,
0,
0,
0,
0,
0,
0,
0,
0,
0,
0,
0,
0,
0,
0,
0,
0,
0,
0,
0,
0,
0,
0,
0,
0,
0,
0,
0,
0,
0,
0,
0,
0,
0,
0,
0,
0,
0,
0,
0,
0,
0,
0,
0,
0,
0,
0,
0,
0,
0,
0,
0,
0,
0,
0,
0,
0,
0,
0,
0,
0,
0,
0,
0,
0,
0,
0,
0,
0,
0,
0,
0,
0,
0,
0,
0,
0,
0,
0,
0,
0,
0,
0,
0,
0,
0,
0,
0,
0,
0,
0,
0,
0,
0,
0,
0,
0,
0,
0,
0,
0,
0,
0,
0,
0,
0,
0,
0,
0,
0,
0,
0,
0,
0,
0,
0,
0,
0,
0,
0,
0,
0,
0,
0,
0,
0,
0,
0,
0,
0,
0,
0,
0,
0,
0,
0,
0,
0,
0,
0,
0,
0,
0,
0,
#ENDOFDATA   :