File: N132962/Quantification/20 keV/MMM1/SPI MM1 Almandine[7][4].msa
#FORMAT      : EMSA/MAS Spectral Data File
#VERSION     : 1.0
#TITLE       : SPI MM1 Almandine[7][all]
#DATE        : 11-MAR-2025
#TIME        : 13:05
#OWNER       : Unknown
#NPOINTS     : 4096
#NCOLUMNS    : 1
#XUNITS      : eV
#YUNITS      : counts
#DATATYPE    : Y
#XPERCHAN    : 9.99778
#OFFSET      : 1.69135
#BEAMKV      : 20
#SIGNALTYPE  : EDS
#ELEVANGLE   : 35
#AZIMANGLE   : 0
#LIVETIME    : 239.841
#REALTIME    : 255.278
#PROBECUR    : 1.02699
#TAUWIND     : 0
#TDEADLYR    : 0
#TACTLYR     : 0.045
#TALWIND     : 0.025
#CHOFFSET    : 0.0
#XLABEL      : Energy (eV)
#YLABEL      : Counts
#XPOSITION   : 0.40315
#YPOSITION   : -7.8607
#ZPOSITION   : 30.9284
#EDSDET      : SD
##SPECIMEN   : SPI MM1 Almandine[7][all]
##D2STDCMP   : Almandine,(O:38.5719),(Al:10.8416),(Si:16.9275),(Fe:33.6591),4.05
##DET_HASH   : 12273538-fd48-a23f-0a19-f1e6fa85caef
##CALIB_HASH : 6abaa72c-aa41-8738-0be9-f592914732f3
##WORKING    : 15.0 mm
##DET_NAME   : EDAX All
##DET_MODE   : MediumLE
#SPECTRUM    :
19,
30,
2,
22,
73,
283,
813,
2636,
7447,
10035,
5660,
3024,
2945,
3543,
6412,
22745,
90682,
177589,
129789,
35132,
7408,
5304,
7896,
14346,
13924,
6956,
3192,
2481,
2447,
2471,
2485,
2769,
2892,
3086,
3330,
3449,
3488,
3696,
3888,
6094,
15564,
35117,
41830,
24902,
9683,
5216,
5561,
12725,
40331,
80555,
81924,
42876,
15052,
6328,
5300,
10985,
39476,
99309,
134817,
95610,
39459,
14041,
7131,
4166,
3023,
2928,
3042,
2842,
2865,
2733,
2666,
2674,
2792,
2852,
2984,
3068,
3047,
2954,
2883,
2721,
2864,
2746,
2738,
2704,
2728,
2746,
2789,
2767,
2740,
2745,
2734,
2693,
2810,
2716,
2780,
2746,
2601,
2612,
2680,
2678,
2684,
2665,
2559,
2561,
2557,
2525,
2569,
2500,
2580,
2550,
2431,
2457,
2431,
2361,
2429,
2382,
2560,
2468,
2544,
2973,
4307,
7839,
12765,
15348,
13331,
8300,
4406,
2660,
2228,
2161,
2206,
2512,
2955,
3475,
3655,
3210,
2726,
2295,
1955,
1936,
2040,
1876,
1870,
1931,
1914,
1953,
1934,
1891,
1948,
1927,
1908,
1798,
1839,
1904,
1775,
1854,
1890,
1855,
1751,
1748,
1688,
1700,
1702,
1637,
1606,
1611,
1591,
1623,
1527,
1585,
1584,
1574,
1531,
1533,
1595,
1555,
1526,
1468,
1471,
1499,
1534,
1556,
1470,
1485,
1459,
1365,
1392,
1495,
1387,
1334,
1369,
1357,
1439,
1470,
1723,
2023,
2230,
2348,
2027,
1745,
1373,
1323,
1240,
1279,
1233,
1267,
1275,
1525,
2145,
4230,
9482,
18264,
28613,
35392,
33054,
23855,
13791,
6613,
2853,
1652,
1213,
1099,
1097,
1028,
1135,
1072,
1101,
1066,
1182,
1240,
1371,
1813,
2527,
3587,
4830,
5324,
4893,
3747,
2486,
1575,
1136,
945,
888,
815,
833,
837,
852,
876,
839,
931,
881,
875,
806,
853,
879,
842,
852,
812,
837,
826,
742,
805,
781,
781,
818,
755,
758,
782,
767,
727,
778,
692,
770,
722,
771,
721,
693,
700,
743,
632,
699,
697,
674,
694,
684,
649,
656,
656,
656,
627,
621,
627,
678,
645,
660,
581,
647,
642,
612,
601,
626,
571,
605,
564,
600,
555,
585,
580,
574,
553,
517,
557,
549,
553,
585,
547,
576,
532,
532,
524,
487,
521,
508,
518,
484,
513,
490,
536,
485,
502,
498,
459,
482,
454,
479,
461,
484,
450,
433,
442,
451,
472,
493,
422,
453,
454,
469,
446,
429,
433,
395,
406,
406,
399,
402,
449,
382,
411,
382,
399,
425,
366,
373,
395,
371,
375,
363,
374,
374,
383,
372,
334,
334,
318,
333,
320,
329,
298,
322,
316,
331,
335,
337,
312,
335,
312,
316,
275,
330,
271,
282,
289,
293,
273,
273,
281,
295,
263,
289,
282,
297,
242,
261,
290,
273,
247,
258,
262,
221,
240,
218,
241,
239,
239,
209,
243,
203,
255,
202,
218,
240,
233,
206,
228,
216,
229,
219,
221,
222,
238,
193,
199,
226,
181,
226,
202,
202,
178,
191,
197,
191,
174,
175,
178,
170,
176,
170,
172,
202,
192,
183,
166,
176,
170,
150,
140,
163,
158,
153,
133,
143,
157,
150,
149,
151,
153,
147,
144,
133,
129,
121,
129,
138,
130,
121,
135,
135,
126,
109,
126,
138,
122,
117,
114,
128,
140,
146,
96,
117,
113,
111,
117,
104,
98,
117,
81,
103,
89,
89,
105,
98,
107,
84,
87,
95,
86,
82,
88,
75,
78,
98,
74,
100,
91,
83,
72,
87,
60,
73,
88,
77,
68,
71,
74,
71,
66,
71,
65,
63,
64,
63,
69,
68,
55,
52,
70,
52,
64,
59,
53,
59,
59,
72,
51,
47,
50,
55,
54,
63,
37,
51,
51,
43,
36,
45,
51,
48,
44,
46,
38,
32,
47,
38,
43,
31,
31,
50,
36,
42,
26,
35,
33,
30,
29,
35,
37,
29,
44,
25,
28,
28,
21,
25,
33,
25,
25,
22,
20,
21,
23,
26,
23,
23,
22,
29,
21,
22,
24,
19,
21,
21,
20,
20,
15,
15,
19,
19,
16,
20,
10,
23,
15,
19,
20,
14,
18,
13,
12,
17,
7,
12,
11,
13,
10,
14,
8,
12,
9,
11,
11,
9,
9,
5,
7,
8,
9,
11,
1,
10,
7,
4,
5,
6,
7,
5,
4,
4,
1,
3,
5,
5,
4,
1,
2,
0,
5,
1,
1,
1,
1,
2,
2,
0,
0,
1,
3,
0,
1,
0,
0,
0,
0,
0,
0,
1,
1,
0,
0,
0,
0,
0,
0,
1,
0,
1,
0,
1,
0,
0,
0,
0,
0,
0,
0,
0,
0,
1,
0,
0,
0,
1,
1,
0,
1,
1,
1,
0,
0,
0,
0,
0,
1,
0,
0,
0,
0,
0,
1,
0,
0,
0,
0,
0,
1,
1,
0,
0,
0,
0,
0,
0,
1,
0,
0,
0,
0,
0,
0,
0,
0,
0,
1,
0,
0,
0,
0,
0,
1,
0,
0,
0,
0,
0,
0,
0,
0,
0,
0,
0,
0,
0,
0,
0,
0,
0,
0,
0,
0,
0,
1,
0,
0,
0,
0,
0,
0,
0,
0,
0,
1,
0,
0,
0,
0,
0,
0,
0,
0,
0,
1,
0,
0,
1,
0,
0,
0,
0,
0,
0,
0,
0,
0,
0,
0,
1,
0,
0,
0,
0,
0,
0,
0,
0,
0,
0,
0,
0,
0,
0,
0,
0,
0,
0,
0,
0,
1,
0,
0,
0,
0,
0,
0,
0,
0,
0,
0,
0,
0,
0,
0,
0,
0,
0,
0,
0,
0,
0,
0,
0,
0,
0,
0,
0,
0,
0,
0,
0,
0,
0,
0,
0,
0,
0,
0,
0,
0,
0,
0,
0,
0,
0,
0,
0,
0,
0,
0,
0,
0,
0,
0,
0,
0,
0,
0,
0,
0,
0,
0,
0,
0,
0,
0,
0,
0,
0,
0,
0,
0,
0,
0,
0,
0,
0,
0,
0,
0,
0,
0,
0,
0,
0,
0,
0,
0,
0,
0,
0,
0,
0,
0,
0,
0,
0,
0,
0,
0,
0,
0,
0,
0,
0,
0,
0,
0,
0,
0,
0,
0,
0,
0,
0,
0,
0,
0,
0,
0,
0,
0,
0,
0,
0,
0,
0,
0,
0,
0,
0,
0,
0,
0,
0,
0,
0,
0,
0,
0,
0,
0,
0,
0,
0,
0,
0,
0,
0,
0,
0,
0,
0,
0,
0,
0,
0,
0,
0,
0,
0,
0,
0,
0,
1,
0,
0,
0,
0,
0,
0,
0,
0,
0,
0,
0,
0,
0,
0,
0,
0,
0,
0,
0,
0,
0,
0,
0,
0,
0,
0,
0,
0,
0,
0,
0,
0,
0,
0,
0,
0,
0,
0,
0,
0,
0,
0,
0,
0,
0,
0,
0,
0,
0,
0,
0,
0,
0,
0,
0,
0,
0,
0,
0,
0,
0,
0,
0,
0,
0,
0,
0,
0,
0,
0,
0,
0,
0,
0,
0,
0,
0,
0,
0,
0,
0,
0,
0,
0,
0,
0,
0,
0,
0,
0,
0,
0,
0,
0,
0,
0,
0,
0,
0,
0,
0,
0,
0,
0,
0,
0,
0,
0,
0,
0,
0,
0,
0,
0,
0,
0,
0,
0,
0,
0,
0,
0,
0,
0,
0,
0,
0,
0,
0,
0,
0,
0,
0,
0,
0,
0,
0,
0,
0,
0,
0,
0,
0,
0,
0,
0,
0,
0,
0,
0,
0,
0,
0,
0,
0,
0,
0,
0,
0,
0,
0,
0,
0,
0,
0,
0,
0,
0,
0,
0,
0,
0,
0,
0,
0,
0,
0,
0,
0,
0,
0,
0,
0,
0,
0,
0,
0,
0,
0,
0,
0,
0,
0,
0,
0,
0,
0,
0,
0,
0,
0,
0,
0,
0,
0,
0,
0,
0,
0,
0,
0,
0,
0,
0,
0,
0,
0,
0,
0,
0,
0,
0,
0,
0,
0,
0,
0,
0,
0,
0,
0,
0,
0,
0,
0,
0,
0,
0,
0,
0,
0,
0,
0,
0,
0,
0,
0,
0,
0,
0,
0,
0,
0,
0,
0,
0,
0,
0,
0,
0,
0,
0,
0,
0,
0,
0,
0,
0,
0,
0,
0,
0,
0,
0,
0,
0,
0,
0,
0,
0,
0,
0,
0,
0,
0,
0,
0,
0,
0,
0,
0,
0,
0,
0,
0,
0,
0,
0,
0,
0,
0,
0,
0,
0,
0,
0,
0,
0,
0,
0,
0,
0,
0,
0,
0,
0,
0,
0,
0,
0,
0,
0,
0,
0,
0,
0,
0,
0,
0,
0,
0,
0,
0,
0,
0,
0,
0,
0,
0,
0,
0,
0,
0,
0,
0,
0,
0,
0,
0,
0,
0,
0,
0,
0,
0,
0,
0,
0,
0,
0,
0,
0,
0,
0,
0,
0,
0,
0,
0,
0,
0,
0,
0,
0,
0,
#ENDOFDATA   :