File: N132962/Quantification/20 keV/MMM1/SPI MM1 Arsenopyrite[1][4].msa
#FORMAT      : EMSA/MAS Spectral Data File
#VERSION     : 1.0
#TITLE       : SPI MM1 Arsenopyrite[1][all]
#DATE        : 11-MAR-2025
#TIME        : 13:36
#OWNER       : Unknown
#NPOINTS     : 4096
#NCOLUMNS    : 1
#XUNITS      : eV
#YUNITS      : counts
#DATATYPE    : Y
#XPERCHAN    : 9.99778
#OFFSET      : 1.69135
#BEAMKV      : 20
#SIGNALTYPE  : EDS
#ELEVANGLE   : 35
#AZIMANGLE   : 0
#LIVETIME    : 239.829
#REALTIME    : 260.787
#PROBECUR    : 1.02853
#TAUWIND     : 0
#TDEADLYR    : 0
#TACTLYR     : 0.045
#TALWIND     : 0.025
#CHOFFSET    : 0.0
#XLABEL      : Energy (eV)
#YLABEL      : Counts
#XPOSITION   : 2.17721
#YPOSITION   : -5.01307
#ZPOSITION   : 30.9284
#EDSDET      : SD
##SPECIMEN   : SPI MM1 Arsenopyrite[1][all]
##D2STDCMP   : Arsenopyrite,(S:19.6897),(Fe:34.2972),(As:46.0131),6.0
##DET_HASH   : 12273538-fd48-a23f-0a19-f1e6fa85caef
##CALIB_HASH : 6abaa72c-aa41-8738-0be9-f592914732f3
##WORKING    : 15.0 mm
##DET_NAME   : EDAX All
##DET_MODE   : MediumLE
#SPECTRUM    :
29,
26,
11,
30,
162,
492,
1185,
3541,
9994,
13272,
6786,
2909,
2708,
2993,
3287,
3954,
5004,
6220,
8648,
12841,
17356,
20099,
32728,
56158,
46856,
18489,
6968,
5196,
4988,
4775,
4956,
5129,
5400,
5562,
5964,
7042,
10025,
13959,
14665,
12837,
19282,
59018,
146367,
196794,
147688,
65244,
20618,
8076,
5234,
4295,
4384,
4311,
4203,
4056,
4106,
4455,
4538,
4946,
5109,
5242,
5005,
4794,
4584,
4532,
4491,
4655,
4771,
4770,
4663,
4869,
4973,
5216,
6218,
8876,
18199,
44858,
89972,
111656,
81716,
37328,
15120,
11694,
12491,
11219,
7572,
5391,
4607,
4409,
4331,
4242,
4084,
4203,
4206,
4177,
4269,
4224,
4237,
4172,
4283,
4258,
4190,
4320,
4198,
4143,
4220,
4217,
4044,
4062,
4167,
4131,
4109,
4057,
4020,
4110,
4069,
4080,
4096,
4118,
4010,
4283,
4217,
4180,
3994,
4005,
3990,
3902,
3993,
3885,
3858,
3762,
3745,
3842,
3765,
3810,
3769,
3823,
3704,
3712,
3757,
3728,
3701,
3721,
3429,
3479,
3494,
3592,
3602,
3500,
3424,
3463,
3523,
3410,
3556,
3540,
3619,
3671,
3545,
3462,
3317,
3288,
3309,
3236,
3382,
3260,
3211,
3190,
3128,
3137,
3082,
3056,
3148,
3124,
3097,
3053,
3155,
3085,
3043,
3024,
3007,
3004,
2966,
2903,
2929,
2875,
2849,
2784,
2760,
2770,
2693,
2667,
2733,
2658,
2669,
2590,
2609,
2709,
2637,
2562,
2549,
2718,
2634,
2590,
2571,
2637,
2638,
2730,
2881,
3107,
4570,
9027,
19864,
38727,
60819,
73796,
69084,
50220,
28529,
13200,
5969,
3276,
2502,
2242,
2266,
2318,
2326,
2266,
2259,
2331,
2418,
2404,
2807,
3591,
5203,
7548,
10338,
11318,
10342,
7938,
5323,
3429,
2516,
2005,
1816,
1862,
1799,
1836,
1746,
1845,
1916,
1830,
1806,
1857,
1823,
1858,
1798,
1804,
1835,
1834,
1740,
1662,
1713,
1672,
1619,
1624,
1665,
1602,
1605,
1683,
1582,
1561,
1586,
1537,
1539,
1517,
1518,
1531,
1517,
1560,
1587,
1495,
1439,
1492,
1452,
1489,
1434,
1507,
1495,
1418,
1483,
1522,
1503,
1437,
1449,
1420,
1449,
1359,
1417,
1336,
1363,
1294,
1294,
1371,
1352,
1266,
1307,
1257,
1257,
1251,
1221,
1190,
1238,
1208,
1173,
1223,
1227,
1216,
1216,
1168,
1131,
1198,
1119,
1125,
1180,
1122,
1111,
1147,
1158,
1110,
1107,
1141,
1081,
1138,
1104,
1128,
1082,
1087,
1074,
1110,
1081,
1053,
1050,
1092,
1088,
1165,
1388,
2060,
3544,
6317,
10029,
14462,
17767,
18681,
16670,
12612,
8241,
4895,
2794,
1635,
1157,
970,
860,
935,
862,
887,
885,
875,
924,
835,
859,
856,
811,
816,
819,
795,
834,
842,
854,
799,
755,
800,
722,
828,
769,
806,
861,
979,
1285,
1634,
2243,
2745,
3037,
3122,
2664,
2179,
1679,
1268,
1037,
827,
797,
649,
659,
657,
591,
593,
633,
538,
574,
582,
591,
571,
619,
577,
559,
571,
572,
577,
542,
544,
521,
490,
532,
568,
521,
559,
534,
584,
556,
581,
549,
568,
520,
511,
495,
508,
482,
499,
488,
442,
424,
448,
485,
432,
430,
493,
449,
425,
405,
428,
379,
405,
419,
415,
387,
383,
373,
392,
375,
400,
358,
380,
387,
353,
365,
356,
356,
381,
341,
336,
346,
350,
342,
340,
336,
312,
325,
345,
308,
342,
309,
299,
276,
306,
277,
266,
301,
317,
258,
269,
265,
305,
275,
247,
262,
280,
281,
267,
285,
244,
210,
229,
225,
257,
240,
202,
241,
254,
209,
207,
214,
204,
235,
204,
210,
244,
207,
192,
200,
214,
189,
188,
175,
211,
190,
196,
167,
199,
182,
157,
183,
180,
183,
157,
193,
172,
158,
169,
156,
162,
162,
152,
165,
143,
134,
146,
149,
163,
145,
136,
118,
143,
135,
119,
118,
116,
141,
117,
101,
110,
103,
123,
119,
127,
106,
142,
136,
124,
126,
124,
129,
115,
94,
98,
101,
115,
84,
94,
87,
92,
86,
82,
76,
104,
79,
70,
87,
80,
62,
88,
73,
71,
70,
70,
68,
71,
72,
53,
71,
53,
61,
57,
66,
62,
57,
58,
52,
47,
47,
65,
66,
58,
45,
50,
45,
40,
45,
45,
42,
43,
33,
38,
33,
40,
33,
39,
43,
39,
35,
29,
29,
26,
30,
27,
20,
29,
24,
30,
20,
26,
22,
26,
28,
19,
22,
22,
12,
13,
17,
11,
17,
9,
14,
11,
14,
8,
7,
12,
8,
11,
6,
6,
5,
4,
7,
3,
3,
3,
3,
2,
2,
1,
2,
4,
0,
3,
4,
3,
1,
2,
3,
4,
2,
4,
1,
1,
4,
2,
3,
0,
1,
1,
2,
1,
2,
0,
0,
1,
1,
0,
4,
6,
2,
5,
2,
1,
2,
1,
3,
1,
2,
1,
1,
0,
4,
2,
1,
0,
1,
4,
2,
1,
0,
0,
1,
0,
0,
0,
0,
1,
2,
2,
3,
0,
1,
1,
1,
1,
2,
1,
4,
2,
0,
1,
3,
1,
1,
0,
1,
2,
0,
0,
0,
0,
1,
0,
0,
2,
0,
1,
2,
2,
0,
1,
0,
1,
1,
0,
1,
1,
0,
0,
2,
1,
2,
1,
0,
0,
1,
0,
1,
3,
0,
1,
0,
0,
0,
0,
0,
0,
0,
0,
0,
0,
0,
0,
0,
2,
0,
0,
2,
0,
0,
0,
0,
0,
1,
1,
0,
0,
1,
1,
0,
1,
1,
0,
2,
0,
0,
1,
0,
0,
0,
1,
1,
0,
2,
0,
2,
0,
0,
0,
1,
0,
0,
0,
0,
0,
0,
0,
1,
0,
1,
0,
1,
1,
0,
2,
1,
0,
1,
0,
0,
0,
0,
0,
0,
0,
1,
0,
0,
1,
0,
0,
0,
0,
0,
0,
0,
0,
0,
0,
2,
0,
0,
1,
0,
0,
0,
0,
0,
0,
0,
0,
1,
0,
1,
0,
0,
0,
1,
0,
0,
0,
0,
0,
0,
0,
0,
0,
0,
0,
1,
0,
0,
0,
0,
0,
0,
0,
0,
0,
0,
0,
0,
0,
0,
0,
0,
0,
0,
0,
0,
0,
0,
0,
0,
2,
0,
1,
0,
0,
0,
0,
0,
0,
0,
0,
0,
0,
0,
0,
0,
0,
0,
0,
0,
0,
0,
0,
0,
0,
0,
0,
0,
0,
0,
0,
0,
0,
0,
0,
0,
0,
0,
0,
0,
0,
0,
0,
0,
0,
0,
0,
0,
0,
0,
0,
0,
0,
0,
0,
0,
0,
0,
0,
0,
0,
0,
0,
0,
0,
0,
0,
0,
0,
0,
0,
0,
0,
0,
0,
0,
0,
0,
0,
0,
0,
0,
0,
0,
0,
0,
1,
0,
0,
0,
0,
0,
0,
0,
0,
0,
0,
0,
0,
0,
0,
0,
0,
0,
0,
0,
0,
0,
0,
0,
0,
0,
0,
0,
0,
0,
0,
0,
0,
0,
0,
0,
0,
0,
0,
0,
0,
0,
0,
0,
0,
0,
0,
0,
0,
0,
0,
0,
0,
0,
0,
0,
0,
0,
0,
0,
0,
0,
0,
0,
0,
0,
0,
0,
0,
0,
0,
0,
0,
0,
0,
0,
0,
0,
0,
0,
0,
0,
0,
0,
0,
0,
0,
0,
0,
0,
0,
0,
0,
0,
0,
0,
0,
0,
0,
0,
0,
0,
0,
0,
0,
0,
0,
0,
0,
0,
0,
0,
0,
0,
0,
0,
0,
0,
0,
0,
0,
0,
0,
0,
0,
0,
0,
0,
0,
0,
0,
0,
0,
0,
0,
0,
0,
0,
0,
0,
0,
0,
0,
0,
0,
0,
0,
0,
0,
0,
0,
0,
0,
0,
0,
0,
0,
0,
0,
0,
0,
0,
0,
0,
0,
0,
0,
0,
0,
0,
0,
0,
0,
0,
0,
0,
0,
0,
0,
0,
0,
0,
0,
0,
0,
0,
0,
0,
0,
0,
0,
0,
0,
0,
0,
0,
0,
0,
0,
0,
0,
0,
0,
0,
0,
0,
0,
0,
0,
0,
0,
0,
0,
0,
0,
0,
0,
0,
0,
0,
0,
0,
0,
0,
0,
0,
0,
0,
0,
0,
0,
0,
0,
0,
0,
0,
0,
0,
0,
0,
0,
0,
0,
0,
0,
0,
0,
0,
0,
0,
0,
0,
0,
0,
0,
0,
0,
0,
0,
0,
0,
0,
0,
0,
0,
0,
0,
0,
0,
0,
0,
0,
0,
0,
0,
0,
0,
0,
0,
0,
0,
0,
0,
0,
0,
0,
0,
0,
0,
0,
0,
0,
0,
0,
0,
0,
0,
0,
0,
0,
0,
0,
0,
0,
0,
0,
0,
0,
0,
0,
0,
0,
0,
0,
0,
0,
0,
0,
0,
0,
0,
0,
0,
0,
0,
0,
0,
0,
0,
0,
0,
0,
0,
0,
0,
0,
0,
0,
0,
0,
0,
0,
0,
0,
0,
0,
0,
0,
0,
0,
0,
0,
0,
0,
0,
#ENDOFDATA   :