File: N132962/Quantification/20 keV/MMM1/SPI MM1 Barite[6][4].msa
#FORMAT      : EMSA/MAS Spectral Data File
#VERSION     : 1.0
#TITLE       : SPI MM1 Barite[6][all]
#DATE        : 11-MAR-2025
#TIME        : 13:32
#OWNER       : Unknown
#NPOINTS     : 4096
#NCOLUMNS    : 1
#XUNITS      : eV
#YUNITS      : counts
#DATATYPE    : Y
#XPERCHAN    : 9.99778
#OFFSET      : 1.69135
#BEAMKV      : 20
#SIGNALTYPE  : EDS
#ELEVANGLE   : 35
#AZIMANGLE   : 0
#LIVETIME    : 239.881
#REALTIME    : 258.92
#PROBECUR    : 1.02853
#TAUWIND     : 0
#TDEADLYR    : 0
#TACTLYR     : 0.045
#TALWIND     : 0.025
#CHOFFSET    : 0.0
#XLABEL      : Energy (eV)
#YLABEL      : Counts
#XPOSITION   : -0.3537
#YPOSITION   : -5.01357
#ZPOSITION   : 30.9284
#EDSDET      : SD
##SPECIMEN   : SPI MM1 Barite[6][all]
##DET_HASH   : 12273538-fd48-a23f-0a19-f1e6fa85caef
##CALIB_HASH : 6abaa72c-aa41-8738-0be9-f592914732f3
##WORKING    : 15.0 mm
##DET_NAME   : EDAX All
##DET_MODE   : MediumLE
#SPECTRUM    :
18,
25,
9,
64,
402,
1359,
2486,
4994,
12096,
15336,
8770,
5126,
5112,
5858,
8049,
21223,
72389,
137003,
104848,
38251,
16580,
9231,
5782,
5800,
7098,
9660,
10507,
7899,
5326,
4149,
4128,
4738,
5764,
5775,
5781,
5508,
4763,
4459,
4152,
4144,
4069,
4251,
4391,
4523,
4566,
4479,
4624,
4745,
4987,
5153,
5249,
5306,
5316,
5238,
5362,
5440,
5670,
6175,
6455,
6678,
6675,
6142,
5844,
5521,
5483,
5441,
5628,
5690,
5599,
5645,
5639,
5934,
6725,
8850,
15953,
37121,
73531,
93587,
69664,
32977,
13930,
10330,
10540,
9331,
7163,
5657,
5055,
4997,
5078,
5248,
5501,
5471,
5267,
5229,
5107,
4931,
4937,
4992,
4887,
4793,
4840,
4874,
4931,
5089,
5047,
4777,
4696,
4740,
4600,
4541,
4551,
4485,
4555,
4645,
4579,
4606,
4537,
4572,
4493,
4465,
4519,
4468,
4335,
4300,
4404,
4244,
4364,
4470,
4544,
4977,
5715,
6851,
7248,
6848,
5545,
4874,
4414,
4259,
4086,
4071,
4163,
4380,
4736,
5487,
6876,
11331,
24107,
48154,
75641,
86206,
69857,
40953,
18829,
8383,
5104,
4413,
4769,
6685,
12519,
23261,
35773,
43125,
39628,
29809,
20036,
13475,
9594,
6887,
6152,
7390,
11112,
15209,
16757,
14517,
10328,
6367,
4324,
3410,
3206,
3279,
3347,
3780,
5143,
6636,
7908,
7543,
6280,
4617,
3514,
3045,
3293,
3694,
4256,
4716,
4469,
4010,
3405,
3077,
2916,
2828,
2712,
2530,
2520,
2394,
2359,
2294,
2291,
2342,
2344,
2351,
2469,
2456,
2566,
2629,
2526,
2468,
2380,
2258,
2261,
2324,
2176,
2203,
2129,
2158,
2189,
2206,
2213,
2143,
2174,
2188,
2092,
2119,
2083,
2105,
2140,
2082,
1984,
2016,
2040,
2081,
2108,
2075,
1952,
1960,
2034,
1962,
2019,
2065,
2070,
2093,
2101,
2087,
1893,
1938,
1899,
1838,
1865,
1855,
1786,
1829,
1891,
1742,
1826,
1820,
1761,
1726,
1784,
1694,
1708,
1777,
1713,
1784,
1728,
1695,
1652,
1729,
1704,
1706,
1679,
1657,
1665,
1652,
1640,
1544,
1640,
1607,
1621,
1554,
1586,
1535,
1584,
1584,
1474,
1538,
1481,
1557,
1594,
1558,
1621,
1517,
1498,
1500,
1427,
1519,
1384,
1420,
1367,
1439,
1457,
1442,
1399,
1445,
1517,
1349,
1344,
1407,
1394,
1323,
1388,
1339,
1377,
1306,
1300,
1265,
1318,
1325,
1260,
1296,
1282,
1262,
1224,
1256,
1257,
1165,
1216,
1243,
1170,
1226,
1180,
1164,
1171,
1173,
1145,
1101,
1162,
1207,
1108,
1143,
1101,
1133,
1077,
1086,
964,
1057,
1059,
1056,
1042,
1025,
1046,
1028,
994,
984,
1029,
971,
960,
978,
993,
921,
977,
932,
929,
955,
897,
883,
897,
919,
867,
860,
911,
928,
891,
867,
835,
842,
824,
860,
899,
844,
825,
821,
852,
849,
791,
811,
813,
778,
814,
834,
729,
768,
763,
735,
772,
723,
702,
731,
705,
729,
732,
711,
721,
690,
699,
677,
730,
669,
676,
639,
651,
648,
672,
601,
635,
633,
632,
656,
587,
626,
620,
566,
605,
645,
595,
591,
597,
580,
531,
601,
548,
549,
569,
531,
529,
514,
515,
518,
510,
511,
490,
467,
517,
542,
523,
452,
497,
466,
447,
478,
444,
420,
430,
424,
432,
491,
444,
445,
410,
419,
392,
403,
439,
424,
407,
400,
415,
405,
362,
366,
340,
382,
377,
373,
329,
349,
322,
355,
379,
359,
352,
322,
357,
328,
350,
295,
339,
354,
266,
276,
338,
324,
308,
285,
284,
285,
276,
271,
283,
253,
298,
285,
253,
264,
252,
268,
271,
237,
249,
229,
233,
234,
192,
246,
231,
208,
241,
207,
221,
232,
209,
216,
224,
188,
206,
197,
226,
231,
200,
192,
175,
187,
192,
168,
189,
202,
162,
171,
154,
152,
171,
173,
158,
134,
141,
123,
168,
158,
135,
137,
127,
126,
132,
130,
129,
142,
136,
109,
148,
112,
128,
131,
107,
132,
126,
109,
112,
117,
103,
102,
109,
104,
106,
108,
100,
80,
99,
102,
102,
87,
75,
101,
87,
81,
93,
77,
79,
91,
67,
55,
67,
74,
77,
77,
88,
82,
76,
52,
69,
54,
58,
54,
47,
51,
44,
47,
48,
44,
55,
46,
48,
38,
49,
36,
46,
47,
34,
38,
40,
38,
31,
42,
39,
38,
24,
31,
41,
17,
26,
20,
28,
25,
28,
33,
30,
30,
18,
18,
18,
26,
24,
14,
12,
21,
14,
12,
14,
12,
13,
10,
5,
6,
6,
12,
4,
1,
8,
8,
3,
1,
1,
2,
2,
1,
3,
0,
1,
2,
3,
0,
1,
1,
0,
0,
0,
0,
2,
0,
0,
0,
1,
1,
0,
2,
2,
1,
1,
2,
1,
3,
2,
2,
4,
2,
0,
0,
1,
0,
1,
1,
1,
2,
0,
0,
0,
1,
1,
0,
0,
2,
2,
0,
0,
1,
0,
0,
1,
3,
0,
1,
1,
0,
2,
3,
1,
0,
0,
1,
1,
1,
0,
1,
3,
0,
1,
0,
0,
2,
2,
1,
0,
0,
0,
0,
1,
0,
0,
0,
0,
3,
0,
0,
1,
0,
0,
1,
0,
0,
0,
1,
0,
1,
1,
1,
1,
0,
0,
0,
0,
0,
1,
0,
0,
0,
0,
0,
0,
2,
0,
0,
0,
0,
0,
1,
1,
0,
2,
1,
1,
1,
0,
0,
0,
1,
0,
2,
1,
0,
0,
0,
0,
0,
0,
0,
0,
0,
0,
0,
0,
0,
2,
2,
1,
0,
0,
0,
0,
0,
0,
2,
0,
0,
0,
0,
0,
0,
1,
0,
0,
0,
0,
0,
0,
0,
0,
0,
0,
1,
2,
0,
1,
1,
0,
0,
0,
0,
0,
0,
1,
0,
0,
0,
1,
1,
0,
0,
0,
1,
0,
0,
0,
0,
0,
0,
1,
0,
1,
0,
0,
0,
0,
0,
0,
0,
0,
0,
0,
0,
0,
0,
0,
0,
0,
0,
0,
0,
0,
0,
0,
1,
0,
0,
1,
0,
0,
0,
0,
0,
0,
1,
0,
0,
0,
0,
0,
0,
0,
0,
0,
0,
0,
0,
0,
0,
1,
0,
0,
0,
0,
0,
0,
0,
0,
0,
0,
0,
0,
0,
0,
0,
0,
0,
0,
0,
0,
0,
1,
0,
0,
0,
0,
0,
0,
0,
0,
0,
0,
0,
0,
1,
0,
0,
0,
0,
0,
0,
0,
0,
0,
0,
0,
0,
0,
0,
0,
0,
0,
0,
0,
0,
0,
0,
0,
0,
0,
0,
0,
0,
1,
0,
0,
0,
0,
0,
0,
0,
0,
0,
0,
0,
0,
0,
0,
0,
0,
1,
0,
0,
0,
0,
0,
0,
0,
0,
0,
0,
0,
0,
0,
0,
0,
0,
0,
0,
0,
0,
0,
0,
0,
0,
0,
0,
0,
0,
0,
0,
0,
0,
0,
0,
0,
0,
0,
0,
0,
0,
0,
0,
0,
0,
0,
0,
0,
0,
0,
0,
0,
0,
0,
0,
0,
0,
0,
0,
0,
0,
0,
0,
0,
0,
0,
0,
0,
0,
0,
0,
0,
0,
0,
0,
0,
0,
0,
0,
0,
0,
0,
0,
0,
0,
0,
0,
0,
0,
0,
0,
0,
0,
0,
0,
0,
0,
0,
0,
0,
0,
0,
1,
0,
0,
0,
0,
0,
0,
0,
0,
0,
0,
0,
0,
0,
1,
0,
0,
0,
0,
0,
0,
0,
0,
0,
0,
0,
0,
0,
0,
0,
0,
0,
0,
0,
0,
0,
0,
0,
0,
0,
0,
0,
0,
0,
0,
0,
0,
0,
0,
0,
0,
0,
0,
0,
0,
0,
0,
0,
0,
0,
0,
0,
0,
0,
0,
0,
0,
0,
0,
0,
0,
0,
0,
0,
0,
0,
0,
0,
0,
0,
0,
0,
0,
0,
0,
0,
0,
0,
0,
0,
0,
0,
0,
0,
0,
0,
0,
0,
0,
0,
0,
0,
0,
0,
0,
0,
0,
0,
0,
0,
0,
0,
0,
0,
0,
0,
0,
0,
0,
0,
0,
0,
0,
0,
0,
0,
0,
0,
0,
0,
0,
0,
0,
0,
0,
0,
0,
0,
0,
0,
0,
0,
0,
0,
0,
0,
0,
0,
0,
0,
0,
0,
0,
0,
0,
0,
0,
0,
0,
0,
0,
0,
0,
0,
0,
0,
0,
0,
0,
0,
0,
0,
0,
0,
0,
0,
0,
0,
0,
0,
0,
0,
0,
0,
0,
0,
0,
0,
0,
0,
0,
0,
0,
0,
0,
0,
0,
0,
0,
0,
0,
0,
0,
0,
0,
0,
0,
0,
0,
0,
0,
0,
0,
0,
0,
0,
0,
0,
0,
0,
0,
0,
0,
0,
0,
0,
0,
0,
0,
0,
0,
0,
0,
0,
0,
0,
0,
0,
0,
0,
0,
0,
0,
0,
0,
0,
0,
0,
0,
0,
0,
0,
0,
0,
0,
0,
0,
0,
0,
0,
0,
#ENDOFDATA   :