File: N132962/Quantification/20 keV/MMM1/SPI MM1 Dolomite[5][4].msa
#FORMAT      : EMSA/MAS Spectral Data File
#VERSION     : 1.0
#TITLE       : SPI MM1dup Dolomite[5][all]
#DATE        : 12-MAR-2025
#TIME        : 15:50
#OWNER       : Unknown
#NPOINTS     : 4096
#NCOLUMNS    : 1
#XUNITS      : eV
#YUNITS      : counts
#DATATYPE    : Y
#XPERCHAN    : 9.99778
#OFFSET      : 1.69135
#BEAMKV      : 20
#SIGNALTYPE  : EDS
#ELEVANGLE   : 35
#AZIMANGLE   : 0
#LIVETIME    : 239.635
#REALTIME    : 250.5396
#PROBECUR    : 1.02695
#TAUWIND     : 0
#TDEADLYR    : 0
#TACTLYR     : 0.045
#TALWIND     : 0.025
#CHOFFSET    : 0.0
#XLABEL      : Energy (eV)
#YLABEL      : Counts
#XPOSITION   : -0.09479
#YPOSITION   : 1.96023
#ZPOSITION   : 31.03608
#EDSDET      : SD
##SPECIMEN   : SPI MM1dup Dolomite[5][all]
##DET_HASH   : 12273538-fd48-a23f-0a19-f1e6fa85caef
##CALIB_HASH : 6abaa72c-aa41-8738-0be9-f592914732f3
##WORKING    : 15.0 mm
##DET_NAME   : EDAX All
##DET_MODE   : MediumLE
#SPECTRUM    :
24,
28,
8,
13,
74,
330,
1374,
6263,
21460,
29805,
15235,
4719,
2656,
2371,
3728,
13637,
53901,
105620,
77222,
20783,
3011,
1374,
1455,
1611,
1720,
1704,
1772,
1840,
1998,
2178,
2237,
2266,
2362,
2581,
2792,
2957,
3186,
3396,
4018,
8376,
28452,
69797,
84410,
48205,
14727,
4640,
3063,
3244,
4768,
7102,
7291,
5170,
3627,
3028,
3195,
3129,
3350,
3788,
4057,
3866,
3581,
3410,
3148,
3233,
3735,
3899,
3581,
3251,
3002,
2800,
2888,
2828,
2796,
2864,
2934,
2913,
2915,
2820,
2820,
2756,
2668,
2605,
2698,
2693,
2630,
2637,
2680,
2636,
2604,
2525,
2510,
2441,
2513,
2429,
2467,
2418,
2391,
2395,
2312,
2325,
2357,
2414,
2357,
2295,
2253,
2314,
2199,
2251,
2181,
2135,
2103,
2044,
2042,
1995,
2015,
2146,
2223,
2615,
3545,
6189,
16801,
42585,
79665,
101017,
85137,
48056,
18801,
6155,
2744,
2396,
3005,
4748,
8310,
12527,
14051,
10897,
6483,
3289,
1959,
1600,
1510,
1531,
1386,
1371,
1339,
1360,
1307,
1402,
1269,
1353,
1333,
1340,
1282,
1257,
1283,
1290,
1276,
1211,
1233,
1230,
1206,
1219,
1184,
1290,
1273,
1247,
1267,
1178,
1154,
1167,
1178,
1121,
1085,
1145,
1141,
1107,
1108,
1183,
1101,
1056,
1067,
1090,
1000,
1098,
1036,
1012,
1012,
1020,
1021,
1062,
965,
1011,
1015,
1035,
985,
977,
1003,
987,
981,
950,
911,
940,
921,
872,
886,
863,
831,
877,
868,
875,
963,
1032,
1118,
1105,
1109,
1068,
963,
937,
832,
800,
716,
791,
718,
772,
764,
792,
770,
784,
815,
763,
735,
691,
741,
751,
783,
751,
731,
732,
691,
717,
704,
675,
687,
719,
649,
664,
706,
712,
715,
732,
661,
648,
677,
624,
690,
607,
615,
653,
618,
586,
643,
610,
589,
579,
495,
527,
571,
573,
615,
601,
566,
559,
484,
528,
591,
543,
515,
477,
543,
518,
518,
529,
547,
510,
504,
483,
474,
481,
435,
451,
485,
472,
500,
463,
478,
449,
470,
444,
465,
445,
384,
443,
424,
404,
419,
452,
454,
447,
443,
407,
412,
373,
386,
378,
423,
413,
409,
400,
419,
385,
408,
353,
389,
365,
327,
393,
375,
318,
377,
351,
359,
354,
371,
321,
371,
365,
323,
311,
347,
346,
333,
372,
318,
331,
307,
342,
294,
319,
307,
276,
299,
302,
283,
303,
320,
294,
300,
295,
264,
284,
244,
296,
250,
266,
283,
273,
283,
233,
273,
264,
248,
237,
249,
267,
220,
266,
244,
252,
227,
207,
256,
249,
215,
229,
202,
234,
219,
215,
209,
208,
205,
188,
227,
221,
166,
204,
188,
217,
191,
203,
229,
192,
182,
216,
175,
165,
182,
201,
176,
170,
147,
213,
184,
170,
171,
161,
159,
180,
154,
141,
163,
138,
169,
143,
160,
163,
153,
157,
135,
126,
117,
140,
137,
142,
138,
143,
158,
155,
129,
127,
137,
108,
123,
115,
125,
118,
96,
132,
120,
119,
133,
108,
112,
112,
113,
104,
114,
106,
111,
120,
117,
113,
98,
121,
101,
93,
99,
104,
95,
119,
98,
105,
94,
79,
71,
92,
83,
88,
74,
98,
86,
76,
76,
70,
97,
88,
59,
61,
71,
80,
77,
81,
78,
68,
73,
72,
74,
68,
94,
69,
63,
59,
59,
65,
52,
58,
62,
62,
67,
49,
57,
45,
46,
62,
52,
50,
58,
49,
61,
57,
48,
32,
39,
49,
51,
45,
52,
45,
43,
51,
38,
34,
43,
36,
36,
37,
39,
44,
40,
33,
36,
30,
27,
33,
30,
46,
43,
28,
45,
32,
25,
24,
33,
36,
27,
22,
36,
28,
19,
32,
24,
31,
19,
17,
23,
23,
38,
32,
18,
18,
19,
23,
21,
16,
28,
24,
24,
12,
19,
13,
17,
19,
27,
14,
18,
15,
21,
23,
20,
16,
18,
24,
12,
15,
14,
16,
13,
11,
20,
7,
13,
13,
11,
11,
17,
12,
11,
16,
12,
7,
11,
4,
7,
12,
11,
9,
7,
12,
13,
5,
13,
11,
6,
6,
10,
6,
3,
5,
11,
7,
7,
9,
1,
5,
5,
2,
4,
3,
9,
5,
3,
1,
3,
10,
4,
4,
2,
2,
3,
2,
1,
2,
3,
5,
3,
2,
2,
2,
1,
1,
1,
0,
1,
0,
1,
0,
0,
3,
0,
0,
1,
0,
1,
0,
0,
0,
0,
1,
0,
0,
0,
1,
0,
0,
0,
0,
0,
0,
0,
0,
0,
0,
0,
0,
0,
0,
0,
0,
1,
0,
0,
0,
0,
0,
0,
0,
0,
0,
0,
0,
0,
0,
0,
0,
0,
0,
0,
1,
0,
0,
0,
0,
0,
0,
0,
0,
1,
0,
0,
0,
0,
0,
0,
0,
0,
0,
0,
0,
0,
0,
0,
0,
0,
0,
0,
0,
0,
0,
0,
0,
0,
0,
0,
0,
0,
0,
0,
0,
0,
0,
0,
0,
0,
0,
0,
0,
0,
0,
1,
0,
0,
0,
0,
0,
0,
0,
0,
0,
0,
0,
0,
0,
0,
0,
0,
0,
0,
0,
0,
0,
0,
0,
0,
0,
0,
0,
0,
0,
0,
0,
0,
0,
0,
0,
0,
0,
0,
0,
0,
0,
0,
0,
0,
0,
0,
0,
0,
0,
0,
0,
0,
0,
0,
0,
0,
0,
0,
0,
0,
1,
0,
0,
0,
1,
0,
0,
0,
0,
0,
0,
0,
0,
0,
0,
0,
0,
0,
0,
0,
0,
0,
0,
0,
0,
0,
0,
0,
0,
0,
0,
0,
0,
0,
0,
0,
0,
0,
0,
0,
0,
0,
0,
0,
0,
0,
0,
0,
0,
0,
0,
0,
0,
0,
0,
0,
0,
0,
0,
0,
0,
0,
0,
0,
0,
0,
0,
0,
0,
0,
0,
0,
0,
0,
0,
0,
0,
0,
0,
0,
0,
0,
0,
0,
0,
0,
0,
0,
0,
0,
0,
0,
0,
0,
0,
0,
0,
0,
0,
0,
0,
0,
0,
0,
0,
0,
0,
0,
0,
0,
0,
0,
0,
0,
0,
0,
0,
0,
0,
0,
0,
0,
0,
0,
0,
0,
0,
0,
0,
0,
0,
0,
0,
0,
0,
0,
0,
0,
0,
0,
0,
0,
0,
0,
0,
0,
0,
0,
0,
0,
0,
0,
0,
0,
0,
0,
0,
0,
0,
0,
0,
0,
0,
0,
0,
0,
0,
0,
0,
0,
0,
0,
0,
0,
0,
0,
0,
0,
0,
0,
0,
0,
0,
0,
0,
0,
0,
0,
0,
0,
0,
0,
0,
0,
0,
0,
0,
0,
0,
0,
0,
0,
0,
0,
0,
0,
0,
0,
0,
0,
0,
0,
0,
0,
0,
0,
0,
0,
0,
0,
0,
0,
0,
0,
0,
0,
0,
0,
0,
0,
0,
0,
0,
0,
0,
0,
0,
0,
0,
0,
0,
0,
0,
0,
0,
0,
0,
0,
0,
0,
0,
0,
0,
0,
0,
0,
0,
0,
0,
0,
0,
0,
0,
0,
0,
0,
0,
0,
0,
0,
0,
0,
0,
0,
0,
0,
0,
0,
0,
0,
0,
0,
0,
0,
0,
0,
0,
0,
0,
0,
0,
0,
0,
0,
0,
0,
0,
0,
0,
0,
0,
0,
0,
0,
0,
0,
0,
0,
0,
0,
0,
0,
0,
0,
0,
0,
0,
0,
0,
0,
0,
0,
0,
0,
0,
0,
0,
0,
0,
0,
0,
0,
0,
0,
0,
0,
0,
0,
0,
0,
0,
0,
0,
0,
0,
0,
0,
0,
0,
0,
0,
0,
0,
0,
0,
0,
0,
0,
0,
0,
0,
0,
0,
0,
0,
0,
0,
0,
0,
0,
0,
0,
0,
0,
0,
0,
0,
0,
0,
0,
0,
0,
0,
0,
0,
0,
0,
0,
0,
0,
0,
0,
0,
0,
0,
0,
0,
0,
0,
0,
0,
0,
0,
0,
0,
0,
0,
0,
0,
0,
0,
0,
0,
0,
0,
0,
0,
0,
0,
0,
0,
0,
0,
0,
0,
0,
0,
0,
0,
0,
0,
0,
0,
0,
0,
0,
0,
0,
0,
0,
0,
0,
0,
0,
0,
0,
0,
0,
0,
0,
0,
0,
0,
0,
0,
0,
0,
0,
0,
0,
0,
0,
0,
0,
0,
0,
0,
0,
0,
0,
0,
0,
0,
0,
0,
0,
0,
0,
0,
0,
0,
0,
0,
0,
0,
0,
0,
0,
0,
0,
0,
0,
0,
0,
0,
0,
0,
0,
0,
0,
0,
0,
0,
0,
0,
0,
0,
0,
0,
0,
0,
0,
0,
0,
0,
0,
0,
0,
0,
0,
0,
0,
0,
0,
0,
0,
0,
0,
0,
0,
0,
0,
0,
0,
0,
0,
0,
#ENDOFDATA   :