File: N132962/Quantification/20 keV/MMM1/SPI MM1 Kaersutite[2][4].msa
#FORMAT      : EMSA/MAS Spectral Data File
#VERSION     : 1.0
#TITLE       : SPI MM1dup Kaersutite[2][all]
#DATE        : 12-MAR-2025
#TIME        : 16:22
#OWNER       : Unknown
#NPOINTS     : 4096
#NCOLUMNS    : 1
#XUNITS      : eV
#YUNITS      : counts
#DATATYPE    : Y
#XPERCHAN    : 9.99778
#OFFSET      : 1.69135
#BEAMKV      : 20
#SIGNALTYPE  : EDS
#ELEVANGLE   : 35
#AZIMANGLE   : 0
#LIVETIME    : 239.623
#REALTIME    : 254.128
#PROBECUR    : 1.02709
#TAUWIND     : 0
#TDEADLYR    : 0
#TACTLYR     : 0.045
#TALWIND     : 0.025
#CHOFFSET    : 0.0
#XLABEL      : Energy (eV)
#YLABEL      : Counts
#XPOSITION   : -1.62776
#YPOSITION   : 3.57384
#ZPOSITION   : 31.03608
#EDSDET      : SD
##SPECIMEN   : SPI MM1dup Kaersutite[2][all]
##DET_HASH   : 12273538-fd48-a23f-0a19-f1e6fa85caef
##CALIB_HASH : 6abaa72c-aa41-8738-0be9-f592914732f3
##WORKING    : 15.0 mm
##DET_NAME   : EDAX All
##DET_MODE   : MediumLE
#SPECTRUM    :
26,
25,
14,
12,
61,
266,
817,
2783,
8285,
11282,
6516,
3503,
3377,
3781,
5746,
17194,
65281,
125896,
92580,
25170,
4698,
3196,
4961,
7866,
7749,
4351,
2719,
2443,
2436,
2563,
2684,
2844,
3542,
5951,
10561,
11386,
7322,
4413,
4122,
6760,
18862,
44371,
52710,
31144,
10968,
5026,
4736,
9176,
25865,
50696,
51381,
27960,
10893,
5612,
5289,
11410,
40904,
103823,
141629,
100584,
41678,
15282,
7533,
4483,
3438,
3199,
3146,
3012,
2769,
2690,
2737,
2726,
2665,
2799,
2907,
2933,
2968,
2978,
2712,
2740,
2644,
2686,
2846,
2650,
2677,
2636,
2763,
2694,
2750,
2670,
2745,
2777,
2742,
2636,
2575,
2546,
2526,
2511,
2594,
2572,
2613,
2668,
2424,
2475,
2475,
2496,
2548,
2784,
3411,
4859,
6360,
6230,
4711,
3349,
2589,
2483,
2535,
2634,
3027,
4230,
8140,
17555,
30963,
38931,
32714,
19013,
8205,
3699,
2362,
2267,
2397,
2976,
4497,
5925,
6487,
5430,
3705,
2528,
1987,
1877,
1909,
1822,
1805,
1793,
1716,
1797,
2194,
3197,
5764,
9011,
11625,
11023,
7847,
4443,
2646,
1900,
1684,
1623,
1560,
1660,
1674,
1869,
2112,
2590,
2949,
2825,
2520,
1996,
1667,
1517,
1427,
1465,
1439,
1413,
1411,
1395,
1394,
1347,
1354,
1447,
1379,
1399,
1451,
1350,
1349,
1292,
1276,
1204,
1327,
1241,
1218,
1253,
1230,
1247,
1310,
1436,
1484,
1401,
1402,
1252,
1234,
1207,
1103,
1127,
1161,
1214,
1131,
1273,
1553,
2599,
4942,
9055,
13933,
16674,
15716,
11673,
6809,
3512,
1831,
1251,
1080,
978,
1004,
1033,
958,
962,
993,
969,
1043,
1004,
1128,
1244,
1612,
2135,
2701,
2963,
2725,
2206,
1626,
1210,
1014,
872,
785,
806,
823,
831,
784,
878,
846,
878,
911,
820,
848,
801,
763,
758,
772,
712,
726,
754,
750,
735,
760,
731,
722,
670,
666,
675,
667,
701,
708,
725,
692,
672,
723,
691,
644,
658,
692,
630,
666,
564,
656,
621,
613,
629,
640,
646,
565,
613,
602,
633,
582,
569,
595,
580,
595,
550,
559,
549,
580,
546,
569,
530,
526,
531,
543,
492,
535,
548,
528,
505,
517,
530,
486,
475,
524,
505,
494,
461,
474,
503,
525,
476,
485,
453,
493,
480,
475,
460,
465,
437,
411,
479,
449,
462,
433,
421,
412,
400,
483,
435,
381,
406,
402,
433,
417,
405,
389,
400,
368,
390,
428,
386,
363,
367,
390,
339,
341,
366,
352,
366,
342,
356,
355,
344,
338,
302,
331,
328,
338,
324,
342,
324,
349,
332,
287,
321,
295,
301,
285,
316,
285,
262,
325,
303,
266,
278,
306,
268,
284,
289,
287,
274,
250,
254,
250,
272,
257,
245,
240,
279,
252,
233,
250,
256,
226,
231,
237,
241,
217,
227,
253,
230,
239,
235,
194,
196,
214,
199,
184,
245,
236,
195,
202,
222,
190,
199,
182,
183,
202,
212,
183,
180,
190,
167,
180,
185,
163,
168,
179,
172,
163,
158,
146,
156,
155,
165,
156,
143,
145,
147,
143,
149,
151,
162,
141,
145,
123,
155,
150,
130,
142,
152,
135,
129,
127,
115,
125,
140,
108,
123,
109,
108,
117,
118,
107,
114,
134,
112,
129,
112,
107,
110,
111,
93,
93,
127,
102,
91,
122,
91,
95,
97,
90,
98,
86,
98,
88,
99,
89,
81,
105,
83,
69,
93,
87,
64,
87,
72,
64,
61,
72,
58,
81,
66,
79,
83,
66,
66,
57,
59,
82,
71,
62,
72,
64,
61,
52,
60,
50,
63,
62,
64,
51,
62,
56,
56,
63,
53,
50,
53,
39,
47,
55,
54,
40,
42,
53,
42,
42,
53,
42,
41,
41,
40,
35,
39,
29,
43,
42,
28,
31,
38,
37,
28,
39,
32,
30,
35,
41,
31,
31,
28,
32,
29,
30,
26,
31,
26,
20,
28,
34,
23,
25,
24,
37,
20,
28,
19,
21,
9,
23,
22,
18,
17,
15,
16,
20,
20,
16,
15,
16,
14,
13,
15,
11,
14,
14,
19,
18,
13,
12,
10,
11,
16,
15,
13,
12,
21,
13,
8,
10,
12,
8,
10,
11,
5,
7,
10,
5,
11,
5,
9,
5,
5,
7,
3,
6,
12,
9,
7,
12,
3,
2,
2,
6,
4,
4,
3,
5,
3,
1,
2,
1,
1,
2,
2,
1,
5,
2,
2,
0,
2,
1,
1,
0,
0,
0,
0,
0,
0,
0,
0,
0,
1,
0,
1,
0,
0,
0,
0,
0,
1,
0,
0,
1,
0,
0,
0,
1,
1,
0,
0,
0,
1,
0,
0,
0,
0,
0,
0,
0,
0,
2,
0,
0,
0,
1,
1,
0,
0,
0,
1,
1,
0,
1,
0,
0,
0,
0,
0,
0,
0,
1,
0,
0,
0,
0,
0,
0,
0,
0,
0,
0,
0,
0,
0,
0,
0,
1,
0,
0,
0,
0,
0,
0,
0,
1,
0,
0,
0,
0,
0,
0,
0,
0,
0,
0,
0,
1,
0,
0,
0,
0,
0,
0,
0,
0,
0,
0,
0,
0,
0,
0,
0,
0,
0,
0,
0,
0,
0,
0,
0,
0,
0,
0,
0,
0,
0,
1,
0,
0,
0,
0,
0,
0,
0,
0,
0,
0,
0,
0,
0,
0,
0,
0,
0,
0,
0,
0,
0,
0,
0,
1,
0,
0,
0,
0,
0,
0,
0,
0,
0,
0,
0,
0,
0,
0,
0,
0,
0,
0,
0,
0,
0,
0,
0,
0,
0,
0,
0,
0,
0,
0,
0,
0,
0,
0,
0,
0,
0,
0,
0,
0,
0,
0,
0,
0,
0,
0,
0,
0,
0,
0,
0,
0,
0,
0,
0,
0,
0,
0,
0,
0,
0,
0,
0,
0,
0,
0,
0,
0,
0,
0,
0,
0,
0,
0,
0,
0,
0,
0,
0,
0,
0,
0,
0,
0,
0,
0,
0,
0,
0,
0,
0,
0,
0,
0,
0,
0,
0,
0,
0,
1,
0,
0,
0,
0,
0,
0,
0,
0,
0,
0,
0,
0,
0,
0,
0,
0,
0,
0,
0,
0,
0,
0,
0,
0,
0,
0,
0,
0,
0,
0,
0,
0,
0,
0,
0,
0,
0,
0,
0,
0,
0,
0,
0,
0,
0,
0,
0,
0,
0,
0,
0,
0,
0,
0,
0,
0,
0,
0,
0,
0,
0,
0,
0,
0,
0,
0,
0,
0,
0,
0,
0,
0,
0,
0,
0,
0,
0,
0,
0,
0,
0,
0,
0,
0,
0,
0,
0,
0,
0,
0,
0,
0,
0,
0,
0,
0,
0,
0,
0,
0,
0,
0,
0,
0,
0,
0,
0,
0,
0,
0,
0,
0,
0,
0,
0,
0,
0,
0,
0,
0,
0,
0,
0,
0,
0,
0,
0,
0,
0,
0,
0,
0,
0,
0,
0,
0,
0,
0,
0,
0,
0,
0,
0,
0,
0,
0,
0,
0,
0,
0,
0,
0,
0,
0,
0,
0,
0,
0,
0,
0,
0,
0,
0,
0,
0,
0,
0,
0,
0,
0,
0,
0,
0,
0,
0,
0,
0,
0,
0,
0,
0,
0,
0,
0,
0,
0,
0,
0,
0,
0,
0,
0,
0,
0,
0,
0,
0,
0,
0,
0,
0,
0,
0,
0,
0,
0,
0,
0,
0,
0,
0,
0,
0,
0,
0,
0,
0,
0,
0,
0,
0,
0,
0,
0,
0,
0,
0,
0,
0,
0,
0,
0,
0,
0,
0,
0,
0,
0,
0,
0,
0,
0,
0,
0,
0,
0,
0,
0,
0,
0,
0,
0,
0,
0,
0,
0,
0,
0,
0,
0,
0,
0,
0,
0,
0,
0,
0,
0,
0,
0,
0,
0,
0,
0,
0,
0,
0,
0,
0,
0,
0,
0,
0,
0,
0,
0,
0,
0,
0,
0,
0,
0,
0,
0,
0,
0,
0,
0,
0,
0,
0,
0,
0,
0,
0,
0,
0,
0,
0,
0,
0,
0,
0,
0,
0,
0,
0,
0,
0,
0,
0,
0,
0,
0,
0,
0,
0,
0,
0,
0,
0,
0,
0,
0,
0,
0,
0,
0,
0,
0,
0,
0,
0,
0,
0,
0,
0,
0,
0,
0,
0,
0,
0,
0,
0,
0,
0,
0,
0,
0,
0,
0,
0,
0,
0,
0,
0,
0,
0,
0,
0,
0,
0,
0,
0,
0,
0,
0,
0,
0,
0,
0,
0,
0,
0,
0,
0,
0,
0,
0,
0,
0,
0,
0,
0,
0,
0,
0,
0,
0,
0,
0,
0,
0,
0,
0,
0,
0,
0,
0,
0,
0,
0,
0,
0,
0,
0,
0,
0,
0,
0,
0,
0,
0,
0,
0,
0,
0,
0,
0,
0,
0,
0,
0,
0,
0,
0,
0,
0,
0,
0,
0,
0,
0,
0,
0,
0,
0,
0,
0,
0,
#ENDOFDATA   :