File: N132962/Quantification/20 keV/MMM1/SPI MM1 Crocoite[6][4].msa
#FORMAT      : EMSA/MAS Spectral Data File
#VERSION     : 1.0
#TITLE       : SPI MM1dup Crocoite[6][all]
#DATE        : 12-MAR-2025
#TIME        : 13:56
#OWNER       : Unknown
#NPOINTS     : 4096
#NCOLUMNS    : 1
#XUNITS      : eV
#YUNITS      : counts
#DATATYPE    : Y
#XPERCHAN    : 9.99778
#OFFSET      : 1.69135
#BEAMKV      : 20
#SIGNALTYPE  : EDS
#ELEVANGLE   : 35
#AZIMANGLE   : 0
#LIVETIME    : 239.481
#REALTIME    : 261.4781
#PROBECUR    : 1.02627
#TAUWIND     : 0
#TDEADLYR    : 0
#TACTLYR     : 0.045
#TALWIND     : 0.025
#CHOFFSET    : 0.0
#XLABEL      : Energy (eV)
#YLABEL      : Counts
#XPOSITION   : -1.16099
#YPOSITION   : -0.58738
#ZPOSITION   : 31.03608
#EDSDET      : SD
##SPECIMEN   : SPI MM1dup Crocoite[6][all]
##DET_HASH   : 12273538-fd48-a23f-0a19-f1e6fa85caef
##CALIB_HASH : 6abaa72c-aa41-8738-0be9-f592914732f3
##WORKING    : 15.0 mm
##DET_NAME   : EDAX All
##DET_MODE   : MediumLE
#SPECTRUM    :
22,
23,
10,
42,
291,
1139,
3247,
7876,
17260,
21461,
11874,
6087,
5305,
5621,
6601,
13372,
37349,
65591,
51081,
22264,
11054,
6957,
5692,
6274,
5882,
4995,
4678,
4889,
5320,
5551,
5427,
5648,
5769,
5869,
5983,
6178,
6248,
6516,
6561,
6579,
6979,
6987,
7015,
7359,
7490,
7628,
7892,
8033,
8645,
9495,
9561,
8881,
8558,
8446,
8411,
8446,
8786,
9589,
10766,
12694,
16158,
17875,
15050,
10932,
9165,
8653,
8551,
8389,
8228,
8332,
8833,
9633,
10507,
11452,
13183,
21223,
47961,
103738,
152435,
147958,
118149,
107350,
91174,
54480,
22858,
10004,
7943,
9416,
11238,
10855,
8395,
6245,
5176,
4985,
5129,
5013,
5144,
5242,
5467,
5461,
5625,
6125,
6565,
6664,
6329,
6055,
5303,
5132,
4927,
4727,
4666,
4753,
4667,
4732,
4759,
4701,
4783,
4734,
4978,
4826,
4828,
4722,
4747,
4937,
4787,
4801,
4636,
4678,
4545,
4527,
4522,
4466,
4437,
4548,
4491,
4466,
4452,
4508,
4459,
4401,
4503,
4493,
4489,
4443,
4318,
4456,
4496,
4381,
4318,
4374,
4504,
4388,
4392,
4462,
4251,
4383,
4502,
4461,
4409,
4302,
4329,
4482,
4337,
4296,
4207,
4088,
4215,
4120,
4275,
4065,
4221,
4176,
4234,
4210,
4298,
4778,
6469,
11435,
21805,
36260,
45976,
44028,
32120,
18581,
9554,
5489,
4177,
3935,
3852,
3884,
3930,
3812,
4009,
4048,
4297,
5444,
6883,
8714,
9457,
8898,
7030,
5362,
4382,
3701,
3406,
3414,
3446,
3387,
3316,
3238,
3366,
3575,
3769,
3883,
3836,
3568,
3602,
3264,
3275,
3179,
3317,
3132,
3174,
3137,
3209,
3174,
3124,
2984,
3163,
3069,
3060,
3103,
3033,
3168,
2988,
3036,
2951,
3028,
2895,
3029,
2912,
2869,
2920,
2815,
2849,
2822,
2842,
2956,
2975,
2916,
3072,
2997,
2788,
2808,
2712,
2782,
2688,
2710,
2762,
2701,
2689,
2677,
2669,
2697,
2656,
2485,
2638,
2559,
2554,
2492,
2461,
2460,
2482,
2506,
2501,
2432,
2471,
2500,
2413,
2407,
2446,
2396,
2333,
2311,
2302,
2301,
2279,
2242,
2308,
2275,
2259,
2347,
2289,
2205,
2209,
2257,
2202,
2233,
2173,
2149,
2195,
2235,
2306,
2365,
2557,
2614,
2473,
2475,
2414,
2352,
2225,
2090,
2023,
2035,
1978,
2104,
2001,
2003,
1934,
2029,
1985,
1964,
1811,
1928,
1859,
1896,
1853,
1815,
1773,
1827,
1799,
1834,
1788,
1810,
1766,
1773,
1701,
1753,
1814,
1730,
1768,
1744,
1707,
1924,
2097,
2394,
3106,
4191,
5970,
8047,
9870,
11068,
10941,
9108,
6933,
4681,
3213,
2215,
1775,
1632,
1587,
1571,
1553,
1518,
1485,
1505,
1483,
1466,
1463,
1425,
1522,
1392,
1453,
1399,
1397,
1322,
1437,
1374,
1467,
1442,
1331,
1288,
1381,
1282,
1301,
1316,
1255,
1207,
1199,
1163,
1241,
1201,
1171,
1110,
1167,
1137,
1122,
1156,
1181,
1175,
1174,
1171,
1161,
1199,
1288,
1284,
1201,
1224,
1255,
1208,
1171,
1175,
1179,
1237,
1254,
1503,
2021,
2699,
3504,
4060,
4500,
4362,
3843,
3005,
2281,
1768,
1385,
1279,
1110,
1055,
1136,
1091,
1035,
1026,
1048,
1023,
917,
935,
871,
848,
825,
807,
821,
814,
797,
795,
790,
708,
739,
711,
691,
750,
677,
692,
699,
694,
649,
688,
649,
647,
675,
688,
643,
635,
687,
648,
584,
624,
612,
564,
620,
602,
573,
592,
605,
614,
628,
600,
577,
576,
567,
567,
543,
550,
531,
580,
535,
633,
612,
722,
765,
799,
776,
802,
691,
595,
565,
526,
492,
487,
483,
485,
471,
485,
523,
508,
494,
479,
425,
416,
425,
413,
434,
361,
377,
385,
362,
368,
421,
373,
363,
361,
323,
354,
356,
355,
338,
390,
352,
312,
337,
323,
331,
318,
285,
290,
286,
324,
273,
319,
300,
279,
290,
276,
286,
261,
284,
259,
230,
258,
252,
247,
225,
243,
266,
211,
232,
220,
211,
227,
215,
228,
202,
204,
206,
221,
200,
212,
202,
194,
206,
204,
230,
197,
190,
188,
177,
174,
166,
179,
169,
161,
162,
145,
168,
160,
144,
155,
156,
122,
143,
140,
155,
115,
145,
136,
115,
113,
120,
127,
134,
118,
119,
117,
120,
117,
95,
107,
109,
92,
94,
107,
103,
80,
91,
96,
76,
101,
85,
75,
73,
78,
73,
59,
81,
72,
59,
66,
54,
56,
59,
67,
61,
54,
47,
45,
41,
61,
48,
47,
40,
53,
36,
48,
39,
32,
36,
28,
35,
36,
24,
28,
22,
24,
28,
19,
16,
21,
16,
14,
8,
11,
8,
7,
6,
8,
12,
5,
4,
7,
4,
2,
2,
5,
3,
4,
2,
2,
4,
4,
4,
3,
1,
5,
4,
2,
3,
4,
3,
4,
1,
3,
6,
2,
7,
0,
2,
5,
3,
5,
5,
4,
1,
7,
0,
4,
1,
1,
2,
3,
0,
2,
1,
3,
1,
0,
1,
4,
1,
0,
3,
2,
2,
1,
2,
3,
5,
1,
3,
3,
1,
3,
1,
1,
0,
2,
3,
4,
1,
2,
4,
4,
0,
0,
1,
2,
4,
1,
0,
0,
2,
1,
2,
2,
0,
2,
2,
1,
1,
1,
1,
1,
0,
0,
0,
0,
2,
1,
0,
3,
2,
3,
1,
1,
0,
2,
1,
0,
5,
0,
0,
1,
0,
1,
1,
3,
1,
1,
2,
0,
1,
1,
0,
1,
1,
0,
3,
0,
0,
2,
0,
1,
1,
3,
0,
0,
0,
0,
0,
0,
2,
0,
1,
1,
0,
0,
2,
1,
1,
2,
6,
2,
0,
3,
0,
1,
1,
0,
1,
2,
1,
0,
0,
0,
0,
2,
1,
1,
1,
0,
1,
0,
0,
1,
2,
0,
0,
0,
0,
0,
1,
0,
1,
0,
0,
0,
0,
2,
1,
0,
1,
1,
2,
0,
0,
1,
2,
1,
1,
0,
2,
0,
4,
0,
0,
2,
2,
0,
0,
0,
0,
1,
0,
1,
0,
1,
0,
0,
0,
2,
0,
0,
0,
1,
0,
3,
1,
0,
1,
0,
2,
0,
2,
0,
0,
0,
0,
2,
1,
1,
1,
0,
1,
1,
0,
0,
0,
1,
1,
0,
2,
0,
1,
0,
0,
0,
0,
0,
0,
0,
0,
0,
0,
0,
1,
0,
1,
0,
0,
1,
1,
0,
0,
0,
1,
0,
0,
0,
0,
0,
1,
0,
0,
0,
1,
0,
0,
0,
0,
0,
0,
0,
0,
0,
0,
0,
0,
0,
0,
0,
0,
0,
0,
0,
0,
1,
0,
0,
0,
0,
0,
0,
2,
0,
0,
0,
0,
0,
0,
0,
0,
1,
0,
0,
0,
0,
0,
0,
0,
0,
0,
0,
0,
0,
0,
0,
0,
0,
0,
0,
0,
0,
0,
0,
0,
0,
0,
0,
0,
0,
0,
1,
0,
0,
1,
0,
1,
0,
0,
0,
0,
0,
0,
0,
0,
0,
1,
0,
0,
0,
0,
0,
0,
0,
0,
0,
0,
0,
0,
0,
0,
0,
0,
0,
0,
0,
0,
0,
0,
0,
0,
0,
0,
0,
0,
0,
0,
0,
0,
0,
0,
0,
0,
1,
0,
0,
0,
0,
0,
0,
0,
0,
0,
0,
0,
0,
0,
0,
0,
0,
0,
0,
0,
0,
0,
0,
0,
0,
0,
0,
0,
0,
0,
0,
0,
0,
0,
0,
0,
0,
0,
0,
0,
0,
0,
0,
0,
0,
0,
0,
0,
0,
0,
0,
0,
0,
0,
0,
0,
0,
0,
0,
0,
0,
0,
0,
0,
0,
0,
0,
0,
0,
0,
0,
0,
0,
0,
0,
0,
0,
0,
0,
0,
0,
0,
0,
0,
0,
0,
0,
0,
0,
0,
0,
0,
0,
0,
0,
0,
0,
0,
0,
0,
0,
0,
0,
0,
0,
0,
0,
0,
0,
0,
0,
0,
0,
0,
0,
0,
0,
0,
0,
0,
1,
0,
0,
0,
0,
0,
0,
0,
0,
0,
0,
0,
0,
0,
0,
0,
0,
0,
0,
0,
0,
0,
0,
0,
0,
0,
0,
0,
0,
0,
0,
0,
0,
0,
0,
0,
0,
0,
0,
0,
0,
0,
0,
0,
0,
0,
0,
0,
0,
0,
0,
0,
0,
0,
0,
0,
0,
0,
0,
0,
0,
0,
0,
0,
0,
0,
0,
0,
0,
0,
0,
0,
0,
0,
0,
0,
0,
0,
0,
0,
0,
0,
0,
0,
0,
0,
0,
0,
0,
0,
0,
0,
0,
0,
0,
0,
0,
0,
0,
0,
0,
0,
0,
0,
0,
0,
0,
0,
0,
0,
0,
0,
0,
0,
0,
0,
0,
0,
0,
0,
0,
0,
0,
0,
0,
0,
0,
0,
0,
0,
0,
0,
0,
0,
0,
0,
0,
0,
0,
0,
0,
0,
0,
0,
0,
0,
0,
0,
0,
0,
0,
0,
0,
0,
0,
0,
0,
0,
0,
0,
0,
0,
0,
0,
0,
0,
0,
0,
0,
0,
0,
0,
0,
#ENDOFDATA   :