File: N132962/Quantification/20 keV/MMM1/SPI MM1 Arsenopyrite[0][4].msa
#FORMAT      : EMSA/MAS Spectral Data File
#VERSION     : 1.0
#TITLE       : SPI MM1 Arsenopyrite[0][all]
#DATE        : 11-MAR-2025
#TIME        : 13:34
#OWNER       : Unknown
#NPOINTS     : 4096
#NCOLUMNS    : 1
#XUNITS      : eV
#YUNITS      : counts
#DATATYPE    : Y
#XPERCHAN    : 9.99778
#OFFSET      : 1.69135
#BEAMKV      : 20
#SIGNALTYPE  : EDS
#ELEVANGLE   : 35
#AZIMANGLE   : 0
#LIVETIME    : 239.821
#REALTIME    : 260.7888
#PROBECUR    : 1.02853
#TAUWIND     : 0
#TDEADLYR    : 0
#TACTLYR     : 0.045
#TALWIND     : 0.025
#CHOFFSET    : 0.0
#XLABEL      : Energy (eV)
#YLABEL      : Counts
#XPOSITION   : 2.16622
#YPOSITION   : -5.01231
#ZPOSITION   : 30.9284
#EDSDET      : SD
##SPECIMEN   : SPI MM1 Arsenopyrite[0][all]
##D2STDCMP   : Arsenopyrite,(S:19.6897),(Fe:34.2972),(As:46.0131),6.0
##DET_HASH   : 12273538-fd48-a23f-0a19-f1e6fa85caef
##CALIB_HASH : 6abaa72c-aa41-8738-0be9-f592914732f3
##WORKING    : 15.0 mm
##DET_NAME   : EDAX All
##DET_MODE   : MediumLE
#SPECTRUM    :
20,
30,
11,
33,
163,
553,
1144,
3535,
9882,
13226,
6705,
2926,
2753,
3021,
3390,
3857,
4895,
6375,
8571,
12605,
17636,
19733,
32360,
55722,
46760,
18460,
6908,
5235,
4968,
5029,
4873,
5222,
5399,
5495,
5941,
7064,
9980,
13965,
14938,
12836,
19151,
60117,
147571,
199062,
148008,
65275,
20962,
8195,
5076,
4476,
4401,
4271,
4174,
4242,
4174,
4379,
4556,
4955,
5058,
5171,
5076,
4834,
4678,
4578,
4591,
4708,
4771,
4736,
4867,
4930,
4917,
5077,
6094,
8835,
17784,
45001,
88544,
109950,
80431,
36759,
14828,
11354,
12438,
10947,
7701,
5506,
4584,
4466,
4432,
4373,
4322,
4267,
4259,
4272,
4229,
4224,
4260,
4328,
4153,
4214,
4240,
4261,
4221,
4148,
4191,
4304,
4199,
4222,
4101,
4099,
4104,
4250,
3919,
4007,
4107,
4088,
4141,
4110,
4188,
4250,
4302,
4138,
4132,
4003,
4152,
3919,
3859,
3948,
3815,
3909,
3739,
3799,
3791,
3759,
3732,
3704,
3798,
3729,
3528,
3675,
3726,
3580,
3625,
3487,
3522,
3527,
3576,
3465,
3485,
3466,
3500,
3453,
3526,
3584,
3696,
3768,
3566,
3512,
3350,
3350,
3184,
3335,
3189,
3209,
3201,
3158,
3237,
3066,
3076,
3190,
3109,
3098,
3134,
3002,
2976,
2950,
2966,
2976,
2974,
2976,
3034,
2954,
2907,
2890,
2805,
2864,
2908,
2812,
2695,
2827,
2639,
2696,
2729,
2498,
2812,
2732,
2644,
2617,
2631,
2752,
2566,
2616,
2609,
2676,
2639,
2612,
2783,
3143,
4584,
9098,
19654,
38402,
60140,
73934,
68868,
50148,
28354,
13259,
5932,
3260,
2509,
2323,
2295,
2254,
2165,
2294,
2299,
2285,
2313,
2445,
2797,
3555,
5155,
7539,
10278,
11125,
10526,
7917,
5234,
3397,
2396,
2039,
1857,
1805,
1825,
1836,
1857,
1831,
1871,
1911,
1924,
1836,
1832,
1728,
1790,
1801,
1834,
1841,
1846,
1782,
1726,
1658,
1627,
1641,
1636,
1645,
1636,
1583,
1538,
1534,
1630,
1556,
1564,
1540,
1541,
1500,
1545,
1506,
1531,
1457,
1492,
1451,
1473,
1460,
1477,
1470,
1412,
1403,
1489,
1401,
1483,
1460,
1436,
1460,
1357,
1470,
1370,
1440,
1327,
1331,
1285,
1261,
1327,
1266,
1321,
1293,
1240,
1244,
1215,
1226,
1228,
1256,
1191,
1255,
1218,
1223,
1235,
1225,
1190,
1141,
1196,
1155,
1070,
1123,
1202,
1209,
1153,
1115,
1083,
1155,
1115,
1108,
1140,
1100,
1067,
1059,
1050,
1066,
1066,
1030,
1040,
1091,
1078,
1230,
1429,
2092,
3639,
6305,
10240,
14577,
17694,
18511,
16691,
12691,
8338,
5047,
2796,
1668,
1237,
1031,
902,
972,
900,
891,
899,
790,
871,
852,
856,
853,
846,
823,
858,
796,
865,
799,
793,
802,
786,
806,
806,
758,
775,
769,
858,
984,
1267,
1622,
2156,
2747,
3023,
3135,
2714,
2238,
1739,
1306,
967,
805,
732,
671,
631,
625,
623,
671,
610,
571,
569,
570,
566,
577,
559,
552,
599,
584,
523,
602,
576,
527,
538,
603,
525,
530,
518,
556,
545,
523,
571,
572,
543,
536,
528,
525,
487,
484,
450,
480,
494,
428,
424,
462,
419,
448,
436,
431,
438,
405,
401,
449,
384,
454,
421,
401,
408,
396,
385,
377,
410,
381,
368,
415,
346,
367,
336,
340,
328,
388,
355,
364,
334,
307,
309,
330,
345,
325,
307,
318,
332,
298,
330,
293,
289,
320,
301,
302,
277,
273,
300,
260,
280,
243,
279,
272,
280,
275,
239,
247,
247,
245,
241,
250,
249,
209,
248,
226,
215,
240,
215,
199,
236,
225,
175,
217,
216,
224,
213,
207,
191,
232,
196,
179,
203,
166,
174,
192,
175,
183,
171,
162,
153,
190,
160,
157,
180,
142,
170,
164,
157,
138,
175,
164,
153,
149,
164,
156,
149,
135,
144,
137,
133,
122,
122,
125,
137,
108,
133,
111,
133,
110,
121,
123,
105,
124,
132,
132,
110,
134,
114,
134,
110,
109,
111,
104,
108,
108,
90,
85,
82,
96,
84,
99,
78,
83,
98,
81,
90,
80,
77,
74,
73,
89,
74,
77,
77,
84,
74,
76,
58,
62,
70,
57,
52,
53,
59,
64,
58,
61,
45,
63,
46,
50,
46,
51,
45,
43,
64,
44,
42,
37,
41,
32,
33,
23,
34,
25,
37,
34,
35,
33,
35,
35,
24,
26,
27,
27,
29,
14,
21,
24,
18,
28,
17,
20,
17,
21,
13,
20,
22,
12,
11,
14,
18,
14,
9,
12,
6,
12,
13,
10,
4,
8,
8,
4,
4,
2,
5,
2,
1,
1,
5,
2,
3,
2,
1,
1,
1,
0,
0,
7,
1,
0,
2,
2,
3,
1,
2,
3,
4,
2,
0,
1,
2,
1,
0,
3,
5,
2,
5,
1,
2,
4,
2,
4,
1,
5,
1,
2,
2,
2,
6,
3,
1,
2,
0,
5,
2,
2,
1,
3,
0,
1,
2,
0,
0,
1,
2,
2,
0,
0,
1,
1,
1,
0,
0,
1,
0,
2,
2,
1,
1,
2,
4,
1,
3,
0,
0,
1,
0,
2,
0,
0,
0,
1,
2,
0,
0,
0,
3,
0,
1,
2,
2,
1,
0,
0,
0,
0,
2,
0,
0,
1,
0,
1,
0,
1,
1,
1,
0,
1,
0,
0,
0,
0,
1,
1,
0,
0,
1,
0,
0,
0,
1,
0,
0,
0,
1,
1,
0,
0,
0,
1,
0,
1,
1,
0,
1,
1,
1,
0,
0,
0,
0,
0,
0,
0,
0,
0,
0,
1,
1,
0,
0,
0,
0,
1,
1,
1,
0,
1,
0,
1,
1,
0,
0,
0,
0,
1,
0,
0,
1,
0,
0,
0,
0,
1,
1,
0,
0,
0,
0,
0,
0,
0,
0,
0,
0,
0,
0,
0,
1,
0,
0,
0,
0,
1,
0,
0,
0,
0,
1,
0,
0,
0,
2,
0,
0,
0,
0,
0,
0,
0,
1,
0,
0,
0,
0,
0,
1,
0,
0,
0,
0,
0,
0,
0,
0,
0,
1,
0,
0,
0,
0,
0,
0,
0,
0,
0,
0,
2,
0,
0,
0,
0,
0,
2,
0,
0,
0,
1,
1,
0,
0,
0,
1,
0,
0,
0,
0,
0,
0,
0,
0,
0,
0,
0,
1,
0,
0,
0,
0,
0,
1,
0,
0,
0,
1,
0,
0,
0,
0,
0,
0,
0,
0,
0,
0,
0,
0,
0,
1,
0,
0,
0,
0,
0,
0,
0,
0,
0,
0,
0,
0,
0,
0,
0,
0,
0,
0,
0,
0,
0,
0,
0,
0,
0,
0,
0,
0,
0,
0,
0,
0,
0,
0,
0,
0,
0,
0,
0,
0,
1,
0,
0,
0,
0,
0,
0,
0,
0,
0,
0,
0,
0,
0,
0,
0,
0,
0,
0,
0,
0,
0,
0,
0,
0,
0,
0,
0,
0,
0,
0,
0,
0,
0,
0,
0,
0,
0,
0,
0,
0,
0,
0,
0,
0,
0,
0,
0,
0,
0,
0,
0,
0,
0,
0,
0,
0,
0,
0,
0,
0,
0,
0,
0,
0,
0,
0,
0,
0,
0,
0,
0,
0,
0,
0,
0,
0,
0,
0,
0,
0,
0,
0,
0,
0,
0,
0,
0,
0,
0,
0,
0,
0,
0,
0,
0,
0,
0,
0,
0,
0,
0,
0,
0,
0,
1,
0,
0,
0,
0,
0,
0,
0,
0,
0,
0,
0,
0,
0,
0,
0,
0,
0,
0,
0,
0,
0,
0,
0,
0,
0,
0,
0,
0,
0,
0,
0,
0,
0,
0,
0,
0,
0,
0,
0,
0,
0,
0,
0,
0,
0,
0,
0,
0,
0,
0,
0,
0,
0,
0,
0,
0,
0,
0,
0,
0,
0,
0,
0,
0,
0,
0,
0,
0,
0,
0,
0,
0,
0,
0,
0,
0,
0,
0,
0,
0,
0,
0,
0,
0,
0,
0,
0,
0,
0,
0,
0,
0,
0,
0,
0,
0,
0,
0,
0,
0,
0,
0,
0,
0,
0,
0,
0,
0,
1,
0,
0,
0,
0,
0,
0,
0,
0,
0,
0,
0,
0,
0,
0,
0,
0,
0,
0,
0,
0,
0,
0,
0,
0,
0,
0,
0,
0,
0,
0,
0,
0,
0,
0,
0,
0,
0,
0,
0,
0,
0,
0,
0,
0,
0,
0,
0,
0,
0,
0,
0,
0,
0,
0,
0,
0,
0,
0,
0,
0,
0,
0,
0,
0,
0,
0,
0,
0,
0,
0,
0,
0,
0,
0,
0,
0,
0,
0,
0,
0,
0,
0,
0,
0,
0,
0,
0,
0,
0,
0,
0,
0,
0,
0,
0,
0,
0,
0,
0,
0,
0,
0,
0,
0,
0,
0,
0,
0,
0,
0,
0,
0,
0,
0,
0,
0,
0,
0,
0,
0,
0,
0,
0,
0,
0,
0,
0,
0,
0,
0,
0,
0,
0,
0,
0,
0,
0,
0,
0,
0,
0,
0,
0,
0,
0,
0,
0,
0,
0,
0,
0,
0,
#ENDOFDATA   :