File: N132962/Quantification/20 keV/MMM1/SPI MM1 Anhydrite[6][4].msa
#FORMAT      : EMSA/MAS Spectral Data File
#VERSION     : 1.0
#TITLE       : SPI MM1 Anhydrite[6][all]
#DATE        : 11-MAR-2025
#TIME        : 13:51
#OWNER       : Unknown
#NPOINTS     : 4096
#NCOLUMNS    : 1
#XUNITS      : eV
#YUNITS      : counts
#DATATYPE    : Y
#XPERCHAN    : 9.99778
#OFFSET      : 1.69135
#BEAMKV      : 20
#SIGNALTYPE  : EDS
#ELEVANGLE   : 35
#AZIMANGLE   : 0
#LIVETIME    : 239.872
#REALTIME    : 255.077
#PROBECUR    : 1.02902
#TAUWIND     : 0
#TDEADLYR    : 0
#TACTLYR     : 0.045
#TALWIND     : 0.025
#CHOFFSET    : 0.0
#XLABEL      : Energy (eV)
#YLABEL      : Counts
#XPOSITION   : 4.94911
#YPOSITION   : -5.0649
#ZPOSITION   : 30.9284
#EDSDET      : SD
##SPECIMEN   : SPI MM1 Anhydrite[6][all]
##D2STDCMP   : Anhydrite,(O:47.0085),(S:23.5529),(Ca:29.4387),5.0
##DET_HASH   : 12273538-fd48-a23f-0a19-f1e6fa85caef
##CALIB_HASH : 6abaa72c-aa41-8738-0be9-f592914732f3
##WORKING    : 15.0 mm
##DET_NAME   : EDAX All
##DET_MODE   : MediumLE
#SPECTRUM    :
17,
30,
10,
39,
307,
834,
1222,
2815,
8222,
12317,
8522,
4551,
2814,
2348,
3277,
10246,
40113,
78615,
60132,
19270,
4472,
1985,
1799,
2185,
2334,
2280,
2355,
2537,
2781,
2682,
2753,
2741,
2867,
3046,
3266,
3342,
3644,
3492,
3641,
3794,
3831,
3998,
4052,
4336,
4179,
4436,
4451,
4543,
4576,
4724,
4797,
4717,
4753,
4838,
4749,
4903,
5006,
5396,
6063,
6828,
7329,
6889,
6267,
5547,
6022,
6130,
5487,
4909,
4542,
4630,
4559,
5023,
6512,
10458,
24931,
68363,
142139,
181271,
135877,
59914,
20643,
13397,
13607,
11377,
7099,
4193,
3058,
2838,
2796,
2720,
2733,
2708,
2808,
2849,
2916,
2773,
2782,
2657,
2630,
2557,
2588,
2620,
2513,
2614,
2536,
2578,
2552,
2578,
2553,
2538,
2552,
2470,
2480,
2315,
2469,
2563,
2704,
3137,
4305,
8150,
21689,
55903,
104231,
131651,
111150,
62569,
24495,
7923,
3518,
2942,
3580,
6313,
10723,
16006,
18024,
14437,
8358,
4154,
2395,
1900,
1904,
1691,
1727,
1651,
1594,
1668,
1595,
1593,
1590,
1608,
1679,
1672,
1720,
1680,
1666,
1727,
1680,
1614,
1522,
1548,
1584,
1520,
1547,
1540,
1497,
1541,
1478,
1431,
1407,
1440,
1398,
1432,
1395,
1439,
1464,
1383,
1386,
1388,
1364,
1371,
1304,
1423,
1442,
1365,
1304,
1299,
1304,
1310,
1309,
1315,
1272,
1243,
1277,
1300,
1296,
1231,
1248,
1256,
1366,
1411,
1421,
1363,
1429,
1242,
1197,
1210,
1106,
1104,
1088,
1128,
1220,
1229,
1161,
1241,
1226,
1182,
1060,
1056,
1057,
1100,
1069,
990,
1009,
989,
926,
965,
974,
983,
965,
988,
986,
924,
900,
1000,
941,
967,
1018,
991,
906,
955,
892,
920,
949,
872,
935,
915,
971,
958,
944,
983,
920,
888,
895,
878,
839,
836,
835,
854,
820,
845,
819,
797,
816,
802,
746,
808,
769,
784,
741,
674,
742,
735,
736,
716,
685,
666,
755,
758,
717,
686,
643,
683,
689,
700,
644,
671,
656,
688,
643,
646,
668,
618,
647,
602,
624,
627,
653,
663,
604,
595,
582,
624,
594,
576,
596,
569,
549,
548,
565,
548,
529,
527,
545,
560,
532,
527,
568,
508,
535,
547,
494,
512,
526,
519,
525,
500,
548,
549,
489,
488,
500,
496,
484,
505,
497,
475,
437,
448,
469,
465,
474,
447,
420,
410,
481,
420,
444,
430,
405,
425,
383,
421,
447,
441,
357,
374,
400,
402,
371,
402,
382,
388,
386,
341,
354,
394,
349,
329,
337,
349,
378,
367,
356,
326,
325,
350,
347,
322,
327,
342,
330,
317,
300,
312,
312,
293,
297,
302,
302,
321,
248,
290,
305,
270,
281,
300,
259,
289,
289,
266,
283,
267,
284,
248,
246,
242,
260,
263,
239,
251,
246,
249,
241,
244,
242,
247,
206,
228,
228,
251,
252,
224,
217,
206,
232,
215,
208,
201,
203,
204,
217,
188,
192,
242,
204,
204,
174,
220,
172,
196,
178,
179,
188,
196,
190,
201,
168,
166,
153,
161,
177,
162,
165,
157,
145,
185,
168,
136,
143,
150,
137,
142,
156,
158,
140,
152,
152,
164,
128,
140,
152,
157,
145,
119,
142,
148,
140,
115,
111,
132,
121,
129,
106,
119,
111,
111,
99,
101,
109,
111,
99,
96,
120,
78,
87,
94,
102,
97,
103,
99,
88,
81,
95,
95,
107,
81,
86,
81,
88,
86,
68,
78,
67,
83,
66,
83,
83,
76,
75,
70,
60,
69,
87,
68,
52,
63,
67,
64,
69,
67,
81,
64,
59,
60,
60,
49,
73,
56,
59,
57,
57,
37,
54,
48,
54,
50,
56,
48,
49,
53,
33,
44,
45,
41,
40,
37,
49,
46,
38,
42,
54,
43,
45,
35,
49,
32,
29,
35,
37,
35,
34,
38,
36,
40,
30,
43,
36,
35,
38,
30,
26,
24,
30,
32,
18,
24,
27,
21,
26,
19,
22,
27,
24,
13,
26,
30,
23,
22,
21,
20,
21,
11,
23,
14,
13,
13,
17,
23,
14,
25,
8,
15,
19,
18,
14,
17,
9,
9,
14,
7,
12,
13,
10,
13,
12,
14,
8,
6,
7,
12,
8,
5,
7,
11,
9,
5,
6,
5,
5,
6,
8,
4,
5,
4,
6,
1,
7,
2,
1,
2,
6,
1,
2,
2,
7,
1,
0,
4,
3,
0,
2,
1,
0,
3,
1,
2,
0,
0,
0,
0,
1,
1,
0,
0,
0,
1,
1,
0,
0,
0,
0,
0,
1,
0,
0,
2,
0,
0,
0,
0,
0,
1,
0,
0,
0,
0,
0,
0,
0,
0,
0,
0,
0,
0,
0,
0,
1,
0,
1,
0,
0,
0,
0,
0,
1,
1,
0,
0,
0,
0,
0,
0,
0,
0,
0,
1,
0,
0,
0,
0,
0,
0,
0,
0,
0,
0,
0,
0,
0,
0,
0,
0,
1,
0,
0,
0,
0,
0,
0,
0,
0,
0,
0,
0,
0,
0,
0,
0,
0,
0,
1,
0,
0,
0,
0,
0,
0,
0,
0,
0,
0,
0,
0,
0,
0,
0,
0,
0,
0,
0,
0,
0,
1,
1,
0,
1,
0,
0,
0,
0,
0,
0,
0,
1,
0,
0,
0,
0,
0,
0,
0,
0,
0,
0,
0,
0,
0,
0,
0,
0,
0,
0,
0,
0,
0,
0,
0,
0,
0,
0,
0,
0,
0,
0,
0,
0,
0,
0,
0,
0,
0,
0,
0,
0,
0,
0,
0,
0,
0,
0,
0,
0,
0,
0,
0,
0,
0,
0,
1,
0,
0,
0,
0,
0,
0,
0,
0,
0,
0,
0,
0,
0,
0,
0,
0,
0,
0,
0,
0,
0,
0,
0,
0,
0,
0,
0,
0,
0,
0,
0,
0,
0,
0,
0,
0,
0,
0,
0,
0,
0,
0,
0,
0,
0,
0,
0,
0,
0,
0,
0,
0,
0,
0,
0,
0,
0,
0,
0,
0,
0,
0,
0,
0,
0,
0,
0,
0,
0,
0,
0,
0,
0,
0,
0,
0,
0,
0,
0,
0,
0,
0,
0,
0,
0,
0,
0,
0,
0,
0,
0,
0,
0,
0,
0,
0,
0,
0,
0,
0,
0,
0,
0,
0,
0,
0,
0,
0,
0,
0,
0,
0,
0,
0,
0,
0,
0,
0,
0,
0,
0,
0,
0,
0,
0,
0,
0,
0,
0,
0,
0,
0,
0,
0,
0,
0,
0,
0,
0,
0,
0,
0,
0,
0,
0,
0,
0,
0,
0,
0,
0,
0,
0,
0,
0,
0,
0,
1,
0,
0,
0,
0,
0,
0,
0,
0,
0,
0,
0,
0,
0,
0,
0,
0,
0,
0,
0,
0,
0,
0,
0,
0,
0,
0,
0,
0,
0,
0,
0,
0,
0,
0,
0,
0,
0,
0,
0,
0,
0,
0,
0,
0,
1,
0,
0,
0,
0,
0,
0,
0,
0,
0,
0,
0,
0,
0,
0,
0,
0,
0,
0,
0,
0,
0,
0,
0,
0,
0,
0,
0,
0,
0,
0,
0,
0,
0,
0,
0,
0,
0,
0,
0,
0,
0,
0,
0,
0,
0,
0,
0,
0,
0,
0,
0,
0,
0,
0,
0,
0,
0,
0,
0,
0,
0,
0,
0,
0,
0,
0,
0,
0,
0,
0,
0,
0,
0,
0,
0,
0,
0,
0,
0,
0,
0,
0,
0,
0,
0,
0,
0,
0,
0,
0,
0,
0,
0,
0,
0,
0,
0,
0,
0,
0,
0,
0,
0,
0,
0,
0,
0,
0,
0,
0,
0,
0,
0,
0,
0,
0,
0,
0,
0,
0,
0,
0,
0,
0,
0,
0,
0,
0,
0,
0,
0,
0,
0,
0,
0,
0,
0,
0,
0,
0,
0,
0,
0,
0,
0,
0,
0,
0,
0,
0,
0,
0,
0,
0,
0,
0,
0,
0,
0,
0,
0,
0,
0,
0,
0,
0,
0,
0,
0,
0,
0,
0,
0,
0,
0,
0,
0,
0,
0,
0,
0,
0,
0,
0,
0,
0,
0,
0,
0,
0,
0,
0,
0,
0,
0,
0,
0,
0,
0,
0,
0,
0,
0,
0,
0,
0,
0,
0,
0,
0,
0,
0,
0,
0,
0,
0,
0,
0,
0,
0,
0,
0,
0,
0,
0,
0,
0,
0,
0,
0,
0,
0,
0,
0,
0,
0,
0,
0,
0,
0,
0,
0,
0,
0,
0,
0,
0,
0,
0,
0,
0,
0,
0,
0,
0,
0,
0,
0,
0,
0,
0,
0,
0,
0,
0,
0,
0,
0,
0,
0,
0,
0,
0,
0,
0,
0,
0,
0,
0,
0,
0,
0,
0,
0,
0,
0,
0,
0,
0,
0,
0,
0,
0,
0,
0,
0,
0,
0,
0,
0,
0,
0,
0,
0,
0,
0,
0,
0,
0,
0,
0,
0,
0,
0,
#ENDOFDATA   :