File: N132962/Quantification/20 keV/MMM1/SPI MM1 Benitoite[5][4].msa
#FORMAT      : EMSA/MAS Spectral Data File
#VERSION     : 1.0
#TITLE       : SPI MM1 Benitoite[5][all]
#DATE        : 11-MAR-2025
#TIME        : 13:22
#OWNER       : Unknown
#NPOINTS     : 4096
#NCOLUMNS    : 1
#XUNITS      : eV
#YUNITS      : counts
#DATATYPE    : Y
#XPERCHAN    : 9.99778
#OFFSET      : 1.69135
#BEAMKV      : 20
#SIGNALTYPE  : EDS
#ELEVANGLE   : 35
#AZIMANGLE   : 0
#LIVETIME    : 239.907
#REALTIME    : 256.805
#PROBECUR    : 1.02853
#TAUWIND     : 0
#TDEADLYR    : 0
#TACTLYR     : 0.045
#TALWIND     : 0.025
#CHOFFSET    : 0.0
#XLABEL      : Energy (eV)
#YLABEL      : Counts
#XPOSITION   : -3.35288
#YPOSITION   : -4.91165
#ZPOSITION   : 30.9284
#EDSDET      : SD
##SPECIMEN   : SPI MM1 Benitoite[5][all]
##D2STDCMP   : Benitoite,(O:34.828),(Si:20.3791),(Ti:11.5776),(Ba:33.2153)
##DET_HASH   : 12273538-fd48-a23f-0a19-f1e6fa85caef
##CALIB_HASH : 6abaa72c-aa41-8738-0be9-f592914732f3
##WORKING    : 15.0 mm
##DET_NAME   : EDAX All
##DET_MODE   : MediumLE
#SPECTRUM    :
33,
25,
13,
25,
108,
423,
1265,
3615,
9818,
13216,
7535,
5297,
7252,
9573,
12021,
22979,
66908,
123847,
91397,
27894,
8201,
4535,
3521,
3529,
3981,
5408,
6164,
5249,
4018,
3521,
3468,
3794,
4646,
4623,
4772,
4688,
4143,
3871,
3802,
3758,
3906,
3982,
4113,
4150,
4307,
4342,
4540,
4735,
4903,
5353,
5440,
5421,
5470,
5618,
6559,
13559,
46274,
114747,
153265,
110154,
45789,
17465,
9108,
5696,
4163,
3756,
3905,
3992,
3958,
3922,
4032,
4032,
4168,
4173,
4157,
4393,
4315,
4132,
4166,
4059,
4026,
4065,
4093,
4111,
4067,
3927,
4159,
4214,
4193,
4249,
4328,
4485,
4568,
4384,
4090,
3924,
4012,
3933,
3808,
3850,
3952,
3837,
4029,
4038,
3906,
3803,
3848,
3775,
3880,
3697,
3791,
3651,
3761,
3699,
3673,
3748,
3689,
3635,
3544,
3545,
3448,
3538,
3545,
3550,
3350,
3334,
3282,
3413,
3341,
3616,
4086,
4764,
5041,
4550,
3942,
3489,
3406,
3117,
3231,
3177,
3236,
3266,
3618,
3861,
4900,
7700,
15911,
33225,
58119,
77673,
79309,
60977,
35448,
16638,
7124,
4048,
3512,
4512,
7484,
13420,
20865,
25316,
24395,
20705,
16803,
13242,
9524,
6226,
4671,
4858,
6406,
8572,
9670,
8419,
6082,
4003,
3021,
2485,
2326,
2369,
2517,
2665,
3400,
4223,
4686,
4841,
3917,
3107,
2447,
2297,
2281,
2561,
2995,
3130,
2907,
2709,
2408,
2310,
2058,
2092,
1979,
1926,
1932,
1840,
1856,
1880,
1883,
1870,
1903,
1932,
1896,
1879,
1947,
1913,
1968,
1827,
1789,
1762,
1716,
1693,
1774,
1681,
1721,
1684,
1600,
1592,
1553,
1556,
1707,
1546,
1611,
1582,
1632,
1518,
1579,
1581,
1569,
1521,
1497,
1447,
1544,
1496,
1518,
1500,
1407,
1489,
1451,
1483,
1578,
1511,
1463,
1550,
1448,
1438,
1287,
1404,
1353,
1373,
1312,
1376,
1357,
1341,
1312,
1320,
1302,
1293,
1330,
1240,
1260,
1220,
1226,
1227,
1254,
1237,
1279,
1257,
1230,
1165,
1277,
1220,
1143,
1144,
1183,
1147,
1204,
1141,
1205,
1182,
1162,
1119,
1151,
1128,
1133,
1127,
1079,
1048,
1104,
1157,
1068,
1107,
1067,
1135,
1055,
1060,
1010,
1055,
1019,
1002,
981,
955,
934,
1067,
1012,
983,
1010,
959,
957,
969,
949,
911,
953,
942,
960,
912,
944,
904,
937,
879,
905,
915,
875,
895,
926,
839,
863,
816,
842,
877,
760,
841,
809,
788,
784,
822,
809,
800,
786,
764,
754,
719,
750,
697,
735,
730,
704,
753,
702,
738,
733,
772,
714,
682,
722,
719,
731,
669,
705,
633,
671,
658,
655,
657,
651,
587,
666,
638,
625,
590,
584,
588,
619,
644,
619,
599,
588,
610,
563,
585,
537,
579,
551,
552,
557,
538,
522,
546,
542,
544,
521,
549,
516,
483,
523,
492,
501,
472,
478,
500,
485,
459,
494,
506,
491,
462,
403,
450,
512,
442,
458,
476,
413,
440,
420,
423,
400,
400,
434,
431,
373,
411,
433,
434,
379,
382,
369,
347,
365,
378,
342,
370,
355,
360,
337,
342,
356,
350,
337,
350,
326,
333,
331,
324,
328,
315,
314,
331,
297,
308,
309,
308,
305,
305,
281,
301,
299,
289,
277,
268,
295,
280,
241,
252,
257,
228,
282,
242,
245,
250,
249,
250,
238,
237,
239,
231,
241,
253,
227,
238,
205,
240,
230,
230,
207,
222,
212,
231,
201,
217,
221,
204,
196,
168,
181,
204,
200,
204,
204,
182,
172,
174,
168,
165,
176,
170,
185,
157,
140,
162,
153,
167,
146,
166,
144,
146,
150,
138,
152,
152,
175,
142,
127,
129,
131,
124,
124,
125,
120,
116,
109,
117,
129,
121,
98,
114,
103,
113,
112,
107,
99,
93,
115,
108,
90,
102,
96,
77,
105,
97,
91,
95,
97,
80,
87,
86,
91,
92,
68,
89,
84,
74,
80,
92,
71,
78,
70,
71,
76,
71,
66,
76,
52,
53,
56,
46,
61,
66,
53,
60,
61,
39,
61,
56,
50,
53,
41,
58,
55,
35,
46,
48,
36,
54,
47,
49,
51,
40,
40,
41,
40,
39,
38,
27,
38,
27,
33,
31,
35,
41,
32,
28,
30,
35,
18,
21,
20,
21,
34,
23,
34,
16,
21,
24,
18,
21,
19,
27,
19,
14,
20,
11,
19,
14,
9,
13,
15,
19,
13,
12,
11,
11,
8,
9,
2,
6,
7,
3,
9,
5,
6,
2,
1,
3,
3,
4,
2,
0,
2,
0,
0,
1,
1,
0,
0,
2,
0,
1,
1,
1,
0,
0,
0,
0,
0,
0,
2,
1,
0,
0,
0,
1,
1,
1,
1,
0,
0,
0,
0,
1,
1,
0,
0,
0,
0,
0,
1,
1,
1,
0,
0,
0,
0,
2,
0,
1,
0,
0,
0,
0,
0,
1,
0,
1,
0,
0,
0,
0,
1,
0,
2,
0,
0,
0,
0,
0,
1,
0,
0,
0,
0,
0,
1,
0,
0,
1,
0,
0,
0,
1,
0,
0,
0,
0,
0,
0,
0,
2,
1,
1,
0,
0,
1,
0,
1,
0,
0,
0,
1,
0,
0,
0,
0,
0,
0,
1,
0,
0,
1,
0,
0,
0,
0,
0,
0,
0,
0,
0,
0,
0,
0,
0,
0,
0,
0,
0,
0,
0,
0,
1,
1,
0,
0,
0,
0,
0,
0,
0,
2,
0,
0,
0,
0,
0,
0,
0,
0,
0,
0,
0,
0,
0,
1,
0,
0,
0,
0,
0,
0,
0,
0,
0,
0,
0,
0,
0,
0,
0,
0,
0,
0,
0,
0,
0,
0,
0,
0,
0,
0,
0,
0,
1,
0,
0,
0,
0,
0,
0,
0,
0,
0,
0,
0,
0,
0,
0,
1,
0,
0,
0,
0,
0,
0,
0,
0,
0,
0,
0,
0,
0,
0,
0,
0,
1,
0,
0,
0,
0,
0,
0,
0,
0,
0,
0,
0,
0,
0,
0,
0,
0,
0,
0,
0,
0,
0,
0,
0,
0,
0,
0,
0,
0,
0,
0,
0,
0,
1,
0,
0,
0,
0,
0,
0,
0,
0,
0,
0,
0,
0,
0,
0,
0,
0,
0,
0,
1,
0,
0,
0,
0,
0,
0,
0,
0,
0,
0,
0,
0,
0,
0,
0,
0,
1,
0,
0,
0,
0,
0,
0,
0,
0,
0,
0,
0,
0,
0,
0,
0,
0,
0,
0,
0,
0,
0,
0,
0,
0,
0,
0,
0,
0,
0,
0,
0,
0,
0,
0,
0,
0,
0,
0,
0,
0,
0,
0,
0,
0,
0,
0,
0,
0,
0,
0,
0,
0,
0,
0,
0,
0,
0,
0,
0,
0,
0,
0,
0,
0,
0,
0,
0,
0,
0,
0,
0,
0,
0,
0,
0,
0,
0,
0,
0,
0,
0,
1,
0,
0,
0,
0,
0,
0,
0,
0,
0,
0,
0,
0,
0,
0,
0,
0,
0,
0,
0,
0,
0,
0,
0,
0,
0,
0,
0,
0,
0,
0,
0,
0,
0,
0,
0,
0,
0,
0,
0,
0,
0,
0,
0,
0,
0,
0,
0,
0,
0,
0,
0,
0,
0,
0,
0,
0,
0,
0,
0,
0,
0,
0,
0,
0,
0,
0,
0,
0,
0,
0,
0,
0,
0,
0,
0,
0,
0,
0,
0,
0,
0,
0,
0,
0,
0,
0,
0,
0,
0,
0,
0,
0,
0,
0,
0,
0,
0,
0,
0,
0,
0,
0,
0,
0,
0,
0,
0,
0,
0,
0,
0,
0,
0,
0,
0,
0,
0,
0,
0,
0,
0,
0,
0,
0,
0,
0,
0,
0,
0,
0,
0,
0,
0,
0,
0,
0,
0,
0,
0,
0,
0,
0,
0,
0,
0,
0,
0,
0,
0,
0,
0,
0,
0,
0,
0,
0,
0,
0,
0,
0,
0,
0,
0,
0,
0,
0,
0,
0,
0,
0,
0,
0,
0,
0,
0,
0,
0,
0,
0,
0,
0,
0,
0,
0,
0,
0,
0,
0,
0,
0,
0,
0,
0,
0,
0,
0,
0,
0,
0,
0,
0,
0,
0,
0,
0,
0,
0,
0,
0,
0,
0,
0,
0,
0,
0,
0,
0,
0,
0,
0,
0,
0,
0,
0,
0,
0,
0,
0,
0,
0,
0,
0,
0,
0,
0,
0,
0,
0,
0,
0,
0,
0,
0,
0,
0,
0,
0,
0,
0,
0,
0,
0,
0,
0,
0,
0,
0,
0,
0,
0,
0,
0,
0,
0,
0,
0,
0,
0,
0,
0,
0,
0,
0,
0,
0,
0,
0,
0,
0,
0,
0,
0,
0,
0,
0,
0,
0,
0,
0,
0,
0,
0,
0,
0,
0,
0,
0,
0,
0,
0,
0,
0,
0,
0,
0,
0,
0,
0,
0,
0,
0,
0,
0,
0,
0,
0,
0,
0,
0,
0,
0,
0,
0,
0,
0,
0,
0,
0,
0,
0,
0,
0,
0,
#ENDOFDATA   :