File: N132962/Quantification/20 keV/MMM1/SPI MM1 Almandine[1][4].msa
#FORMAT      : EMSA/MAS Spectral Data File
#VERSION     : 1.0
#TITLE       : SPI MM1 Almandine[1][all]
#DATE        : 11-MAR-2025
#TIME        : 12:59
#OWNER       : Unknown
#NPOINTS     : 4096
#NCOLUMNS    : 1
#XUNITS      : eV
#YUNITS      : counts
#DATATYPE    : Y
#XPERCHAN    : 9.99778
#OFFSET      : 1.69135
#BEAMKV      : 20
#SIGNALTYPE  : EDS
#ELEVANGLE   : 35
#AZIMANGLE   : 0
#LIVETIME    : 239.831
#REALTIME    : 255.275
#PROBECUR    : 1.02699
#TAUWIND     : 0
#TDEADLYR    : 0
#TACTLYR     : 0.045
#TALWIND     : 0.025
#CHOFFSET    : 0.0
#XLABEL      : Energy (eV)
#YLABEL      : Counts
#XPOSITION   : 0.40408
#YPOSITION   : -7.81271
#ZPOSITION   : 30.9284
#EDSDET      : SD
##SPECIMEN   : SPI MM1 Almandine[1][all]
##D2STDCMP   : Almandine,(O:38.5719),(Al:10.8416),(Si:16.9275),(Fe:33.6591),4.05
##DET_HASH   : 12273538-fd48-a23f-0a19-f1e6fa85caef
##CALIB_HASH : 6abaa72c-aa41-8738-0be9-f592914732f3
##WORKING    : 15.0 mm
##DET_NAME   : EDAX All
##DET_MODE   : MediumLE
#SPECTRUM    :
32,
33,
13,
14,
71,
307,
846,
2548,
7336,
10024,
5717,
2983,
3026,
3533,
6360,
23143,
90513,
177488,
130006,
35472,
7397,
5357,
7842,
14309,
13908,
7082,
3314,
2485,
2379,
2469,
2455,
2566,
2766,
3099,
3305,
3393,
3504,
3609,
4059,
6082,
15557,
34911,
41935,
25067,
9693,
5055,
5300,
12527,
40472,
80109,
82058,
43642,
15069,
6355,
5446,
11287,
39111,
98890,
133683,
95147,
39424,
14278,
7190,
4263,
3073,
2948,
2970,
2839,
2888,
2775,
2681,
2695,
2772,
2762,
3035,
3022,
3088,
2983,
2827,
2727,
2915,
2811,
2782,
2840,
2756,
2796,
2625,
2756,
2619,
2707,
2748,
2645,
2694,
2639,
2586,
2640,
2750,
2746,
2630,
2687,
2661,
2655,
2553,
2556,
2565,
2482,
2569,
2583,
2614,
2621,
2485,
2456,
2389,
2417,
2332,
2450,
2456,
2460,
2479,
2988,
4295,
7715,
12768,
15393,
13463,
8559,
4477,
2708,
2269,
2208,
2224,
2520,
2987,
3542,
3674,
3249,
2693,
2296,
2033,
1936,
1916,
1923,
1918,
1926,
1940,
1834,
1805,
1839,
1835,
1843,
1913,
1856,
1838,
1873,
1931,
1890,
1808,
1798,
1760,
1714,
1738,
1617,
1649,
1624,
1592,
1679,
1535,
1613,
1547,
1507,
1511,
1558,
1534,
1664,
1537,
1493,
1465,
1466,
1521,
1495,
1474,
1409,
1508,
1446,
1418,
1351,
1342,
1378,
1410,
1388,
1378,
1392,
1451,
1566,
1817,
2086,
2299,
2285,
1991,
1717,
1466,
1297,
1278,
1266,
1239,
1261,
1326,
1599,
2137,
4286,
9377,
18318,
28633,
35558,
33360,
24513,
13869,
6499,
3017,
1698,
1217,
1210,
1133,
1144,
1096,
1070,
1117,
1101,
1166,
1161,
1366,
1802,
2537,
3703,
4841,
5340,
4910,
3687,
2445,
1568,
1180,
976,
849,
887,
821,
842,
856,
894,
870,
869,
910,
827,
869,
875,
826,
811,
826,
851,
795,
820,
764,
809,
768,
796,
767,
839,
774,
755,
751,
761,
777,
794,
802,
803,
750,
719,
755,
700,
704,
733,
681,
679,
711,
669,
696,
657,
635,
642,
653,
680,
621,
687,
650,
641,
639,
621,
613,
596,
635,
582,
621,
617,
570,
572,
558,
553,
575,
551,
578,
580,
531,
517,
536,
544,
533,
555,
531,
510,
516,
524,
532,
529,
502,
545,
508,
491,
533,
520,
484,
458,
488,
462,
496,
529,
483,
507,
477,
480,
463,
472,
494,
497,
479,
440,
449,
428,
458,
432,
439,
413,
442,
411,
415,
402,
432,
405,
369,
410,
397,
390,
342,
358,
367,
357,
373,
363,
385,
345,
376,
347,
367,
322,
358,
306,
337,
341,
307,
346,
352,
329,
358,
297,
326,
317,
332,
313,
318,
289,
313,
312,
303,
287,
266,
286,
300,
293,
287,
259,
273,
278,
293,
244,
290,
263,
279,
265,
247,
225,
247,
246,
233,
232,
237,
236,
241,
252,
230,
236,
253,
222,
223,
226,
229,
205,
235,
237,
202,
223,
204,
223,
213,
227,
205,
218,
208,
195,
173,
203,
153,
205,
188,
168,
194,
175,
187,
169,
139,
182,
162,
168,
174,
164,
170,
188,
151,
149,
191,
133,
159,
147,
166,
161,
149,
154,
158,
145,
150,
152,
129,
129,
135,
112,
123,
162,
120,
144,
132,
102,
135,
110,
130,
115,
126,
107,
108,
123,
106,
117,
106,
116,
92,
83,
92,
90,
110,
105,
107,
98,
109,
81,
83,
71,
78,
92,
109,
84,
93,
97,
80,
74,
101,
95,
83,
95,
73,
93,
63,
75,
77,
64,
74,
63,
78,
81,
77,
73,
69,
55,
55,
73,
77,
72,
68,
64,
51,
54,
58,
71,
54,
51,
49,
65,
51,
43,
49,
59,
53,
52,
45,
54,
58,
39,
53,
52,
57,
44,
54,
45,
42,
39,
54,
43,
37,
42,
50,
28,
47,
34,
45,
35,
28,
23,
30,
41,
33,
27,
26,
39,
24,
37,
28,
21,
28,
39,
27,
28,
24,
23,
30,
24,
22,
24,
19,
20,
22,
21,
22,
23,
30,
18,
22,
21,
28,
16,
22,
11,
17,
18,
21,
14,
26,
20,
25,
18,
10,
17,
14,
13,
6,
8,
12,
8,
11,
11,
11,
8,
11,
6,
13,
9,
6,
10,
9,
5,
12,
1,
13,
15,
4,
5,
9,
5,
5,
1,
4,
5,
7,
6,
9,
0,
4,
5,
8,
2,
2,
5,
1,
1,
1,
4,
3,
3,
1,
1,
2,
0,
0,
0,
2,
0,
2,
1,
0,
0,
0,
0,
1,
0,
0,
0,
0,
2,
0,
0,
0,
1,
0,
0,
0,
0,
0,
0,
0,
0,
1,
0,
0,
0,
0,
1,
0,
0,
0,
2,
0,
0,
0,
0,
0,
0,
0,
0,
0,
0,
0,
0,
0,
1,
0,
0,
0,
0,
0,
2,
0,
0,
0,
0,
0,
0,
0,
0,
0,
0,
0,
0,
0,
0,
0,
1,
0,
0,
1,
0,
0,
0,
0,
0,
0,
0,
0,
0,
0,
0,
1,
0,
0,
0,
1,
0,
0,
0,
0,
0,
0,
0,
0,
1,
0,
0,
2,
0,
0,
0,
0,
0,
1,
0,
0,
0,
0,
0,
0,
0,
0,
0,
0,
0,
0,
0,
0,
0,
0,
0,
0,
0,
0,
0,
0,
0,
0,
0,
0,
0,
0,
0,
0,
0,
0,
0,
1,
0,
0,
0,
0,
0,
0,
0,
0,
0,
0,
0,
0,
0,
0,
0,
0,
0,
0,
0,
0,
0,
0,
0,
0,
0,
0,
0,
0,
1,
0,
1,
0,
0,
0,
0,
0,
0,
0,
0,
0,
0,
0,
0,
0,
0,
0,
0,
0,
0,
0,
0,
0,
0,
0,
0,
0,
0,
0,
0,
0,
0,
0,
0,
0,
0,
0,
0,
0,
0,
0,
0,
0,
0,
1,
0,
0,
0,
0,
0,
0,
0,
0,
0,
0,
0,
0,
0,
0,
0,
0,
0,
0,
0,
0,
0,
0,
0,
0,
0,
0,
0,
0,
0,
0,
0,
0,
0,
0,
0,
0,
1,
0,
0,
0,
0,
0,
0,
0,
0,
0,
0,
0,
0,
0,
0,
0,
0,
0,
0,
0,
0,
0,
0,
0,
0,
0,
0,
0,
0,
0,
0,
0,
0,
0,
0,
0,
0,
0,
0,
0,
0,
0,
0,
0,
0,
0,
0,
0,
0,
0,
0,
0,
0,
0,
0,
0,
0,
0,
0,
0,
0,
0,
0,
0,
0,
0,
0,
0,
0,
0,
0,
0,
0,
0,
0,
0,
0,
0,
0,
0,
0,
0,
0,
0,
0,
0,
0,
0,
0,
0,
0,
0,
0,
0,
0,
0,
0,
0,
0,
0,
0,
0,
0,
0,
0,
0,
0,
0,
0,
0,
0,
0,
0,
0,
0,
0,
0,
0,
0,
0,
0,
0,
0,
0,
0,
0,
0,
0,
0,
0,
0,
0,
0,
0,
0,
0,
0,
0,
0,
0,
0,
0,
0,
0,
0,
0,
0,
0,
0,
0,
0,
0,
0,
0,
0,
0,
0,
0,
0,
0,
0,
0,
0,
0,
0,
0,
0,
0,
0,
0,
0,
0,
0,
0,
0,
0,
0,
0,
0,
0,
0,
0,
0,
0,
0,
0,
0,
0,
0,
0,
0,
0,
0,
0,
0,
0,
0,
0,
0,
0,
0,
0,
0,
0,
0,
0,
0,
0,
0,
0,
0,
0,
0,
0,
0,
0,
0,
0,
0,
0,
0,
0,
0,
0,
0,
0,
0,
0,
0,
0,
0,
0,
0,
0,
0,
0,
0,
0,
0,
0,
0,
0,
0,
0,
0,
0,
0,
0,
0,
0,
0,
0,
0,
0,
0,
0,
0,
0,
0,
0,
0,
0,
0,
0,
0,
0,
0,
0,
0,
0,
0,
0,
0,
0,
0,
0,
0,
0,
0,
0,
0,
0,
0,
0,
0,
0,
0,
0,
0,
0,
0,
0,
0,
0,
0,
0,
0,
0,
0,
0,
0,
0,
0,
0,
0,
0,
0,
0,
0,
0,
0,
0,
0,
0,
0,
0,
0,
0,
0,
0,
0,
0,
0,
0,
0,
0,
0,
0,
0,
0,
0,
0,
0,
0,
0,
0,
0,
0,
0,
0,
0,
0,
0,
0,
0,
0,
0,
0,
0,
0,
0,
0,
0,
0,
0,
0,
0,
0,
0,
0,
0,
0,
0,
0,
0,
0,
0,
0,
0,
0,
0,
0,
0,
0,
0,
0,
0,
0,
0,
0,
0,
0,
0,
0,
0,
0,
0,
0,
0,
0,
0,
0,
0,
0,
0,
0,
0,
0,
0,
0,
0,
0,
0,
0,
0,
0,
0,
0,
0,
0,
0,
0,
0,
0,
0,
0,
0,
0,
0,
0,
0,
0,
0,
0,
0,
0,
0,
0,
0,
0,
0,
0,
0,
0,
0,
0,
0,
0,
0,
0,
0,
0,
0,
0,
0,
#ENDOFDATA   :