File: N132962/Quantification/20 keV/MMM1/SPI MM1 Anhydrite[1][4].msa
#FORMAT      : EMSA/MAS Spectral Data File
#VERSION     : 1.0
#TITLE       : SPI MM1 Anhydrite[1][all]
#DATE        : 11-MAR-2025
#TIME        : 13:45
#OWNER       : Unknown
#NPOINTS     : 4096
#NCOLUMNS    : 1
#XUNITS      : eV
#YUNITS      : counts
#DATATYPE    : Y
#XPERCHAN    : 9.99778
#OFFSET      : 1.69135
#BEAMKV      : 20
#SIGNALTYPE  : EDS
#ELEVANGLE   : 35
#AZIMANGLE   : 0
#LIVETIME    : 239.855
#REALTIME    : 255.018
#PROBECUR    : 1.02853
#TAUWIND     : 0
#TDEADLYR    : 0
#TACTLYR     : 0.045
#TALWIND     : 0.025
#CHOFFSET    : 0.0
#XLABEL      : Energy (eV)
#YLABEL      : Counts
#XPOSITION   : 4.98272
#YPOSITION   : -5.00329
#ZPOSITION   : 30.9284
#EDSDET      : SD
##SPECIMEN   : SPI MM1 Anhydrite[1][all]
##D2STDCMP   : Anhydrite,(O:47.0085),(S:23.5529),(Ca:29.4387),5.0
##DET_HASH   : 12273538-fd48-a23f-0a19-f1e6fa85caef
##CALIB_HASH : 6abaa72c-aa41-8738-0be9-f592914732f3
##WORKING    : 15.0 mm
##DET_NAME   : EDAX All
##DET_MODE   : MediumLE
#SPECTRUM    :
23,
25,
12,
40,
298,
833,
1167,
2906,
8246,
12355,
8503,
4422,
2782,
2294,
3225,
10293,
38916,
77573,
59560,
19309,
4490,
1892,
1833,
2046,
2329,
2340,
2409,
2543,
2700,
2669,
2702,
2704,
2842,
3101,
3140,
3284,
3421,
3492,
3673,
3776,
3894,
4092,
4093,
4258,
4328,
4294,
4460,
4505,
4697,
4837,
4739,
4775,
4669,
4773,
4836,
4744,
4843,
5466,
5879,
6793,
7245,
6999,
6207,
5714,
5993,
6146,
5498,
4860,
4514,
4436,
4612,
4906,
6211,
10548,
24830,
67806,
141234,
182145,
135920,
60126,
20680,
13005,
13707,
11222,
7125,
4151,
3091,
2813,
2732,
2731,
2788,
2756,
2750,
2748,
2846,
2786,
2672,
2753,
2679,
2590,
2613,
2577,
2610,
2623,
2466,
2658,
2560,
2612,
2489,
2488,
2523,
2404,
2432,
2502,
2445,
2646,
2747,
3180,
4251,
8030,
21718,
55436,
103889,
132317,
110573,
61971,
24454,
7692,
3435,
2942,
3784,
6035,
10842,
15928,
17896,
14442,
8396,
4322,
2471,
1808,
1797,
1736,
1740,
1669,
1590,
1599,
1635,
1635,
1602,
1640,
1650,
1655,
1658,
1726,
1729,
1728,
1686,
1534,
1541,
1466,
1516,
1534,
1491,
1499,
1493,
1503,
1474,
1382,
1485,
1394,
1444,
1377,
1406,
1396,
1413,
1441,
1361,
1396,
1424,
1405,
1345,
1370,
1330,
1377,
1305,
1320,
1256,
1305,
1340,
1317,
1347,
1269,
1186,
1219,
1278,
1306,
1219,
1247,
1342,
1359,
1468,
1348,
1317,
1241,
1265,
1172,
1151,
1105,
1149,
1188,
1133,
1188,
1189,
1191,
1126,
1188,
1172,
1092,
1046,
997,
1006,
975,
1025,
1093,
990,
1032,
955,
973,
947,
948,
949,
908,
1014,
999,
984,
960,
977,
968,
943,
971,
897,
936,
927,
884,
960,
941,
974,
935,
931,
964,
906,
893,
890,
865,
823,
810,
867,
861,
822,
798,
796,
805,
773,
774,
782,
725,
703,
747,
804,
770,
795,
747,
703,
721,
736,
740,
711,
685,
698,
724,
702,
642,
698,
700,
651,
629,
672,
677,
674,
658,
645,
586,
646,
621,
602,
593,
641,
619,
564,
574,
607,
636,
584,
594,
548,
604,
587,
509,
575,
544,
554,
581,
554,
555,
526,
524,
520,
533,
556,
521,
489,
512,
541,
504,
462,
477,
533,
565,
494,
507,
474,
450,
484,
459,
479,
476,
501,
485,
476,
438,
429,
483,
456,
426,
460,
420,
401,
398,
459,
388,
399,
416,
407,
378,
400,
389,
371,
407,
421,
433,
391,
390,
379,
389,
375,
372,
373,
394,
385,
359,
361,
348,
377,
395,
348,
320,
350,
309,
336,
307,
299,
311,
337,
309,
306,
293,
294,
301,
278,
315,
278,
310,
310,
275,
275,
241,
278,
291,
257,
272,
307,
280,
240,
284,
247,
256,
264,
278,
266,
259,
239,
227,
234,
220,
253,
226,
261,
221,
253,
225,
214,
220,
223,
218,
204,
206,
236,
207,
222,
215,
208,
209,
213,
210,
211,
178,
213,
184,
201,
174,
169,
173,
174,
189,
153,
180,
165,
188,
192,
167,
158,
158,
175,
183,
150,
151,
149,
159,
138,
177,
152,
150,
134,
146,
149,
147,
139,
146,
151,
141,
173,
177,
139,
138,
144,
142,
144,
124,
120,
127,
112,
114,
111,
102,
116,
109,
123,
129,
105,
114,
99,
117,
102,
117,
105,
98,
94,
104,
99,
99,
86,
105,
78,
100,
84,
66,
83,
107,
86,
70,
84,
73,
87,
78,
102,
66,
81,
60,
72,
57,
79,
57,
59,
86,
69,
74,
63,
77,
65,
55,
75,
64,
58,
62,
53,
73,
51,
57,
58,
61,
53,
51,
46,
54,
48,
63,
53,
49,
63,
44,
52,
44,
45,
56,
42,
44,
37,
62,
46,
35,
35,
36,
49,
44,
32,
37,
23,
38,
28,
33,
33,
36,
27,
46,
44,
35,
24,
26,
31,
26,
31,
26,
21,
32,
21,
26,
28,
24,
25,
26,
25,
24,
24,
14,
23,
26,
21,
24,
17,
23,
25,
19,
20,
17,
19,
17,
20,
10,
15,
21,
16,
11,
14,
15,
10,
7,
9,
9,
14,
5,
18,
15,
16,
11,
11,
6,
5,
7,
7,
6,
10,
9,
8,
5,
4,
6,
4,
7,
4,
9,
10,
5,
5,
4,
7,
4,
6,
5,
4,
6,
5,
3,
9,
4,
3,
6,
1,
2,
1,
5,
1,
2,
3,
2,
0,
1,
0,
0,
1,
0,
0,
1,
1,
1,
0,
0,
0,
0,
1,
0,
0,
0,
0,
0,
0,
0,
0,
0,
0,
0,
0,
0,
1,
0,
0,
0,
0,
1,
0,
2,
0,
0,
0,
0,
1,
0,
0,
0,
0,
0,
0,
0,
0,
0,
0,
0,
2,
0,
1,
0,
0,
0,
0,
0,
0,
0,
0,
0,
0,
0,
0,
0,
0,
0,
0,
1,
0,
0,
0,
0,
0,
0,
0,
0,
0,
1,
0,
0,
0,
0,
0,
0,
0,
0,
0,
0,
0,
0,
0,
0,
0,
0,
0,
0,
0,
0,
0,
0,
0,
0,
0,
0,
0,
0,
0,
0,
0,
0,
0,
0,
0,
0,
0,
0,
0,
0,
0,
1,
0,
0,
0,
0,
0,
0,
0,
0,
0,
0,
0,
0,
0,
0,
0,
0,
0,
0,
0,
0,
0,
0,
0,
0,
0,
0,
0,
0,
0,
0,
1,
0,
0,
0,
0,
0,
1,
0,
0,
0,
0,
0,
0,
0,
0,
0,
0,
0,
0,
0,
0,
0,
0,
0,
0,
0,
0,
0,
0,
0,
0,
0,
0,
0,
0,
0,
0,
0,
0,
0,
0,
0,
0,
0,
0,
0,
0,
0,
0,
0,
0,
0,
0,
0,
0,
0,
0,
0,
0,
0,
0,
0,
0,
0,
0,
0,
0,
0,
0,
0,
0,
0,
0,
0,
0,
0,
0,
1,
0,
0,
0,
0,
0,
0,
0,
0,
0,
0,
0,
0,
0,
0,
0,
0,
0,
0,
0,
0,
0,
0,
0,
0,
0,
0,
0,
0,
0,
0,
0,
0,
0,
0,
0,
0,
0,
0,
0,
0,
0,
0,
0,
0,
0,
0,
0,
0,
0,
0,
0,
0,
0,
0,
0,
0,
0,
0,
0,
0,
0,
0,
0,
0,
0,
0,
0,
0,
0,
0,
0,
0,
0,
0,
0,
0,
0,
0,
0,
0,
0,
0,
0,
0,
0,
0,
0,
0,
0,
0,
0,
0,
0,
0,
0,
0,
0,
0,
0,
0,
0,
0,
0,
0,
0,
0,
0,
0,
0,
0,
0,
0,
0,
0,
0,
0,
0,
0,
0,
0,
0,
0,
0,
0,
0,
0,
0,
0,
0,
0,
0,
0,
0,
0,
0,
0,
0,
0,
0,
0,
0,
0,
0,
0,
0,
0,
0,
0,
0,
0,
0,
0,
0,
0,
0,
0,
0,
0,
0,
0,
0,
0,
0,
0,
0,
0,
0,
0,
0,
0,
0,
0,
0,
0,
0,
0,
0,
0,
0,
0,
0,
0,
0,
0,
0,
0,
0,
0,
0,
0,
0,
0,
0,
0,
0,
0,
0,
0,
0,
0,
0,
0,
0,
0,
0,
0,
0,
0,
0,
0,
0,
0,
0,
0,
0,
0,
0,
0,
0,
0,
0,
0,
0,
0,
0,
0,
0,
0,
0,
0,
0,
0,
0,
0,
0,
0,
0,
0,
0,
0,
0,
0,
0,
0,
0,
0,
0,
0,
0,
0,
0,
0,
0,
0,
0,
0,
0,
0,
0,
0,
0,
0,
0,
0,
0,
0,
0,
0,
0,
0,
0,
0,
0,
0,
0,
0,
0,
0,
0,
0,
0,
0,
0,
0,
0,
0,
0,
0,
0,
0,
0,
0,
0,
0,
0,
0,
0,
0,
0,
0,
0,
0,
0,
0,
0,
0,
0,
0,
0,
0,
0,
0,
0,
0,
0,
0,
0,
0,
0,
0,
0,
0,
0,
0,
0,
0,
0,
0,
0,
0,
0,
0,
0,
0,
0,
0,
0,
0,
0,
0,
0,
0,
0,
0,
0,
0,
0,
0,
0,
0,
0,
0,
0,
0,
0,
0,
0,
0,
0,
0,
0,
0,
0,
0,
0,
0,
0,
0,
0,
0,
0,
0,
0,
0,
0,
0,
0,
0,
0,
0,
0,
0,
0,
0,
0,
0,
0,
0,
0,
0,
0,
0,
0,
0,
0,
0,
0,
0,
0,
0,
0,
0,
0,
0,
0,
0,
0,
0,
0,
0,
0,
0,
0,
0,
0,
0,
0,
0,
0,
0,
0,
0,
0,
0,
0,
0,
0,
0,
0,
0,
0,
0,
0,
0,
0,
0,
0,
0,
0,
0,
0,
0,
0,
0,
0,
0,
0,
0,
0,
0,
0,
0,
0,
0,
0,
0,
0,
0,
0,
0,
0,
0,
0,
0,
0,
0,
0,
0,
0,
0,
#ENDOFDATA   :