File: N132962/Quantification/20 keV/MMM1/SPI MM1 Crocoite[1][4].msa
#FORMAT      : EMSA/MAS Spectral Data File
#VERSION     : 1.0
#TITLE       : SPI MM1dup Crocoite[1][all]
#DATE        : 12-MAR-2025
#TIME        : 13:50
#OWNER       : Unknown
#NPOINTS     : 4096
#NCOLUMNS    : 1
#XUNITS      : eV
#YUNITS      : counts
#DATATYPE    : Y
#XPERCHAN    : 9.99778
#OFFSET      : 1.69135
#BEAMKV      : 20
#SIGNALTYPE  : EDS
#ELEVANGLE   : 35
#AZIMANGLE   : 0
#LIVETIME    : 239.822
#REALTIME    : 261.988
#PROBECUR    : 1.02627
#TAUWIND     : 0
#TDEADLYR    : 0
#TACTLYR     : 0.045
#TALWIND     : 0.025
#CHOFFSET    : 0.0
#XLABEL      : Energy (eV)
#YLABEL      : Counts
#XPOSITION   : -1.17007
#YPOSITION   : -0.60679
#ZPOSITION   : 31.03608
#EDSDET      : SD
##SPECIMEN   : SPI MM1dup Crocoite[1][all]
##DET_HASH   : 12273538-fd48-a23f-0a19-f1e6fa85caef
##CALIB_HASH : 6abaa72c-aa41-8738-0be9-f592914732f3
##WORKING    : 15.0 mm
##DET_NAME   : EDAX All
##DET_MODE   : MediumLE
#SPECTRUM    :
24,
26,
12,
42,
292,
1186,
3343,
7699,
16380,
20114,
11593,
6089,
5346,
5553,
6502,
13254,
36897,
64821,
50878,
22339,
11249,
6975,
5846,
6231,
5858,
4933,
4687,
4866,
5350,
5503,
5414,
5592,
5639,
5879,
6084,
6086,
6299,
6406,
6606,
6798,
6827,
7056,
7263,
7418,
7561,
7761,
7870,
7892,
8024,
8430,
8461,
8440,
8440,
8341,
8424,
8627,
9132,
9575,
11104,
13041,
16426,
18222,
15203,
11223,
9317,
8815,
8496,
8332,
8505,
8499,
8957,
9607,
10805,
11480,
13474,
21532,
49328,
106035,
155099,
149717,
119364,
108665,
92711,
55351,
23394,
10155,
7941,
9358,
11437,
10845,
8689,
6190,
5179,
4938,
5020,
5195,
5338,
5450,
5530,
5542,
5729,
6179,
6543,
6873,
6568,
5923,
5449,
5203,
4957,
4805,
4784,
4677,
4716,
4775,
4794,
4810,
4872,
4954,
4930,
4721,
4842,
4797,
4877,
4904,
4868,
4696,
4774,
4607,
4600,
4544,
4518,
4483,
4585,
4577,
4536,
4522,
4495,
4443,
4579,
4575,
4501,
4521,
4503,
4507,
4481,
4468,
4384,
4477,
4494,
4465,
4355,
4418,
4408,
4376,
4456,
4450,
4389,
4506,
4533,
4358,
4420,
4467,
4239,
4220,
4250,
4186,
4218,
4291,
4090,
4101,
4175,
4122,
4337,
4289,
4275,
4778,
6461,
11782,
22073,
36512,
46377,
44701,
32434,
18538,
9461,
5507,
4318,
3951,
3960,
3845,
3806,
3880,
3967,
4007,
4363,
5383,
6915,
8634,
9249,
8764,
7098,
5374,
4135,
3732,
3448,
3478,
3333,
3338,
3312,
3411,
3545,
3531,
3735,
3802,
3702,
3587,
3543,
3370,
3301,
3194,
3145,
3190,
3238,
3092,
3213,
3190,
3107,
3053,
3037,
3041,
3013,
3164,
3075,
3123,
3157,
3096,
3070,
3101,
3032,
2953,
2953,
2927,
2953,
2912,
2961,
2988,
2945,
2974,
3069,
3027,
3014,
3013,
2880,
2738,
2790,
2767,
2721,
2739,
2789,
2697,
2775,
2561,
2768,
2659,
2598,
2592,
2623,
2449,
2650,
2510,
2565,
2495,
2524,
2603,
2525,
2467,
2452,
2494,
2371,
2462,
2418,
2304,
2432,
2413,
2281,
2311,
2244,
2389,
2309,
2315,
2283,
2348,
2255,
2276,
2245,
2282,
2246,
2182,
2234,
2194,
2155,
2212,
2257,
2316,
2441,
2646,
2630,
2588,
2425,
2289,
2201,
2136,
1984,
2022,
2003,
1967,
2049,
2008,
2021,
2043,
1904,
2009,
1980,
1952,
1890,
1844,
1947,
1912,
1918,
1790,
1821,
1830,
1762,
1780,
1853,
1774,
1825,
1841,
1822,
1800,
1670,
1782,
1927,
1879,
2022,
2449,
3107,
4261,
5897,
8101,
10021,
10983,
10829,
9269,
7110,
4669,
3307,
2428,
1858,
1674,
1550,
1557,
1556,
1476,
1505,
1500,
1412,
1469,
1473,
1434,
1375,
1392,
1388,
1363,
1398,
1410,
1452,
1419,
1410,
1394,
1337,
1301,
1262,
1278,
1364,
1298,
1278,
1282,
1212,
1273,
1247,
1222,
1221,
1213,
1182,
1210,
1270,
1161,
1196,
1168,
1151,
1229,
1171,
1255,
1304,
1276,
1267,
1258,
1149,
1309,
1263,
1203,
1159,
1244,
1329,
1527,
2047,
2687,
3482,
4110,
4572,
4260,
3914,
3005,
2299,
1803,
1434,
1195,
1176,
1135,
1010,
1145,
1045,
1050,
1121,
1051,
980,
937,
889,
880,
795,
782,
816,
768,
718,
760,
722,
744,
780,
781,
728,
691,
714,
694,
689,
717,
708,
661,
666,
683,
606,
649,
675,
650,
616,
627,
674,
647,
641,
666,
566,
653,
633,
609,
587,
627,
590,
580,
610,
634,
536,
575,
538,
548,
533,
554,
574,
646,
632,
676,
819,
788,
818,
756,
708,
632,
562,
541,
503,
530,
508,
467,
532,
521,
530,
508,
511,
503,
445,
434,
408,
384,
424,
392,
399,
401,
371,
398,
405,
368,
349,
392,
363,
370,
366,
366,
367,
325,
328,
330,
342,
305,
298,
346,
304,
297,
328,
289,
333,
304,
289,
283,
267,
268,
257,
255,
298,
277,
265,
227,
226,
277,
266,
261,
245,
220,
238,
245,
250,
215,
215,
223,
243,
218,
213,
209,
215,
205,
224,
210,
219,
170,
200,
175,
179,
200,
169,
182,
177,
171,
188,
183,
179,
161,
157,
142,
136,
138,
151,
151,
138,
160,
118,
131,
131,
121,
135,
121,
137,
120,
127,
137,
120,
125,
113,
112,
104,
110,
111,
111,
89,
92,
96,
96,
82,
81,
106,
95,
98,
88,
85,
72,
82,
70,
82,
68,
69,
78,
69,
56,
49,
60,
71,
68,
62,
54,
57,
49,
50,
50,
42,
37,
33,
38,
35,
40,
37,
37,
29,
27,
34,
24,
28,
28,
24,
23,
17,
25,
15,
12,
10,
15,
13,
9,
7,
6,
9,
5,
4,
1,
5,
5,
4,
8,
4,
0,
3,
7,
2,
3,
0,
0,
3,
3,
1,
3,
3,
4,
4,
2,
3,
4,
2,
2,
6,
1,
2,
3,
5,
5,
2,
3,
5,
2,
2,
4,
4,
3,
2,
2,
2,
4,
2,
4,
1,
1,
2,
3,
0,
3,
3,
5,
1,
1,
1,
1,
3,
3,
0,
6,
1,
5,
2,
2,
2,
2,
1,
2,
3,
0,
0,
3,
1,
2,
0,
4,
0,
3,
2,
1,
1,
1,
2,
1,
0,
2,
3,
2,
4,
3,
1,
0,
0,
0,
2,
0,
1,
1,
1,
1,
1,
2,
1,
1,
2,
3,
1,
1,
1,
0,
2,
3,
3,
1,
1,
2,
2,
2,
1,
0,
1,
1,
1,
0,
2,
1,
2,
1,
0,
0,
0,
2,
2,
0,
0,
1,
1,
1,
1,
0,
0,
1,
3,
0,
0,
0,
3,
0,
2,
2,
1,
2,
0,
0,
0,
0,
0,
1,
1,
1,
1,
1,
1,
0,
2,
0,
2,
1,
1,
0,
0,
0,
1,
0,
3,
0,
1,
0,
1,
0,
2,
0,
1,
1,
0,
0,
2,
1,
1,
0,
0,
1,
1,
1,
1,
1,
0,
2,
1,
0,
1,
0,
0,
1,
0,
0,
0,
1,
1,
1,
0,
0,
0,
1,
0,
2,
0,
0,
0,
0,
1,
0,
0,
0,
1,
1,
0,
0,
0,
0,
0,
0,
0,
0,
0,
1,
0,
1,
0,
1,
0,
0,
0,
1,
0,
1,
1,
1,
0,
1,
0,
0,
0,
0,
1,
0,
2,
0,
0,
0,
0,
0,
0,
1,
0,
0,
0,
0,
2,
0,
0,
1,
1,
1,
1,
0,
0,
1,
0,
0,
0,
0,
0,
0,
0,
0,
1,
1,
0,
0,
0,
0,
0,
0,
0,
0,
0,
0,
0,
0,
0,
0,
0,
0,
0,
0,
0,
0,
0,
0,
0,
1,
0,
0,
0,
0,
0,
0,
0,
0,
0,
0,
1,
0,
0,
1,
0,
0,
0,
1,
0,
0,
0,
1,
2,
1,
0,
0,
0,
0,
0,
0,
0,
0,
1,
0,
1,
0,
0,
0,
0,
0,
0,
0,
0,
0,
0,
0,
0,
0,
0,
0,
0,
0,
0,
0,
0,
0,
0,
0,
0,
0,
1,
0,
0,
0,
0,
0,
0,
0,
0,
0,
0,
0,
0,
0,
0,
0,
0,
0,
0,
0,
0,
0,
0,
0,
0,
0,
0,
0,
0,
0,
0,
0,
0,
0,
0,
0,
0,
0,
0,
0,
0,
0,
0,
0,
0,
0,
0,
0,
0,
0,
0,
0,
0,
0,
0,
0,
0,
0,
0,
0,
0,
0,
0,
0,
0,
0,
0,
0,
0,
0,
0,
0,
0,
0,
0,
0,
0,
0,
0,
0,
0,
0,
0,
0,
0,
0,
0,
0,
0,
0,
0,
0,
0,
0,
0,
0,
0,
0,
0,
0,
0,
0,
0,
0,
0,
0,
0,
0,
0,
0,
0,
0,
0,
0,
0,
0,
0,
0,
0,
0,
0,
0,
0,
0,
0,
0,
0,
0,
0,
0,
0,
0,
0,
0,
0,
0,
0,
0,
0,
0,
0,
0,
0,
0,
0,
0,
0,
0,
0,
0,
0,
0,
0,
0,
0,
0,
0,
0,
0,
0,
0,
0,
0,
0,
0,
0,
0,
0,
0,
0,
0,
0,
0,
0,
0,
0,
0,
0,
0,
0,
0,
0,
0,
0,
0,
0,
0,
0,
0,
0,
0,
0,
0,
0,
0,
0,
0,
0,
0,
0,
0,
0,
0,
0,
0,
0,
0,
0,
0,
0,
0,
0,
0,
0,
0,
0,
0,
0,
0,
0,
0,
0,
0,
0,
0,
0,
0,
0,
0,
0,
0,
0,
0,
0,
0,
0,
0,
0,
0,
0,
0,
0,
0,
0,
0,
0,
0,
0,
0,
0,
0,
0,
0,
0,
0,
0,
0,
0,
0,
0,
0,
0,
0,
0,
0,
0,
0,
0,
0,
0,
0,
0,
0,
0,
0,
0,
0,
0,
0,
0,
0,
0,
0,
0,
0,
0,
0,
0,
0,
0,
0,
0,
0,
0,
0,
0,
0,
0,
0,
0,
0,
0,
0,
0,
0,
0,
0,
0,
0,
0,
0,
0,
0,
0,
0,
0,
0,
0,
0,
0,
0,
0,
0,
0,
#ENDOFDATA   :