File: N132962/Quantification/20 keV/MMM1/SPI MM1 Kaersutite[5][4].msa
#FORMAT      : EMSA/MAS Spectral Data File
#VERSION     : 1.0
#TITLE       : SPI MM1dup Kaersutite[5][all]
#DATE        : 12-MAR-2025
#TIME        : 16:25
#OWNER       : Unknown
#NPOINTS     : 4096
#NCOLUMNS    : 1
#XUNITS      : eV
#YUNITS      : counts
#DATATYPE    : Y
#XPERCHAN    : 9.99778
#OFFSET      : 1.69135
#BEAMKV      : 20
#SIGNALTYPE  : EDS
#ELEVANGLE   : 35
#AZIMANGLE   : 0
#LIVETIME    : 239.642
#REALTIME    : 254.243
#PROBECUR    : 1.02709
#TAUWIND     : 0
#TDEADLYR    : 0
#TACTLYR     : 0.045
#TALWIND     : 0.025
#CHOFFSET    : 0.0
#XLABEL      : Energy (eV)
#YLABEL      : Counts
#XPOSITION   : -1.62336
#YPOSITION   : 3.60287
#ZPOSITION   : 31.03608
#EDSDET      : SD
##SPECIMEN   : SPI MM1dup Kaersutite[5][all]
##DET_HASH   : 12273538-fd48-a23f-0a19-f1e6fa85caef
##CALIB_HASH : 6abaa72c-aa41-8738-0be9-f592914732f3
##WORKING    : 15.0 mm
##DET_NAME   : EDAX All
##DET_MODE   : MediumLE
#SPECTRUM    :
25,
32,
5,
10,
80,
284,
845,
2614,
7562,
10409,
6202,
3441,
3234,
3852,
5760,
17314,
65419,
127135,
94147,
25343,
4800,
3325,
4936,
8079,
7966,
4389,
2810,
2473,
2579,
2614,
2827,
2803,
3389,
6115,
10706,
11710,
7548,
4490,
4235,
6879,
19365,
45257,
53975,
31523,
11267,
5028,
4739,
9055,
24991,
48611,
49957,
27189,
10763,
5711,
5408,
11549,
41704,
106157,
144888,
101987,
42821,
15224,
7621,
4679,
3418,
3232,
3076,
2976,
2849,
2598,
2685,
2659,
2793,
2781,
2970,
3085,
3097,
2876,
2804,
2785,
2761,
2695,
2827,
2775,
2702,
2782,
2738,
2841,
2710,
2755,
2670,
2683,
2724,
2731,
2694,
2532,
2614,
2523,
2610,
2637,
2555,
2502,
2548,
2616,
2480,
2531,
2569,
2782,
3475,
4947,
6365,
6303,
4863,
3392,
2653,
2463,
2574,
2622,
3062,
4212,
8074,
17618,
31379,
39076,
33166,
19120,
8273,
3689,
2435,
2224,
2416,
3203,
4474,
6043,
6245,
5379,
3849,
2581,
1929,
1760,
1919,
1808,
1751,
1796,
1777,
1881,
2217,
3224,
5613,
9039,
11551,
10909,
7891,
4585,
2627,
1857,
1722,
1673,
1617,
1583,
1684,
1846,
2150,
2557,
2883,
2918,
2544,
1995,
1671,
1584,
1552,
1440,
1522,
1438,
1364,
1435,
1356,
1416,
1312,
1406,
1349,
1458,
1430,
1333,
1387,
1351,
1264,
1254,
1254,
1322,
1214,
1227,
1297,
1262,
1323,
1415,
1445,
1425,
1325,
1289,
1126,
1149,
1156,
1171,
1179,
1160,
1198,
1249,
1515,
2575,
4921,
9223,
13936,
16862,
16023,
11832,
6966,
3600,
1807,
1269,
1085,
1047,
1036,
951,
1011,
975,
986,
987,
1013,
1023,
1099,
1289,
1639,
2146,
2734,
2935,
2797,
2232,
1591,
1169,
977,
903,
803,
827,
811,
860,
846,
836,
904,
839,
843,
853,
851,
763,
774,
779,
786,
830,
760,
721,
724,
760,
754,
719,
743,
713,
694,
660,
692,
712,
690,
707,
732,
722,
704,
634,
702,
643,
665,
649,
602,
626,
618,
609,
608,
603,
620,
582,
615,
594,
631,
580,
663,
557,
571,
586,
587,
588,
612,
563,
554,
554,
566,
546,
530,
554,
549,
561,
519,
561,
529,
504,
526,
469,
517,
520,
530,
475,
477,
459,
514,
485,
493,
488,
460,
480,
491,
472,
489,
454,
465,
465,
447,
497,
419,
414,
471,
438,
483,
439,
401,
449,
398,
421,
399,
429,
387,
386,
385,
387,
348,
418,
371,
360,
385,
397,
350,
404,
336,
343,
348,
350,
337,
371,
314,
328,
347,
328,
343,
337,
335,
338,
338,
306,
341,
301,
306,
327,
341,
317,
289,
305,
296,
285,
251,
298,
303,
273,
291,
291,
266,
286,
269,
264,
277,
262,
244,
270,
278,
266,
245,
234,
265,
252,
237,
241,
226,
230,
225,
241,
205,
251,
198,
205,
216,
204,
210,
229,
238,
217,
194,
218,
212,
209,
191,
216,
238,
201,
185,
167,
197,
203,
186,
182,
198,
164,
188,
185,
177,
182,
184,
156,
182,
151,
164,
174,
202,
178,
166,
165,
154,
162,
150,
144,
153,
137,
131,
140,
156,
122,
153,
158,
147,
137,
133,
129,
131,
165,
118,
129,
134,
126,
128,
115,
110,
113,
121,
126,
118,
106,
99,
114,
126,
126,
108,
109,
88,
101,
90,
94,
108,
103,
86,
110,
74,
103,
72,
99,
82,
95,
82,
96,
97,
83,
76,
96,
72,
78,
64,
79,
82,
54,
62,
64,
68,
64,
81,
82,
71,
61,
57,
60,
63,
81,
63,
58,
75,
70,
56,
63,
55,
64,
68,
62,
48,
47,
58,
70,
50,
43,
48,
51,
41,
36,
43,
42,
49,
55,
50,
55,
52,
52,
39,
39,
32,
35,
45,
46,
38,
51,
38,
40,
38,
34,
33,
35,
38,
27,
27,
30,
30,
25,
31,
37,
28,
28,
26,
20,
20,
21,
23,
19,
34,
29,
24,
24,
35,
15,
28,
22,
26,
30,
17,
18,
17,
16,
24,
7,
17,
18,
11,
11,
22,
22,
17,
13,
13,
15,
13,
14,
17,
13,
15,
16,
12,
16,
5,
7,
9,
9,
12,
7,
10,
7,
7,
10,
8,
8,
5,
7,
13,
5,
9,
6,
5,
10,
11,
9,
11,
6,
6,
5,
6,
3,
6,
3,
3,
3,
4,
3,
2,
5,
4,
3,
1,
1,
0,
7,
3,
0,
0,
2,
1,
1,
2,
0,
0,
0,
0,
0,
1,
0,
1,
0,
1,
0,
0,
0,
1,
0,
0,
0,
0,
0,
0,
2,
0,
1,
0,
0,
0,
0,
0,
0,
0,
0,
2,
0,
1,
0,
0,
0,
0,
0,
0,
0,
0,
0,
0,
0,
0,
0,
0,
0,
0,
0,
0,
0,
1,
0,
0,
0,
0,
0,
0,
0,
0,
0,
0,
0,
0,
0,
0,
0,
0,
0,
0,
0,
0,
0,
1,
0,
0,
0,
0,
0,
0,
2,
0,
0,
0,
0,
0,
0,
0,
0,
0,
0,
0,
0,
0,
0,
0,
0,
0,
0,
0,
0,
0,
0,
0,
0,
0,
0,
0,
0,
0,
0,
0,
1,
1,
0,
0,
0,
0,
0,
0,
1,
0,
0,
0,
0,
0,
0,
0,
0,
0,
0,
0,
0,
0,
0,
0,
0,
1,
0,
0,
1,
0,
0,
0,
0,
0,
0,
0,
1,
0,
0,
0,
0,
0,
0,
0,
0,
0,
0,
0,
0,
0,
0,
0,
0,
0,
0,
0,
0,
0,
0,
0,
0,
0,
0,
0,
0,
0,
0,
0,
0,
0,
0,
0,
0,
0,
0,
0,
0,
0,
0,
0,
0,
0,
0,
0,
0,
0,
0,
0,
0,
0,
0,
0,
0,
0,
0,
0,
0,
0,
0,
0,
0,
0,
0,
0,
0,
0,
0,
0,
0,
0,
0,
0,
0,
0,
0,
0,
0,
0,
0,
0,
0,
0,
0,
0,
0,
0,
0,
0,
0,
0,
0,
0,
0,
0,
0,
0,
0,
0,
0,
0,
0,
0,
0,
0,
1,
0,
0,
0,
0,
0,
0,
0,
0,
0,
0,
0,
0,
0,
0,
0,
0,
0,
0,
0,
0,
0,
0,
0,
0,
0,
0,
0,
0,
0,
1,
0,
0,
0,
0,
0,
0,
0,
0,
0,
0,
0,
0,
0,
0,
0,
0,
0,
0,
0,
0,
0,
0,
0,
0,
0,
0,
0,
0,
0,
0,
0,
0,
0,
0,
0,
0,
0,
0,
0,
0,
0,
0,
0,
0,
0,
0,
0,
0,
0,
0,
0,
0,
0,
0,
0,
0,
0,
0,
0,
0,
0,
0,
0,
0,
0,
0,
0,
0,
0,
0,
0,
0,
0,
0,
0,
0,
0,
0,
0,
0,
0,
0,
0,
0,
0,
0,
0,
0,
0,
0,
0,
0,
0,
0,
0,
0,
0,
0,
0,
0,
0,
0,
0,
0,
0,
0,
0,
0,
0,
0,
0,
0,
0,
0,
0,
0,
0,
0,
0,
0,
0,
0,
0,
0,
0,
0,
0,
0,
0,
0,
0,
0,
0,
0,
0,
0,
0,
0,
0,
0,
0,
0,
0,
0,
0,
0,
0,
0,
0,
0,
0,
0,
0,
0,
0,
0,
0,
0,
0,
0,
0,
0,
0,
0,
0,
0,
0,
0,
0,
0,
0,
0,
0,
0,
0,
0,
0,
0,
0,
0,
0,
0,
0,
0,
0,
0,
0,
0,
0,
0,
0,
0,
0,
0,
0,
0,
0,
0,
0,
0,
0,
0,
0,
0,
0,
0,
0,
0,
0,
0,
0,
0,
0,
0,
0,
0,
0,
0,
0,
0,
0,
0,
0,
0,
0,
0,
0,
0,
0,
0,
0,
0,
0,
0,
0,
0,
0,
0,
0,
0,
0,
0,
0,
0,
0,
0,
0,
0,
0,
0,
0,
0,
0,
0,
0,
0,
0,
0,
0,
0,
0,
0,
0,
0,
0,
0,
0,
0,
0,
0,
0,
0,
0,
0,
0,
0,
0,
0,
0,
0,
0,
0,
0,
0,
0,
0,
0,
0,
0,
0,
0,
0,
0,
0,
0,
0,
0,
0,
0,
0,
0,
0,
0,
0,
0,
0,
0,
0,
0,
0,
0,
0,
0,
0,
0,
0,
0,
0,
0,
0,
0,
0,
0,
0,
0,
0,
0,
0,
0,
0,
0,
0,
0,
0,
0,
0,
0,
0,
0,
0,
0,
0,
0,
0,
0,
0,
0,
0,
0,
0,
0,
0,
0,
0,
0,
0,
0,
0,
0,
0,
0,
0,
0,
0,
0,
0,
0,
0,
0,
0,
0,
0,
0,
0,
0,
0,
0,
0,
0,
0,
0,
0,
0,
0,
0,
0,
0,
0,
0,
0,
0,
0,
0,
0,
0,
0,
0,
0,
0,
0,
0,
0,
0,
0,
0,
0,
0,
0,
0,
0,
0,
0,
#ENDOFDATA   :