File: N132962/Quantification/20 keV/MMM1/SPI MM1 Chlorite[8][4].msa
#FORMAT      : EMSA/MAS Spectral Data File
#VERSION     : 1.0
#TITLE       : SPI MM1dup Chlorite[8][all]
#DATE        : 12-MAR-2025
#TIME        : 14:27
#OWNER       : Unknown
#NPOINTS     : 4096
#NCOLUMNS    : 1
#XUNITS      : eV
#YUNITS      : counts
#DATATYPE    : Y
#XPERCHAN    : 9.99778
#OFFSET      : 1.69135
#BEAMKV      : 20
#SIGNALTYPE  : EDS
#ELEVANGLE   : 35
#AZIMANGLE   : 0
#LIVETIME    : 239.789
#REALTIME    : 254.6387
#PROBECUR    : 1.02867
#TAUWIND     : 0
#TDEADLYR    : 0
#TACTLYR     : 0.045
#TALWIND     : 0.025
#CHOFFSET    : 0.0
#XLABEL      : Energy (eV)
#YLABEL      : Counts
#XPOSITION   : 6.65681
#YPOSITION   : 0.17123
#ZPOSITION   : 31.03608
#EDSDET      : SD
##SPECIMEN   : SPI MM1dup Chlorite[8][all]
##DET_HASH   : 12273538-fd48-a23f-0a19-f1e6fa85caef
##CALIB_HASH : 6abaa72c-aa41-8738-0be9-f592914732f3
##WORKING    : 15.0 mm
##DET_NAME   : EDAX All
##DET_MODE   : MediumLE
#SPECTRUM    :
28,
31,
11,
20,
66,
299,
860,
2623,
7305,
9612,
5283,
2748,
2951,
3859,
7603,
30089,
123365,
242911,
178528,
46443,
5886,
2265,
2703,
3913,
4051,
2747,
2234,
2397,
2710,
2828,
2714,
2740,
2939,
3222,
3731,
4148,
4174,
4394,
5677,
13152,
49704,
125705,
151708,
85586,
24554,
6221,
4286,
9211,
28840,
57389,
58254,
30987,
10856,
4734,
3902,
7935,
28472,
71602,
97555,
69509,
28717,
10813,
5278,
3220,
2291,
2227,
2273,
2332,
2280,
2181,
2093,
2169,
2147,
2160,
2421,
2480,
2425,
2280,
2203,
2085,
2216,
2135,
2253,
2321,
2347,
2231,
2262,
2193,
2096,
2185,
2187,
2135,
2234,
2116,
2056,
2041,
2100,
2056,
2121,
2143,
2150,
2141,
2041,
2014,
1908,
1980,
1960,
1966,
2100,
1900,
1929,
1894,
1813,
1892,
1857,
1807,
1879,
1821,
1746,
1711,
1806,
1704,
1762,
1705,
1769,
1731,
1707,
1596,
1637,
1577,
1573,
1550,
1630,
1585,
1555,
1614,
1557,
1574,
1530,
1456,
1518,
1519,
1447,
1423,
1381,
1428,
1369,
1399,
1413,
1374,
1363,
1327,
1339,
1339,
1311,
1287,
1320,
1340,
1295,
1259,
1255,
1169,
1308,
1163,
1255,
1257,
1318,
1173,
1189,
1138,
1219,
1206,
1155,
1134,
1171,
1189,
1327,
1690,
2507,
3490,
4236,
4195,
3244,
2197,
1496,
1096,
1075,
1019,
1069,
1037,
1003,
1006,
999,
991,
1037,
1158,
1220,
1340,
1343,
1315,
1221,
1081,
925,
901,
890,
883,
921,
902,
1003,
1229,
1859,
3134,
4361,
5077,
4927,
3667,
2458,
1459,
1061,
834,
812,
805,
833,
794,
797,
817,
814,
730,
758,
742,
802,
834,
904,
1073,
1186,
1322,
1211,
1086,
900,
775,
690,
722,
706,
703,
684,
682,
738,
840,
868,
877,
852,
786,
713,
719,
623,
585,
656,
593,
600,
567,
569,
543,
587,
554,
591,
577,
571,
553,
588,
534,
611,
562,
503,
537,
502,
563,
615,
529,
564,
575,
509,
478,
514,
468,
503,
538,
437,
445,
485,
491,
432,
513,
473,
442,
457,
468,
461,
446,
426,
436,
452,
460,
454,
436,
374,
435,
392,
416,
397,
388,
387,
394,
398,
388,
419,
394,
379,
387,
370,
417,
418,
395,
384,
327,
363,
343,
353,
360,
376,
370,
369,
355,
298,
338,
345,
310,
328,
351,
348,
324,
354,
313,
330,
324,
342,
317,
299,
313,
295,
282,
307,
335,
318,
282,
288,
285,
304,
290,
280,
266,
255,
299,
287,
260,
283,
248,
268,
278,
278,
241,
256,
242,
244,
226,
244,
240,
231,
239,
228,
228,
209,
220,
228,
217,
236,
228,
214,
208,
206,
194,
230,
202,
202,
186,
209,
191,
193,
179,
192,
195,
187,
196,
170,
207,
159,
188,
182,
186,
187,
185,
148,
197,
190,
180,
171,
192,
168,
145,
168,
159,
152,
128,
156,
147,
141,
160,
130,
117,
129,
139,
120,
140,
152,
132,
139,
127,
124,
137,
158,
148,
126,
136,
131,
133,
151,
120,
124,
130,
100,
85,
112,
98,
109,
112,
107,
101,
108,
117,
138,
106,
108,
112,
115,
100,
104,
91,
77,
85,
87,
101,
102,
86,
103,
73,
88,
102,
91,
75,
96,
80,
91,
70,
83,
75,
94,
88,
77,
71,
72,
72,
72,
84,
71,
82,
68,
74,
61,
58,
54,
74,
56,
52,
59,
57,
53,
64,
66,
59,
56,
42,
52,
52,
50,
48,
49,
44,
46,
43,
53,
46,
54,
32,
45,
45,
44,
49,
49,
44,
42,
40,
35,
41,
40,
44,
36,
47,
43,
49,
42,
35,
42,
36,
37,
36,
30,
33,
36,
30,
32,
32,
30,
32,
28,
33,
29,
27,
31,
20,
38,
30,
24,
30,
26,
28,
21,
26,
25,
25,
24,
28,
21,
23,
35,
27,
21,
16,
16,
13,
18,
11,
21,
17,
23,
16,
27,
19,
19,
18,
19,
14,
10,
24,
10,
11,
17,
12,
8,
15,
11,
10,
12,
17,
18,
12,
8,
11,
13,
14,
16,
9,
11,
17,
11,
6,
15,
10,
8,
8,
14,
4,
11,
11,
10,
8,
3,
9,
7,
6,
7,
5,
5,
7,
1,
5,
4,
5,
6,
5,
1,
4,
4,
2,
3,
3,
1,
4,
1,
1,
5,
2,
6,
3,
3,
2,
4,
2,
2,
3,
0,
1,
0,
0,
0,
0,
1,
1,
0,
0,
0,
0,
0,
0,
0,
0,
0,
0,
0,
0,
0,
0,
0,
0,
0,
0,
0,
0,
0,
0,
0,
0,
0,
0,
0,
0,
0,
0,
1,
0,
0,
0,
0,
0,
0,
0,
0,
0,
0,
0,
0,
0,
0,
0,
0,
0,
0,
0,
0,
0,
0,
0,
0,
1,
0,
0,
1,
0,
0,
0,
0,
0,
0,
0,
0,
0,
0,
0,
0,
0,
0,
0,
0,
0,
0,
0,
0,
0,
0,
0,
0,
0,
0,
0,
0,
0,
0,
0,
0,
0,
0,
0,
0,
0,
0,
0,
0,
0,
0,
0,
0,
0,
1,
0,
0,
0,
0,
0,
0,
0,
0,
0,
0,
0,
0,
0,
0,
0,
0,
1,
0,
0,
0,
0,
0,
0,
0,
0,
0,
0,
0,
0,
0,
0,
0,
0,
0,
0,
0,
0,
0,
0,
0,
0,
0,
0,
0,
0,
0,
0,
0,
0,
0,
0,
0,
0,
0,
0,
0,
0,
0,
0,
0,
0,
0,
0,
0,
0,
0,
0,
0,
0,
0,
0,
0,
0,
0,
0,
0,
0,
0,
0,
0,
0,
0,
0,
0,
0,
0,
0,
0,
0,
0,
0,
0,
0,
0,
0,
0,
0,
0,
0,
0,
0,
0,
0,
0,
0,
0,
0,
0,
0,
0,
0,
0,
0,
0,
0,
0,
0,
0,
0,
0,
0,
0,
0,
0,
0,
0,
0,
0,
0,
0,
0,
0,
0,
0,
0,
0,
0,
0,
0,
0,
0,
0,
0,
0,
0,
0,
0,
0,
0,
0,
0,
0,
0,
0,
1,
0,
0,
0,
0,
0,
0,
0,
0,
0,
0,
0,
0,
0,
0,
0,
0,
0,
0,
0,
0,
0,
0,
0,
0,
0,
0,
0,
0,
0,
0,
0,
0,
0,
0,
0,
0,
0,
0,
0,
0,
0,
0,
0,
0,
0,
0,
0,
0,
0,
0,
0,
0,
0,
0,
0,
0,
0,
0,
0,
0,
0,
0,
0,
0,
0,
0,
0,
0,
0,
0,
0,
0,
0,
0,
0,
0,
0,
0,
0,
0,
0,
0,
0,
0,
0,
0,
0,
0,
0,
0,
0,
0,
0,
0,
0,
0,
0,
0,
0,
0,
0,
0,
0,
0,
0,
0,
0,
0,
0,
0,
0,
0,
0,
0,
0,
0,
0,
0,
0,
0,
0,
0,
0,
0,
0,
0,
0,
0,
0,
0,
0,
0,
0,
0,
0,
0,
0,
0,
0,
0,
0,
0,
0,
0,
0,
0,
0,
0,
0,
0,
0,
0,
0,
0,
0,
0,
0,
0,
0,
0,
0,
0,
0,
0,
0,
0,
0,
0,
0,
0,
0,
0,
0,
0,
0,
0,
0,
0,
0,
0,
0,
0,
0,
0,
0,
0,
0,
0,
0,
0,
0,
0,
0,
0,
0,
0,
0,
0,
0,
0,
0,
0,
0,
0,
0,
0,
0,
0,
0,
0,
0,
0,
0,
0,
0,
0,
0,
0,
0,
0,
0,
0,
0,
0,
0,
0,
0,
0,
0,
0,
0,
0,
0,
0,
0,
0,
0,
0,
0,
0,
0,
0,
0,
0,
0,
0,
0,
0,
0,
0,
0,
0,
0,
0,
0,
0,
0,
0,
0,
0,
0,
0,
0,
0,
0,
0,
0,
0,
0,
0,
0,
0,
0,
0,
0,
0,
0,
0,
0,
0,
0,
0,
0,
0,
0,
0,
0,
0,
0,
0,
0,
0,
0,
0,
0,
0,
0,
0,
0,
0,
0,
0,
0,
0,
0,
0,
0,
0,
0,
0,
0,
0,
0,
0,
0,
0,
0,
0,
0,
0,
0,
0,
0,
0,
0,
0,
0,
0,
0,
0,
0,
0,
0,
0,
0,
0,
0,
0,
0,
0,
0,
0,
0,
0,
0,
0,
0,
0,
0,
0,
0,
0,
0,
0,
0,
0,
0,
0,
0,
0,
0,
0,
0,
0,
0,
0,
0,
0,
0,
0,
0,
0,
0,
0,
0,
0,
0,
0,
0,
0,
0,
0,
0,
0,
0,
0,
0,
0,
0,
0,
0,
0,
0,
0,
0,
0,
0,
0,
0,
0,
0,
0,
0,
0,
0,
0,
0,
0,
0,
0,
0,
0,
0,
0,
0,
0,
0,
0,
0,
0,
0,
0,
0,
0,
0,
0,
0,
0,
0,
0,
0,
0,
0,
0,
0,
0,
0,
0,
0,
0,
#ENDOFDATA   :