File: N132962/Quantification/20 keV/MMM1/SPI MM1 Diopside[5][4].msa
#FORMAT      : EMSA/MAS Spectral Data File
#VERSION     : 1.0
#TITLE       : SPI MM1dup Diopside[5][all]
#DATE        : 12-MAR-2025
#TIME        : 15:41
#OWNER       : Unknown
#NPOINTS     : 4096
#NCOLUMNS    : 1
#XUNITS      : eV
#YUNITS      : counts
#DATATYPE    : Y
#XPERCHAN    : 9.99778
#OFFSET      : 1.69135
#BEAMKV      : 20
#SIGNALTYPE  : EDS
#ELEVANGLE   : 35
#AZIMANGLE   : 0
#LIVETIME    : 239.882
#REALTIME    : 255.2746
#PROBECUR    : 1.02695
#TAUWIND     : 0
#TDEADLYR    : 0
#TACTLYR     : 0.045
#TALWIND     : 0.025
#CHOFFSET    : 0.0
#XLABEL      : Energy (eV)
#YLABEL      : Counts
#XPOSITION   : 2.18968
#YPOSITION   : 1.42283
#ZPOSITION   : 31.03608
#EDSDET      : SD
##SPECIMEN   : SPI MM1dup Diopside[5][all]
##D2STDCMP   : Diopside,(O:44.3298),(Mg:11.2237),(Si:25.939),(Ca:18.5075)
##DET_HASH   : 12273538-fd48-a23f-0a19-f1e6fa85caef
##CALIB_HASH : 6abaa72c-aa41-8738-0be9-f592914732f3
##WORKING    : 15.0 mm
##DET_NAME   : EDAX All
##DET_MODE   : MediumLE
#SPECTRUM    :
18,
24,
12,
22,
70,
251,
791,
2542,
7550,
10859,
7060,
3741,
2779,
2638,
4010,
13595,
53616,
104884,
77442,
20974,
3268,
1786,
1996,
2495,
2516,
2305,
2320,
2492,
2761,
2791,
2877,
2992,
3335,
3935,
4738,
5203,
4587,
4351,
4799,
8939,
28088,
67162,
81257,
46872,
15229,
5423,
3943,
4117,
5064,
6331,
6559,
5699,
4899,
4968,
6082,
16261,
62704,
161407,
221562,
156682,
63182,
21467,
9833,
5270,
3781,
3464,
3223,
2847,
2608,
2617,
2635,
2674,
2717,
2726,
2844,
3017,
3040,
2903,
2748,
2670,
2702,
2581,
2592,
2601,
2627,
2555,
2602,
2526,
2564,
2517,
2508,
2617,
2535,
2439,
2513,
2490,
2477,
2514,
2432,
2576,
2670,
2529,
2559,
2498,
2355,
2389,
2428,
2296,
2281,
2338,
2332,
2229,
2233,
2261,
2412,
2494,
2671,
2875,
3344,
5597,
14125,
35211,
64694,
82236,
69532,
39518,
15942,
5410,
2710,
2438,
2905,
4385,
7242,
10661,
11416,
9337,
5775,
3228,
2043,
1783,
1668,
1787,
1678,
1573,
1563,
1600,
1573,
1555,
1538,
1507,
1587,
1524,
1521,
1504,
1417,
1526,
1535,
1475,
1399,
1493,
1465,
1380,
1408,
1463,
1479,
1452,
1416,
1411,
1343,
1344,
1394,
1277,
1329,
1314,
1276,
1342,
1325,
1293,
1334,
1332,
1494,
1474,
1453,
1330,
1293,
1246,
1219,
1181,
1158,
1222,
1149,
1178,
1091,
1199,
1182,
1180,
1189,
1152,
1167,
1156,
1068,
1115,
1046,
1026,
1030,
1003,
1040,
1008,
1087,
1157,
1352,
1633,
2006,
2150,
2140,
1793,
1425,
1169,
975,
919,
908,
960,
982,
890,
933,
888,
839,
850,
923,
886,
876,
904,
919,
985,
976,
986,
993,
968,
890,
916,
817,
816,
808,
793,
842,
797,
810,
846,
802,
847,
836,
761,
793,
753,
809,
711,
712,
681,
783,
764,
691,
737,
696,
704,
687,
647,
678,
694,
750,
646,
640,
705,
701,
673,
633,
636,
636,
635,
674,
637,
622,
629,
592,
573,
660,
638,
601,
581,
617,
577,
596,
569,
579,
510,
580,
586,
540,
510,
522,
542,
548,
528,
499,
518,
488,
510,
511,
509,
517,
486,
527,
512,
488,
477,
450,
472,
474,
459,
438,
499,
465,
473,
474,
450,
452,
480,
469,
453,
457,
406,
430,
431,
413,
455,
425,
382,
395,
407,
422,
414,
441,
357,
384,
419,
373,
366,
404,
359,
411,
380,
348,
383,
368,
342,
352,
366,
330,
345,
368,
384,
364,
336,
370,
326,
356,
297,
332,
311,
334,
324,
305,
330,
306,
302,
272,
290,
306,
303,
302,
285,
324,
279,
296,
308,
263,
275,
292,
290,
255,
264,
277,
247,
268,
270,
239,
243,
259,
249,
279,
217,
246,
222,
230,
228,
245,
225,
241,
262,
238,
230,
219,
210,
223,
201,
231,
207,
234,
219,
192,
217,
204,
189,
204,
178,
175,
188,
180,
199,
182,
212,
167,
172,
180,
157,
152,
159,
170,
146,
163,
160,
198,
173,
158,
168,
144,
164,
176,
174,
153,
131,
132,
147,
138,
139,
129,
145,
137,
130,
118,
124,
127,
128,
152,
124,
137,
116,
110,
132,
114,
104,
124,
126,
107,
138,
110,
120,
111,
115,
121,
86,
99,
96,
101,
119,
107,
98,
102,
98,
90,
96,
97,
76,
96,
106,
74,
96,
87,
98,
81,
79,
71,
92,
82,
72,
92,
86,
87,
71,
81,
76,
83,
55,
66,
64,
67,
67,
79,
71,
71,
87,
46,
73,
68,
53,
59,
68,
72,
51,
64,
57,
57,
42,
51,
63,
45,
49,
56,
47,
46,
48,
45,
65,
51,
44,
51,
44,
33,
40,
32,
54,
35,
44,
37,
37,
48,
48,
42,
41,
42,
42,
41,
34,
35,
34,
30,
29,
28,
31,
35,
28,
31,
28,
30,
22,
24,
28,
23,
21,
24,
25,
28,
29,
22,
27,
23,
22,
24,
23,
19,
23,
29,
24,
18,
23,
15,
23,
20,
16,
15,
17,
22,
16,
16,
17,
17,
13,
17,
14,
17,
13,
8,
14,
15,
14,
14,
20,
15,
12,
14,
12,
8,
12,
10,
8,
9,
7,
11,
10,
7,
9,
7,
8,
12,
6,
8,
4,
6,
4,
3,
9,
6,
6,
7,
5,
6,
4,
3,
4,
6,
3,
6,
1,
3,
3,
1,
3,
2,
2,
2,
2,
2,
1,
2,
0,
1,
0,
1,
1,
2,
1,
0,
0,
0,
0,
1,
0,
0,
0,
0,
1,
0,
0,
0,
1,
0,
1,
0,
0,
0,
1,
0,
0,
0,
1,
0,
0,
0,
0,
0,
1,
0,
0,
0,
0,
0,
0,
0,
0,
0,
0,
0,
0,
0,
0,
0,
0,
0,
0,
0,
1,
1,
0,
0,
0,
0,
0,
0,
0,
0,
0,
0,
0,
0,
0,
0,
0,
0,
0,
0,
0,
0,
0,
0,
1,
0,
0,
0,
0,
0,
0,
0,
1,
0,
0,
0,
0,
0,
0,
0,
0,
0,
0,
0,
0,
0,
0,
0,
0,
0,
0,
0,
0,
0,
0,
0,
0,
0,
0,
0,
0,
0,
0,
0,
0,
0,
0,
0,
0,
0,
0,
1,
0,
0,
0,
0,
0,
0,
0,
0,
0,
0,
0,
0,
0,
0,
0,
0,
0,
0,
0,
0,
0,
0,
0,
0,
0,
0,
0,
0,
0,
0,
0,
0,
0,
0,
0,
0,
0,
0,
0,
0,
0,
0,
0,
0,
0,
0,
0,
0,
0,
0,
0,
0,
0,
0,
0,
0,
0,
0,
0,
0,
0,
0,
0,
0,
0,
0,
0,
0,
0,
0,
0,
0,
0,
0,
0,
0,
0,
0,
0,
0,
0,
0,
0,
0,
0,
0,
0,
0,
0,
0,
0,
0,
0,
0,
0,
0,
0,
0,
0,
0,
0,
0,
0,
0,
0,
1,
0,
0,
0,
0,
0,
0,
0,
0,
0,
0,
0,
0,
0,
0,
0,
0,
0,
0,
0,
0,
0,
0,
0,
0,
0,
0,
0,
0,
0,
0,
0,
0,
0,
0,
0,
0,
0,
0,
0,
0,
0,
0,
1,
0,
0,
0,
0,
0,
0,
0,
0,
0,
0,
0,
0,
0,
0,
0,
0,
0,
0,
0,
0,
0,
0,
0,
0,
0,
0,
0,
0,
0,
0,
0,
0,
0,
0,
0,
0,
0,
0,
0,
0,
0,
0,
0,
0,
0,
0,
0,
0,
0,
0,
0,
0,
0,
0,
0,
0,
0,
0,
0,
0,
0,
0,
0,
0,
0,
0,
0,
0,
0,
0,
0,
0,
0,
0,
0,
0,
0,
0,
0,
0,
0,
0,
0,
0,
0,
0,
0,
0,
0,
0,
0,
0,
0,
0,
0,
0,
0,
0,
0,
0,
0,
0,
0,
0,
0,
0,
0,
0,
0,
0,
0,
0,
0,
0,
0,
0,
0,
0,
0,
0,
0,
0,
0,
0,
0,
0,
0,
0,
0,
0,
0,
0,
0,
0,
0,
0,
0,
0,
0,
0,
0,
0,
0,
0,
0,
0,
0,
0,
0,
0,
0,
0,
0,
0,
0,
0,
0,
0,
0,
0,
0,
0,
0,
0,
0,
0,
0,
0,
0,
0,
0,
0,
0,
0,
0,
0,
0,
0,
0,
0,
0,
0,
0,
0,
0,
0,
0,
0,
0,
0,
0,
0,
0,
0,
0,
0,
0,
0,
0,
0,
0,
0,
0,
0,
0,
0,
0,
0,
0,
0,
0,
0,
0,
0,
0,
0,
0,
0,
0,
0,
0,
0,
0,
0,
0,
0,
0,
0,
0,
0,
0,
0,
0,
0,
0,
0,
0,
0,
0,
0,
0,
0,
0,
0,
0,
0,
0,
0,
0,
0,
0,
0,
0,
0,
0,
0,
0,
0,
0,
0,
0,
0,
0,
0,
0,
0,
0,
0,
0,
0,
0,
0,
0,
0,
0,
0,
0,
0,
0,
0,
0,
0,
0,
0,
0,
0,
0,
0,
0,
0,
0,
0,
0,
0,
0,
0,
0,
0,
0,
0,
0,
0,
0,
0,
0,
0,
0,
0,
0,
0,
0,
0,
0,
0,
0,
0,
0,
0,
0,
0,
0,
0,
0,
0,
0,
0,
0,
0,
0,
0,
0,
0,
0,
0,
0,
0,
0,
0,
0,
0,
0,
0,
0,
0,
0,
0,
0,
0,
0,
0,
0,
0,
0,
0,
0,
0,
0,
0,
0,
0,
0,
0,
0,
0,
0,
0,
0,
0,
0,
0,
0,
0,
0,
0,
0,
0,
0,
0,
0,
0,
0,
0,
0,
0,
0,
0,
0,
0,
0,
0,
0,
0,
0,
0,
0,
0,
0,
0,
0,
0,
0,
0,
0,
0,
0,
0,
0,
0,
0,
0,
0,
0,
0,
0,
0,
0,
0,
0,
0,
0,
0,
0,
0,
0,
0,
0,
#ENDOFDATA   :