File: N132962/Quantification/20 keV/MMM1/SPI MM1 Jadeite[2][4].msa
#FORMAT      : EMSA/MAS Spectral Data File
#VERSION     : 1.0
#TITLE       : SPI MM1dup Jadeite[2][all]
#DATE        : 12-MAR-2025
#TIME        : 16:31
#OWNER       : Unknown
#NPOINTS     : 4096
#NCOLUMNS    : 1
#XUNITS      : eV
#YUNITS      : counts
#DATATYPE    : Y
#XPERCHAN    : 9.99778
#OFFSET      : 1.69135
#BEAMKV      : 20
#SIGNALTYPE  : EDS
#ELEVANGLE   : 35
#AZIMANGLE   : 0
#LIVETIME    : 239.767
#REALTIME    : 255.531
#PROBECUR    : 1.02709
#TAUWIND     : 0
#TDEADLYR    : 0
#TACTLYR     : 0.045
#TALWIND     : 0.025
#CHOFFSET    : 0.0
#XLABEL      : Energy (eV)
#YLABEL      : Counts
#XPOSITION   : 0.96276
#YPOSITION   : 4.37657
#ZPOSITION   : 31.03608
#EDSDET      : SD
##SPECIMEN   : SPI MM1dup Jadeite[2][all]
##D2STDCMP   : Jadeite,(O:47.4904),(Na:11.3733),(Al:13.348),(Si:27.7883),5.0
##DET_HASH   : 12273538-fd48-a23f-0a19-f1e6fa85caef
##CALIB_HASH : 6abaa72c-aa41-8738-0be9-f592914732f3
##WORKING    : 15.0 mm
##DET_NAME   : EDAX All
##DET_MODE   : MediumLE
#SPECTRUM    :
19,
24,
5,
7,
67,
256,
805,
2315,
6501,
8651,
4691,
2396,
2445,
3233,
6327,
24937,
100046,
198162,
144239,
37948,
4815,
1766,
1856,
2039,
2121,
2132,
2296,
2526,
2762,
3069,
3315,
4196,
8102,
26705,
62358,
69016,
34577,
9531,
3803,
3226,
3556,
3975,
4228,
4168,
4126,
4464,
5875,
15719,
51209,
102961,
105248,
55180,
18305,
7356,
5964,
15183,
60251,
156187,
213457,
150814,
60131,
19869,
8856,
4274,
2428,
2174,
2250,
2294,
2265,
2145,
2183,
2092,
2125,
2232,
2474,
2618,
2590,
2379,
2226,
2028,
2066,
2058,
2095,
2218,
2206,
2261,
2217,
2138,
2147,
2001,
2177,
2142,
2160,
2277,
2212,
2153,
2037,
2083,
2051,
2062,
2048,
2070,
2052,
1979,
2041,
2074,
2029,
2221,
2252,
2073,
2038,
1957,
1883,
1900,
1898,
1982,
2098,
1996,
1919,
1835,
1832,
1979,
2222,
2398,
2274,
1986,
1744,
1693,
1599,
1703,
1667,
1660,
1649,
1621,
1678,
1633,
1595,
1529,
1605,
1599,
1540,
1508,
1544,
1427,
1488,
1455,
1449,
1544,
1415,
1418,
1431,
1432,
1355,
1432,
1383,
1350,
1276,
1331,
1342,
1307,
1319,
1346,
1279,
1295,
1274,
1274,
1247,
1261,
1197,
1237,
1216,
1193,
1190,
1263,
1160,
1159,
1197,
1134,
1168,
1127,
1104,
1158,
1091,
1104,
1076,
1083,
1042,
1061,
1051,
1009,
1089,
1040,
1037,
1039,
1046,
986,
997,
985,
982,
986,
937,
950,
964,
1017,
963,
970,
918,
933,
989,
890,
914,
993,
948,
978,
1015,
947,
919,
858,
834,
845,
799,
850,
785,
838,
774,
796,
737,
823,
764,
751,
741,
750,
791,
742,
762,
766,
761,
746,
716,
709,
739,
663,
720,
667,
684,
682,
687,
729,
682,
757,
704,
680,
643,
673,
675,
620,
618,
599,
644,
614,
581,
601,
591,
621,
607,
611,
607,
608,
585,
598,
597,
597,
527,
595,
507,
564,
509,
530,
555,
546,
556,
533,
505,
556,
511,
503,
523,
446,
485,
521,
516,
498,
445,
448,
529,
495,
474,
445,
421,
493,
488,
453,
440,
451,
452,
470,
437,
424,
424,
445,
401,
418,
432,
457,
417,
418,
412,
413,
373,
380,
432,
420,
373,
381,
349,
345,
372,
345,
375,
383,
334,
371,
367,
363,
366,
354,
365,
358,
362,
340,
329,
344,
339,
313,
311,
302,
343,
329,
289,
305,
297,
313,
292,
322,
343,
324,
321,
279,
308,
299,
285,
277,
315,
279,
269,
299,
285,
272,
262,
264,
256,
269,
281,
243,
262,
234,
212,
246,
268,
256,
238,
253,
253,
229,
242,
206,
243,
220,
244,
219,
195,
174,
249,
234,
245,
213,
222,
220,
206,
203,
161,
192,
195,
210,
181,
205,
199,
208,
181,
220,
188,
185,
181,
173,
173,
178,
176,
161,
172,
166,
156,
168,
143,
177,
178,
127,
153,
163,
151,
153,
150,
147,
153,
148,
138,
133,
153,
138,
125,
136,
145,
142,
132,
131,
141,
122,
122,
138,
97,
116,
125,
119,
122,
118,
105,
115,
114,
110,
104,
114,
106,
95,
93,
118,
104,
122,
88,
95,
109,
100,
98,
71,
99,
90,
85,
78,
86,
91,
92,
92,
87,
91,
74,
78,
72,
75,
77,
78,
70,
77,
78,
82,
61,
54,
84,
66,
63,
68,
60,
57,
75,
60,
73,
58,
78,
61,
65,
64,
56,
57,
68,
63,
50,
67,
63,
45,
49,
63,
49,
35,
47,
43,
57,
58,
50,
47,
59,
41,
47,
44,
49,
46,
37,
39,
39,
39,
50,
45,
42,
33,
31,
46,
39,
36,
38,
39,
35,
28,
37,
28,
32,
24,
36,
30,
32,
27,
33,
32,
32,
25,
44,
23,
26,
22,
39,
29,
21,
25,
37,
25,
28,
25,
28,
23,
20,
20,
16,
21,
17,
16,
13,
17,
21,
22,
22,
24,
22,
12,
23,
17,
24,
20,
17,
20,
10,
15,
16,
22,
12,
12,
13,
13,
7,
20,
12,
8,
18,
14,
13,
12,
15,
9,
12,
5,
8,
14,
10,
6,
8,
11,
10,
11,
5,
6,
5,
2,
14,
7,
5,
10,
7,
6,
5,
5,
2,
4,
3,
3,
5,
4,
5,
9,
8,
1,
1,
5,
4,
5,
1,
3,
3,
7,
2,
0,
3,
1,
2,
1,
1,
1,
1,
0,
0,
0,
1,
0,
1,
0,
1,
0,
0,
0,
0,
0,
0,
0,
0,
0,
0,
0,
0,
0,
0,
0,
0,
1,
0,
0,
0,
0,
0,
0,
0,
0,
0,
0,
0,
0,
0,
0,
1,
0,
0,
0,
0,
0,
0,
0,
0,
0,
0,
0,
0,
0,
0,
0,
0,
1,
0,
0,
0,
0,
0,
0,
0,
0,
0,
0,
0,
0,
0,
0,
1,
0,
0,
0,
0,
0,
0,
0,
0,
0,
0,
0,
0,
0,
0,
0,
0,
0,
0,
0,
0,
0,
0,
0,
0,
0,
0,
0,
0,
0,
0,
0,
0,
0,
0,
0,
0,
1,
0,
0,
0,
0,
0,
0,
0,
0,
0,
0,
0,
0,
0,
0,
0,
0,
0,
0,
0,
0,
0,
0,
0,
0,
0,
0,
0,
1,
1,
0,
0,
0,
0,
0,
0,
0,
0,
0,
0,
0,
0,
0,
0,
0,
0,
0,
1,
0,
0,
0,
0,
0,
0,
0,
0,
0,
0,
0,
0,
0,
0,
0,
0,
0,
0,
0,
0,
0,
0,
0,
0,
0,
0,
0,
0,
0,
0,
0,
0,
0,
0,
0,
0,
0,
0,
0,
0,
0,
0,
0,
0,
0,
0,
0,
0,
0,
0,
0,
0,
0,
0,
0,
0,
0,
0,
0,
0,
0,
0,
0,
1,
0,
0,
0,
0,
0,
0,
0,
0,
0,
0,
0,
0,
0,
0,
0,
0,
0,
0,
0,
0,
0,
0,
0,
0,
0,
0,
0,
0,
0,
0,
0,
0,
0,
0,
0,
0,
0,
0,
0,
0,
0,
0,
0,
0,
0,
0,
0,
0,
0,
0,
0,
0,
0,
0,
0,
0,
0,
0,
0,
0,
0,
0,
0,
0,
0,
0,
0,
0,
0,
0,
0,
0,
0,
0,
0,
0,
0,
0,
0,
0,
0,
0,
0,
0,
0,
0,
0,
0,
0,
0,
0,
0,
0,
0,
0,
0,
0,
0,
0,
0,
0,
0,
0,
0,
0,
0,
0,
0,
0,
0,
0,
0,
0,
0,
1,
0,
0,
0,
0,
0,
0,
0,
0,
0,
0,
0,
0,
0,
0,
0,
0,
0,
0,
0,
0,
0,
0,
0,
0,
0,
0,
0,
0,
0,
0,
0,
0,
0,
0,
0,
0,
0,
0,
0,
0,
0,
0,
0,
0,
0,
0,
0,
0,
0,
0,
0,
0,
0,
0,
0,
0,
0,
0,
0,
0,
0,
0,
0,
0,
0,
0,
0,
0,
0,
0,
0,
0,
0,
0,
0,
0,
0,
0,
0,
0,
0,
0,
0,
0,
0,
0,
0,
0,
0,
0,
0,
0,
0,
0,
0,
0,
0,
0,
0,
0,
0,
0,
0,
0,
0,
0,
0,
0,
0,
0,
0,
0,
0,
0,
0,
0,
0,
0,
0,
0,
0,
0,
0,
0,
0,
0,
0,
0,
0,
0,
0,
0,
0,
0,
0,
0,
0,
0,
0,
0,
0,
0,
0,
0,
0,
0,
0,
0,
0,
0,
0,
0,
0,
0,
0,
0,
0,
0,
0,
0,
0,
0,
0,
0,
0,
0,
0,
0,
0,
0,
0,
0,
0,
0,
0,
0,
0,
0,
0,
0,
0,
0,
0,
0,
0,
0,
0,
0,
0,
0,
0,
0,
0,
0,
0,
0,
0,
0,
0,
0,
0,
0,
0,
0,
0,
0,
0,
0,
0,
0,
0,
0,
0,
0,
0,
0,
0,
0,
0,
0,
0,
0,
0,
0,
0,
0,
0,
0,
0,
0,
0,
0,
0,
0,
0,
0,
0,
0,
0,
0,
0,
0,
0,
0,
0,
0,
0,
0,
0,
0,
0,
0,
0,
0,
0,
0,
0,
0,
0,
0,
0,
0,
0,
0,
0,
0,
0,
0,
0,
0,
0,
0,
0,
0,
0,
0,
0,
0,
0,
0,
0,
0,
0,
0,
0,
0,
0,
0,
0,
0,
0,
0,
0,
0,
0,
0,
0,
0,
0,
0,
0,
0,
0,
0,
0,
0,
0,
0,
0,
0,
0,
0,
0,
0,
0,
0,
0,
0,
0,
0,
0,
0,
0,
0,
0,
0,
0,
0,
0,
0,
0,
0,
0,
0,
0,
0,
0,
0,
0,
0,
0,
0,
0,
0,
0,
0,
0,
0,
0,
0,
0,
0,
0,
0,
0,
0,
0,
0,
0,
0,
0,
0,
0,
0,
0,
0,
0,
0,
0,
0,
#ENDOFDATA   :