File: N132962/Quantification/20 keV/MMM1/SPI MM1 Benitoite[1][4].msa
#FORMAT      : EMSA/MAS Spectral Data File
#VERSION     : 1.0
#TITLE       : SPI MM1 Benitoite[1][all]
#DATE        : 11-MAR-2025
#TIME        : 13:17
#OWNER       : Unknown
#NPOINTS     : 4096
#NCOLUMNS    : 1
#XUNITS      : eV
#YUNITS      : counts
#DATATYPE    : Y
#XPERCHAN    : 9.99778
#OFFSET      : 1.69135
#BEAMKV      : 20
#SIGNALTYPE  : EDS
#ELEVANGLE   : 35
#AZIMANGLE   : 0
#LIVETIME    : 239.902
#REALTIME    : 256.808
#PROBECUR    : 1.02699
#TAUWIND     : 0
#TDEADLYR    : 0
#TACTLYR     : 0.045
#TALWIND     : 0.025
#CHOFFSET    : 0.0
#XLABEL      : Energy (eV)
#YLABEL      : Counts
#XPOSITION   : -3.29675
#YPOSITION   : -4.84202
#ZPOSITION   : 30.9284
#EDSDET      : SD
##SPECIMEN   : SPI MM1 Benitoite[1][all]
##D2STDCMP   : Benitoite,(O:34.828),(Si:20.3791),(Ti:11.5776),(Ba:33.2153)
##DET_HASH   : 12273538-fd48-a23f-0a19-f1e6fa85caef
##CALIB_HASH : 6abaa72c-aa41-8738-0be9-f592914732f3
##WORKING    : 15.0 mm
##DET_NAME   : EDAX All
##DET_MODE   : MediumLE
#SPECTRUM    :
29,
26,
17,
23,
109,
449,
1316,
3732,
9929,
12959,
7536,
5319,
7230,
9760,
12006,
22954,
67085,
124169,
91627,
27799,
7924,
4593,
3349,
3468,
4037,
5326,
6067,
5222,
4148,
3507,
3375,
3882,
4516,
4847,
4486,
4597,
4179,
3846,
3969,
3768,
3897,
3941,
4199,
4356,
4429,
4300,
4527,
4635,
5016,
5073,
5471,
5479,
5610,
5631,
6468,
13569,
46400,
114620,
154808,
110304,
45864,
17348,
9308,
5620,
4157,
3850,
3860,
3849,
3900,
3946,
4087,
4203,
4120,
4267,
4381,
4368,
4230,
4203,
4043,
4168,
4018,
3977,
4146,
3984,
4045,
4084,
4049,
4027,
4131,
4248,
4422,
4612,
4533,
4274,
4122,
4059,
3868,
3994,
3778,
3898,
3940,
3919,
4025,
3853,
3944,
3897,
3904,
3801,
3709,
3756,
3759,
3826,
3767,
3669,
3709,
3679,
3712,
3689,
3609,
3485,
3548,
3544,
3418,
3424,
3603,
3416,
3420,
3493,
3478,
3700,
4219,
4717,
4872,
4661,
4020,
3670,
3252,
3304,
3315,
3290,
3150,
3326,
3588,
3964,
4918,
7868,
15969,
33391,
58740,
78223,
78729,
60314,
35310,
16592,
7076,
4036,
3547,
4547,
7310,
13685,
20418,
25441,
24460,
20605,
16896,
13039,
9380,
6292,
4598,
4689,
6525,
8467,
9507,
8397,
6169,
4016,
2818,
2429,
2264,
2363,
2422,
2736,
3283,
4191,
4901,
4807,
4073,
3139,
2428,
2174,
2335,
2607,
2792,
3076,
3063,
2671,
2380,
2087,
2084,
2069,
2022,
1940,
1820,
1818,
1807,
1826,
1886,
1960,
1914,
1839,
1921,
1936,
1989,
1925,
1894,
1931,
1828,
1717,
1761,
1742,
1714,
1696,
1708,
1642,
1609,
1711,
1594,
1563,
1696,
1567,
1545,
1483,
1580,
1620,
1519,
1658,
1543,
1505,
1612,
1476,
1458,
1461,
1549,
1455,
1517,
1481,
1538,
1507,
1539,
1579,
1482,
1402,
1379,
1399,
1411,
1358,
1337,
1388,
1346,
1324,
1333,
1297,
1364,
1304,
1351,
1227,
1327,
1272,
1290,
1245,
1262,
1216,
1220,
1202,
1298,
1227,
1241,
1222,
1238,
1225,
1188,
1225,
1194,
1206,
1129,
1147,
1181,
1124,
1127,
1149,
1155,
1179,
1154,
1094,
1115,
1123,
1066,
1119,
1069,
1125,
1099,
1065,
1090,
1083,
1024,
1027,
1007,
1070,
985,
972,
990,
1001,
1045,
1011,
952,
994,
978,
997,
963,
972,
969,
938,
927,
892,
943,
889,
826,
972,
890,
897,
895,
898,
850,
932,
845,
854,
844,
797,
896,
830,
774,
845,
802,
827,
761,
776,
792,
791,
770,
783,
735,
773,
782,
738,
759,
751,
691,
737,
755,
688,
727,
734,
713,
711,
729,
689,
660,
677,
684,
649,
685,
686,
595,
672,
644,
602,
611,
655,
591,
608,
617,
612,
608,
597,
632,
564,
558,
587,
533,
561,
599,
590,
572,
559,
556,
540,
546,
550,
538,
546,
528,
515,
518,
517,
489,
487,
500,
485,
501,
472,
513,
490,
484,
451,
448,
452,
436,
450,
448,
430,
430,
438,
438,
474,
412,
436,
392,
404,
394,
403,
398,
383,
368,
399,
396,
409,
388,
401,
393,
363,
349,
344,
343,
359,
362,
336,
365,
320,
357,
342,
324,
303,
334,
304,
293,
301,
317,
334,
318,
330,
339,
304,
314,
289,
297,
269,
261,
292,
300,
281,
281,
259,
260,
293,
259,
276,
242,
262,
242,
220,
233,
239,
248,
249,
252,
227,
216,
215,
204,
220,
197,
219,
214,
219,
213,
224,
205,
199,
195,
202,
196,
203,
201,
200,
201,
198,
173,
177,
184,
160,
189,
172,
178,
180,
174,
185,
174,
153,
152,
140,
156,
141,
151,
156,
142,
149,
150,
136,
141,
141,
137,
144,
111,
124,
125,
120,
117,
130,
115,
126,
130,
102,
127,
110,
126,
99,
108,
93,
118,
90,
93,
92,
100,
99,
94,
93,
88,
106,
90,
105,
95,
90,
101,
94,
81,
81,
87,
64,
70,
72,
77,
88,
75,
87,
68,
75,
60,
58,
79,
68,
60,
71,
52,
55,
52,
64,
48,
69,
44,
47,
53,
50,
55,
65,
44,
40,
53,
58,
55,
40,
54,
36,
44,
60,
42,
36,
41,
39,
26,
32,
40,
38,
43,
38,
30,
32,
36,
33,
31,
27,
27,
27,
27,
25,
25,
28,
24,
18,
28,
18,
26,
22,
14,
14,
13,
22,
22,
13,
23,
7,
19,
14,
10,
10,
14,
17,
15,
8,
8,
7,
2,
4,
9,
8,
8,
9,
5,
4,
4,
2,
1,
5,
1,
2,
3,
3,
1,
0,
1,
0,
1,
1,
1,
1,
1,
0,
2,
0,
1,
0,
0,
1,
1,
0,
2,
0,
1,
0,
1,
1,
0,
1,
1,
0,
2,
0,
0,
1,
1,
0,
1,
0,
0,
0,
1,
1,
0,
0,
0,
0,
0,
2,
0,
1,
1,
0,
0,
0,
0,
0,
1,
0,
0,
1,
0,
1,
0,
1,
0,
0,
2,
0,
0,
0,
1,
0,
0,
0,
0,
0,
0,
0,
0,
0,
0,
0,
0,
0,
0,
0,
0,
2,
0,
0,
0,
0,
0,
0,
1,
0,
3,
0,
0,
0,
0,
0,
0,
1,
0,
0,
0,
1,
0,
0,
0,
0,
0,
0,
0,
0,
0,
0,
0,
0,
0,
0,
0,
1,
0,
1,
0,
0,
0,
0,
0,
0,
0,
2,
0,
0,
0,
0,
0,
0,
0,
1,
1,
0,
0,
1,
0,
0,
0,
0,
0,
0,
1,
0,
0,
0,
0,
1,
0,
0,
0,
0,
0,
0,
0,
0,
0,
0,
0,
0,
0,
0,
0,
0,
0,
0,
0,
0,
0,
0,
0,
0,
0,
0,
0,
0,
0,
0,
0,
0,
0,
0,
2,
0,
0,
0,
0,
0,
0,
0,
0,
0,
0,
0,
0,
0,
0,
0,
0,
1,
0,
0,
0,
0,
0,
0,
0,
0,
0,
0,
0,
0,
1,
0,
0,
0,
0,
0,
0,
0,
0,
0,
0,
0,
0,
0,
0,
0,
0,
0,
0,
0,
0,
0,
0,
0,
0,
0,
0,
0,
0,
0,
0,
1,
0,
0,
0,
0,
0,
0,
0,
0,
0,
0,
0,
0,
0,
0,
0,
0,
0,
0,
0,
0,
0,
0,
0,
0,
0,
0,
0,
0,
0,
0,
0,
0,
0,
0,
0,
0,
0,
0,
0,
0,
0,
0,
0,
0,
0,
0,
0,
0,
0,
0,
0,
0,
0,
0,
0,
0,
0,
0,
0,
0,
0,
0,
0,
0,
0,
0,
0,
0,
0,
0,
0,
0,
0,
0,
0,
0,
0,
0,
0,
0,
0,
0,
0,
0,
0,
0,
0,
0,
0,
0,
0,
0,
0,
0,
0,
0,
0,
0,
0,
0,
0,
0,
0,
0,
0,
0,
0,
0,
0,
0,
0,
0,
0,
0,
0,
0,
0,
0,
0,
0,
0,
0,
0,
0,
0,
0,
0,
0,
0,
0,
0,
0,
0,
0,
0,
0,
0,
0,
1,
0,
0,
0,
0,
0,
0,
0,
0,
0,
0,
0,
0,
0,
0,
0,
0,
0,
0,
0,
0,
0,
0,
0,
0,
0,
0,
0,
0,
0,
0,
0,
0,
0,
0,
0,
0,
0,
0,
0,
0,
0,
0,
0,
0,
0,
0,
0,
0,
0,
0,
0,
0,
0,
0,
0,
0,
0,
0,
0,
0,
0,
0,
0,
0,
0,
0,
0,
0,
0,
0,
0,
0,
0,
0,
0,
0,
0,
0,
0,
0,
0,
0,
0,
0,
0,
0,
0,
0,
0,
0,
0,
0,
0,
0,
0,
0,
0,
0,
0,
0,
0,
0,
0,
0,
0,
0,
0,
0,
0,
0,
0,
0,
0,
0,
0,
0,
0,
0,
0,
0,
0,
0,
0,
0,
0,
0,
0,
0,
0,
0,
0,
0,
0,
0,
0,
0,
0,
0,
0,
0,
0,
0,
0,
0,
0,
0,
0,
0,
0,
0,
0,
0,
0,
0,
0,
0,
0,
0,
0,
0,
0,
0,
0,
0,
0,
0,
0,
0,
0,
0,
0,
0,
0,
0,
0,
0,
0,
0,
0,
0,
0,
0,
0,
0,
0,
0,
0,
0,
0,
0,
0,
0,
0,
0,
0,
0,
0,
0,
0,
0,
0,
0,
0,
0,
0,
0,
0,
0,
0,
0,
0,
0,
0,
0,
0,
0,
0,
0,
0,
0,
0,
0,
0,
0,
0,
0,
0,
0,
0,
0,
0,
0,
0,
0,
0,
0,
0,
0,
0,
0,
0,
0,
0,
0,
0,
0,
0,
0,
0,
0,
0,
0,
0,
0,
0,
0,
0,
0,
0,
0,
0,
0,
0,
0,
0,
0,
0,
0,
0,
0,
0,
0,
0,
0,
0,
0,
0,
0,
0,
0,
0,
0,
0,
0,
0,
0,
0,
0,
0,
0,
0,
0,
0,
0,
0,
0,
0,
0,
0,
0,
0,
0,
0,
0,
0,
0,
0,
0,
0,
#ENDOFDATA   :