File: N132962/Quantification/20 keV/MMM1/SPI MM1 Barite[1][4].msa
#FORMAT      : EMSA/MAS Spectral Data File
#VERSION     : 1.0
#TITLE       : SPI MM1 Barite[1][all]
#DATE        : 11-MAR-2025
#TIME        : 13:26
#OWNER       : Unknown
#NPOINTS     : 4096
#NCOLUMNS    : 1
#XUNITS      : eV
#YUNITS      : counts
#DATATYPE    : Y
#XPERCHAN    : 9.99778
#OFFSET      : 1.69135
#BEAMKV      : 20
#SIGNALTYPE  : EDS
#ELEVANGLE   : 35
#AZIMANGLE   : 0
#LIVETIME    : 239.878
#REALTIME    : 258.922
#PROBECUR    : 1.02853
#TAUWIND     : 0
#TDEADLYR    : 0
#TACTLYR     : 0.045
#TALWIND     : 0.025
#CHOFFSET    : 0.0
#XLABEL      : Energy (eV)
#YLABEL      : Counts
#XPOSITION   : -0.46765
#YPOSITION   : -5.02625
#ZPOSITION   : 30.9284
#EDSDET      : SD
##SPECIMEN   : SPI MM1 Barite[1][all]
##DET_HASH   : 12273538-fd48-a23f-0a19-f1e6fa85caef
##CALIB_HASH : 6abaa72c-aa41-8738-0be9-f592914732f3
##WORKING    : 15.0 mm
##DET_NAME   : EDAX All
##DET_MODE   : MediumLE
#SPECTRUM    :
16,
25,
9,
38,
403,
1385,
2480,
5150,
12077,
15460,
8935,
5147,
5116,
5754,
8258,
21290,
72683,
138548,
105037,
38107,
16360,
9199,
5816,
5521,
6984,
9548,
10575,
7995,
5303,
4156,
4000,
4642,
5796,
5914,
5656,
5465,
4852,
4390,
4244,
4065,
4192,
4224,
4411,
4529,
4366,
4644,
4623,
4727,
5111,
5055,
5102,
5370,
5305,
5261,
5452,
5501,
5685,
6168,
6500,
6664,
6387,
6063,
5704,
5566,
5514,
5509,
5528,
5622,
5733,
5718,
5750,
5846,
6670,
8832,
15705,
36871,
73387,
92933,
69879,
33353,
13939,
10343,
10775,
9340,
7007,
5642,
5073,
5012,
5044,
5325,
5548,
5539,
5408,
5089,
5186,
5006,
4934,
5028,
4859,
4936,
4860,
4800,
5164,
4997,
4946,
4864,
4794,
4723,
4818,
4820,
4745,
4664,
4690,
4749,
4600,
4563,
4607,
4510,
4366,
4491,
4441,
4379,
4416,
4389,
4462,
4377,
4317,
4458,
4515,
5000,
5851,
6892,
7267,
6706,
5737,
4848,
4378,
4161,
4112,
4140,
4238,
4358,
4791,
5426,
6879,
11392,
24038,
48435,
75872,
85432,
70235,
41108,
18592,
8291,
4905,
4374,
4681,
6672,
12401,
23219,
35854,
43211,
39256,
29312,
19989,
13548,
9306,
6854,
6082,
7413,
10981,
14847,
16938,
14602,
10450,
6211,
4246,
3386,
3245,
3374,
3381,
3816,
5054,
6604,
7773,
7664,
6277,
4486,
3601,
3064,
3138,
3681,
4241,
4618,
4490,
3959,
3415,
3082,
2877,
2816,
2761,
2560,
2483,
2383,
2325,
2344,
2319,
2243,
2270,
2332,
2388,
2453,
2523,
2536,
2658,
2521,
2312,
2283,
2262,
2226,
2222,
2166,
2193,
2295,
2194,
2271,
2191,
2235,
2185,
2169,
2099,
2065,
2135,
2097,
2124,
2128,
2077,
2026,
2051,
2085,
2024,
2066,
1978,
1971,
1997,
1977,
2048,
2020,
2050,
2097,
2056,
1964,
1992,
1878,
1875,
1879,
1816,
1898,
1837,
1866,
1717,
1800,
1788,
1808,
1818,
1803,
1744,
1687,
1754,
1720,
1703,
1753,
1710,
1705,
1744,
1708,
1602,
1767,
1710,
1696,
1557,
1607,
1641,
1606,
1606,
1589,
1574,
1543,
1604,
1607,
1588,
1492,
1529,
1504,
1542,
1566,
1582,
1526,
1563,
1418,
1532,
1539,
1525,
1407,
1507,
1469,
1404,
1471,
1412,
1406,
1379,
1330,
1377,
1327,
1423,
1276,
1335,
1363,
1362,
1374,
1295,
1325,
1280,
1320,
1316,
1326,
1276,
1292,
1275,
1283,
1253,
1278,
1300,
1196,
1244,
1229,
1163,
1214,
1185,
1142,
1177,
1120,
1162,
1120,
1126,
1142,
1147,
1114,
1104,
1082,
1129,
1115,
1084,
1098,
1112,
1022,
1028,
1099,
1014,
1049,
1042,
972,
974,
1009,
965,
965,
1010,
965,
998,
964,
1006,
972,
919,
922,
954,
920,
897,
872,
877,
936,
921,
853,
844,
879,
875,
897,
839,
889,
837,
827,
807,
796,
821,
726,
805,
742,
805,
791,
796,
674,
752,
727,
733,
713,
718,
764,
745,
707,
660,
721,
727,
716,
661,
656,
690,
666,
711,
613,
609,
631,
658,
671,
642,
657,
645,
609,
596,
581,
599,
563,
580,
548,
601,
550,
519,
538,
555,
544,
525,
529,
547,
517,
513,
547,
499,
494,
493,
507,
489,
472,
510,
480,
498,
487,
476,
462,
463,
492,
451,
441,
380,
409,
466,
416,
388,
393,
407,
399,
401,
424,
409,
406,
419,
379,
400,
373,
364,
364,
362,
379,
390,
348,
356,
369,
311,
342,
360,
346,
316,
307,
322,
318,
312,
339,
325,
304,
274,
277,
281,
296,
296,
308,
323,
290,
277,
270,
282,
267,
275,
282,
250,
253,
254,
283,
241,
244,
235,
233,
269,
243,
218,
208,
247,
224,
214,
225,
205,
223,
219,
213,
213,
209,
172,
222,
201,
201,
223,
185,
191,
196,
192,
186,
169,
176,
152,
165,
184,
167,
175,
175,
166,
176,
157,
168,
145,
157,
128,
134,
156,
145,
131,
142,
120,
100,
137,
128,
119,
113,
117,
102,
115,
127,
121,
116,
102,
139,
116,
99,
115,
101,
125,
87,
109,
86,
96,
107,
87,
82,
79,
93,
73,
89,
74,
79,
83,
75,
60,
73,
67,
81,
71,
62,
84,
62,
58,
54,
72,
69,
63,
58,
65,
65,
55,
46,
55,
50,
56,
53,
54,
41,
43,
58,
50,
54,
42,
43,
46,
33,
29,
31,
33,
24,
29,
30,
26,
26,
25,
24,
24,
22,
25,
22,
21,
16,
23,
16,
15,
21,
19,
19,
12,
9,
12,
9,
11,
11,
4,
9,
11,
7,
4,
4,
6,
3,
6,
3,
2,
0,
1,
2,
1,
5,
0,
1,
3,
2,
1,
0,
2,
1,
2,
1,
3,
1,
2,
1,
2,
1,
1,
3,
2,
1,
1,
3,
1,
1,
0,
0,
2,
0,
0,
0,
0,
0,
4,
0,
2,
1,
1,
0,
0,
1,
0,
1,
1,
0,
2,
1,
0,
1,
2,
1,
0,
2,
0,
0,
2,
0,
1,
0,
1,
1,
0,
0,
0,
0,
0,
0,
1,
0,
1,
2,
0,
0,
0,
2,
3,
1,
2,
1,
0,
1,
1,
0,
0,
0,
0,
2,
0,
0,
1,
0,
1,
0,
3,
1,
0,
0,
0,
2,
0,
1,
0,
0,
1,
0,
2,
0,
0,
1,
0,
0,
0,
1,
0,
0,
1,
0,
1,
0,
0,
0,
0,
0,
0,
0,
1,
0,
0,
0,
0,
0,
0,
1,
1,
0,
0,
0,
0,
0,
0,
0,
1,
0,
0,
0,
0,
0,
0,
0,
1,
1,
0,
0,
1,
0,
0,
0,
1,
1,
0,
0,
0,
1,
0,
0,
0,
0,
0,
0,
1,
0,
0,
0,
1,
0,
0,
1,
0,
0,
0,
1,
0,
0,
0,
0,
0,
1,
1,
0,
0,
0,
0,
0,
0,
0,
0,
0,
1,
0,
0,
1,
1,
0,
0,
0,
1,
0,
0,
0,
0,
0,
0,
0,
0,
0,
0,
0,
1,
0,
0,
1,
0,
0,
0,
0,
0,
2,
0,
0,
1,
0,
0,
0,
1,
0,
0,
0,
0,
0,
0,
0,
0,
1,
1,
1,
0,
0,
0,
0,
0,
0,
1,
0,
0,
0,
0,
0,
0,
0,
0,
0,
0,
2,
0,
0,
0,
0,
0,
0,
1,
0,
0,
0,
0,
1,
0,
0,
0,
0,
1,
0,
1,
0,
0,
0,
0,
1,
0,
0,
0,
0,
0,
0,
0,
0,
0,
0,
0,
0,
0,
0,
0,
0,
0,
0,
0,
0,
0,
0,
0,
0,
0,
0,
0,
0,
0,
1,
0,
0,
0,
0,
0,
0,
0,
0,
1,
0,
0,
0,
0,
0,
0,
0,
0,
0,
0,
0,
0,
0,
0,
0,
0,
0,
0,
0,
0,
0,
0,
0,
0,
0,
0,
0,
0,
0,
0,
0,
0,
0,
0,
0,
0,
0,
0,
0,
0,
0,
0,
0,
0,
0,
0,
0,
0,
0,
0,
0,
0,
0,
0,
1,
0,
0,
0,
0,
0,
0,
0,
0,
0,
0,
0,
0,
0,
0,
0,
0,
0,
0,
0,
0,
0,
0,
0,
0,
0,
0,
0,
0,
0,
0,
0,
0,
0,
0,
0,
0,
0,
0,
1,
0,
0,
0,
0,
0,
0,
0,
0,
1,
0,
0,
0,
0,
0,
0,
0,
0,
0,
0,
0,
0,
0,
0,
0,
0,
0,
0,
0,
0,
0,
0,
0,
0,
0,
0,
0,
0,
0,
0,
0,
0,
0,
0,
0,
0,
0,
0,
0,
0,
0,
0,
0,
0,
0,
0,
0,
0,
0,
0,
0,
0,
0,
0,
0,
0,
0,
0,
0,
0,
0,
0,
0,
0,
0,
0,
0,
0,
0,
0,
0,
0,
0,
0,
0,
0,
0,
0,
0,
0,
0,
0,
0,
0,
0,
0,
0,
0,
0,
0,
0,
0,
0,
0,
0,
0,
0,
0,
0,
0,
0,
0,
0,
0,
0,
0,
0,
0,
0,
0,
0,
0,
0,
0,
0,
0,
0,
0,
0,
0,
0,
0,
0,
0,
0,
0,
0,
0,
0,
0,
0,
0,
0,
0,
0,
0,
0,
0,
0,
0,
0,
0,
0,
0,
0,
0,
0,
0,
0,
0,
0,
0,
0,
0,
0,
0,
0,
0,
0,
0,
0,
0,
0,
0,
0,
0,
0,
0,
0,
0,
0,
0,
0,
0,
0,
0,
0,
0,
0,
0,
0,
0,
0,
0,
0,
0,
0,
0,
0,
0,
0,
0,
0,
0,
0,
0,
0,
0,
0,
0,
0,
0,
0,
0,
0,
0,
0,
0,
0,
0,
0,
0,
0,
0,
0,
0,
0,
0,
0,
0,
0,
0,
0,
0,
0,
0,
0,
0,
0,
0,
0,
0,
0,
0,
0,
0,
0,
0,
0,
0,
0,
0,
0,
0,
0,
0,
0,
0,
0,
0,
0,
0,
0,
0,
0,
0,
0,
0,
0,
0,
0,
0,
0,
0,
0,
0,
#ENDOFDATA   :