File: N132962/Quantification/20 keV/MMM1/SPI MM1 Fluorapatite[3][4].msa
#FORMAT      : EMSA/MAS Spectral Data File
#VERSION     : 1.0
#TITLE       : SPI MM1 Fluorapatite[3][all]
#DATE        : 11-MAR-2025
#TIME        : 14:39
#OWNER       : Unknown
#NPOINTS     : 4096
#NCOLUMNS    : 1
#XUNITS      : eV
#YUNITS      : counts
#DATATYPE    : Y
#XPERCHAN    : 9.99778
#OFFSET      : 1.69135
#BEAMKV      : 20
#SIGNALTYPE  : EDS
#ELEVANGLE   : 35
#AZIMANGLE   : 0
#LIVETIME    : 239.891
#REALTIME    : 255.658
#PROBECUR    : 1.02809
#TAUWIND     : 0
#TDEADLYR    : 0
#TACTLYR     : 0.045
#TALWIND     : 0.025
#CHOFFSET    : 0.0
#XLABEL      : Energy (eV)
#YLABEL      : Counts
#XPOSITION   : -2.64905
#YPOSITION   : 1.86629
#ZPOSITION   : 30.9284
#EDSDET      : SD
##SPECIMEN   : SPI MM1 Fluorapatite[3][all]
##D2STDCMP   : Fluorapatite,(O:35.868),(F:3.5492),(P:23.146),(Ca:37.4368)
##DET_HASH   : 12273538-fd48-a23f-0a19-f1e6fa85caef
##CALIB_HASH : 6abaa72c-aa41-8738-0be9-f592914732f3
##WORKING    : 15.0 mm
##DET_NAME   : EDAX All
##DET_MODE   : MediumLE
#SPECTRUM    :
28,
31,
14,
25,
105,
370,
1110,
3474,
11252,
18783,
13331,
6619,
3583,
2613,
3152,
8220,
30521,
59534,
44399,
12764,
3214,
4452,
8121,
7723,
4010,
2535,
2350,
2537,
2799,
2832,
3012,
3089,
3213,
3645,
4183,
4481,
4037,
3741,
3797,
3906,
4075,
4178,
4173,
4421,
4464,
4450,
4709,
4828,
4906,
5009,
5080,
4988,
4914,
4981,
5018,
5166,
5498,
6267,
6989,
7568,
7724,
7408,
7560,
10177,
19475,
47329,
101521,
139123,
108886,
50267,
18847,
11749,
9109,
6052,
4374,
4197,
4809,
5148,
4521,
3859,
3392,
3305,
3366,
3316,
3323,
3330,
3267,
3097,
3142,
3214,
3141,
3092,
3159,
3033,
3026,
3002,
3042,
3133,
2970,
2975,
2957,
3032,
2910,
2919,
2975,
2876,
2927,
2924,
2913,
2796,
2724,
2826,
2666,
2700,
2685,
2900,
3082,
3859,
5264,
10522,
29664,
76717,
144232,
182358,
152722,
86219,
33553,
10238,
4108,
3512,
4462,
7832,
14355,
21801,
24097,
19070,
11001,
5217,
2779,
2003,
1845,
1834,
1745,
1764,
1758,
1669,
1666,
1706,
1653,
1695,
1706,
1695,
1687,
1704,
1804,
1718,
1777,
1673,
1680,
1758,
1873,
1927,
1877,
1804,
1649,
1572,
1647,
1625,
1720,
1668,
1552,
1608,
1559,
1634,
1805,
1785,
1746,
1662,
1551,
1511,
1481,
1475,
1442,
1446,
1427,
1546,
1436,
1515,
1561,
1705,
1698,
1627,
1582,
1469,
1376,
1390,
1378,
1393,
1324,
1265,
1341,
1312,
1358,
1386,
1299,
1227,
1221,
1151,
1196,
1225,
1223,
1309,
1292,
1278,
1306,
1201,
1200,
1171,
1121,
1104,
1118,
1106,
1062,
1093,
1044,
1090,
1045,
1001,
1057,
1027,
1021,
1045,
1046,
974,
1044,
1012,
1017,
1071,
1039,
1013,
951,
1039,
1035,
950,
1033,
1116,
1134,
1076,
1069,
1027,
991,
935,
912,
891,
913,
908,
910,
929,
859,
869,
853,
783,
793,
826,
898,
833,
799,
821,
785,
812,
805,
789,
798,
774,
746,
754,
769,
729,
768,
737,
719,
746,
735,
761,
718,
751,
768,
705,
702,
691,
691,
639,
682,
663,
671,
724,
673,
630,
649,
614,
642,
607,
687,
605,
656,
609,
642,
666,
575,
612,
564,
575,
647,
641,
573,
611,
595,
618,
557,
575,
566,
583,
572,
489,
496,
539,
532,
533,
498,
492,
523,
549,
494,
560,
483,
506,
462,
504,
479,
506,
481,
474,
457,
440,
491,
469,
455,
425,
453,
441,
462,
448,
435,
420,
435,
468,
421,
396,
418,
415,
429,
403,
378,
416,
403,
405,
380,
395,
366,
392,
404,
394,
362,
391,
369,
386,
360,
393,
355,
357,
316,
319,
355,
363,
343,
325,
335,
324,
339,
360,
353,
335,
322,
306,
317,
313,
312,
307,
310,
297,
271,
302,
287,
294,
282,
258,
264,
305,
319,
287,
278,
280,
265,
252,
262,
271,
250,
244,
235,
222,
225,
240,
266,
252,
241,
222,
232,
206,
250,
219,
215,
240,
222,
227,
245,
228,
209,
193,
210,
206,
197,
194,
185,
195,
200,
203,
205,
195,
171,
180,
179,
179,
181,
160,
169,
161,
169,
141,
145,
197,
147,
152,
149,
137,
166,
155,
148,
158,
159,
168,
178,
164,
143,
148,
143,
152,
148,
125,
141,
135,
127,
133,
128,
138,
117,
128,
136,
131,
124,
125,
109,
128,
125,
126,
108,
113,
117,
104,
110,
93,
101,
111,
99,
97,
103,
106,
96,
90,
102,
72,
102,
100,
103,
80,
97,
108,
81,
76,
77,
93,
97,
76,
70,
92,
75,
75,
78,
72,
51,
70,
65,
71,
64,
67,
65,
61,
82,
73,
60,
58,
56,
84,
64,
56,
64,
52,
64,
50,
53,
45,
45,
45,
49,
49,
45,
35,
51,
44,
51,
38,
41,
45,
52,
47,
42,
42,
36,
51,
47,
34,
40,
46,
37,
39,
32,
37,
59,
27,
38,
36,
37,
35,
27,
31,
33,
28,
30,
33,
29,
30,
25,
23,
37,
17,
25,
22,
23,
24,
19,
15,
17,
22,
27,
16,
16,
16,
22,
22,
23,
13,
26,
14,
20,
17,
22,
14,
14,
19,
13,
15,
9,
13,
12,
4,
17,
11,
10,
12,
13,
8,
13,
4,
11,
11,
5,
10,
4,
14,
8,
4,
5,
9,
5,
9,
5,
4,
2,
2,
4,
7,
2,
4,
3,
3,
4,
4,
4,
1,
0,
0,
1,
0,
4,
0,
0,
0,
0,
1,
1,
1,
0,
1,
0,
1,
1,
0,
0,
0,
0,
0,
1,
0,
0,
0,
2,
0,
1,
0,
0,
0,
0,
0,
0,
0,
0,
0,
2,
0,
0,
0,
0,
0,
0,
0,
0,
0,
0,
0,
0,
0,
0,
0,
0,
0,
0,
0,
0,
0,
0,
0,
0,
0,
0,
0,
0,
0,
0,
0,
1,
0,
0,
0,
0,
0,
0,
0,
0,
0,
0,
0,
0,
1,
0,
0,
0,
0,
0,
0,
0,
0,
0,
0,
0,
0,
0,
1,
0,
0,
0,
0,
0,
0,
1,
0,
0,
0,
0,
0,
0,
0,
0,
0,
0,
0,
0,
0,
0,
0,
1,
0,
0,
0,
0,
0,
0,
0,
0,
0,
0,
0,
0,
0,
0,
0,
0,
0,
0,
1,
0,
0,
0,
0,
0,
0,
0,
0,
0,
0,
0,
0,
0,
0,
0,
0,
0,
0,
0,
0,
0,
0,
0,
0,
0,
0,
0,
0,
0,
0,
0,
0,
0,
0,
0,
0,
0,
0,
0,
0,
0,
0,
0,
0,
0,
0,
0,
0,
0,
0,
0,
0,
0,
0,
0,
0,
0,
0,
0,
0,
1,
0,
1,
0,
0,
0,
0,
0,
0,
0,
0,
0,
0,
0,
0,
0,
0,
0,
0,
0,
0,
0,
0,
0,
0,
0,
0,
0,
0,
0,
0,
0,
0,
0,
0,
0,
0,
0,
0,
0,
0,
0,
0,
0,
0,
0,
0,
0,
0,
0,
0,
0,
0,
0,
0,
0,
0,
0,
0,
0,
0,
0,
0,
0,
0,
0,
0,
0,
0,
0,
0,
0,
0,
0,
0,
0,
0,
0,
0,
0,
0,
0,
1,
0,
0,
0,
0,
0,
0,
0,
0,
0,
0,
0,
0,
0,
0,
0,
0,
0,
0,
0,
0,
0,
0,
0,
0,
0,
0,
0,
0,
0,
0,
0,
0,
0,
0,
0,
0,
0,
0,
0,
0,
0,
0,
0,
0,
0,
0,
0,
0,
0,
0,
0,
0,
0,
0,
0,
0,
0,
0,
0,
0,
0,
0,
0,
0,
0,
0,
0,
0,
0,
0,
0,
0,
0,
0,
0,
0,
0,
0,
0,
0,
0,
0,
0,
0,
0,
0,
0,
0,
0,
0,
0,
0,
0,
0,
0,
0,
0,
0,
0,
0,
0,
0,
0,
0,
0,
0,
0,
0,
0,
0,
0,
0,
0,
0,
0,
0,
0,
0,
0,
0,
0,
0,
0,
0,
0,
0,
0,
0,
0,
0,
0,
0,
0,
0,
0,
0,
0,
0,
0,
0,
0,
0,
0,
0,
0,
0,
0,
0,
0,
0,
0,
0,
0,
0,
0,
0,
0,
0,
0,
0,
0,
0,
0,
0,
0,
0,
0,
0,
0,
0,
0,
0,
0,
0,
0,
0,
0,
0,
0,
0,
0,
0,
0,
0,
0,
0,
0,
0,
0,
0,
0,
0,
0,
0,
0,
0,
0,
0,
0,
0,
0,
0,
0,
0,
0,
0,
0,
0,
0,
0,
0,
0,
0,
0,
0,
0,
0,
0,
0,
0,
0,
0,
0,
0,
0,
0,
0,
0,
0,
0,
0,
0,
0,
0,
0,
0,
0,
0,
0,
0,
0,
0,
0,
0,
0,
0,
0,
0,
0,
0,
0,
0,
0,
0,
0,
0,
0,
0,
0,
0,
0,
0,
0,
0,
0,
0,
0,
0,
0,
0,
0,
0,
0,
0,
0,
0,
0,
0,
0,
0,
0,
0,
0,
0,
0,
0,
0,
0,
0,
0,
0,
0,
0,
0,
0,
0,
0,
0,
0,
0,
0,
0,
0,
0,
0,
0,
0,
0,
0,
0,
0,
0,
0,
0,
0,
0,
0,
0,
0,
0,
0,
0,
0,
0,
0,
0,
0,
0,
0,
0,
0,
0,
0,
0,
0,
0,
0,
0,
0,
0,
0,
0,
0,
0,
0,
0,
0,
0,
0,
0,
0,
0,
0,
0,
0,
0,
0,
0,
0,
0,
0,
0,
0,
0,
0,
0,
0,
0,
0,
0,
0,
0,
0,
0,
0,
0,
0,
0,
0,
0,
0,
0,
0,
0,
0,
0,
0,
0,
0,
0,
0,
0,
0,
0,
0,
0,
0,
0,
0,
0,
0,
0,
0,
0,
0,
0,
0,
0,
0,
0,
0,
0,
0,
0,
0,
0,
0,
0,
0,
0,
0,
0,
0,
0,
0,
#ENDOFDATA   :