File: N132962/Quantification/20 keV/MMM1/SPI MM1 Diopside[3][4].msa
#FORMAT      : EMSA/MAS Spectral Data File
#VERSION     : 1.0
#TITLE       : SPI MM1dup Diopside[3][all]
#DATE        : 12-MAR-2025
#TIME        : 15:39
#OWNER       : Unknown
#NPOINTS     : 4096
#NCOLUMNS    : 1
#XUNITS      : eV
#YUNITS      : counts
#DATATYPE    : Y
#XPERCHAN    : 9.99778
#OFFSET      : 1.69135
#BEAMKV      : 20
#SIGNALTYPE  : EDS
#ELEVANGLE   : 35
#AZIMANGLE   : 0
#LIVETIME    : 239.855
#REALTIME    : 255.2693
#PROBECUR    : 1.02695
#TAUWIND     : 0
#TDEADLYR    : 0
#TACTLYR     : 0.045
#TALWIND     : 0.025
#CHOFFSET    : 0.0
#XLABEL      : Energy (eV)
#YLABEL      : Counts
#XPOSITION   : 2.1744
#YPOSITION   : 1.45927
#ZPOSITION   : 31.03608
#EDSDET      : SD
##SPECIMEN   : SPI MM1dup Diopside[3][all]
##D2STDCMP   : Diopside,(O:44.3298),(Mg:11.2237),(Si:25.939),(Ca:18.5075)
##DET_HASH   : 12273538-fd48-a23f-0a19-f1e6fa85caef
##CALIB_HASH : 6abaa72c-aa41-8738-0be9-f592914732f3
##WORKING    : 15.0 mm
##DET_NAME   : EDAX All
##DET_MODE   : MediumLE
#SPECTRUM    :
21,
34,
16,
15,
63,
248,
864,
2592,
7496,
10995,
6918,
3829,
2751,
2584,
3947,
13660,
54031,
104827,
77347,
20920,
3334,
1738,
1930,
2481,
2574,
2341,
2340,
2531,
2728,
2849,
2811,
3018,
3247,
3771,
4835,
5211,
4610,
4320,
4923,
8833,
28180,
67357,
81494,
47003,
15185,
5500,
3918,
4285,
5085,
6494,
6563,
5710,
5068,
4981,
6107,
16373,
63273,
162275,
221946,
157579,
62499,
21316,
9817,
5380,
3797,
3368,
3288,
2812,
2760,
2557,
2689,
2552,
2659,
2685,
2863,
3106,
2963,
2816,
2606,
2618,
2594,
2638,
2561,
2626,
2714,
2680,
2607,
2655,
2596,
2510,
2618,
2480,
2522,
2525,
2490,
2436,
2465,
2472,
2535,
2714,
2600,
2473,
2459,
2403,
2403,
2406,
2378,
2354,
2306,
2380,
2262,
2367,
2294,
2332,
2399,
2612,
2800,
2762,
3384,
5779,
14304,
35364,
64964,
81917,
69451,
39446,
16069,
5484,
2721,
2509,
2936,
4444,
7349,
10512,
11673,
9403,
5738,
3190,
2094,
1770,
1730,
1667,
1617,
1596,
1627,
1560,
1556,
1515,
1514,
1548,
1542,
1567,
1521,
1464,
1534,
1466,
1423,
1442,
1439,
1411,
1438,
1342,
1399,
1471,
1470,
1434,
1450,
1397,
1361,
1325,
1362,
1377,
1333,
1380,
1269,
1354,
1284,
1376,
1291,
1417,
1411,
1401,
1463,
1359,
1306,
1210,
1193,
1160,
1263,
1181,
1216,
1210,
1232,
1182,
1205,
1223,
1255,
1211,
1232,
1213,
1118,
1113,
996,
1017,
1054,
1015,
1073,
1107,
1046,
1127,
1313,
1554,
1917,
2190,
2176,
1825,
1396,
1180,
973,
938,
935,
976,
962,
897,
906,
990,
880,
931,
856,
894,
875,
867,
844,
945,
1031,
996,
1028,
933,
908,
853,
808,
764,
764,
779,
788,
809,
793,
814,
843,
834,
822,
809,
722,
749,
728,
725,
737,
684,
745,
723,
707,
700,
728,
679,
685,
711,
694,
726,
673,
691,
693,
646,
623,
632,
648,
654,
656,
625,
612,
629,
586,
647,
631,
594,
625,
593,
601,
579,
596,
544,
535,
578,
588,
545,
580,
560,
536,
512,
521,
521,
544,
544,
562,
548,
509,
470,
499,
523,
519,
516,
523,
461,
515,
501,
477,
489,
505,
468,
467,
524,
467,
448,
450,
448,
458,
446,
455,
455,
397,
433,
453,
411,
413,
463,
424,
445,
420,
443,
370,
417,
407,
365,
398,
378,
382,
391,
383,
386,
389,
398,
357,
351,
365,
340,
355,
380,
362,
360,
353,
322,
344,
353,
338,
311,
321,
314,
325,
311,
328,
310,
312,
314,
313,
308,
291,
310,
314,
303,
288,
265,
287,
285,
289,
289,
266,
277,
291,
296,
278,
264,
259,
261,
253,
239,
262,
271,
225,
254,
234,
236,
241,
230,
230,
226,
232,
211,
203,
232,
217,
234,
217,
214,
235,
211,
202,
213,
222,
198,
209,
209,
191,
191,
193,
191,
184,
175,
166,
177,
179,
192,
179,
164,
183,
197,
174,
171,
146,
179,
141,
143,
180,
145,
155,
156,
154,
164,
163,
145,
151,
144,
143,
147,
140,
156,
134,
149,
128,
133,
131,
118,
138,
117,
122,
118,
123,
126,
151,
115,
93,
122,
128,
116,
111,
121,
119,
123,
127,
86,
95,
96,
82,
112,
86,
88,
89,
110,
91,
99,
101,
89,
96,
79,
92,
84,
91,
99,
88,
90,
80,
77,
88,
75,
72,
83,
70,
81,
72,
70,
78,
72,
60,
71,
80,
63,
75,
56,
64,
82,
67,
66,
56,
46,
57,
69,
61,
63,
62,
56,
63,
55,
56,
53,
52,
70,
55,
53,
38,
57,
43,
45,
42,
40,
37,
47,
56,
45,
47,
46,
47,
55,
35,
44,
40,
49,
34,
39,
32,
30,
35,
36,
48,
41,
41,
37,
26,
29,
24,
41,
32,
42,
31,
37,
29,
28,
27,
25,
20,
24,
25,
22,
25,
25,
18,
21,
25,
24,
24,
21,
20,
24,
24,
18,
23,
26,
25,
20,
14,
22,
14,
14,
17,
21,
15,
13,
19,
10,
12,
17,
10,
16,
10,
16,
13,
13,
10,
14,
10,
12,
14,
12,
8,
12,
12,
10,
14,
11,
9,
6,
11,
7,
5,
5,
5,
8,
8,
8,
6,
7,
3,
4,
5,
4,
6,
3,
4,
6,
3,
2,
2,
2,
3,
4,
3,
2,
2,
3,
1,
0,
1,
1,
0,
0,
1,
1,
1,
0,
3,
1,
0,
0,
0,
1,
0,
0,
1,
1,
1,
0,
0,
1,
0,
0,
0,
0,
0,
0,
0,
0,
0,
0,
0,
0,
0,
0,
1,
0,
2,
1,
0,
1,
1,
1,
0,
0,
0,
0,
0,
1,
1,
0,
0,
0,
0,
0,
0,
0,
0,
0,
0,
0,
0,
0,
1,
0,
0,
0,
0,
0,
0,
0,
0,
0,
0,
0,
0,
0,
0,
0,
0,
0,
0,
0,
0,
0,
0,
0,
0,
0,
0,
0,
0,
1,
0,
0,
0,
0,
0,
0,
0,
0,
0,
0,
0,
0,
0,
0,
0,
0,
0,
0,
0,
0,
0,
0,
0,
0,
0,
0,
0,
0,
0,
0,
0,
0,
0,
1,
0,
0,
0,
0,
0,
0,
0,
0,
0,
0,
0,
0,
0,
0,
0,
0,
0,
0,
0,
1,
0,
0,
0,
0,
0,
0,
0,
0,
0,
0,
0,
0,
0,
0,
0,
0,
0,
0,
0,
0,
0,
0,
0,
0,
0,
0,
0,
0,
0,
0,
0,
0,
0,
0,
0,
0,
0,
0,
0,
0,
0,
0,
0,
0,
0,
0,
0,
0,
0,
0,
0,
0,
0,
0,
0,
0,
0,
0,
0,
0,
0,
0,
0,
0,
0,
0,
0,
0,
0,
0,
0,
0,
0,
0,
0,
0,
0,
0,
0,
0,
0,
0,
0,
0,
0,
0,
0,
0,
0,
0,
0,
0,
0,
0,
0,
0,
0,
0,
0,
0,
0,
0,
0,
0,
0,
0,
0,
0,
0,
0,
0,
0,
0,
0,
0,
0,
0,
0,
0,
0,
0,
0,
0,
0,
0,
0,
0,
0,
0,
0,
0,
0,
0,
0,
0,
0,
0,
0,
0,
0,
0,
0,
0,
0,
0,
0,
0,
0,
0,
0,
0,
0,
0,
0,
0,
0,
0,
0,
0,
0,
0,
0,
0,
0,
0,
0,
0,
0,
0,
0,
0,
0,
0,
0,
0,
0,
0,
0,
0,
0,
0,
0,
0,
0,
0,
0,
0,
0,
0,
0,
0,
0,
0,
0,
0,
0,
0,
0,
0,
0,
0,
0,
0,
0,
0,
0,
0,
0,
0,
0,
0,
0,
0,
0,
0,
0,
0,
0,
0,
0,
0,
0,
0,
0,
0,
0,
0,
0,
0,
0,
0,
0,
0,
0,
0,
0,
0,
0,
0,
0,
0,
0,
0,
0,
0,
0,
0,
0,
0,
0,
0,
0,
0,
0,
0,
0,
0,
0,
0,
0,
0,
0,
0,
0,
0,
0,
0,
0,
0,
0,
0,
0,
0,
0,
0,
0,
0,
0,
0,
0,
0,
0,
0,
0,
0,
0,
0,
0,
0,
0,
0,
0,
0,
0,
0,
0,
0,
0,
0,
0,
0,
0,
0,
0,
0,
0,
0,
0,
0,
0,
0,
0,
0,
0,
0,
0,
0,
0,
0,
0,
0,
0,
0,
0,
0,
0,
0,
0,
0,
0,
0,
0,
0,
0,
0,
0,
0,
0,
0,
0,
0,
0,
0,
0,
0,
0,
0,
0,
0,
0,
0,
0,
0,
0,
0,
0,
0,
0,
0,
0,
0,
0,
0,
0,
0,
0,
0,
0,
0,
0,
0,
0,
0,
0,
0,
0,
0,
0,
0,
0,
0,
0,
0,
0,
0,
0,
0,
0,
0,
0,
0,
0,
0,
0,
0,
0,
0,
0,
0,
0,
0,
0,
0,
0,
0,
0,
0,
0,
0,
0,
0,
0,
0,
0,
0,
0,
0,
0,
0,
0,
0,
0,
0,
0,
0,
0,
0,
0,
0,
0,
0,
0,
0,
0,
0,
0,
0,
0,
0,
0,
0,
0,
0,
0,
0,
0,
0,
0,
0,
0,
0,
0,
0,
0,
0,
0,
0,
0,
0,
0,
0,
0,
0,
0,
0,
0,
0,
0,
0,
0,
0,
0,
0,
0,
0,
0,
0,
0,
0,
0,
0,
0,
0,
0,
0,
0,
0,
0,
0,
0,
0,
0,
0,
0,
0,
0,
0,
0,
0,
0,
0,
0,
0,
0,
0,
0,
0,
0,
0,
0,
0,
0,
0,
0,
0,
0,
0,
0,
0,
0,
0,
0,
0,
0,
0,
0,
0,
0,
0,
0,
0,
0,
0,
0,
0,
0,
0,
0,
0,
0,
0,
0,
0,
0,
0,
0,
0,
0,
0,
0,
0,
0,
0,
0,
0,
0,
0,
0,
0,
0,
#ENDOFDATA   :