File: N132962/Quantification/20 keV/MMM1/SPI MM1 Benitoite[0][4].msa
#FORMAT      : EMSA/MAS Spectral Data File
#VERSION     : 1.0
#TITLE       : SPI MM1 Benitoite[0][all]
#DATE        : 11-MAR-2025
#TIME        : 13:16
#OWNER       : Unknown
#NPOINTS     : 4096
#NCOLUMNS    : 1
#XUNITS      : eV
#YUNITS      : counts
#DATATYPE    : Y
#XPERCHAN    : 9.99778
#OFFSET      : 1.69135
#BEAMKV      : 20
#SIGNALTYPE  : EDS
#ELEVANGLE   : 35
#AZIMANGLE   : 0
#LIVETIME    : 239.852
#REALTIME    : 256.75
#PROBECUR    : 1.02699
#TAUWIND     : 0
#TDEADLYR    : 0
#TACTLYR     : 0.045
#TALWIND     : 0.025
#CHOFFSET    : 0.0
#XLABEL      : Energy (eV)
#YLABEL      : Counts
#XPOSITION   : -3.27661
#YPOSITION   : -4.90693
#ZPOSITION   : 30.9284
#EDSDET      : SD
##SPECIMEN   : SPI MM1 Benitoite[0][all]
##D2STDCMP   : Benitoite,(O:34.828),(Si:20.3791),(Ti:11.5776),(Ba:33.2153)
##DET_HASH   : 12273538-fd48-a23f-0a19-f1e6fa85caef
##CALIB_HASH : 6abaa72c-aa41-8738-0be9-f592914732f3
##WORKING    : 15.0 mm
##DET_NAME   : EDAX All
##DET_MODE   : MediumLE
#SPECTRUM    :
27,
20,
6,
24,
93,
427,
1372,
3665,
9887,
12722,
7476,
5091,
7304,
9764,
12159,
22796,
66962,
123913,
91337,
27628,
7996,
4674,
3404,
3473,
4208,
5385,
6152,
5314,
4045,
3492,
3394,
3827,
4633,
4786,
4599,
4605,
4267,
3847,
3881,
3875,
3973,
3987,
4145,
4155,
4280,
4407,
4563,
4752,
4856,
5342,
5475,
5499,
5510,
5632,
6600,
13631,
45952,
114042,
153857,
110119,
45940,
17328,
8944,
5519,
4055,
3826,
3893,
3889,
3916,
4053,
3986,
4114,
4111,
4194,
4402,
4312,
4346,
4197,
4096,
4187,
4033,
4050,
3954,
4004,
3954,
3923,
4150,
4047,
4003,
4206,
4407,
4554,
4567,
4391,
4148,
3987,
3811,
3916,
3911,
3959,
3943,
3957,
4063,
3967,
3930,
3910,
3873,
3760,
3778,
3787,
3723,
3720,
3728,
3688,
3770,
3622,
3708,
3672,
3602,
3556,
3491,
3375,
3499,
3423,
3396,
3296,
3425,
3437,
3493,
3716,
4153,
4698,
4851,
4644,
3957,
3567,
3435,
3232,
3210,
3288,
3263,
3297,
3613,
3967,
5037,
7703,
15934,
33178,
58335,
78236,
79106,
60858,
35731,
16495,
7296,
4077,
3517,
4414,
7624,
13620,
20864,
25256,
24321,
20676,
16823,
13172,
9405,
6255,
4713,
4795,
6340,
8488,
9493,
8396,
5965,
3985,
2926,
2416,
2317,
2364,
2555,
2753,
3354,
4184,
4953,
4844,
4132,
3036,
2466,
2245,
2263,
2621,
2918,
3153,
3011,
2684,
2395,
2202,
2093,
2042,
2060,
1901,
1911,
1833,
1778,
1811,
1918,
1823,
1912,
1882,
1950,
1971,
1877,
1997,
2042,
1916,
1836,
1818,
1738,
1765,
1692,
1697,
1630,
1684,
1661,
1654,
1558,
1617,
1560,
1623,
1553,
1560,
1529,
1583,
1566,
1559,
1561,
1527,
1445,
1487,
1509,
1538,
1523,
1521,
1536,
1468,
1546,
1452,
1540,
1468,
1514,
1501,
1461,
1397,
1368,
1417,
1353,
1330,
1361,
1386,
1329,
1346,
1352,
1344,
1260,
1266,
1317,
1213,
1234,
1287,
1194,
1240,
1287,
1251,
1289,
1277,
1210,
1192,
1246,
1230,
1170,
1172,
1127,
1098,
1213,
1180,
1126,
1143,
1129,
1093,
1075,
1114,
1105,
1113,
1046,
1107,
1103,
1086,
1147,
1127,
1149,
1095,
1075,
1065,
1021,
1063,
989,
981,
1018,
970,
991,
1014,
992,
981,
1027,
1017,
969,
949,
947,
876,
926,
957,
943,
959,
921,
909,
917,
895,
880,
937,
879,
883,
905,
896,
855,
860,
859,
870,
814,
797,
822,
821,
818,
805,
818,
817,
745,
754,
825,
800,
715,
747,
771,
804,
777,
740,
748,
777,
724,
722,
722,
704,
746,
720,
656,
635,
688,
680,
655,
649,
666,
678,
661,
657,
663,
593,
608,
600,
624,
599,
606,
615,
589,
616,
662,
552,
619,
573,
599,
580,
543,
575,
590,
558,
546,
562,
534,
538,
541,
550,
533,
492,
515,
510,
499,
491,
495,
509,
496,
525,
465,
519,
436,
469,
488,
457,
475,
440,
461,
440,
444,
468,
422,
436,
398,
425,
419,
396,
378,
416,
361,
405,
395,
382,
396,
402,
385,
363,
389,
366,
344,
358,
357,
377,
362,
354,
314,
300,
346,
330,
331,
321,
316,
317,
316,
331,
304,
361,
294,
308,
281,
292,
294,
308,
284,
292,
273,
288,
277,
257,
274,
277,
242,
296,
247,
259,
268,
246,
233,
229,
235,
229,
232,
275,
242,
242,
225,
215,
230,
233,
232,
202,
199,
220,
231,
209,
213,
203,
213,
210,
207,
185,
203,
193,
177,
207,
184,
170,
182,
175,
201,
181,
166,
178,
146,
176,
169,
177,
133,
160,
160,
159,
136,
141,
160,
154,
142,
144,
139,
148,
120,
126,
137,
119,
100,
130,
114,
119,
133,
112,
128,
102,
112,
116,
108,
124,
105,
112,
104,
118,
95,
103,
98,
106,
100,
103,
84,
101,
89,
89,
73,
98,
78,
83,
103,
91,
87,
77,
93,
76,
82,
82,
75,
75,
71,
74,
82,
65,
72,
66,
67,
73,
69,
63,
61,
72,
64,
50,
53,
55,
48,
50,
60,
57,
53,
45,
46,
49,
45,
50,
41,
49,
36,
33,
33,
44,
36,
40,
41,
35,
39,
54,
28,
26,
33,
41,
20,
32,
40,
26,
40,
30,
23,
32,
21,
22,
25,
16,
22,
25,
15,
16,
17,
31,
22,
13,
21,
12,
11,
19,
18,
16,
25,
15,
15,
10,
17,
10,
14,
13,
5,
7,
5,
4,
5,
2,
6,
7,
6,
6,
3,
9,
1,
0,
1,
3,
1,
2,
1,
0,
1,
0,
1,
1,
2,
1,
0,
0,
1,
0,
0,
0,
2,
1,
1,
1,
2,
1,
0,
0,
0,
0,
0,
1,
2,
0,
0,
0,
2,
0,
0,
0,
1,
1,
2,
0,
1,
0,
1,
1,
0,
0,
0,
0,
0,
0,
1,
0,
2,
0,
0,
2,
0,
0,
0,
1,
0,
0,
0,
0,
1,
0,
0,
0,
2,
2,
1,
0,
0,
0,
0,
1,
1,
1,
0,
0,
0,
0,
0,
2,
1,
0,
0,
0,
1,
0,
0,
1,
0,
0,
0,
0,
0,
0,
0,
0,
0,
0,
1,
1,
0,
1,
0,
0,
0,
0,
0,
0,
0,
0,
0,
0,
0,
0,
1,
2,
0,
1,
0,
1,
0,
0,
0,
0,
0,
0,
0,
0,
0,
0,
0,
1,
0,
0,
0,
0,
0,
0,
1,
0,
0,
0,
0,
0,
0,
1,
0,
0,
0,
1,
0,
0,
0,
0,
0,
0,
0,
0,
0,
0,
0,
0,
0,
0,
0,
1,
0,
0,
0,
0,
0,
0,
0,
0,
1,
0,
1,
1,
0,
1,
0,
0,
0,
0,
0,
0,
0,
0,
0,
0,
0,
0,
0,
0,
0,
0,
0,
0,
0,
0,
0,
0,
0,
0,
0,
0,
0,
1,
0,
0,
0,
0,
1,
0,
0,
0,
0,
0,
0,
0,
0,
0,
0,
0,
0,
0,
0,
0,
0,
0,
0,
0,
0,
0,
0,
0,
0,
0,
0,
0,
0,
0,
0,
0,
1,
0,
0,
0,
0,
0,
0,
0,
1,
0,
0,
0,
0,
0,
0,
0,
0,
0,
0,
0,
0,
0,
0,
0,
0,
0,
0,
0,
0,
0,
0,
1,
0,
0,
0,
0,
0,
0,
0,
0,
0,
0,
0,
0,
0,
0,
0,
0,
0,
0,
0,
0,
0,
0,
0,
0,
0,
0,
0,
0,
0,
0,
0,
0,
0,
0,
0,
0,
0,
0,
0,
0,
0,
0,
0,
0,
0,
0,
0,
0,
0,
0,
0,
0,
0,
0,
0,
0,
0,
0,
0,
0,
0,
0,
0,
0,
0,
0,
0,
0,
0,
0,
0,
0,
0,
0,
0,
0,
0,
0,
0,
0,
0,
0,
0,
0,
0,
0,
0,
0,
0,
0,
0,
0,
0,
0,
0,
0,
0,
0,
0,
0,
0,
0,
0,
0,
0,
0,
0,
0,
0,
0,
0,
0,
0,
0,
0,
0,
0,
0,
0,
0,
0,
0,
0,
0,
0,
0,
0,
0,
0,
0,
0,
0,
0,
0,
0,
0,
0,
0,
0,
0,
0,
0,
0,
0,
0,
0,
0,
0,
0,
0,
0,
0,
0,
0,
0,
0,
0,
0,
0,
0,
0,
0,
0,
0,
0,
0,
0,
0,
0,
0,
0,
0,
0,
0,
0,
0,
0,
0,
0,
0,
0,
0,
0,
0,
0,
0,
0,
0,
0,
0,
0,
0,
0,
0,
0,
0,
0,
0,
0,
0,
0,
0,
0,
0,
0,
0,
0,
0,
0,
0,
0,
0,
0,
0,
0,
0,
0,
0,
0,
0,
0,
0,
0,
0,
0,
0,
0,
0,
0,
0,
0,
0,
0,
0,
0,
0,
0,
0,
0,
0,
0,
0,
0,
0,
0,
0,
0,
0,
0,
0,
0,
0,
0,
0,
0,
0,
0,
0,
0,
0,
0,
0,
0,
0,
0,
0,
0,
0,
0,
0,
0,
0,
0,
0,
0,
0,
0,
0,
0,
0,
0,
0,
0,
0,
0,
0,
0,
0,
0,
0,
0,
0,
0,
0,
0,
0,
0,
0,
0,
0,
0,
0,
0,
0,
0,
0,
0,
0,
0,
0,
0,
0,
0,
0,
0,
0,
0,
0,
0,
0,
0,
0,
0,
0,
0,
0,
0,
0,
0,
0,
0,
0,
0,
0,
0,
0,
0,
0,
0,
0,
0,
0,
0,
0,
0,
0,
0,
0,
0,
0,
0,
0,
0,
0,
0,
0,
0,
0,
0,
0,
0,
0,
0,
0,
0,
0,
0,
0,
0,
0,
0,
0,
0,
0,
0,
0,
0,
0,
0,
0,
0,
0,
0,
0,
0,
0,
0,
0,
0,
0,
0,
0,
0,
0,
0,
0,
0,
0,
0,
0,
0,
0,
0,
0,
0,
0,
0,
0,
0,
0,
0,
0,
0,
0,
0,
0,
0,
0,
0,
0,
#ENDOFDATA   :