File: N132962/Quantification/20 keV/MMM1/SPI MM1 Chalcopyrite[2][4].msa
#FORMAT      : EMSA/MAS Spectral Data File
#VERSION     : 1.0
#TITLE       : SPI MM1 Chalcopyrite[2][all]
#DATE        : 11-MAR-2025
#TIME        : 14:29
#OWNER       : Unknown
#NPOINTS     : 4096
#NCOLUMNS    : 1
#XUNITS      : eV
#YUNITS      : counts
#DATATYPE    : Y
#XPERCHAN    : 9.99778
#OFFSET      : 1.69135
#BEAMKV      : 20
#SIGNALTYPE  : EDS
#ELEVANGLE   : 35
#AZIMANGLE   : 0
#LIVETIME    : 239.885
#REALTIME    : 260.452
#PROBECUR    : 1.02809
#TAUWIND     : 0
#TDEADLYR    : 0
#TACTLYR     : 0.045
#TALWIND     : 0.025
#CHOFFSET    : 0.0
#XLABEL      : Energy (eV)
#YLABEL      : Counts
#XPOSITION   : -4.90381
#YPOSITION   : -3.94327
#ZPOSITION   : 30.9284
#EDSDET      : SD
##SPECIMEN   : SPI MM1 Chalcopyrite[2][all]
##D2STDCMP   : Chalcopyrite,(S:34.9407),(Fe:30.4314),(Cu:34.6279),4.2
##DET_HASH   : 12273538-fd48-a23f-0a19-f1e6fa85caef
##CALIB_HASH : 6abaa72c-aa41-8738-0be9-f592914732f3
##WORKING    : 15.0 mm
##DET_NAME   : EDAX All
##DET_MODE   : MediumLE
#SPECTRUM    :
21,
26,
14,
36,
218,
508,
1157,
3316,
9223,
12163,
6337,
2869,
2590,
2934,
3238,
3868,
4923,
6851,
10217,
14920,
17794,
17881,
24819,
40731,
35813,
17207,
10793,
11591,
11643,
22246,
58236,
83770,
55736,
18852,
6182,
4115,
3580,
3485,
3643,
3646,
3690,
3952,
4042,
4186,
4280,
4561,
4674,
4822,
4902,
4908,
5262,
5090,
5082,
5153,
5240,
5416,
5568,
6123,
6218,
6071,
6017,
5732,
5534,
5312,
5311,
5478,
5595,
5476,
5667,
5627,
5834,
6263,
8162,
14351,
33623,
90958,
186347,
232659,
169415,
73998,
26588,
19075,
21356,
18261,
10822,
6055,
4218,
3750,
3660,
3769,
3797,
3736,
3761,
3849,
3722,
3801,
3786,
3765,
3842,
3824,
3642,
3832,
3794,
3757,
3809,
3776,
3759,
3839,
3924,
3857,
3795,
3710,
3639,
3649,
3744,
3672,
3528,
3593,
3578,
3598,
3579,
3566,
3458,
3515,
3529,
3517,
3510,
3424,
3444,
3321,
3377,
3306,
3219,
3245,
3201,
3126,
3350,
3324,
3144,
3368,
3244,
3322,
3148,
3178,
3083,
3094,
3172,
3147,
3052,
3148,
3038,
3117,
3223,
3346,
3479,
3358,
3254,
3177,
3064,
2970,
2882,
2927,
2811,
2818,
2890,
2743,
2758,
2746,
2769,
2730,
2684,
2723,
2585,
2608,
2560,
2660,
2553,
2500,
2668,
2563,
2583,
2581,
2576,
2426,
2515,
2553,
2407,
2435,
2417,
2452,
2398,
2379,
2390,
2367,
2283,
2253,
2420,
2393,
2279,
2273,
2330,
2250,
2244,
2300,
2274,
2407,
2523,
2764,
3978,
8123,
17412,
33992,
53600,
64916,
61051,
43790,
24915,
11749,
5176,
2845,
2164,
2169,
1947,
2091,
1869,
2017,
2114,
2007,
2034,
2139,
2401,
3113,
4563,
6824,
9090,
9842,
9081,
7123,
4552,
3025,
2085,
1763,
1684,
1606,
1702,
1669,
1670,
1724,
1698,
1683,
1653,
1618,
1453,
1522,
1553,
1518,
1472,
1478,
1462,
1609,
1508,
1786,
2406,
4117,
8021,
15566,
25309,
33531,
36725,
32640,
23423,
13984,
7029,
3438,
2043,
1547,
1399,
1370,
1341,
1325,
1368,
1280,
1313,
1329,
1323,
1328,
1313,
1378,
1362,
1461,
1454,
1615,
1847,
2571,
3510,
4818,
5607,
5782,
5153,
3786,
2766,
1817,
1419,
1171,
1094,
1042,
1072,
1023,
1025,
972,
1031,
1019,
978,
1008,
952,
1003,
968,
957,
1028,
961,
880,
1007,
959,
921,
908,
912,
917,
920,
938,
930,
979,
971,
885,
887,
863,
946,
898,
913,
867,
831,
817,
897,
869,
859,
945,
908,
965,
908,
894,
786,
795,
797,
768,
783,
790,
763,
774,
717,
765,
716,
712,
701,
710,
743,
697,
715,
716,
707,
685,
720,
688,
719,
679,
706,
650,
654,
614,
646,
617,
600,
612,
638,
635,
607,
610,
564,
640,
605,
610,
571,
579,
564,
596,
555,
550,
541,
553,
551,
560,
557,
531,
535,
478,
535,
491,
507,
504,
543,
489,
473,
485,
502,
480,
543,
485,
496,
460,
489,
463,
471,
447,
477,
448,
410,
430,
446,
507,
440,
429,
404,
461,
390,
423,
441,
391,
416,
408,
392,
370,
370,
361,
385,
365,
370,
407,
359,
377,
365,
379,
358,
385,
327,
321,
326,
303,
307,
291,
281,
296,
330,
303,
260,
312,
312,
313,
294,
324,
283,
309,
250,
325,
296,
273,
291,
274,
254,
296,
257,
252,
284,
291,
278,
267,
250,
243,
238,
244,
217,
235,
224,
242,
206,
212,
223,
244,
229,
213,
218,
196,
209,
213,
187,
184,
205,
212,
198,
190,
186,
184,
166,
177,
158,
165,
195,
189,
175,
172,
175,
175,
163,
179,
157,
138,
156,
155,
163,
130,
144,
147,
151,
143,
151,
156,
164,
146,
147,
131,
111,
137,
122,
121,
119,
122,
127,
130,
126,
115,
117,
130,
109,
102,
96,
112,
86,
78,
103,
93,
91,
97,
88,
94,
80,
91,
86,
88,
85,
79,
88,
99,
82,
76,
80,
84,
87,
81,
65,
79,
74,
83,
60,
69,
70,
80,
69,
69,
65,
63,
66,
70,
61,
76,
57,
58,
55,
76,
57,
69,
44,
46,
45,
50,
46,
44,
45,
40,
48,
39,
46,
34,
34,
39,
40,
33,
27,
29,
34,
33,
33,
33,
29,
29,
25,
34,
20,
28,
24,
16,
31,
31,
37,
28,
29,
20,
27,
21,
19,
21,
15,
20,
22,
16,
15,
11,
17,
10,
9,
14,
11,
15,
9,
5,
14,
10,
7,
11,
7,
3,
7,
6,
4,
3,
5,
5,
1,
1,
4,
2,
0,
1,
2,
0,
0,
3,
2,
1,
0,
0,
0,
1,
1,
1,
1,
1,
1,
3,
1,
1,
2,
2,
1,
0,
3,
0,
1,
0,
2,
3,
0,
1,
1,
0,
1,
0,
1,
1,
0,
0,
0,
2,
0,
0,
1,
3,
4,
1,
1,
0,
3,
0,
2,
0,
0,
0,
1,
2,
3,
0,
1,
1,
1,
0,
2,
0,
2,
0,
0,
0,
1,
1,
0,
0,
0,
0,
0,
1,
0,
1,
1,
0,
0,
1,
0,
1,
0,
1,
0,
0,
1,
2,
0,
0,
2,
1,
0,
1,
1,
0,
0,
0,
0,
0,
1,
0,
0,
0,
0,
0,
0,
0,
2,
0,
0,
1,
0,
1,
1,
1,
0,
0,
1,
0,
1,
0,
0,
1,
1,
0,
0,
0,
0,
0,
0,
0,
2,
0,
0,
1,
0,
2,
1,
0,
0,
0,
0,
0,
1,
1,
0,
0,
0,
0,
1,
0,
0,
2,
1,
0,
0,
0,
2,
0,
0,
0,
0,
0,
0,
0,
0,
0,
0,
1,
0,
0,
0,
0,
0,
1,
0,
0,
0,
0,
0,
0,
0,
1,
0,
0,
1,
1,
1,
1,
0,
1,
0,
0,
0,
0,
0,
0,
0,
0,
0,
0,
0,
0,
0,
1,
0,
0,
0,
0,
0,
0,
0,
1,
0,
0,
1,
0,
0,
0,
0,
0,
0,
0,
0,
0,
0,
0,
0,
0,
0,
0,
0,
0,
0,
0,
0,
0,
0,
0,
0,
0,
0,
0,
0,
0,
0,
0,
0,
0,
0,
0,
0,
0,
0,
0,
0,
0,
0,
0,
0,
0,
0,
0,
0,
0,
0,
0,
0,
0,
0,
0,
0,
0,
0,
0,
0,
0,
0,
0,
0,
0,
0,
0,
0,
0,
1,
0,
0,
0,
0,
0,
1,
0,
0,
0,
0,
0,
0,
0,
1,
0,
0,
0,
0,
0,
0,
0,
0,
0,
0,
0,
0,
0,
0,
0,
0,
0,
0,
0,
0,
0,
0,
0,
0,
0,
0,
0,
0,
0,
0,
0,
0,
0,
0,
0,
0,
0,
0,
0,
0,
0,
0,
0,
0,
0,
0,
0,
0,
0,
0,
0,
0,
0,
0,
0,
0,
0,
0,
0,
0,
0,
0,
0,
0,
0,
0,
0,
0,
0,
0,
0,
0,
0,
0,
0,
0,
0,
0,
0,
0,
0,
0,
0,
0,
0,
0,
0,
0,
0,
0,
0,
0,
0,
0,
0,
0,
0,
0,
0,
0,
0,
0,
0,
0,
1,
0,
0,
0,
0,
0,
0,
0,
0,
0,
0,
0,
0,
0,
0,
0,
0,
0,
0,
0,
0,
0,
0,
0,
0,
0,
0,
0,
0,
0,
0,
0,
0,
0,
0,
0,
0,
0,
0,
0,
0,
0,
0,
0,
0,
0,
0,
0,
0,
0,
0,
0,
0,
0,
0,
0,
0,
0,
0,
0,
0,
0,
0,
0,
0,
0,
0,
0,
0,
0,
0,
0,
0,
0,
0,
0,
0,
0,
0,
0,
0,
0,
0,
0,
0,
0,
0,
0,
0,
0,
0,
0,
0,
0,
0,
0,
0,
0,
0,
0,
0,
0,
0,
0,
0,
0,
0,
0,
0,
0,
0,
0,
0,
0,
0,
0,
0,
0,
0,
0,
0,
0,
0,
0,
0,
0,
0,
0,
0,
0,
0,
0,
0,
0,
0,
0,
0,
0,
0,
0,
0,
0,
0,
0,
0,
0,
0,
0,
0,
0,
0,
0,
0,
0,
0,
0,
0,
0,
0,
0,
0,
0,
0,
0,
0,
0,
0,
0,
0,
0,
0,
0,
0,
0,
0,
0,
0,
0,
0,
0,
0,
0,
0,
0,
0,
0,
0,
0,
0,
0,
0,
0,
0,
0,
0,
0,
0,
0,
0,
0,
0,
0,
0,
0,
0,
0,
0,
0,
0,
0,
0,
0,
0,
0,
0,
0,
0,
0,
0,
0,
0,
0,
0,
0,
0,
0,
0,
0,
0,
0,
0,
0,
0,
0,
0,
0,
0,
0,
0,
0,
0,
0,
0,
0,
0,
0,
0,
0,
0,
0,
0,
0,
0,
0,
0,
0,
0,
0,
0,
0,
0,
0,
0,
0,
0,
0,
0,
0,
0,
0,
0,
0,
0,
0,
0,
0,
0,
0,
0,
0,
0,
0,
0,
0,
0,
0,
0,
0,
0,
0,
#ENDOFDATA   :