File: N132962/Quantification/20 keV/MMM1/SPI MM1 Albite[7][4].msa
#FORMAT      : EMSA/MAS Spectral Data File
#VERSION     : 1.0
#TITLE       : SPI MM1 Albite[7][all]
#DATE        : 11-MAR-2025
#TIME        : 12:56
#OWNER       : Unknown
#NPOINTS     : 4096
#NCOLUMNS    : 1
#XUNITS      : eV
#YUNITS      : counts
#DATATYPE    : Y
#XPERCHAN    : 9.99778
#OFFSET      : 1.69135
#BEAMKV      : 20
#SIGNALTYPE  : EDS
#ELEVANGLE   : 35
#AZIMANGLE   : 0
#LIVETIME    : 239.847
#REALTIME    : 255.976
#PROBECUR    : 1.02699
#TAUWIND     : 0
#TDEADLYR    : 0
#TACTLYR     : 0.045
#TALWIND     : 0.025
#CHOFFSET    : 0.0
#XLABEL      : Energy (eV)
#YLABEL      : Counts
#XPOSITION   : 3.40978
#YPOSITION   : -7.10632
#ZPOSITION   : 30.9284
#EDSDET      : SD
##SPECIMEN   : SPI MM1 Albite[7][all]
##D2STDCMP   : Albite,(O:48.8112),(Na:8.7674),(Al:10.2897),(Si:32.1316)
##DET_HASH   : 12273538-fd48-a23f-0a19-f1e6fa85caef
##CALIB_HASH : 6abaa72c-aa41-8738-0be9-f592914732f3
##WORKING    : 15.0 mm
##DET_NAME   : EDAX All
##DET_MODE   : MediumLE
#SPECTRUM    :
25,
36,
10,
16,
82,
289,
763,
2430,
6520,
8769,
4841,
2540,
2583,
3274,
6407,
25446,
102245,
197439,
146063,
39131,
5065,
1818,
1871,
2086,
2214,
2151,
2336,
2489,
2800,
2997,
3173,
3746,
6774,
20713,
47472,
52413,
26767,
8021,
3809,
3255,
3435,
3660,
3753,
4043,
4200,
4435,
5778,
13607,
42967,
84657,
85690,
45986,
16624,
7286,
6543,
18125,
73865,
190154,
258266,
182621,
73812,
24249,
10361,
4762,
2627,
2156,
2296,
2213,
2155,
2018,
2076,
2120,
2058,
2317,
2520,
2856,
2736,
2493,
2261,
2110,
2161,
2151,
2142,
2165,
2184,
2052,
2070,
2077,
2093,
2122,
2110,
2183,
2153,
2308,
2233,
2134,
2047,
2039,
2108,
2061,
2052,
2014,
2026,
1954,
1972,
2030,
2091,
2283,
2362,
2474,
2516,
2563,
2241,
2127,
2061,
2045,
2249,
2126,
2032,
1920,
1881,
1979,
2114,
2046,
2123,
1897,
1798,
1753,
1715,
1643,
1611,
1665,
1658,
1717,
1676,
1654,
1525,
1534,
1537,
1503,
1520,
1519,
1476,
1481,
1523,
1499,
1445,
1477,
1429,
1452,
1376,
1359,
1396,
1339,
1396,
1341,
1391,
1315,
1286,
1309,
1367,
1313,
1354,
1290,
1257,
1225,
1267,
1247,
1196,
1231,
1208,
1251,
1234,
1245,
1253,
1208,
1142,
1156,
1161,
1139,
1125,
1133,
1131,
1140,
1113,
1065,
1149,
1091,
1055,
1021,
1026,
1101,
1019,
1026,
992,
1023,
1008,
1010,
932,
951,
984,
969,
964,
951,
911,
922,
923,
905,
891,
917,
876,
928,
956,
937,
921,
933,
906,
843,
822,
832,
885,
832,
783,
813,
839,
753,
838,
821,
758,
764,
797,
772,
788,
788,
715,
795,
733,
721,
749,
757,
739,
757,
667,
714,
705,
681,
703,
675,
687,
726,
700,
693,
666,
647,
701,
648,
651,
666,
627,
623,
632,
618,
653,
605,
617,
567,
614,
589,
577,
603,
558,
584,
593,
612,
528,
565,
555,
552,
546,
540,
536,
537,
525,
499,
547,
573,
514,
493,
513,
491,
492,
485,
488,
473,
491,
484,
433,
493,
464,
492,
448,
443,
439,
470,
451,
432,
413,
445,
428,
421,
435,
432,
412,
419,
427,
437,
375,
431,
416,
382,
397,
395,
393,
391,
409,
394,
369,
374,
379,
382,
328,
348,
394,
321,
350,
344,
380,
342,
352,
331,
349,
342,
341,
334,
325,
351,
325,
343,
317,
312,
347,
330,
322,
296,
293,
276,
277,
294,
297,
290,
277,
275,
301,
291,
267,
289,
279,
275,
278,
281,
275,
267,
251,
255,
275,
288,
268,
243,
263,
237,
269,
253,
215,
224,
206,
231,
247,
219,
223,
212,
226,
212,
230,
222,
191,
214,
227,
179,
210,
232,
206,
208,
203,
200,
202,
188,
179,
189,
188,
195,
188,
183,
178,
166,
192,
166,
171,
174,
158,
182,
185,
164,
159,
159,
148,
160,
164,
161,
159,
155,
145,
145,
133,
126,
138,
146,
159,
143,
135,
125,
152,
136,
131,
136,
144,
134,
132,
137,
129,
126,
125,
110,
129,
108,
120,
132,
97,
110,
104,
121,
95,
113,
115,
124,
99,
95,
102,
97,
128,
105,
100,
98,
102,
98,
94,
87,
87,
86,
81,
88,
66,
74,
86,
92,
77,
85,
86,
98,
76,
68,
84,
75,
77,
67,
80,
81,
52,
76,
56,
60,
67,
64,
78,
78,
65,
66,
54,
51,
59,
76,
53,
57,
58,
66,
55,
57,
44,
59,
56,
49,
53,
51,
40,
55,
58,
37,
42,
55,
47,
46,
55,
47,
50,
46,
53,
37,
44,
49,
37,
31,
32,
44,
36,
49,
42,
36,
34,
30,
39,
36,
27,
33,
29,
31,
34,
26,
29,
28,
28,
36,
31,
33,
23,
27,
27,
28,
24,
29,
23,
28,
24,
21,
31,
27,
27,
21,
25,
23,
21,
14,
20,
18,
20,
18,
23,
11,
19,
13,
14,
12,
24,
26,
21,
27,
20,
27,
18,
14,
14,
13,
15,
5,
9,
13,
16,
6,
10,
12,
15,
14,
12,
10,
17,
6,
7,
7,
14,
10,
11,
12,
7,
4,
5,
8,
8,
10,
10,
4,
8,
3,
6,
11,
3,
4,
3,
6,
4,
7,
4,
3,
4,
3,
2,
5,
2,
3,
4,
6,
4,
2,
1,
3,
4,
0,
1,
0,
1,
1,
2,
1,
0,
1,
1,
0,
0,
0,
0,
0,
1,
0,
0,
0,
0,
0,
0,
0,
0,
0,
0,
0,
0,
0,
0,
0,
0,
0,
0,
0,
0,
0,
0,
0,
0,
0,
0,
0,
0,
0,
0,
0,
0,
0,
1,
0,
0,
0,
0,
0,
0,
0,
0,
0,
0,
0,
0,
1,
0,
0,
0,
0,
0,
0,
0,
0,
0,
0,
0,
0,
0,
0,
0,
1,
0,
0,
0,
0,
0,
1,
0,
0,
0,
0,
1,
0,
0,
0,
0,
0,
0,
0,
0,
0,
0,
0,
0,
0,
0,
0,
0,
0,
0,
0,
0,
0,
0,
0,
0,
0,
0,
0,
0,
0,
0,
0,
0,
0,
0,
0,
0,
0,
0,
0,
0,
0,
0,
0,
0,
0,
0,
0,
0,
0,
0,
0,
0,
0,
0,
0,
0,
0,
0,
0,
1,
0,
0,
0,
0,
0,
0,
0,
0,
0,
0,
0,
0,
0,
0,
0,
0,
0,
0,
0,
0,
0,
0,
0,
0,
0,
0,
0,
0,
0,
0,
0,
0,
0,
0,
0,
0,
0,
0,
0,
0,
0,
0,
0,
0,
0,
0,
0,
0,
0,
0,
0,
0,
0,
0,
0,
0,
0,
0,
0,
0,
0,
0,
0,
0,
0,
0,
0,
0,
0,
0,
0,
0,
0,
0,
0,
0,
0,
0,
0,
0,
0,
0,
0,
0,
0,
0,
0,
0,
0,
0,
0,
0,
0,
0,
0,
0,
0,
0,
0,
0,
0,
0,
0,
0,
0,
0,
0,
0,
0,
0,
0,
0,
0,
0,
0,
0,
0,
0,
0,
0,
0,
0,
0,
0,
0,
0,
0,
0,
0,
0,
0,
0,
0,
0,
0,
0,
0,
0,
0,
0,
0,
0,
0,
0,
0,
0,
0,
0,
0,
0,
0,
0,
0,
0,
0,
0,
0,
0,
0,
0,
0,
0,
0,
0,
0,
0,
0,
0,
0,
0,
0,
0,
0,
0,
0,
0,
0,
0,
0,
0,
0,
0,
0,
0,
0,
0,
0,
0,
0,
0,
0,
0,
0,
0,
0,
0,
0,
0,
0,
0,
0,
0,
0,
0,
0,
0,
0,
0,
0,
0,
0,
0,
0,
0,
0,
0,
0,
0,
0,
0,
0,
0,
0,
0,
0,
0,
0,
0,
0,
0,
0,
0,
0,
0,
0,
0,
0,
0,
0,
0,
0,
0,
0,
0,
0,
0,
0,
0,
0,
0,
0,
0,
0,
0,
0,
0,
0,
0,
0,
0,
0,
0,
0,
0,
0,
0,
0,
0,
0,
0,
0,
0,
0,
0,
0,
0,
0,
0,
0,
0,
0,
0,
0,
0,
0,
0,
0,
0,
0,
0,
0,
0,
0,
0,
0,
0,
0,
0,
0,
0,
0,
0,
0,
0,
0,
0,
0,
0,
0,
0,
0,
0,
0,
0,
0,
0,
0,
0,
0,
0,
0,
0,
0,
0,
0,
0,
0,
0,
0,
0,
0,
0,
0,
0,
0,
0,
0,
0,
0,
0,
0,
0,
0,
0,
0,
0,
0,
0,
0,
0,
0,
0,
0,
0,
0,
0,
0,
0,
0,
0,
0,
0,
0,
0,
0,
0,
0,
0,
0,
0,
0,
0,
0,
0,
0,
0,
0,
0,
0,
0,
0,
0,
0,
0,
0,
0,
0,
0,
0,
0,
0,
0,
0,
0,
0,
0,
0,
0,
0,
0,
0,
0,
0,
0,
0,
0,
0,
0,
0,
0,
0,
0,
0,
0,
0,
0,
0,
0,
0,
0,
0,
0,
0,
0,
0,
0,
0,
0,
0,
0,
0,
0,
0,
0,
0,
0,
0,
0,
0,
0,
0,
0,
0,
0,
0,
0,
0,
0,
0,
0,
0,
0,
0,
0,
0,
0,
0,
0,
0,
0,
0,
0,
0,
0,
0,
0,
0,
0,
0,
0,
0,
0,
0,
0,
0,
0,
0,
0,
0,
0,
0,
0,
0,
0,
0,
0,
0,
0,
0,
0,
0,
0,
0,
0,
0,
0,
0,
0,
0,
0,
0,
0,
0,
0,
0,
0,
0,
0,
0,
0,
0,
0,
0,
0,
0,
0,
0,
0,
0,
0,
0,
0,
0,
0,
0,
0,
0,
0,
0,
0,
0,
0,
0,
0,
0,
0,
0,
0,
0,
0,
0,
0,
0,
0,
0,
0,
0,
0,
0,
0,
0,
0,
0,
0,
0,
0,
0,
0,
0,
0,
0,
0,
0,
#ENDOFDATA   :