File: N132962/Quantification/20 keV/MMM1/SPI MM1 Albite[6][4].msa
#FORMAT      : EMSA/MAS Spectral Data File
#VERSION     : 1.0
#TITLE       : SPI MM1 Albite[6][all]
#DATE        : 11-MAR-2025
#TIME        : 12:55
#OWNER       : Unknown
#NPOINTS     : 4096
#NCOLUMNS    : 1
#XUNITS      : eV
#YUNITS      : counts
#DATATYPE    : Y
#XPERCHAN    : 9.99778
#OFFSET      : 1.69135
#BEAMKV      : 20
#SIGNALTYPE  : EDS
#ELEVANGLE   : 35
#AZIMANGLE   : 0
#LIVETIME    : 239.836
#REALTIME    : 255.9749
#PROBECUR    : 1.02699
#TAUWIND     : 0
#TDEADLYR    : 0
#TACTLYR     : 0.045
#TALWIND     : 0.025
#CHOFFSET    : 0.0
#XLABEL      : Energy (eV)
#YLABEL      : Counts
#XPOSITION   : 3.46729
#YPOSITION   : -7.06281
#ZPOSITION   : 30.9284
#EDSDET      : SD
##SPECIMEN   : SPI MM1 Albite[6][all]
##D2STDCMP   : Albite,(O:48.8112),(Na:8.7674),(Al:10.2897),(Si:32.1316)
##DET_HASH   : 12273538-fd48-a23f-0a19-f1e6fa85caef
##CALIB_HASH : 6abaa72c-aa41-8738-0be9-f592914732f3
##WORKING    : 15.0 mm
##DET_NAME   : EDAX All
##DET_MODE   : MediumLE
#SPECTRUM    :
28,
30,
12,
16,
79,
272,
777,
2410,
6694,
8737,
4806,
2412,
2538,
3370,
6327,
25586,
101111,
197544,
145996,
38984,
5035,
1765,
1897,
2070,
2217,
2283,
2312,
2608,
2716,
3024,
3182,
3808,
6743,
20400,
47122,
52486,
26733,
8157,
3789,
3256,
3493,
3481,
3764,
3829,
4132,
4451,
5628,
13813,
42813,
84743,
85939,
46218,
16579,
7381,
6546,
18259,
73549,
189988,
257632,
183330,
73814,
24331,
10417,
4868,
2713,
2268,
2225,
2303,
2201,
2120,
2062,
2126,
2129,
2342,
2642,
2845,
2646,
2480,
2313,
2177,
2165,
2105,
2106,
2163,
2195,
2140,
2178,
2213,
2066,
2002,
2157,
2167,
2279,
2221,
2221,
2153,
2070,
2091,
2047,
1970,
2039,
2030,
2044,
2011,
2066,
2059,
2069,
2270,
2331,
2499,
2578,
2491,
2332,
2144,
1959,
2149,
2240,
2132,
2086,
2067,
1960,
1934,
2146,
2280,
2247,
1934,
1779,
1782,
1627,
1681,
1728,
1663,
1647,
1673,
1647,
1586,
1613,
1573,
1552,
1542,
1457,
1498,
1454,
1443,
1452,
1490,
1450,
1481,
1473,
1434,
1374,
1509,
1349,
1428,
1407,
1326,
1385,
1371,
1378,
1315,
1273,
1287,
1316,
1317,
1256,
1260,
1290,
1309,
1251,
1213,
1229,
1134,
1230,
1203,
1141,
1139,
1155,
1116,
1099,
1135,
1111,
1149,
1128,
1082,
1082,
1083,
1069,
1038,
1068,
1090,
992,
1108,
1061,
1049,
1002,
1030,
1008,
968,
1020,
928,
979,
998,
930,
972,
968,
899,
920,
913,
918,
879,
866,
895,
979,
941,
964,
903,
918,
845,
845,
849,
804,
810,
826,
848,
796,
830,
762,
832,
800,
820,
807,
809,
707,
801,
751,
750,
793,
741,
748,
658,
750,
705,
724,
690,
700,
672,
704,
699,
742,
706,
724,
664,
663,
669,
639,
630,
643,
639,
619,
640,
656,
627,
570,
602,
611,
584,
598,
605,
584,
579,
566,
591,
597,
618,
597,
604,
545,
556,
572,
520,
550,
506,
529,
535,
486,
488,
530,
476,
518,
537,
447,
497,
524,
486,
493,
478,
490,
470,
497,
474,
488,
404,
449,
413,
426,
476,
443,
419,
441,
429,
421,
432,
436,
428,
430,
428,
394,
379,
427,
403,
411,
370,
399,
387,
341,
369,
360,
394,
403,
347,
355,
372,
368,
347,
384,
362,
352,
364,
353,
393,
392,
312,
343,
298,
330,
341,
343,
313,
319,
329,
348,
298,
313,
327,
319,
292,
300,
278,
289,
276,
284,
279,
302,
267,
297,
268,
274,
264,
285,
242,
302,
251,
246,
249,
238,
263,
236,
270,
276,
250,
234,
239,
235,
215,
232,
224,
217,
233,
222,
210,
182,
201,
217,
254,
203,
227,
198,
234,
202,
190,
195,
224,
231,
210,
220,
187,
200,
171,
188,
196,
182,
183,
163,
175,
166,
165,
203,
198,
180,
178,
194,
178,
160,
192,
152,
145,
163,
164,
159,
151,
163,
162,
159,
145,
118,
164,
121,
148,
120,
125,
148,
133,
134,
107,
125,
115,
124,
147,
115,
121,
105,
155,
101,
118,
117,
125,
122,
98,
108,
110,
98,
118,
114,
106,
118,
104,
93,
95,
117,
108,
87,
113,
97,
102,
81,
76,
93,
82,
91,
83,
87,
87,
80,
81,
99,
76,
83,
76,
78,
89,
71,
64,
62,
64,
86,
72,
71,
69,
80,
71,
74,
74,
58,
64,
63,
59,
61,
62,
55,
47,
69,
61,
74,
55,
54,
59,
52,
65,
67,
48,
62,
44,
54,
48,
61,
56,
44,
45,
55,
51,
44,
43,
42,
39,
50,
53,
41,
50,
42,
34,
50,
37,
37,
33,
40,
24,
41,
35,
40,
42,
32,
37,
31,
44,
30,
34,
35,
25,
26,
22,
36,
31,
34,
30,
34,
23,
28,
24,
26,
26,
22,
25,
18,
12,
23,
23,
33,
27,
29,
27,
16,
17,
22,
27,
18,
17,
14,
19,
16,
15,
17,
13,
15,
14,
15,
21,
4,
9,
17,
20,
19,
10,
16,
15,
14,
23,
17,
5,
11,
7,
11,
15,
10,
9,
10,
13,
7,
7,
9,
14,
12,
13,
3,
6,
8,
7,
3,
4,
7,
11,
6,
5,
5,
5,
6,
6,
3,
5,
6,
0,
6,
3,
7,
3,
3,
1,
3,
5,
1,
3,
2,
2,
7,
1,
0,
1,
0,
1,
0,
1,
1,
0,
1,
0,
0,
2,
1,
0,
1,
0,
0,
0,
0,
0,
0,
0,
0,
0,
0,
0,
1,
0,
0,
0,
0,
0,
0,
0,
0,
0,
0,
1,
0,
0,
1,
0,
1,
0,
0,
0,
1,
0,
0,
0,
0,
0,
0,
0,
0,
0,
0,
0,
0,
0,
0,
0,
0,
0,
0,
0,
1,
0,
0,
1,
0,
0,
0,
0,
0,
0,
0,
0,
0,
0,
0,
0,
0,
0,
0,
0,
0,
1,
0,
0,
0,
0,
0,
0,
0,
0,
0,
0,
0,
0,
0,
0,
0,
0,
0,
0,
0,
0,
0,
0,
0,
0,
0,
0,
0,
0,
0,
0,
0,
0,
0,
0,
0,
1,
0,
0,
0,
0,
0,
0,
0,
0,
0,
0,
0,
0,
0,
0,
0,
0,
0,
0,
0,
0,
0,
0,
0,
0,
0,
0,
0,
0,
0,
0,
0,
0,
0,
0,
0,
0,
0,
0,
0,
0,
0,
0,
0,
0,
0,
0,
0,
0,
0,
0,
0,
0,
0,
0,
0,
0,
0,
0,
0,
0,
0,
0,
0,
0,
0,
0,
0,
0,
0,
0,
0,
0,
0,
0,
0,
0,
0,
0,
0,
0,
0,
0,
0,
0,
0,
0,
0,
0,
0,
0,
0,
0,
0,
0,
0,
0,
0,
0,
0,
0,
0,
0,
0,
0,
0,
0,
0,
0,
0,
0,
0,
0,
0,
0,
0,
0,
0,
0,
0,
0,
0,
0,
0,
0,
0,
0,
0,
0,
0,
0,
0,
0,
0,
0,
0,
0,
0,
0,
0,
0,
0,
0,
0,
0,
0,
0,
0,
0,
0,
0,
0,
0,
0,
0,
0,
0,
0,
0,
0,
0,
0,
0,
0,
0,
0,
0,
0,
0,
0,
0,
0,
0,
0,
0,
0,
0,
0,
0,
0,
0,
0,
0,
0,
0,
0,
0,
0,
0,
0,
0,
0,
0,
0,
0,
0,
0,
0,
0,
0,
0,
0,
0,
0,
0,
0,
0,
0,
0,
1,
0,
0,
0,
0,
0,
0,
0,
0,
0,
0,
0,
0,
0,
0,
0,
0,
0,
0,
0,
0,
0,
0,
0,
0,
0,
0,
0,
0,
0,
0,
0,
0,
0,
0,
0,
0,
0,
0,
0,
0,
0,
0,
0,
0,
0,
0,
0,
0,
0,
0,
0,
0,
0,
0,
0,
0,
0,
0,
0,
0,
0,
0,
0,
0,
0,
0,
0,
0,
0,
0,
0,
0,
0,
0,
0,
0,
0,
0,
0,
0,
0,
0,
0,
0,
0,
0,
0,
0,
0,
0,
0,
0,
0,
0,
0,
0,
0,
0,
0,
0,
0,
0,
0,
0,
0,
0,
0,
0,
0,
0,
0,
0,
0,
0,
0,
0,
0,
0,
0,
0,
0,
0,
0,
0,
0,
0,
0,
0,
0,
0,
0,
0,
0,
0,
0,
0,
0,
0,
0,
0,
0,
0,
0,
0,
0,
0,
0,
0,
0,
0,
0,
0,
0,
0,
0,
0,
0,
0,
0,
0,
0,
0,
0,
0,
0,
0,
0,
0,
0,
0,
0,
0,
0,
0,
0,
0,
0,
0,
0,
0,
0,
0,
0,
0,
0,
0,
0,
0,
0,
0,
0,
0,
0,
0,
0,
0,
0,
0,
0,
0,
0,
0,
0,
0,
0,
0,
0,
0,
0,
0,
0,
0,
0,
0,
0,
0,
0,
0,
0,
0,
0,
0,
0,
0,
0,
0,
0,
0,
0,
0,
0,
0,
0,
0,
0,
0,
0,
0,
0,
0,
0,
0,
0,
0,
0,
0,
0,
0,
0,
0,
0,
0,
0,
0,
0,
0,
0,
0,
0,
0,
0,
0,
0,
0,
0,
0,
0,
0,
0,
0,
0,
0,
0,
0,
0,
0,
0,
0,
0,
0,
0,
0,
0,
0,
0,
0,
0,
0,
0,
0,
0,
0,
0,
0,
0,
0,
0,
0,
0,
0,
0,
0,
0,
0,
0,
0,
0,
0,
0,
0,
0,
0,
0,
0,
0,
0,
0,
0,
0,
0,
0,
0,
0,
0,
0,
0,
0,
0,
0,
0,
0,
0,
0,
0,
0,
0,
0,
0,
0,
0,
0,
0,
0,
0,
0,
0,
0,
0,
0,
0,
0,
0,
0,
0,
0,
0,
0,
0,
0,
0,
0,
0,
0,
0,
0,
0,
0,
0,
0,
0,
0,
0,
0,
0,
0,
0,
0,
0,
0,
#ENDOFDATA   :