File: N132962/Quantification/20 keV/MMM1/SPI MM1 Andradite[0][4].msa
#FORMAT      : EMSA/MAS Spectral Data File
#VERSION     : 1.0
#TITLE       : SPI MM1 Andradite[0][all]
#DATE        : 11-MAR-2025
#TIME        : 13:07
#OWNER       : Unknown
#NPOINTS     : 4096
#NCOLUMNS    : 1
#XUNITS      : eV
#YUNITS      : counts
#DATATYPE    : Y
#XPERCHAN    : 9.99778
#OFFSET      : 1.69135
#BEAMKV      : 20
#SIGNALTYPE  : EDS
#ELEVANGLE   : 35
#AZIMANGLE   : 0
#LIVETIME    : 239.882
#REALTIME    : 255.403
#PROBECUR    : 1.02699
#TAUWIND     : 0
#TDEADLYR    : 0
#TACTLYR     : 0.045
#TALWIND     : 0.025
#CHOFFSET    : 0.0
#XLABEL      : Energy (eV)
#YLABEL      : Counts
#XPOSITION   : -2.2034
#YPOSITION   : -7.99393
#ZPOSITION   : 30.9284
#EDSDET      : SD
##SPECIMEN   : SPI MM1 Andradite[0][all]
##D2STDCMP   : Andradite,(O:37.7805),(Si:16.5802),(Ca:23.6603),(Fe:21.979),3.86
##DET_HASH   : 12273538-fd48-a23f-0a19-f1e6fa85caef
##CALIB_HASH : 6abaa72c-aa41-8738-0be9-f592914732f3
##WORKING    : 15.0 mm
##DET_NAME   : EDAX All
##DET_MODE   : MediumLE
#SPECTRUM    :
27,
25,
7,
20,
69,
333,
932,
3029,
9015,
13379,
9490,
5032,
3324,
2963,
3989,
11898,
46392,
90038,
66726,
19183,
5469,
4769,
7244,
13007,
12756,
6273,
3068,
2545,
2465,
2572,
2539,
2668,
2682,
2875,
3069,
3102,
3253,
3278,
3432,
3573,
3639,
3967,
4045,
4077,
4206,
4244,
4785,
6442,
12723,
21982,
22164,
13799,
7452,
5608,
5916,
12475,
42261,
105998,
143704,
102506,
42157,
15837,
8159,
5493,
4784,
4550,
4183,
3786,
3422,
3496,
3359,
3392,
3494,
3397,
3711,
3667,
3647,
3706,
3466,
3308,
3425,
3353,
3245,
3307,
3291,
3247,
3147,
3258,
3297,
3264,
3172,
3146,
3147,
3109,
3087,
3144,
3098,
3115,
3135,
3139,
3122,
3114,
2981,
3042,
3024,
3093,
2891,
3043,
3051,
2936,
2928,
2784,
2795,
2801,
2833,
2964,
3197,
3396,
4323,
7643,
19205,
48119,
90128,
113179,
95717,
54220,
21519,
7379,
3596,
3134,
3854,
5740,
9850,
14501,
15827,
12854,
7705,
4216,
2598,
2155,
2123,
2070,
2028,
1954,
1873,
1999,
1889,
1991,
1933,
1911,
1779,
1888,
1851,
1896,
1957,
2053,
1925,
1926,
1790,
1935,
1829,
1811,
1772,
1771,
1793,
1733,
1737,
1646,
1690,
1701,
1679,
1658,
1743,
1621,
1689,
1585,
1659,
1652,
1629,
1573,
1740,
1691,
1590,
1734,
1566,
1638,
1622,
1461,
1486,
1483,
1448,
1510,
1439,
1556,
1748,
1861,
2023,
1934,
1809,
1705,
1537,
1501,
1361,
1422,
1421,
1388,
1438,
1645,
2192,
4286,
9250,
17745,
27687,
33854,
31662,
23137,
13196,
6493,
2857,
1689,
1319,
1203,
1320,
1180,
1236,
1194,
1204,
1160,
1318,
1304,
1490,
1833,
2563,
3621,
4840,
5401,
4834,
3801,
2564,
1746,
1233,
1003,
955,
1001,
1009,
1012,
1073,
1024,
1067,
1043,
994,
1005,
994,
958,
886,
930,
938,
932,
912,
961,
887,
933,
864,
881,
869,
860,
854,
830,
857,
829,
856,
837,
869,
825,
832,
850,
832,
788,
782,
748,
762,
742,
780,
757,
744,
752,
748,
753,
749,
732,
770,
706,
717,
715,
704,
691,
682,
681,
699,
659,
663,
694,
677,
663,
623,
637,
662,
670,
652,
615,
650,
637,
673,
600,
594,
626,
625,
586,
621,
624,
611,
625,
577,
579,
586,
593,
576,
556,
574,
576,
555,
545,
558,
541,
569,
589,
603,
593,
533,
540,
557,
515,
552,
517,
525,
512,
531,
459,
491,
477,
487,
472,
473,
483,
471,
496,
441,
458,
480,
420,
496,
424,
434,
437,
410,
401,
397,
410,
446,
427,
408,
393,
433,
383,
354,
417,
400,
374,
399,
403,
378,
384,
341,
376,
341,
373,
380,
377,
354,
325,
383,
336,
329,
368,
356,
308,
305,
333,
290,
330,
319,
324,
304,
323,
302,
293,
300,
295,
314,
284,
274,
313,
301,
286,
276,
317,
263,
264,
287,
272,
272,
256,
302,
247,
277,
286,
254,
238,
233,
237,
240,
242,
241,
229,
214,
250,
237,
198,
228,
223,
234,
210,
184,
196,
214,
192,
182,
213,
206,
210,
201,
206,
195,
180,
185,
159,
199,
175,
195,
178,
170,
192,
169,
169,
159,
159,
158,
169,
154,
159,
163,
154,
175,
159,
137,
145,
121,
140,
153,
146,
125,
135,
136,
132,
127,
133,
169,
141,
99,
131,
124,
109,
118,
128,
133,
107,
131,
99,
90,
110,
104,
126,
102,
107,
115,
104,
121,
100,
101,
90,
116,
108,
110,
106,
91,
93,
85,
98,
66,
86,
93,
88,
97,
73,
81,
83,
77,
73,
84,
69,
84,
63,
70,
68,
72,
76,
61,
71,
66,
84,
47,
66,
69,
70,
62,
61,
62,
54,
87,
57,
60,
56,
56,
55,
54,
52,
51,
49,
45,
52,
54,
43,
29,
61,
34,
49,
56,
46,
54,
47,
48,
38,
49,
34,
44,
30,
46,
41,
30,
31,
34,
27,
28,
32,
36,
40,
36,
31,
33,
34,
28,
30,
22,
30,
29,
23,
21,
33,
29,
24,
31,
21,
20,
19,
27,
23,
26,
21,
25,
15,
28,
20,
18,
16,
14,
13,
15,
10,
18,
12,
19,
16,
9,
14,
7,
16,
13,
12,
5,
11,
15,
9,
6,
4,
5,
9,
9,
8,
10,
9,
4,
8,
8,
2,
3,
7,
2,
3,
3,
3,
5,
6,
3,
1,
6,
4,
0,
3,
1,
4,
1,
2,
2,
1,
1,
0,
0,
1,
0,
0,
0,
0,
1,
0,
1,
1,
1,
1,
1,
1,
0,
1,
1,
0,
0,
1,
0,
0,
0,
1,
0,
0,
1,
0,
0,
1,
0,
0,
0,
1,
0,
0,
1,
0,
0,
0,
0,
0,
0,
0,
1,
0,
1,
0,
0,
0,
0,
2,
1,
1,
0,
0,
0,
1,
0,
0,
0,
0,
0,
0,
0,
0,
0,
0,
0,
0,
1,
0,
1,
0,
0,
0,
0,
0,
0,
0,
0,
0,
0,
0,
0,
0,
0,
0,
0,
0,
0,
0,
0,
0,
0,
0,
0,
0,
0,
0,
2,
1,
0,
0,
0,
0,
1,
1,
0,
1,
0,
0,
0,
0,
0,
0,
0,
0,
0,
0,
0,
0,
0,
0,
0,
0,
0,
0,
0,
0,
0,
0,
0,
0,
0,
0,
0,
0,
0,
0,
0,
0,
0,
0,
0,
0,
0,
0,
0,
0,
0,
0,
0,
0,
0,
0,
0,
0,
0,
0,
0,
1,
0,
0,
0,
0,
0,
0,
0,
0,
0,
0,
0,
0,
0,
0,
0,
0,
0,
0,
1,
0,
0,
0,
0,
0,
0,
0,
0,
1,
0,
0,
0,
0,
0,
0,
0,
0,
0,
0,
0,
0,
1,
0,
0,
0,
0,
0,
0,
0,
0,
0,
0,
0,
0,
0,
1,
0,
0,
0,
1,
0,
0,
0,
0,
0,
0,
0,
0,
0,
0,
0,
0,
0,
0,
0,
0,
0,
0,
0,
0,
0,
0,
0,
0,
0,
0,
0,
0,
0,
0,
0,
0,
0,
0,
0,
0,
0,
0,
0,
0,
0,
0,
0,
0,
0,
0,
0,
0,
0,
0,
0,
0,
0,
0,
0,
0,
0,
0,
0,
0,
0,
0,
0,
0,
0,
0,
0,
0,
0,
0,
0,
0,
0,
0,
0,
0,
0,
0,
0,
0,
0,
0,
1,
0,
0,
0,
0,
0,
0,
0,
0,
0,
0,
0,
0,
0,
0,
0,
0,
0,
0,
0,
0,
0,
0,
0,
0,
0,
0,
0,
0,
0,
0,
0,
0,
0,
0,
0,
0,
0,
0,
0,
0,
0,
0,
0,
0,
0,
0,
0,
0,
0,
0,
0,
0,
0,
0,
0,
0,
0,
0,
0,
0,
0,
0,
0,
0,
0,
0,
0,
0,
0,
0,
0,
0,
0,
0,
0,
0,
0,
0,
0,
0,
0,
0,
0,
0,
0,
0,
0,
0,
0,
0,
0,
0,
0,
0,
0,
0,
0,
0,
0,
0,
0,
0,
0,
0,
0,
0,
0,
0,
0,
0,
0,
0,
0,
0,
0,
0,
0,
0,
0,
0,
0,
0,
0,
0,
0,
0,
0,
0,
0,
0,
0,
0,
0,
0,
0,
0,
0,
0,
0,
0,
0,
0,
0,
0,
0,
0,
0,
0,
0,
0,
0,
0,
0,
0,
0,
0,
0,
0,
0,
0,
0,
0,
0,
0,
0,
0,
0,
0,
0,
0,
0,
0,
0,
0,
0,
0,
0,
0,
0,
0,
0,
0,
0,
0,
0,
0,
0,
0,
0,
0,
0,
0,
0,
0,
0,
0,
0,
0,
0,
0,
0,
0,
0,
0,
0,
0,
0,
0,
0,
0,
0,
0,
0,
0,
0,
0,
0,
0,
0,
0,
0,
0,
0,
0,
0,
0,
0,
0,
0,
0,
0,
0,
0,
0,
0,
0,
0,
0,
0,
0,
0,
0,
0,
0,
0,
0,
0,
0,
0,
0,
0,
0,
0,
0,
0,
0,
0,
0,
0,
0,
0,
0,
0,
0,
0,
0,
0,
0,
0,
0,
0,
0,
0,
0,
0,
0,
0,
0,
0,
0,
0,
0,
0,
0,
0,
0,
0,
0,
0,
0,
0,
0,
0,
0,
0,
0,
0,
0,
0,
0,
0,
0,
0,
0,
0,
0,
0,
0,
0,
0,
0,
0,
0,
0,
0,
0,
0,
0,
0,
0,
0,
0,
0,
0,
0,
0,
0,
0,
0,
0,
0,
0,
0,
0,
0,
0,
0,
0,
0,
0,
0,
0,
0,
0,
0,
0,
0,
0,
0,
0,
0,
0,
0,
0,
0,
0,
0,
0,
0,
0,
0,
0,
0,
0,
0,
0,
0,
0,
0,
0,
0,
0,
0,
0,
0,
0,
0,
0,
0,
0,
0,
0,
0,
0,
0,
0,
0,
0,
0,
0,
0,
0,
0,
0,
0,
0,
#ENDOFDATA   :