File: N132962/Quantification/20 keV/MMM1/SPI MM1 Bustamite[0][4].msa
#FORMAT      : EMSA/MAS Spectral Data File
#VERSION     : 1.0
#TITLE       : SPI MM1 Bustamite[0][all]
#DATE        : 11-MAR-2025
#TIME        : 14:02
#OWNER       : Unknown
#NPOINTS     : 4096
#NCOLUMNS    : 1
#XUNITS      : eV
#YUNITS      : counts
#DATATYPE    : Y
#XPERCHAN    : 9.99778
#OFFSET      : 1.69135
#BEAMKV      : 20
#SIGNALTYPE  : EDS
#ELEVANGLE   : 35
#AZIMANGLE   : 0
#LIVETIME    : 239.884
#REALTIME    : 255.717
#PROBECUR    : 1.02902
#TAUWIND     : 0
#TDEADLYR    : 0
#TACTLYR     : 0.045
#TALWIND     : 0.025
#CHOFFSET    : 0.0
#XLABEL      : Energy (eV)
#YLABEL      : Counts
#XPOSITION   : 2.65861
#YPOSITION   : -2.68258
#ZPOSITION   : 30.9284
#EDSDET      : SD
##SPECIMEN   : SPI MM1 Bustamite[0][all]
##D2STDCMP   : Bustamite,(O:38.8357),(Si:22.7243),(Ca:16.2141),(Mn:22.2259),6.0
##DET_HASH   : 12273538-fd48-a23f-0a19-f1e6fa85caef
##CALIB_HASH : 6abaa72c-aa41-8738-0be9-f592914732f3
##WORKING    : 15.0 mm
##DET_NAME   : EDAX All
##DET_MODE   : MediumLE
#SPECTRUM    :
20,
26,
4,
13,
80,
279,
965,
2953,
8363,
11867,
7404,
4121,
3151,
3249,
4958,
15814,
59995,
116929,
87118,
25921,
9193,
10474,
9226,
7294,
6058,
3565,
2382,
2287,
2381,
2478,
2475,
2628,
2799,
3202,
3505,
3440,
3233,
3355,
3374,
3469,
3870,
4577,
4730,
4423,
4223,
4139,
4183,
4340,
4662,
4863,
5027,
5264,
5291,
5555,
6489,
15278,
56685,
142078,
192515,
136941,
56411,
19660,
9600,
5652,
4080,
4006,
3667,
3359,
3206,
3161,
3141,
3227,
3268,
3316,
3495,
3664,
3597,
3449,
3239,
3342,
3243,
3243,
3127,
3227,
3165,
3182,
3204,
3180,
3097,
3139,
3165,
3085,
3037,
3062,
2985,
3059,
3072,
3043,
2973,
2994,
2879,
2903,
3007,
2964,
2871,
2974,
2904,
2766,
2911,
2855,
2705,
2866,
2783,
2761,
2763,
2899,
3037,
3329,
3698,
5593,
12199,
28714,
53091,
66579,
56297,
32516,
13520,
5157,
3110,
2902,
3190,
4383,
6706,
9164,
10239,
8378,
5595,
3542,
2657,
2352,
2183,
2102,
2126,
2081,
2035,
1992,
1995,
2024,
1929,
1987,
1928,
1945,
1837,
2002,
1880,
1889,
1920,
1837,
1866,
1930,
1838,
1773,
1750,
1803,
1816,
1798,
1693,
1687,
1739,
1666,
1704,
1725,
1710,
1666,
1633,
1606,
1679,
1634,
1609,
1751,
1743,
1788,
1680,
1628,
1572,
1570,
1592,
1594,
1619,
1626,
1777,
2259,
3991,
8587,
17981,
30702,
40073,
40011,
29645,
17293,
8106,
3423,
1924,
1525,
1408,
1458,
1461,
1442,
1711,
2485,
4267,
7417,
11278,
14228,
14738,
13224,
10361,
7783,
5097,
3105,
2021,
1441,
1224,
1181,
1159,
1143,
1162,
1112,
1144,
1133,
1229,
1309,
1543,
1954,
2288,
2414,
2353,
1942,
1496,
1184,
1071,
1045,
954,
1038,
1020,
1026,
1071,
1000,
1053,
1056,
1003,
983,
959,
1017,
977,
964,
920,
928,
911,
920,
869,
842,
832,
875,
841,
846,
811,
826,
869,
842,
862,
865,
823,
900,
811,
814,
807,
815,
801,
780,
749,
798,
784,
746,
785,
859,
865,
949,
884,
905,
769,
774,
732,
722,
728,
708,
754,
691,
724,
639,
674,
644,
683,
652,
645,
660,
647,
651,
634,
606,
656,
589,
614,
599,
576,
610,
655,
661,
668,
667,
601,
653,
652,
554,
628,
554,
580,
539,
558,
566,
465,
594,
608,
516,
532,
556,
479,
543,
519,
545,
529,
531,
465,
522,
519,
495,
467,
477,
499,
484,
469,
460,
464,
491,
481,
457,
406,
448,
471,
423,
438,
435,
418,
420,
426,
438,
438,
411,
401,
431,
427,
393,
423,
418,
382,
412,
403,
396,
402,
356,
393,
396,
354,
347,
394,
334,
361,
337,
340,
342,
346,
367,
331,
361,
359,
380,
334,
319,
333,
345,
317,
313,
297,
294,
295,
293,
314,
272,
294,
287,
285,
290,
291,
316,
277,
313,
255,
265,
237,
255,
271,
247,
247,
235,
244,
254,
270,
274,
277,
232,
220,
241,
245,
227,
199,
217,
224,
222,
265,
219,
226,
200,
207,
222,
196,
193,
172,
232,
221,
204,
185,
188,
176,
179,
183,
184,
182,
199,
171,
208,
178,
169,
170,
166,
163,
165,
168,
155,
168,
190,
152,
148,
130,
161,
154,
138,
147,
139,
165,
132,
125,
150,
145,
157,
141,
143,
140,
132,
131,
138,
126,
130,
105,
134,
137,
106,
123,
113,
113,
107,
114,
136,
93,
97,
97,
102,
105,
108,
103,
102,
99,
113,
102,
87,
98,
75,
96,
85,
92,
97,
83,
80,
58,
87,
71,
87,
95,
82,
69,
73,
78,
85,
88,
63,
80,
73,
72,
66,
71,
61,
69,
56,
81,
69,
64,
75,
68,
59,
52,
52,
51,
47,
62,
48,
60,
53,
52,
52,
55,
43,
50,
47,
54,
37,
47,
57,
51,
39,
43,
40,
40,
35,
34,
41,
34,
30,
29,
36,
29,
40,
35,
45,
44,
41,
35,
23,
29,
33,
29,
25,
20,
26,
29,
29,
24,
38,
32,
21,
23,
25,
14,
25,
23,
28,
20,
23,
15,
21,
20,
18,
23,
21,
10,
22,
17,
15,
17,
23,
16,
18,
13,
18,
15,
14,
12,
9,
11,
20,
8,
15,
12,
9,
13,
13,
3,
5,
9,
7,
7,
8,
7,
8,
13,
4,
7,
7,
6,
6,
3,
3,
7,
6,
4,
6,
7,
1,
1,
2,
3,
4,
2,
2,
0,
0,
0,
2,
0,
1,
1,
1,
1,
2,
0,
2,
2,
1,
1,
2,
0,
0,
1,
0,
0,
0,
0,
1,
3,
1,
0,
1,
0,
2,
0,
1,
1,
1,
2,
2,
0,
1,
1,
1,
0,
1,
1,
1,
0,
0,
0,
0,
0,
0,
0,
0,
0,
0,
0,
0,
0,
0,
0,
0,
0,
1,
0,
0,
0,
0,
0,
0,
0,
0,
0,
0,
0,
0,
0,
0,
0,
0,
1,
0,
0,
1,
1,
0,
0,
0,
0,
0,
0,
0,
0,
0,
0,
0,
0,
0,
0,
0,
0,
0,
0,
0,
0,
0,
0,
0,
0,
0,
0,
0,
0,
0,
0,
1,
0,
0,
0,
0,
0,
0,
0,
0,
0,
0,
0,
0,
1,
0,
0,
0,
0,
0,
0,
0,
0,
0,
0,
0,
0,
0,
0,
0,
0,
0,
0,
0,
0,
0,
0,
0,
0,
0,
0,
0,
0,
0,
0,
0,
0,
0,
0,
0,
0,
0,
0,
0,
0,
0,
0,
2,
0,
0,
0,
0,
0,
0,
0,
0,
0,
0,
0,
0,
0,
0,
0,
0,
0,
0,
0,
0,
0,
0,
0,
0,
0,
0,
0,
0,
0,
0,
0,
0,
0,
0,
0,
0,
0,
0,
0,
0,
0,
0,
0,
0,
0,
0,
0,
0,
0,
0,
0,
0,
0,
0,
0,
0,
0,
0,
0,
0,
0,
0,
0,
0,
0,
0,
0,
0,
0,
0,
0,
0,
0,
0,
0,
0,
0,
0,
0,
0,
0,
0,
0,
0,
0,
0,
0,
0,
0,
0,
0,
0,
0,
0,
0,
0,
0,
0,
0,
0,
0,
0,
0,
0,
0,
0,
0,
0,
0,
0,
0,
0,
0,
0,
0,
0,
0,
0,
0,
0,
0,
0,
0,
0,
0,
0,
0,
0,
0,
0,
0,
0,
0,
0,
0,
0,
0,
0,
0,
0,
0,
0,
0,
0,
0,
0,
0,
0,
0,
0,
0,
0,
0,
0,
0,
0,
0,
0,
0,
0,
0,
0,
0,
0,
0,
0,
0,
0,
0,
0,
0,
0,
0,
0,
0,
0,
0,
0,
0,
0,
0,
0,
0,
0,
0,
0,
0,
0,
0,
0,
0,
0,
0,
0,
0,
0,
0,
0,
0,
0,
0,
0,
0,
0,
0,
0,
0,
0,
0,
0,
0,
0,
0,
0,
0,
0,
0,
0,
0,
0,
0,
0,
0,
0,
0,
0,
0,
0,
0,
0,
0,
0,
0,
0,
0,
0,
0,
0,
0,
0,
0,
0,
0,
0,
0,
0,
0,
0,
0,
0,
0,
0,
0,
0,
0,
0,
0,
0,
0,
0,
0,
0,
0,
0,
0,
0,
0,
0,
0,
0,
0,
0,
0,
0,
0,
0,
0,
0,
0,
0,
0,
0,
0,
0,
0,
0,
0,
0,
0,
0,
0,
0,
0,
0,
0,
0,
0,
0,
0,
0,
0,
0,
0,
0,
0,
0,
0,
0,
0,
0,
0,
0,
0,
0,
0,
0,
0,
0,
0,
0,
0,
0,
0,
0,
0,
0,
0,
0,
0,
0,
0,
0,
0,
0,
0,
0,
0,
0,
0,
0,
0,
0,
0,
0,
0,
0,
0,
0,
0,
0,
0,
0,
0,
0,
0,
0,
0,
0,
0,
0,
0,
0,
0,
0,
0,
0,
0,
0,
0,
0,
0,
0,
0,
0,
0,
0,
0,
0,
0,
0,
0,
0,
0,
0,
0,
0,
0,
0,
0,
0,
0,
0,
0,
0,
0,
0,
0,
0,
0,
0,
0,
0,
0,
0,
0,
0,
0,
0,
0,
0,
0,
0,
0,
0,
0,
0,
0,
0,
0,
0,
0,
0,
0,
0,
0,
0,
0,
0,
0,
0,
0,
0,
0,
0,
0,
0,
0,
0,
0,
0,
0,
0,
0,
0,
0,
0,
0,
0,
0,
0,
0,
0,
0,
0,
0,
0,
0,
0,
0,
0,
0,
0,
0,
0,
0,
0,
0,
0,
0,
0,
0,
0,
0,
0,
0,
0,
0,
0,
0,
0,
0,
0,
0,
0,
0,
0,
0,
0,
0,
0,
0,
0,
0,
0,
0,
0,
0,
0,
0,
0,
0,
0,
0,
0,
0,
0,
0,
0,
0,
0,
0,
0,
0,
0,
0,
0,
0,
0,
0,
0,
0,
0,
0,
0,
0,
0,
0,
0,
0,
0,
0,
0,
0,
0,
#ENDOFDATA   :