File: N132962/Quantification/20 keV/MMM1/SPI MM1 Chromite[0][4].msa
#FORMAT      : EMSA/MAS Spectral Data File
#VERSION     : 1.0
#TITLE       : SPI MM1dup Chromite[0][all]
#DATE        : 12-MAR-2025
#TIME        : 14:08
#OWNER       : Unknown
#NPOINTS     : 4096
#NCOLUMNS    : 1
#XUNITS      : eV
#YUNITS      : counts
#DATATYPE    : Y
#XPERCHAN    : 9.99778
#OFFSET      : 1.69135
#BEAMKV      : 20
#SIGNALTYPE  : EDS
#ELEVANGLE   : 35
#AZIMANGLE   : 0
#LIVETIME    : 239.727
#REALTIME    : 256.112
#PROBECUR    : 1.02627
#TAUWIND     : 0
#TDEADLYR    : 0
#TACTLYR     : 0.045
#TALWIND     : 0.025
#CHOFFSET    : 0.0
#XLABEL      : Energy (eV)
#YLABEL      : Counts
#XPOSITION   : 4.2257
#YPOSITION   : -0.2176
#ZPOSITION   : 31.03608
#EDSDET      : SD
##SPECIMEN   : SPI MM1dup Chromite[0][all]
##DET_HASH   : 12273538-fd48-a23f-0a19-f1e6fa85caef
##CALIB_HASH : 6abaa72c-aa41-8738-0be9-f592914732f3
##WORKING    : 15.0 mm
##DET_NAME   : EDAX All
##DET_MODE   : MediumLE
#SPECTRUM    :
26,
28,
8,
17,
84,
343,
1030,
3008,
8158,
10938,
6384,
3892,
4163,
5677,
10732,
36559,
129918,
236648,
171915,
51377,
10869,
4334,
4543,
6927,
6807,
3880,
2383,
2256,
2506,
2512,
2413,
2565,
2656,
2952,
3419,
3473,
3378,
3626,
4078,
7100,
20554,
48382,
57756,
33438,
11754,
5166,
4980,
11498,
35564,
71506,
72772,
38395,
13187,
5403,
3873,
3465,
3482,
3858,
4114,
4315,
4036,
3712,
3464,
3362,
3330,
3346,
3679,
3597,
3573,
3450,
3387,
3414,
3292,
3509,
3396,
3437,
3383,
3473,
3242,
3444,
3377,
3342,
3359,
3311,
3356,
3456,
3397,
3238,
3276,
3248,
3267,
3373,
3171,
3152,
3214,
3268,
3240,
3180,
3193,
3097,
3121,
3047,
2925,
3007,
3003,
2904,
2940,
2915,
2986,
2876,
2814,
2826,
2790,
2793,
2769,
2813,
2695,
2704,
2698,
2735,
2820,
3062,
3059,
3039,
2881,
2658,
2654,
2545,
2504,
2445,
2485,
2538,
2458,
2411,
2340,
2399,
2367,
2413,
2226,
2278,
2403,
2304,
2292,
2369,
2278,
2184,
2230,
2250,
2288,
2329,
2478,
2373,
2293,
2181,
2183,
2127,
2122,
2137,
2028,
2005,
1957,
1993,
2052,
2147,
2281,
2325,
2237,
2027,
1976,
1908,
1977,
1957,
2070,
2119,
2388,
3263,
6604,
16480,
36986,
64069,
84222,
81446,
57975,
30802,
12959,
5043,
2433,
1852,
1658,
1782,
1620,
1812,
1830,
2192,
3042,
4821,
7829,
11101,
12768,
11469,
8206,
4973,
2689,
1757,
1365,
1363,
1358,
1445,
1754,
2861,
5489,
10000,
15327,
18627,
17318,
12705,
7795,
4009,
2047,
1467,
1214,
1308,
1281,
1178,
1214,
1208,
1183,
1125,
1183,
1305,
1415,
1556,
1901,
2483,
3064,
3368,
3047,
2431,
1878,
1373,
1201,
1049,
1025,
1003,
989,
988,
1015,
1154,
1189,
1233,
1224,
1105,
1042,
999,
980,
952,
961,
831,
909,
849,
885,
939,
858,
895,
876,
868,
897,
836,
875,
845,
806,
831,
815,
817,
863,
850,
838,
845,
839,
831,
791,
757,
813,
812,
805,
807,
806,
842,
779,
746,
799,
788,
711,
763,
718,
675,
742,
704,
704,
716,
695,
701,
670,
639,
669,
644,
709,
670,
640,
603,
642,
634,
688,
633,
606,
604,
634,
625,
627,
647,
630,
578,
566,
575,
594,
573,
594,
546,
540,
607,
564,
568,
566,
594,
546,
565,
558,
542,
523,
494,
507,
519,
518,
501,
470,
498,
529,
502,
484,
511,
504,
490,
479,
476,
482,
461,
477,
482,
486,
466,
508,
474,
459,
448,
483,
412,
428,
463,
418,
423,
406,
421,
420,
394,
404,
404,
380,
409,
386,
391,
366,
385,
360,
372,
378,
362,
342,
331,
356,
343,
405,
362,
386,
363,
367,
356,
334,
341,
343,
309,
344,
296,
339,
291,
317,
331,
320,
298,
319,
296,
283,
283,
313,
280,
293,
260,
277,
265,
266,
270,
223,
283,
259,
291,
268,
286,
239,
250,
252,
255,
249,
220,
251,
248,
234,
233,
225,
234,
216,
228,
224,
234,
229,
198,
187,
219,
237,
218,
215,
186,
202,
190,
219,
198,
188,
164,
203,
186,
189,
176,
166,
180,
169,
202,
167,
160,
165,
160,
144,
152,
179,
142,
165,
145,
133,
153,
160,
149,
152,
159,
138,
138,
130,
136,
129,
122,
134,
158,
122,
153,
117,
132,
121,
111,
108,
117,
113,
124,
101,
117,
123,
113,
100,
107,
114,
121,
104,
124,
121,
102,
102,
87,
97,
92,
98,
102,
86,
99,
90,
99,
88,
83,
91,
71,
82,
75,
81,
91,
90,
94,
79,
100,
74,
78,
77,
71,
68,
67,
68,
53,
75,
70,
72,
54,
58,
58,
58,
67,
62,
57,
50,
48,
46,
45,
60,
49,
45,
61,
56,
40,
52,
52,
56,
33,
44,
50,
52,
51,
45,
45,
52,
36,
57,
25,
50,
60,
44,
35,
35,
35,
33,
36,
32,
46,
41,
32,
21,
29,
33,
25,
22,
24,
42,
42,
23,
45,
32,
27,
27,
33,
30,
21,
29,
29,
25,
26,
24,
19,
18,
29,
15,
15,
12,
12,
23,
12,
17,
18,
11,
14,
21,
13,
19,
19,
25,
10,
11,
11,
12,
13,
9,
12,
8,
11,
15,
12,
9,
7,
9,
10,
6,
8,
6,
6,
9,
7,
7,
6,
1,
5,
3,
5,
4,
2,
4,
5,
6,
4,
1,
5,
1,
0,
0,
3,
2,
1,
2,
2,
2,
0,
0,
0,
0,
0,
0,
0,
2,
0,
0,
0,
1,
0,
1,
1,
0,
0,
0,
0,
0,
0,
0,
0,
1,
0,
0,
0,
1,
0,
0,
0,
0,
0,
0,
0,
0,
0,
0,
0,
2,
0,
0,
2,
0,
1,
0,
0,
0,
0,
0,
0,
1,
1,
1,
0,
0,
0,
1,
0,
0,
0,
0,
0,
0,
0,
0,
1,
0,
0,
0,
1,
0,
0,
0,
0,
1,
0,
0,
0,
0,
0,
0,
0,
0,
0,
0,
0,
0,
0,
0,
0,
1,
0,
0,
0,
0,
0,
0,
0,
0,
0,
0,
0,
1,
0,
0,
0,
0,
0,
0,
0,
0,
0,
0,
0,
0,
0,
0,
1,
1,
0,
0,
0,
0,
0,
0,
0,
0,
0,
0,
0,
0,
0,
1,
0,
0,
1,
1,
0,
0,
0,
0,
0,
0,
0,
0,
0,
0,
0,
0,
0,
0,
0,
1,
0,
0,
0,
0,
0,
0,
0,
0,
0,
0,
0,
0,
0,
0,
0,
0,
0,
0,
0,
0,
0,
0,
0,
0,
1,
0,
0,
0,
0,
0,
0,
0,
1,
0,
0,
0,
0,
0,
0,
0,
0,
0,
0,
0,
0,
0,
0,
0,
0,
0,
0,
0,
0,
1,
0,
0,
0,
0,
0,
0,
0,
0,
0,
0,
0,
0,
0,
1,
0,
0,
0,
0,
0,
0,
0,
0,
0,
0,
0,
0,
0,
0,
0,
0,
0,
0,
0,
1,
0,
0,
0,
0,
0,
0,
0,
0,
0,
0,
0,
0,
0,
0,
0,
0,
0,
0,
0,
0,
0,
0,
0,
0,
0,
0,
0,
0,
0,
0,
0,
0,
0,
0,
0,
0,
0,
0,
0,
0,
0,
0,
0,
0,
0,
0,
0,
0,
0,
0,
0,
0,
0,
0,
0,
0,
0,
0,
0,
0,
0,
0,
0,
0,
0,
0,
0,
0,
0,
0,
0,
0,
0,
1,
1,
0,
0,
0,
0,
0,
0,
0,
0,
0,
0,
0,
0,
0,
0,
0,
0,
0,
0,
0,
0,
0,
0,
0,
0,
0,
0,
0,
0,
0,
0,
0,
0,
0,
0,
0,
0,
0,
0,
0,
0,
0,
0,
0,
0,
0,
0,
0,
0,
0,
0,
0,
0,
0,
0,
0,
0,
0,
0,
0,
0,
0,
0,
0,
0,
0,
0,
0,
0,
0,
0,
0,
0,
0,
0,
0,
0,
0,
0,
0,
0,
0,
0,
0,
0,
0,
0,
0,
0,
0,
0,
0,
0,
0,
0,
0,
0,
0,
0,
0,
0,
0,
0,
0,
0,
0,
0,
0,
0,
0,
0,
0,
0,
0,
0,
0,
0,
0,
0,
0,
0,
0,
0,
0,
0,
0,
0,
0,
0,
0,
0,
0,
0,
0,
0,
0,
0,
0,
0,
0,
0,
0,
0,
0,
0,
0,
0,
0,
0,
0,
0,
0,
0,
0,
0,
0,
0,
0,
0,
0,
0,
0,
0,
0,
0,
0,
0,
0,
0,
0,
0,
0,
0,
0,
0,
0,
0,
0,
0,
0,
0,
0,
0,
0,
0,
0,
0,
0,
0,
0,
0,
0,
0,
0,
0,
0,
0,
0,
0,
0,
0,
0,
0,
0,
0,
0,
0,
0,
0,
0,
0,
0,
0,
0,
0,
0,
0,
0,
0,
0,
0,
0,
0,
0,
0,
0,
0,
0,
0,
0,
0,
0,
0,
0,
0,
0,
0,
0,
0,
0,
0,
0,
0,
0,
0,
0,
0,
0,
0,
0,
0,
0,
0,
0,
0,
0,
0,
0,
0,
0,
0,
0,
0,
0,
0,
0,
0,
0,
0,
0,
0,
0,
0,
0,
0,
0,
0,
0,
0,
0,
0,
0,
0,
0,
0,
0,
0,
0,
0,
0,
0,
0,
0,
0,
0,
0,
0,
0,
0,
0,
0,
0,
0,
0,
0,
0,
0,
0,
0,
0,
0,
0,
0,
0,
0,
0,
0,
0,
0,
0,
0,
0,
0,
0,
0,
0,
0,
0,
0,
0,
0,
0,
0,
0,
0,
0,
0,
0,
0,
0,
0,
0,
0,
0,
0,
0,
0,
0,
0,
0,
0,
0,
0,
0,
0,
0,
0,
0,
0,
0,
0,
0,
0,
0,
0,
0,
0,
0,
0,
0,
0,
0,
0,
0,
0,
0,
0,
0,
0,
0,
0,
#ENDOFDATA   :