File: N132962/Quantification/20 keV/MMM1/SPI MM1 Chlorite[4][4].msa
#FORMAT      : EMSA/MAS Spectral Data File
#VERSION     : 1.0
#TITLE       : SPI MM1dup Chlorite[4][all]
#DATE        : 12-MAR-2025
#TIME        : 14:22
#OWNER       : Unknown
#NPOINTS     : 4096
#NCOLUMNS    : 1
#XUNITS      : eV
#YUNITS      : counts
#DATATYPE    : Y
#XPERCHAN    : 9.99778
#OFFSET      : 1.69135
#BEAMKV      : 20
#SIGNALTYPE  : EDS
#ELEVANGLE   : 35
#AZIMANGLE   : 0
#LIVETIME    : 239.83
#REALTIME    : 254.707
#PROBECUR    : 1.02867
#TAUWIND     : 0
#TDEADLYR    : 0
#TACTLYR     : 0.045
#TALWIND     : 0.025
#CHOFFSET    : 0.0
#XLABEL      : Energy (eV)
#YLABEL      : Counts
#XPOSITION   : 6.30705
#YPOSITION   : -0.18685
#ZPOSITION   : 31.03608
#EDSDET      : SD
##SPECIMEN   : SPI MM1dup Chlorite[4][all]
##DET_HASH   : 12273538-fd48-a23f-0a19-f1e6fa85caef
##CALIB_HASH : 6abaa72c-aa41-8738-0be9-f592914732f3
##WORKING    : 15.0 mm
##DET_NAME   : EDAX All
##DET_MODE   : MediumLE
#SPECTRUM    :
24,
26,
9,
13,
78,
302,
852,
2578,
7428,
9783,
5264,
2710,
2901,
4032,
7621,
30010,
123686,
243529,
179657,
46385,
5973,
2283,
2817,
4090,
3893,
2688,
2182,
2391,
2648,
2838,
2656,
2709,
2988,
3290,
3731,
3916,
4219,
4487,
5672,
12907,
50034,
125225,
151929,
85299,
24662,
6331,
4339,
9191,
29329,
58111,
58946,
30675,
11069,
4819,
3948,
8027,
28424,
71627,
97833,
70089,
28926,
10605,
5332,
3212,
2346,
2168,
2282,
2375,
2282,
2122,
2101,
2195,
2159,
2312,
2412,
2400,
2458,
2245,
2295,
2222,
2237,
2142,
2211,
2319,
2391,
2255,
2201,
2262,
2231,
2182,
2227,
2331,
2220,
2159,
2109,
2090,
2079,
2016,
2104,
2189,
2275,
2091,
1948,
1986,
1992,
1893,
1927,
1967,
1962,
1891,
1825,
1836,
1878,
1782,
1786,
1816,
1789,
1803,
1759,
1728,
1813,
1664,
1687,
1813,
1730,
1693,
1644,
1627,
1580,
1649,
1599,
1625,
1569,
1527,
1577,
1532,
1404,
1475,
1499,
1504,
1515,
1495,
1499,
1429,
1471,
1371,
1353,
1423,
1439,
1392,
1414,
1330,
1335,
1400,
1386,
1352,
1324,
1300,
1250,
1245,
1322,
1321,
1227,
1251,
1271,
1279,
1273,
1252,
1156,
1245,
1168,
1200,
1189,
1170,
1161,
1196,
1340,
1635,
2396,
3563,
4352,
4111,
3226,
2264,
1500,
1181,
1054,
1030,
1008,
1013,
979,
970,
1072,
1003,
1054,
1088,
1220,
1321,
1406,
1319,
1210,
1124,
917,
984,
915,
882,
936,
946,
1007,
1253,
1986,
3042,
4390,
5345,
4927,
3756,
2364,
1481,
1022,
889,
814,
812,
902,
756,
730,
800,
758,
812,
803,
779,
755,
857,
916,
1062,
1224,
1313,
1243,
1053,
914,
806,
688,
654,
708,
687,
643,
693,
746,
798,
879,
914,
860,
833,
729,
676,
622,
608,
560,
597,
612,
643,
559,
592,
568,
594,
594,
505,
550,
523,
572,
570,
541,
507,
542,
501,
588,
586,
570,
557,
500,
495,
530,
498,
486,
515,
475,
483,
450,
487,
478,
476,
455,
513,
442,
488,
438,
450,
460,
479,
458,
466,
444,
436,
413,
435,
413,
393,
432,
470,
414,
439,
418,
406,
367,
403,
400,
352,
419,
402,
354,
396,
389,
379,
386,
393,
390,
395,
375,
357,
330,
341,
373,
353,
327,
320,
328,
289,
335,
359,
337,
342,
346,
298,
333,
321,
298,
287,
315,
291,
260,
281,
316,
280,
266,
307,
290,
286,
283,
285,
279,
287,
275,
261,
231,
291,
246,
261,
273,
274,
264,
259,
244,
282,
266,
259,
250,
252,
246,
196,
248,
257,
242,
230,
216,
235,
205,
209,
215,
206,
220,
236,
199,
208,
238,
208,
179,
207,
205,
182,
189,
209,
210,
201,
162,
182,
181,
198,
181,
182,
186,
188,
185,
158,
190,
160,
170,
159,
190,
155,
157,
149,
150,
138,
154,
155,
162,
163,
154,
133,
132,
133,
133,
140,
173,
150,
137,
139,
137,
125,
150,
127,
113,
131,
115,
117,
117,
112,
122,
109,
100,
111,
114,
125,
129,
105,
112,
113,
116,
116,
111,
106,
112,
104,
109,
90,
93,
108,
117,
122,
91,
85,
96,
102,
90,
85,
85,
93,
94,
75,
81,
103,
67,
63,
82,
76,
64,
77,
67,
71,
76,
68,
80,
64,
66,
70,
66,
69,
53,
48,
58,
63,
73,
63,
64,
65,
76,
66,
62,
64,
51,
54,
55,
43,
59,
53,
53,
51,
66,
43,
43,
52,
49,
52,
58,
44,
45,
33,
52,
56,
35,
51,
56,
41,
44,
31,
41,
40,
39,
42,
30,
34,
36,
38,
37,
35,
34,
33,
36,
30,
35,
37,
29,
31,
30,
29,
31,
32,
27,
22,
21,
22,
26,
26,
32,
26,
28,
25,
24,
19,
24,
22,
19,
20,
20,
27,
29,
25,
12,
13,
25,
13,
12,
17,
23,
22,
23,
20,
12,
24,
20,
16,
15,
12,
12,
16,
16,
12,
12,
14,
17,
9,
13,
14,
14,
9,
13,
13,
19,
14,
12,
13,
13,
7,
6,
13,
4,
6,
6,
9,
8,
9,
6,
6,
6,
7,
6,
5,
5,
5,
3,
8,
3,
4,
5,
4,
3,
5,
2,
3,
3,
7,
6,
3,
2,
3,
3,
4,
3,
2,
4,
3,
1,
3,
3,
4,
5,
1,
0,
1,
1,
1,
1,
0,
1,
1,
0,
0,
0,
2,
0,
0,
1,
0,
0,
0,
0,
0,
0,
0,
0,
0,
0,
0,
1,
0,
0,
0,
0,
0,
0,
0,
0,
0,
0,
0,
0,
0,
1,
0,
0,
1,
0,
0,
0,
0,
0,
0,
0,
0,
0,
0,
0,
0,
0,
0,
0,
0,
0,
0,
0,
0,
0,
0,
0,
0,
0,
0,
0,
0,
0,
0,
0,
0,
0,
0,
0,
0,
0,
0,
0,
0,
0,
0,
0,
0,
0,
0,
0,
0,
0,
0,
0,
0,
0,
0,
0,
0,
0,
0,
0,
0,
0,
0,
0,
0,
0,
0,
0,
0,
0,
0,
0,
1,
0,
0,
0,
0,
0,
0,
0,
0,
0,
0,
0,
0,
0,
0,
0,
0,
0,
0,
0,
0,
0,
0,
0,
0,
0,
0,
0,
0,
1,
1,
0,
0,
0,
0,
0,
0,
0,
0,
0,
0,
0,
0,
0,
0,
0,
0,
0,
0,
0,
0,
0,
0,
0,
0,
0,
0,
0,
0,
0,
0,
0,
0,
0,
0,
0,
0,
0,
0,
0,
0,
0,
0,
0,
0,
0,
0,
0,
0,
0,
0,
0,
0,
0,
0,
0,
0,
0,
0,
0,
0,
0,
0,
0,
0,
0,
0,
0,
0,
0,
0,
0,
0,
0,
0,
0,
0,
0,
0,
0,
0,
0,
0,
0,
0,
0,
0,
0,
0,
0,
1,
0,
0,
0,
0,
0,
0,
0,
0,
0,
0,
0,
0,
0,
0,
0,
0,
0,
0,
0,
0,
0,
0,
0,
0,
0,
0,
0,
0,
0,
0,
0,
0,
0,
0,
0,
0,
0,
0,
0,
0,
0,
0,
0,
0,
0,
0,
0,
0,
0,
0,
0,
0,
0,
0,
0,
0,
0,
0,
0,
0,
0,
0,
0,
0,
0,
0,
0,
0,
0,
0,
0,
0,
0,
0,
0,
0,
0,
0,
0,
0,
0,
0,
0,
0,
0,
0,
0,
0,
0,
0,
0,
0,
0,
0,
0,
0,
0,
0,
0,
0,
0,
0,
0,
0,
0,
0,
0,
0,
0,
0,
0,
0,
0,
0,
0,
0,
0,
0,
0,
0,
0,
0,
0,
0,
0,
0,
0,
0,
0,
0,
0,
0,
0,
0,
0,
0,
0,
0,
0,
0,
0,
0,
0,
0,
0,
0,
0,
0,
0,
0,
0,
0,
0,
0,
0,
0,
0,
0,
0,
0,
0,
0,
0,
0,
0,
0,
0,
0,
0,
0,
0,
0,
0,
0,
0,
0,
0,
0,
0,
0,
0,
0,
0,
0,
0,
0,
0,
0,
0,
0,
0,
0,
0,
0,
0,
0,
0,
0,
0,
0,
0,
0,
0,
0,
0,
0,
0,
0,
0,
0,
0,
0,
0,
0,
0,
0,
0,
0,
0,
0,
0,
0,
0,
0,
0,
0,
0,
0,
0,
0,
0,
0,
0,
0,
0,
0,
0,
0,
0,
0,
0,
0,
0,
0,
0,
0,
0,
0,
0,
0,
0,
0,
0,
0,
0,
0,
0,
0,
0,
0,
0,
0,
0,
0,
0,
0,
0,
0,
0,
0,
0,
0,
0,
0,
0,
0,
0,
0,
0,
0,
0,
0,
0,
0,
0,
0,
0,
0,
0,
0,
0,
0,
0,
0,
0,
0,
0,
0,
0,
0,
0,
0,
0,
0,
0,
0,
0,
0,
0,
0,
0,
0,
0,
0,
0,
0,
0,
0,
0,
0,
0,
0,
0,
0,
0,
0,
0,
0,
0,
0,
0,
0,
0,
0,
0,
0,
0,
0,
0,
0,
0,
0,
0,
0,
0,
0,
0,
0,
0,
0,
0,
0,
0,
0,
0,
0,
0,
0,
0,
0,
0,
0,
0,
0,
0,
0,
0,
0,
0,
0,
0,
0,
0,
0,
0,
0,
0,
0,
0,
0,
0,
0,
0,
0,
0,
0,
0,
0,
0,
0,
0,
0,
0,
0,
0,
0,
0,
0,
0,
0,
0,
0,
0,
0,
0,
0,
0,
0,
0,
0,
0,
0,
0,
0,
0,
0,
0,
0,
0,
0,
0,
0,
0,
0,
0,
0,
0,
0,
0,
0,
0,
0,
0,
0,
0,
0,
0,
0,
0,
0,
0,
0,
0,
0,
0,
0,
0,
0,
0,
0,
0,
0,
0,
0,
0,
0,
0,
0,
0,
0,
0,
0,
0,
0,
0,
0,
0,
0,
0,
0,
0,
0,
0,
0,
#ENDOFDATA   :