File: N132962/Standards/15 keV/Ag std.msa
#FORMAT      : EMSA/MAS Spectral Data File
#VERSION     : 1.0
#TITLE       : Ag standard for 'N132962' detector
#NPOINTS     : 4096
#NCOLUMNS    : 1
#XUNITS      : eV
#YUNITS      : counts
#DATATYPE    : Y
#SIGNALTYPE  : EDS
#XLABEL      : Energy (eV)
#YLABEL      : Counts
#XPERCHAN -eV: 9.99778
#OFFSET   -eV: 1.69135
#CHOFFSET    : 0
#DATE        : 25-Sep-2025
#TIME        : 20:20:00
#OWNER       : Unknown
#ELEVANGLE   : 35
#BEAMKV   -kV: 15
#LIVETIME  -s: 1199.5
#REALTIME  -s: 1308.17
#PROBECUR -nA: 1.20924
##WORKING -mm: 15
##D2STDCMP   : Ag,(Ag:100.0000)
##SIMILAR    : 4.4
#SPECTRUM    :
115,
138,
70,
513,
3168,
11422,
26473,
49595,
105896,
213079,
259573,
164308,
83201,
51559,
33108,
30462,
43759,
60890,
53023,
35814,
28374,
27363,
30559,
30257,
27191,
26314,
27192,
29255,
31774,
33876,
36018,
37506,
37262,
37859,
41754,
42932,
40982,
40317,
41873,
43892,
50684,
66226,
80999,
83076,
70469,
58156,
55180,
54656,
53524,
52547,
52123,
49503,
47275,
47194,
46673,
46870,
47809,
51124,
52873,
52923,
50818,
46807,
43809,
42210,
41186,
41774,
41760,
41985,
41702,
41311,
41525,
41254,
41404,
41724,
43375,
48966,
58671,
63921,
56579,
46963,
41535,
40784,
40986,
41195,
42620,
49560,
66565,
88909,
95799,
78744,
56793,
46356,
48089,
54698,
61234,
71503,
114044,
274846,
627293,
998228,
1021907,
673995,
334073,
250486,
358579,
460227,
418950,
289219,
182812,
126312,
115174,
125681,
126251,
98507,
63739,
46982,
47980,
53150,
50410,
39193,
28170,
23196,
22924,
25615,
29207,
31051,
28610,
24256,
21307,
19507,
18861,
18915,
18820,
19030,
18707,
18987,
18621,
18848,
18802,
18890,
18738,
19028,
18852,
18714,
19220,
18651,
18530,
18857,
19103,
19848,
19935,
19984,
19170,
18558,
18487,
18301,
18291,
18177,
17895,
17860,
17751,
17664,
17518,
17794,
17582,
17682,
17495,
17447,
17179,
17203,
17264,
17145,
16962,
16855,
16571,
16855,
16537,
16712,
16456,
16433,
16568,
16492,
16301,
16130,
16007,
16007,
15953,
15752,
16109,
15726,
15686,
15498,
15364,
15413,
15290,
15339,
15297,
15529,
15705,
15809,
15849,
15454,
15384,
15375,
15402,
15118,
14875,
14905,
14594,
14428,
14337,
14463,
14433,
14344,
14549,
14143,
13557,
13428,
13492,
13260,
13223,
13073,
12999,
13065,
12764,
12813,
12729,
12608,
12446,
12378,
12213,
12269,
12124,
12015,
12420,
11950,
11904,
11850,
11688,
11543,
11367,
11313,
11379,
11182,
10995,
11121,
11139,
11219,
11169,
11259,
11099,
10902,
10859,
10587,
10519,
10416,
10304,
10445,
10269,
10087,
10080,
10057,
10124,
9874,
10062,
10060,
10198,
10027,
10102,
9998,
9782,
9516,
9485,
9317,
8967,
9054,
9019,
9069,
8905,
8793,
8914,
8703,
8629,
8520,
8583,
8580,
8441,
8596,
8469,
8141,
8129,
8261,
8134,
8016,
7812,
8075,
7984,
7718,
7784,
7613,
7647,
7442,
7531,
7292,
7462,
7364,
7250,
7105,
7125,
7064,
7056,
7028,
6972,
6932,
6641,
6718,
6708,
6604,
6671,
6516,
6415,
6500,
6364,
6371,
6267,
6193,
6262,
6253,
6113,
6053,
5944,
5896,
5853,
5894,
5777,
5783,
5695,
5514,
5650,
5482,
5391,
5419,
5361,
5320,
5314,
5361,
5488,
5444,
5561,
5721,
5833,
5752,
5664,
5440,
5360,
4964,
4762,
4652,
4723,
4630,
4505,
4506,
4339,
4296,
4319,
4277,
4241,
4239,
4077,
4141,
4061,
4037,
4053,
4017,
3997,
3870,
3882,
3814,
3793,
3709,
3651,
3630,
3521,
3480,
3490,
3380,
3466,
3319,
3463,
3384,
3316,
3438,
3310,
3218,
3068,
3086,
3040,
3040,
2984,
2916,
2891,
2805,
2818,
2742,
2683,
2732,
2643,
2553,
2706,
2552,
2431,
2498,
2372,
2423,
2294,
2303,
2236,
2211,
2198,
2153,
2116,
2067,
2118,
2039,
1956,
1985,
1968,
1881,
1805,
1807,
1866,
1772,
1739,
1707,
1700,
1597,
1676,
1507,
1591,
1510,
1512,
1469,
1483,
1377,
1334,
1389,
1391,
1282,
1295,
1231,
1241,
1182,
1167,
1135,
1016,
1093,
1106,
988,
974,
963,
949,
967,
936,
840,
820,
758,
800,
752,
730,
727,
693,
684,
627,
619,
648,
544,
531,
575,
495,
470,
457,
428,
402,
390,
364,
351,
360,
329,
273,
290,
260,
226,
208,
158,
160,
116,
111,
92,
65,
66,
42,
42,
30,
27,
18,
13,
16,
22,
13,
22,
15,
17,
17,
20,
21,
13,
21,
25,
22,
17,
13,
17,
19,
16,
13,
17,
21,
17,
19,
13,
12,
20,
13,
17,
21,
12,
13,
17,
19,
14,
10,
13,
8,
13,
10,
14,
13,
8,
9,
12,
4,
13,
8,
15,
6,
16,
11,
12,
9,
11,
10,
8,
14,
7,
12,
16,
9,
13,
14,
14,
16,
16,
21,
11,
10,
3,
6,
9,
11,
9,
5,
4,
6,
6,
5,
12,
9,
12,
5,
5,
3,
9,
7,
9,
11,
5,
12,
7,
10,
6,
4,
4,
4,
4,
7,
5,
8,
3,
4,
4,
4,
6,
4,
5,
6,
1,
6,
4,
7,
8,
1,
5,
7,
5,
5,
6,
5,
7,
7,
8,
2,
3,
4,
3,
5,
3,
4,
7,
1,
2,
7,
1,
2,
3,
2,
4,
2,
2,
3,
2,
2,
5,
5,
3,
3,
3,
2,
4,
2,
3,
4,
0,
2,
2,
5,
5,
0,
0,
1,
2,
3,
1,
1,
2,
2,
0,
0,
2,
1,
2,
4,
3,
1,
2,
2,
1,
2,
2,
1,
2,
1,
2,
1,
2,
0,
3,
2,
2,
0,
0,
1,
1,
2,
0,
0,
0,
3,
1,
0,
2,
1,
0,
2,
2,
1,
0,
0,
2,
3,
2,
0,
2,
2,
4,
3,
0,
2,
1,
0,
1,
1,
2,
2,
1,
1,
2,
1,
1,
1,
0,
1,
0,
0,
1,
1,
1,
1,
1,
0,
0,
0,
1,
1,
0,
1,
0,
1,
1,
2,
3,
2,
2,
0,
1,
1,
0,
0,
1,
1,
1,
0,
0,
0,
0,
0,
0,
1,
0,
1,
0,
0,
0,
1,
1,
0,
0,
0,
1,
0,
1,
0,
0,
1,
0,
0,
1,
0,
0,
1,
0,
0,
1,
1,
0,
0,
1,
0,
1,
0,
0,
0,
1,
0,
0,
0,
0,
1,
0,
0,
1,
0,
0,
1,
0,
0,
0,
1,
1,
0,
0,
0,
1,
1,
0,
0,
1,
0,
0,
0,
0,
0,
1,
0,
0,
0,
2,
2,
0,
1,
0,
0,
0,
0,
0,
0,
1,
1,
0,
0,
0,
0,
0,
0,
0,
0,
0,
0,
0,
0,
1,
0,
0,
0,
0,
0,
0,
0,
0,
1,
0,
0,
0,
0,
0,
0,
0,
0,
0,
0,
0,
0,
0,
0,
0,
0,
0,
0,
0,
0,
0,
0,
0,
0,
0,
0,
0,
0,
0,
0,
0,
0,
0,
1,
0,
0,
0,
0,
0,
0,
0,
0,
0,
0,
0,
0,
0,
0,
0,
0,
0,
0,
0,
0,
0,
0,
0,
0,
0,
0,
0,
0,
0,
0,
0,
0,
0,
0,
0,
0,
0,
0,
0,
0,
0,
0,
0,
0,
0,
0,
0,
0,
0,
0,
0,
0,
0,
0,
0,
0,
0,
0,
0,
0,
0,
0,
0,
0,
0,
0,
0,
0,
0,
0,
0,
0,
0,
0,
0,
0,
0,
0,
0,
0,
0,
0,
0,
0,
0,
0,
0,
0,
0,
0,
0,
0,
0,
0,
0,
0,
0,
0,
0,
0,
0,
0,
0,
0,
0,
0,
0,
0,
0,
0,
0,
0,
0,
0,
0,
0,
0,
0,
0,
0,
0,
0,
0,
0,
0,
0,
0,
0,
0,
0,
0,
0,
0,
0,
0,
0,
0,
0,
0,
0,
0,
0,
0,
0,
0,
0,
0,
0,
0,
0,
0,
0,
0,
0,
0,
0,
0,
0,
0,
0,
0,
0,
0,
0,
0,
0,
0,
0,
0,
0,
0,
0,
0,
0,
0,
0,
0,
0,
0,
0,
0,
0,
0,
0,
0,
0,
0,
0,
0,
0,
0,
0,
0,
0,
0,
0,
0,
0,
0,
0,
0,
0,
0,
0,
0,
0,
0,
0,
0,
0,
0,
0,
0,
0,
0,
0,
0,
0,
0,
0,
0,
0,
0,
0,
0,
0,
0,
0,
0,
0,
0,
0,
0,
0,
0,
0,
0,
0,
0,
0,
0,
0,
0,
0,
0,
0,
0,
0,
0,
0,
0,
0,
0,
0,
0,
0,
0,
0,
0,
0,
0,
0,
0,
0,
0,
0,
0,
0,
0,
0,
0,
0,
0,
0,
0,
0,
0,
0,
0,
0,
0,
0,
0,
0,
0,
0,
0,
0,
0,
0,
0,
0,
0,
0,
0,
0,
0,
0,
0,
0,
0,
0,
0,
0,
0,
0,
0,
0,
0,
0,
0,
0,
0,
0,
0,
0,
0,
0,
0,
0,
0,
0,
0,
0,
0,
0,
0,
0,
0,
0,
0,
0,
0,
0,
0,
0,
0,
0,
0,
0,
0,
0,
0,
0,
0,
0,
0,
0,
0,
0,
0,
0,
0,
0,
0,
0,
0,
0,
0,
0,
0,
0,
0,
0,
0,
0,
0,
0,
0,
0,
0,
0,
0,
0,
0,
0,
0,
0,
0,
0,
0,
0,
0,
0,
0,
0,
0,
0,
0,
0,
0,
0,
0,
0,
0,
0,
0,
0,
0,
0,
0,
0,
0,
0,
0,
0,
0,
0,
0,
0,
0,
0,
0,
0,
0,
0,
0,
0,
0,
0,
0,
0,
0,
0,
0,
0,
0,
0,
0,
0,
0,
0,
0,
0,
0,
0,
0,
0,
0,
0,
0,
0,
0,
0,
0,
0,
0,
0,
0,
0,
0,
0,
0,
#ENDOFDATA   :