File: N132962/Standards/15 keV/Al std.msa
#FORMAT      : EMSA/MAS Spectral Data File
#VERSION     : 1.0
#TITLE       : Al standard for 'N132962' detector
#NPOINTS     : 4096
#NCOLUMNS    : 1
#XUNITS      : eV
#YUNITS      : counts
#DATATYPE    : Y
#SIGNALTYPE  : EDS
#XLABEL      : Energy (eV)
#YLABEL      : Counts
#XPERCHAN -eV: 9.99778
#OFFSET   -eV: 1.69135
#CHOFFSET    : 0
#DATE        : 26-Sep-2025
#TIME        : 20:00:00
#OWNER       : Unknown
#ELEVANGLE   : 35
#BEAMKV   -kV: 15
#LIVETIME  -s: 2162.08
#REALTIME  -s: 2433.76
#PROBECUR -nA: 1.21382
##WORKING -mm: 15
##D2STDCMP   : Al,(Al:100.0000)
##SIMILAR    : 2.5
#SPECTRUM    :
245,
304,
395,
490,
836,
2822,
7195,
14911,
29177,
36362,
27836,
24136,
26804,
29972,
35766,
55664,
119918,
193521,
152687,
74376,
54800,
62504,
74240,
76102,
69439,
67144,
68749,
70947,
72902,
74530,
74506,
74975,
75819,
75959,
76506,
77391,
77500,
79298,
80364,
82998,
87673,
93336,
101100,
111735,
125052,
151159,
286663,
1207451,
4596167,
9368684,
9325222,
4609721,
1297334,
295372,
78019,
30699,
23033,
23303,
24817,
24782,
23442,
22527,
21278,
20383,
21008,
21691,
23563,
23744,
22918,
22410,
21899,
22130,
22169,
22244,
22295,
22358,
22886,
22824,
22793,
22515,
22651,
22299,
22310,
21997,
22178,
22368,
22427,
22342,
22379,
22172,
22026,
21937,
22153,
22056,
22871,
23647,
29530,
46969,
75200,
92700,
81553,
53544,
32193,
23056,
19999,
19263,
18610,
19144,
18637,
18317,
18147,
18128,
17886,
18094,
17552,
17783,
17255,
17205,
17376,
16933,
16961,
16712,
16967,
16822,
16820,
16454,
15916,
15976,
15848,
15850,
15431,
15467,
15534,
15214,
15065,
15076,
14798,
14957,
14505,
14609,
14568,
14124,
14041,
14161,
13890,
13856,
13727,
13637,
13754,
13477,
13415,
13027,
12723,
12880,
12848,
12682,
12528,
12481,
12284,
12248,
12329,
12041,
11961,
11892,
11761,
11849,
11412,
11556,
11308,
11332,
11179,
10753,
10859,
10960,
10651,
10700,
10576,
10628,
10473,
10503,
10504,
10388,
10408,
10100,
9986,
9837,
9853,
9564,
9672,
9511,
9354,
9189,
9277,
8999,
9254,
9150,
9008,
8806,
8820,
8677,
8562,
8663,
8553,
8314,
8261,
8253,
8252,
7936,
8189,
8033,
8086,
8093,
8389,
8210,
7975,
7935,
7761,
7470,
7538,
7426,
7132,
7093,
7078,
6892,
6931,
6975,
6869,
6935,
6768,
6701,
6619,
6623,
6629,
6539,
6328,
6514,
6547,
6437,
6167,
6208,
6106,
6057,
6004,
6106,
5888,
5810,
5773,
5711,
5829,
5789,
5673,
5584,
5581,
5433,
5271,
5348,
5267,
5163,
5138,
5153,
5035,
5090,
4934,
5054,
4938,
4914,
4847,
4830,
4838,
4726,
4820,
4609,
4521,
4519,
4449,
4444,
4268,
4342,
4312,
4247,
4332,
4162,
4230,
4057,
4147,
4005,
4077,
3956,
4039,
3880,
3822,
3796,
3776,
3729,
3793,
3680,
3646,
3645,
3660,
3673,
3510,
3495,
3435,
3474,
3265,
3457,
3241,
3254,
3341,
3223,
3240,
3208,
3188,
3194,
3083,
3119,
3005,
3012,
3083,
3018,
2920,
2966,
2957,
2847,
2790,
2822,
2736,
2737,
2652,
2507,
2648,
2536,
2571,
2539,
2532,
2387,
2436,
2486,
2408,
2348,
2346,
2238,
2407,
2285,
2355,
2305,
2202,
2237,
2147,
2084,
2208,
2115,
1983,
2018,
2085,
2076,
2026,
1987,
1891,
1957,
1925,
1890,
1783,
1882,
1845,
1739,
1753,
1680,
1802,
1717,
1686,
1631,
1636,
1566,
1627,
1577,
1532,
1445,
1534,
1443,
1451,
1417,
1413,
1434,
1406,
1307,
1378,
1325,
1298,
1274,
1285,
1204,
1177,
1156,
1173,
1186,
1160,
1065,
1097,
1054,
1068,
1111,
1046,
1037,
1062,
1070,
1008,
1019,
1018,
995,
913,
929,
915,
912,
916,
841,
865,
826,
816,
858,
774,
768,
736,
774,
717,
754,
652,
689,
644,
645,
658,
631,
588,
582,
607,
607,
562,
553,
567,
542,
544,
527,
475,
513,
464,
449,
466,
435,
389,
412,
404,
398,
366,
367,
335,
345,
360,
341,
352,
270,
323,
332,
283,
302,
271,
257,
256,
251,
228,
214,
204,
207,
194,
182,
185,
182,
163,
170,
167,
166,
137,
134,
119,
112,
114,
120,
100,
103,
69,
58,
87,
61,
66,
49,
36,
48,
43,
27,
30,
9,
17,
11,
11,
10,
7,
6,
7,
4,
11,
10,
3,
8,
6,
4,
6,
6,
6,
5,
4,
3,
1,
2,
6,
5,
8,
3,
3,
6,
1,
1,
1,
3,
2,
3,
4,
3,
5,
2,
1,
3,
0,
0,
0,
3,
3,
1,
2,
3,
1,
2,
1,
0,
0,
1,
0,
2,
1,
1,
0,
0,
0,
1,
3,
0,
0,
3,
0,
1,
1,
2,
1,
1,
1,
0,
2,
2,
1,
0,
1,
1,
1,
0,
0,
1,
1,
1,
1,
0,
2,
0,
2,
1,
0,
0,
0,
0,
0,
0,
1,
0,
2,
0,
2,
1,
0,
0,
0,
2,
0,
3,
0,
0,
3,
0,
1,
0,
1,
0,
1,
0,
0,
0,
0,
0,
1,
0,
0,
0,
0,
0,
3,
1,
0,
1,
0,
0,
0,
0,
1,
1,
0,
0,
0,
1,
1,
0,
0,
0,
2,
0,
0,
0,
0,
1,
0,
1,
0,
0,
0,
0,
0,
0,
0,
0,
0,
0,
0,
0,
2,
0,
1,
0,
0,
0,
0,
0,
0,
0,
0,
1,
0,
0,
0,
0,
0,
0,
0,
0,
1,
1,
0,
0,
0,
0,
0,
0,
0,
0,
0,
0,
0,
0,
0,
0,
1,
1,
0,
0,
0,
0,
0,
0,
0,
0,
1,
0,
0,
0,
0,
0,
0,
0,
0,
0,
0,
0,
0,
0,
0,
0,
0,
1,
0,
0,
0,
0,
0,
0,
0,
1,
2,
0,
1,
0,
0,
1,
0,
0,
0,
0,
0,
0,
0,
0,
0,
0,
0,
0,
0,
0,
0,
0,
0,
0,
0,
0,
0,
0,
0,
1,
0,
0,
0,
0,
0,
0,
0,
0,
0,
0,
0,
0,
0,
0,
1,
0,
0,
0,
0,
0,
0,
0,
0,
0,
0,
0,
1,
0,
0,
0,
0,
0,
0,
0,
0,
0,
0,
0,
0,
0,
0,
0,
0,
0,
0,
0,
0,
0,
0,
0,
1,
0,
0,
0,
0,
0,
0,
0,
0,
0,
0,
0,
0,
0,
0,
0,
0,
0,
0,
0,
0,
0,
0,
0,
0,
0,
0,
0,
0,
0,
0,
0,
0,
0,
0,
0,
0,
0,
0,
0,
0,
0,
0,
0,
0,
0,
0,
0,
0,
0,
0,
0,
0,
0,
0,
0,
0,
0,
0,
0,
0,
0,
0,
0,
0,
0,
0,
0,
0,
0,
0,
0,
0,
0,
0,
0,
0,
0,
0,
0,
0,
0,
0,
0,
0,
0,
0,
0,
0,
0,
0,
0,
0,
0,
0,
0,
0,
0,
0,
0,
0,
0,
0,
0,
0,
0,
0,
0,
0,
0,
0,
0,
0,
0,
0,
0,
0,
0,
0,
0,
0,
0,
0,
0,
0,
0,
0,
0,
0,
0,
0,
0,
0,
0,
0,
0,
0,
0,
0,
0,
0,
0,
0,
0,
0,
0,
0,
0,
0,
0,
0,
0,
0,
0,
0,
0,
0,
0,
0,
0,
0,
0,
0,
0,
0,
0,
0,
0,
0,
0,
0,
0,
0,
0,
0,
0,
0,
0,
0,
0,
0,
0,
0,
0,
0,
0,
0,
0,
0,
0,
0,
0,
0,
0,
0,
0,
0,
0,
0,
0,
0,
0,
0,
0,
0,
0,
0,
0,
0,
0,
0,
0,
0,
0,
0,
0,
0,
0,
0,
0,
0,
0,
0,
0,
0,
0,
0,
0,
0,
0,
0,
0,
0,
0,
0,
0,
0,
0,
0,
0,
0,
0,
0,
0,
0,
0,
0,
0,
0,
0,
0,
0,
0,
0,
0,
0,
0,
0,
0,
0,
0,
0,
0,
0,
0,
0,
0,
0,
0,
0,
0,
0,
0,
0,
0,
0,
0,
0,
0,
0,
0,
0,
0,
0,
0,
0,
0,
0,
0,
0,
0,
0,
0,
0,
0,
0,
0,
0,
0,
0,
0,
0,
0,
0,
0,
0,
0,
0,
0,
0,
0,
0,
0,
0,
0,
0,
0,
0,
0,
0,
0,
0,
0,
0,
0,
0,
0,
0,
0,
0,
0,
0,
0,
0,
0,
0,
0,
0,
0,
0,
0,
0,
0,
0,
0,
0,
0,
0,
0,
0,
0,
0,
0,
0,
0,
0,
0,
0,
0,
0,
0,
0,
0,
0,
0,
0,
0,
0,
0,
0,
0,
0,
0,
0,
0,
0,
0,
0,
0,
0,
0,
0,
0,
0,
0,
0,
0,
0,
0,
0,
0,
0,
0,
0,
0,
0,
0,
0,
0,
0,
0,
0,
0,
0,
0,
0,
0,
0,
0,
0,
0,
0,
0,
0,
0,
0,
0,
0,
0,
0,
0,
0,
0,
0,
0,
0,
0,
0,
0,
0,
0,
0,
0,
0,
0,
0,
0,
0,
0,
0,
0,
0,
0,
0,
0,
0,
0,
0,
0,
0,
0,
0,
0,
0,
0,
0,
0,
0,
0,
0,
0,
0,
0,
0,
0,
0,
0,
0,
0,
0,
0,
0,
0,
0,
0,
0,
0,
0,
0,
0,
0,
0,
0,
0,
0,
0,
0,
0,
0,
0,
0,
0,
0,
0,
0,
0,
0,
0,
0,
0,
0,
0,
0,
0,
0,
0,
0,
0,
0,
0,
0,
0,
0,
0,
0,
0,
0,
0,
0,
0,
0,
0,
0,
0,
0,
0,
0,
0,
0,
0,
0,
0,
0,
0,
0,
0,
0,
0,
0,
0,
0,
0,
0,
0,
0,
0,
#ENDOFDATA   :