File: N132962/Standards/15 keV/Al2O3 std.msa
#FORMAT      : EMSA/MAS Spectral Data File
#VERSION     : 1.0
#TITLE       : Al2O3 standard for 'N132962' detector
#NPOINTS     : 4096
#NCOLUMNS    : 1
#XUNITS      : eV
#YUNITS      : counts
#DATATYPE    : Y
#SIGNALTYPE  : EDS
#XLABEL      : Energy (eV)
#YLABEL      : Counts
#XPERCHAN -eV: 9.99778
#OFFSET   -eV: 1.69135
#CHOFFSET    : 0
#DATE        : 30-Sep-2025
#TIME        : 16:22:00
#OWNER       : Unknown
#ELEVANGLE   : 35
#BEAMKV   -kV: 15
#LIVETIME  -s: 959.685
#REALTIME  -s: 1039.53
#PROBECUR -nA: 1.22939
##WORKING -mm: 15
##D2STDCMP   : Al2O3,(O:47.0743),(Al:52.9257)
##SIMILAR    : 1.1
#SPECTRUM    :
114,
130,
50,
67,
361,
1459,
3720,
8707,
19143,
24188,
17067,
14115,
16800,
22486,
44981,
173712,
652514,
1225830,
888553,
236726,
30661,
10924,
11458,
12961,
13125,
12901,
13448,
13971,
15306,
15722,
16347,
16900,
17572,
18994,
20726,
20988,
19910,
19740,
20138,
20641,
22127,
23802,
25114,
27065,
29947,
35238,
60557,
235124,
881056,
1808782,
1833109,
933035,
270834,
64673,
21361,
12127,
10152,
10290,
10692,
10710,
10693,
10160,
9559,
9390,
10447,
12903,
16613,
17752,
15049,
11439,
9777,
9382,
9097,
9075,
8979,
8962,
8933,
9186,
8906,
8866,
8943,
8775,
8870,
8656,
8644,
8642,
8489,
8489,
8451,
8448,
8510,
8253,
8301,
8154,
8090,
8255,
8533,
10047,
12197,
13872,
12838,
10677,
8656,
7725,
7244,
7260,
7109,
7154,
6987,
6830,
6844,
6696,
6770,
6631,
6625,
6617,
6586,
6417,
6367,
6213,
6343,
6233,
6159,
6186,
5957,
6059,
5822,
5970,
5899,
5627,
5797,
5642,
5429,
5447,
5494,
5418,
5380,
5392,
5210,
5178,
5009,
5029,
5026,
5056,
5074,
5017,
4901,
4848,
4835,
4722,
4746,
4774,
4458,
4639,
4510,
4678,
4414,
4471,
4301,
4393,
4366,
4194,
4317,
4241,
4178,
4087,
4013,
3995,
4068,
3987,
3964,
3909,
3849,
3800,
3707,
3678,
3680,
3656,
3674,
3700,
3691,
3612,
3496,
3483,
3446,
3470,
3402,
3327,
3306,
3253,
3241,
3275,
3175,
3291,
3206,
3133,
3097,
3076,
3055,
2937,
3048,
2939,
2859,
2913,
2924,
2891,
2928,
2892,
2862,
2805,
2789,
2896,
2941,
3016,
3002,
2881,
2731,
2651,
2545,
2479,
2508,
2487,
2654,
2461,
2331,
2319,
2331,
2313,
2369,
2308,
2246,
2292,
2236,
2230,
2225,
2261,
2174,
2094,
2126,
2144,
2110,
2089,
2064,
2024,
2003,
2013,
2017,
2003,
1952,
2020,
1922,
1858,
1913,
1875,
1797,
1742,
1790,
1731,
1780,
1745,
1700,
1727,
1681,
1701,
1728,
1684,
1681,
1603,
1626,
1618,
1559,
1631,
1492,
1516,
1541,
1414,
1493,
1423,
1496,
1451,
1457,
1404,
1384,
1409,
1353,
1424,
1347,
1332,
1380,
1263,
1271,
1264,
1263,
1341,
1279,
1239,
1255,
1207,
1167,
1227,
1178,
1167,
1193,
1122,
1190,
1110,
1123,
1099,
1099,
1014,
1073,
1051,
1004,
999,
1035,
1037,
971,
1045,
1020,
1017,
903,
979,
943,
913,
941,
930,
890,
916,
910,
907,
898,
787,
851,
865,
819,
830,
848,
788,
782,
822,
817,
785,
769,
744,
717,
709,
728,
744,
728,
695,
723,
656,
653,
712,
655,
647,
661,
615,
642,
591,
616,
585,
609,
581,
553,
544,
578,
526,
570,
539,
539,
519,
525,
548,
457,
522,
511,
510,
457,
517,
465,
477,
441,
435,
414,
435,
425,
402,
398,
418,
412,
427,
378,
388,
386,
385,
337,
381,
369,
331,
338,
318,
301,
330,
342,
323,
307,
344,
312,
303,
300,
292,
307,
305,
289,
276,
271,
275,
249,
245,
247,
256,
222,
260,
238,
243,
244,
219,
217,
226,
210,
223,
181,
194,
207,
177,
198,
174,
174,
191,
180,
152,
155,
144,
145,
153,
140,
134,
143,
123,
141,
132,
122,
132,
128,
96,
113,
122,
78,
99,
118,
82,
106,
92,
91,
75,
96,
80,
69,
81,
73,
81,
63,
60,
50,
54,
59,
64,
50,
61,
48,
34,
43,
42,
29,
26,
37,
21,
37,
18,
21,
16,
21,
10,
17,
15,
8,
8,
6,
5,
3,
1,
0,
4,
3,
2,
1,
0,
0,
0,
1,
0,
2,
1,
0,
1,
0,
0,
0,
1,
0,
1,
1,
0,
0,
2,
0,
2,
1,
0,
1,
1,
1,
0,
0,
2,
0,
1,
1,
0,
2,
1,
0,
0,
0,
0,
1,
0,
1,
0,
0,
0,
1,
0,
1,
0,
0,
0,
0,
0,
0,
0,
0,
0,
0,
0,
0,
0,
0,
1,
0,
0,
1,
0,
0,
0,
0,
0,
0,
0,
3,
0,
0,
0,
0,
0,
0,
0,
0,
0,
1,
0,
1,
0,
0,
0,
1,
0,
0,
0,
0,
0,
0,
1,
0,
1,
0,
0,
0,
0,
0,
0,
0,
0,
0,
0,
0,
0,
0,
1,
0,
0,
0,
0,
1,
0,
0,
0,
0,
0,
0,
1,
0,
0,
0,
0,
0,
0,
0,
0,
0,
1,
0,
0,
0,
0,
0,
0,
0,
1,
1,
0,
0,
0,
0,
0,
0,
0,
0,
0,
0,
0,
0,
0,
0,
0,
0,
0,
0,
0,
0,
0,
0,
0,
0,
0,
0,
1,
0,
0,
0,
0,
0,
0,
0,
0,
0,
0,
0,
0,
0,
0,
0,
0,
0,
0,
0,
0,
0,
0,
0,
0,
0,
0,
0,
0,
0,
0,
0,
0,
0,
1,
0,
0,
0,
0,
0,
0,
0,
0,
0,
0,
0,
0,
0,
0,
0,
0,
0,
0,
0,
1,
0,
0,
0,
0,
0,
0,
0,
0,
0,
0,
0,
0,
0,
0,
0,
0,
0,
0,
0,
0,
0,
0,
0,
0,
0,
0,
0,
0,
0,
0,
0,
0,
0,
0,
0,
0,
0,
0,
0,
0,
0,
0,
0,
0,
0,
0,
0,
0,
0,
0,
0,
0,
0,
0,
0,
0,
0,
0,
0,
0,
0,
0,
0,
0,
0,
0,
0,
0,
0,
0,
0,
0,
0,
0,
0,
0,
0,
0,
0,
0,
0,
0,
0,
0,
0,
0,
0,
0,
0,
0,
1,
0,
0,
0,
0,
0,
0,
0,
0,
0,
0,
0,
0,
0,
0,
0,
0,
0,
0,
0,
0,
0,
0,
0,
0,
0,
0,
0,
0,
0,
0,
0,
0,
0,
0,
0,
0,
0,
0,
0,
0,
0,
0,
0,
0,
0,
0,
0,
0,
0,
0,
0,
0,
0,
0,
0,
0,
0,
0,
0,
0,
0,
0,
0,
0,
0,
0,
0,
0,
0,
0,
0,
0,
0,
0,
0,
0,
0,
0,
0,
0,
0,
0,
0,
0,
0,
0,
0,
0,
0,
0,
0,
0,
0,
0,
0,
0,
0,
0,
0,
0,
0,
0,
0,
0,
0,
0,
0,
0,
0,
0,
0,
0,
0,
0,
0,
0,
0,
0,
0,
0,
0,
0,
0,
0,
0,
0,
0,
0,
0,
0,
0,
0,
0,
0,
0,
0,
0,
0,
0,
0,
0,
0,
0,
0,
0,
0,
0,
0,
0,
0,
0,
0,
0,
0,
0,
0,
0,
0,
0,
0,
0,
0,
0,
0,
0,
0,
0,
0,
0,
0,
0,
0,
0,
0,
0,
0,
0,
0,
0,
0,
0,
0,
0,
0,
0,
0,
0,
0,
0,
0,
0,
0,
0,
0,
0,
0,
0,
0,
0,
0,
0,
0,
0,
0,
0,
0,
0,
0,
0,
0,
0,
0,
0,
0,
0,
0,
0,
0,
0,
0,
0,
0,
0,
0,
0,
0,
0,
0,
0,
0,
0,
0,
0,
0,
0,
0,
0,
0,
0,
0,
0,
0,
0,
0,
0,
0,
0,
0,
0,
0,
0,
0,
0,
0,
0,
0,
0,
0,
0,
0,
0,
0,
0,
0,
0,
0,
0,
0,
0,
0,
0,
0,
0,
0,
0,
0,
0,
0,
0,
0,
0,
0,
0,
0,
0,
0,
0,
0,
0,
0,
0,
0,
0,
0,
0,
0,
0,
0,
0,
0,
0,
0,
0,
0,
0,
0,
0,
0,
0,
0,
0,
0,
0,
0,
0,
0,
0,
0,
0,
0,
0,
0,
0,
0,
0,
0,
0,
0,
0,
0,
0,
0,
0,
0,
0,
0,
0,
0,
0,
0,
0,
0,
0,
0,
0,
0,
0,
0,
0,
0,
0,
0,
0,
0,
0,
0,
0,
0,
0,
0,
0,
0,
0,
0,
0,
0,
0,
0,
0,
0,
0,
0,
0,
0,
0,
0,
0,
0,
0,
0,
0,
0,
0,
0,
0,
0,
0,
0,
0,
0,
0,
0,
0,
0,
0,
0,
0,
0,
0,
0,
0,
0,
0,
0,
0,
0,
0,
0,
0,
0,
0,
0,
0,
0,
0,
0,
0,
0,
0,
0,
0,
0,
0,
0,
0,
0,
0,
0,
0,
0,
0,
0,
0,
0,
0,
0,
0,
0,
0,
0,
0,
0,
0,
0,
0,
0,
0,
0,
0,
0,
0,
0,
0,
0,
0,
0,
0,
0,
0,
0,
0,
0,
0,
0,
0,
0,
0,
0,
0,
0,
0,
0,
0,
0,
0,
0,
0,
0,
0,
0,
0,
0,
0,
0,
0,
0,
0,
0,
0,
0,
0,
0,
0,
0,
0,
0,
0,
0,
0,
0,
0,
0,
0,
0,
0,
0,
0,
0,
0,
0,
0,
0,
0,
0,
0,
0,
0,
0,
0,
0,
0,
0,
0,
0,
0,
0,
0,
0,
0,
0,
0,
0,
0,
0,
0,
0,
0,
0,
0,
0,
0,
0,
0,
#ENDOFDATA   :