File: N132962/Standards/15 keV/AlN std.msa
#FORMAT      : EMSA/MAS Spectral Data File
#VERSION     : 1.0
#TITLE       : AlN standard for 'N132962' detector
#NPOINTS     : 4096
#NCOLUMNS    : 1
#XUNITS      : eV
#YUNITS      : counts
#DATATYPE    : Y
#SIGNALTYPE  : EDS
#XLABEL      : Energy (eV)
#YLABEL      : Counts
#XPERCHAN -eV: 9.99778
#OFFSET   -eV: 1.69135
#CHOFFSET    : 0
#DATE        : 27-Sep-2025
#TIME        : 15:46:00
#OWNER       : Unknown
#ELEVANGLE   : 35
#BEAMKV   -kV: 15
#LIVETIME  -s: 960.132
#REALTIME  -s: 1038.76
#PROBECUR -nA: 1.21
##WORKING -mm: 15
##D2STDCMP   : AlN,(N:34.1730),(Al:65.8270)
##SIMILAR    : 27.2
#SPECTRUM    :
118,
142,
54,
69,
361,
1350,
3510,
8900,
21175,
28284,
31353,
101036,
283241,
322497,
133045,
25975,
13602,
17156,
15705,
12584,
12412,
13355,
14859,
16049,
17079,
17965,
18602,
19407,
20452,
21108,
22332,
23053,
22800,
23061,
23146,
23603,
23426,
23720,
24432,
25128,
26537,
28337,
30631,
33236,
36597,
43733,
79921,
320173,
1193717,
2424900,
2431633,
1232066,
359991,
85485,
25097,
12402,
9890,
10275,
10537,
10972,
11089,
12092,
12892,
13085,
12213,
11115,
10365,
9707,
9584,
9018,
8875,
8867,
8944,
8765,
8921,
8943,
8869,
8714,
8893,
8902,
8632,
8694,
8610,
8466,
8576,
8617,
8442,
8553,
8454,
8276,
8326,
8321,
8304,
7992,
8120,
8233,
9060,
11702,
15700,
18624,
16929,
12823,
9527,
7976,
7297,
7155,
7229,
7023,
6903,
6755,
6780,
6792,
6819,
6687,
6576,
6682,
6474,
6386,
6437,
6356,
6263,
6202,
6285,
6121,
6058,
6012,
5795,
5929,
5851,
5827,
5721,
5620,
5587,
5602,
5563,
5465,
5380,
5373,
5434,
5428,
5115,
5151,
5044,
5078,
5064,
5003,
4960,
4920,
4894,
4871,
4821,
4750,
4705,
4707,
4564,
4482,
4470,
4426,
4429,
4403,
4346,
4419,
4183,
4236,
4293,
4078,
4241,
4143,
4138,
4011,
3973,
3891,
3839,
3898,
3900,
3806,
3818,
3741,
3783,
3746,
3596,
3560,
3619,
3578,
3458,
3401,
3454,
3374,
3471,
3364,
3285,
3205,
3270,
3301,
3180,
3197,
3075,
3076,
3117,
3055,
3003,
2908,
3038,
2893,
2939,
2935,
2929,
2884,
2888,
2779,
2756,
2761,
2859,
2836,
2818,
2718,
2615,
2622,
2627,
2548,
2518,
2423,
2507,
2483,
2341,
2479,
2474,
2339,
2320,
2325,
2296,
2222,
2334,
2283,
2307,
2198,
2271,
2248,
2112,
2117,
2151,
2093,
1995,
1989,
2109,
2011,
2077,
1952,
2000,
1987,
2018,
1909,
1911,
1853,
1876,
1797,
1875,
1758,
1795,
1783,
1792,
1727,
1716,
1657,
1787,
1673,
1703,
1683,
1730,
1621,
1739,
1658,
1535,
1583,
1549,
1525,
1526,
1500,
1544,
1529,
1498,
1497,
1403,
1444,
1406,
1452,
1435,
1454,
1450,
1374,
1285,
1334,
1407,
1294,
1282,
1266,
1248,
1283,
1217,
1223,
1161,
1192,
1143,
1135,
1136,
1189,
1102,
1151,
1133,
1038,
1109,
1074,
1130,
1064,
1022,
1039,
1005,
1063,
1028,
1013,
959,
1000,
1042,
945,
1003,
1005,
956,
937,
926,
919,
928,
898,
894,
863,
792,
824,
807,
803,
810,
800,
795,
763,
773,
717,
789,
776,
728,
681,
688,
685,
746,
684,
683,
651,
697,
682,
686,
670,
628,
648,
644,
637,
625,
625,
566,
635,
567,
586,
604,
550,
527,
586,
574,
532,
551,
511,
480,
519,
471,
484,
467,
474,
473,
495,
509,
472,
459,
445,
408,
422,
404,
417,
374,
393,
415,
406,
396,
384,
356,
385,
378,
344,
327,
360,
345,
336,
337,
312,
323,
318,
309,
326,
297,
282,
260,
275,
259,
261,
265,
277,
250,
255,
261,
240,
235,
227,
242,
246,
223,
200,
215,
210,
188,
196,
198,
201,
190,
209,
168,
170,
164,
187,
178,
163,
159,
144,
150,
136,
129,
127,
120,
138,
124,
149,
119,
113,
121,
115,
102,
119,
84,
82,
109,
90,
87,
79,
78,
74,
73,
64,
73,
82,
64,
60,
59,
57,
41,
47,
48,
47,
45,
45,
39,
40,
27,
39,
36,
28,
29,
31,
18,
14,
21,
10,
7,
12,
7,
6,
3,
1,
4,
6,
1,
1,
2,
6,
0,
0,
1,
2,
2,
1,
3,
0,
2,
0,
0,
2,
1,
2,
0,
2,
1,
2,
0,
0,
0,
0,
2,
0,
1,
0,
1,
0,
1,
0,
0,
0,
2,
0,
0,
1,
0,
1,
1,
0,
0,
0,
0,
0,
0,
1,
0,
0,
0,
0,
0,
0,
0,
0,
0,
1,
0,
0,
0,
0,
0,
0,
1,
1,
0,
0,
1,
0,
1,
0,
0,
1,
0,
0,
0,
0,
0,
1,
0,
0,
0,
0,
0,
0,
0,
0,
0,
0,
0,
0,
0,
0,
0,
0,
0,
0,
0,
0,
1,
0,
1,
0,
0,
1,
0,
1,
0,
0,
0,
0,
0,
0,
0,
1,
0,
0,
0,
0,
0,
0,
0,
0,
0,
0,
0,
0,
0,
0,
0,
0,
0,
1,
0,
0,
1,
0,
0,
0,
0,
0,
0,
0,
0,
0,
1,
0,
0,
0,
0,
0,
0,
1,
1,
0,
0,
0,
0,
0,
0,
0,
0,
0,
0,
0,
0,
0,
1,
0,
0,
0,
0,
0,
0,
0,
0,
1,
0,
0,
1,
0,
0,
0,
1,
0,
0,
0,
0,
0,
0,
0,
0,
0,
0,
0,
0,
0,
0,
0,
0,
0,
0,
0,
0,
0,
0,
0,
0,
0,
0,
0,
0,
0,
0,
0,
0,
0,
0,
0,
0,
0,
0,
0,
0,
0,
0,
0,
0,
0,
0,
0,
0,
0,
0,
0,
0,
0,
0,
0,
2,
0,
0,
0,
0,
0,
0,
0,
0,
0,
0,
0,
0,
0,
0,
0,
0,
0,
0,
0,
0,
0,
0,
0,
0,
0,
0,
0,
0,
0,
0,
0,
0,
0,
0,
0,
0,
0,
0,
0,
0,
0,
0,
0,
0,
0,
0,
0,
0,
0,
0,
0,
0,
0,
0,
0,
0,
0,
0,
0,
0,
0,
0,
0,
0,
0,
0,
0,
0,
0,
0,
0,
0,
0,
0,
0,
0,
0,
0,
0,
0,
0,
0,
0,
0,
0,
0,
0,
0,
0,
0,
0,
0,
0,
0,
0,
0,
0,
0,
0,
0,
0,
0,
0,
0,
0,
0,
0,
0,
0,
0,
0,
0,
0,
0,
0,
0,
0,
0,
0,
0,
0,
0,
0,
0,
0,
0,
0,
0,
0,
0,
0,
0,
0,
0,
0,
0,
0,
0,
0,
0,
0,
0,
0,
0,
0,
0,
0,
0,
0,
0,
0,
0,
0,
0,
0,
0,
0,
0,
0,
0,
0,
0,
0,
0,
0,
0,
0,
0,
0,
0,
0,
0,
0,
0,
0,
0,
0,
0,
0,
0,
0,
0,
0,
0,
0,
0,
0,
0,
0,
0,
0,
0,
0,
0,
0,
0,
0,
0,
0,
0,
0,
0,
0,
0,
0,
0,
0,
0,
0,
0,
0,
0,
0,
0,
0,
0,
0,
0,
0,
0,
0,
0,
0,
0,
0,
0,
0,
0,
0,
0,
0,
0,
0,
0,
0,
0,
0,
0,
0,
0,
0,
0,
0,
0,
0,
0,
0,
0,
0,
0,
0,
0,
0,
0,
0,
0,
0,
0,
0,
0,
0,
0,
0,
0,
0,
0,
0,
0,
0,
0,
0,
0,
0,
0,
0,
0,
0,
0,
0,
0,
0,
0,
0,
0,
0,
0,
0,
0,
0,
0,
0,
0,
0,
0,
0,
0,
0,
0,
0,
0,
0,
0,
0,
0,
0,
0,
0,
0,
0,
0,
0,
0,
0,
0,
0,
0,
0,
0,
0,
0,
0,
0,
0,
0,
0,
0,
0,
0,
0,
0,
0,
0,
0,
0,
0,
0,
0,
0,
0,
0,
0,
0,
0,
0,
0,
0,
0,
0,
0,
0,
0,
0,
0,
0,
0,
0,
0,
0,
0,
0,
0,
0,
0,
0,
0,
0,
0,
0,
0,
0,
0,
0,
0,
0,
0,
0,
0,
0,
0,
0,
0,
0,
0,
0,
0,
0,
0,
0,
0,
0,
0,
0,
0,
0,
0,
0,
0,
0,
0,
0,
0,
0,
0,
0,
0,
0,
0,
0,
0,
0,
0,
0,
0,
0,
0,
0,
0,
0,
0,
0,
0,
0,
0,
0,
0,
0,
0,
0,
0,
0,
0,
0,
0,
0,
0,
0,
0,
0,
0,
0,
0,
0,
0,
0,
0,
0,
0,
0,
0,
0,
0,
0,
0,
0,
0,
0,
0,
0,
0,
0,
0,
0,
0,
0,
0,
0,
0,
0,
0,
0,
0,
0,
0,
0,
0,
0,
0,
0,
0,
0,
0,
0,
0,
0,
0,
0,
0,
0,
0,
0,
0,
0,
0,
0,
0,
0,
0,
0,
0,
0,
0,
0,
0,
0,
0,
0,
0,
0,
0,
0,
0,
0,
0,
0,
0,
0,
0,
0,
0,
0,
0,
0,
0,
0,
0,
0,
0,
0,
0,
0,
0,
0,
0,
0,
0,
0,
0,
0,
0,
0,
0,
0,
0,
0,
0,
0,
0,
0,
0,
0,
0,
0,
0,
0,
0,
0,
0,
0,
0,
0,
0,
0,
0,
0,
0,
0,
0,
0,
0,
0,
0,
0,
0,
0,
0,
0,
0,
0,
0,
0,
0,
0,
0,
0,
0,
0,
0,
0,
0,
0,
0,
0,
0,
0,
0,
0,
0,
0,
0,
0,
0,
0,
0,
0,
0,
0,
0,
0,
0,
0,
0,
0,
0,
0,
0,
0,
0,
0,
0,
0,
0,
#ENDOFDATA   :