File: N132962/Standards/15 keV/As std.msa
#FORMAT      : EMSA/MAS Spectral Data File
#VERSION     : 1.0
#TITLE       : As standard for 'N132962' detector
#NPOINTS     : 4096
#NCOLUMNS    : 1
#XUNITS      : eV
#YUNITS      : counts
#DATATYPE    : Y
#SIGNALTYPE  : EDS
#XLABEL      : Energy (eV)
#YLABEL      : Counts
#XPERCHAN -eV: 9.99778
#OFFSET   -eV: 1.69135
#CHOFFSET    : 0
#DATE        : 25-Sep-2025
#TIME        : 20:57:00
#OWNER       : Unknown
#ELEVANGLE   : 35
#BEAMKV   -kV: 15
#LIVETIME  -s: 1196.31
#REALTIME  -s: 1288.5
#PROBECUR -nA: 1.20952
##WORKING -mm: 15
##D2STDCMP   : As,(As:100.0000)
##SIMILAR    : 31.8
#SPECTRUM    :
128,
131,
46,
126,
611,
2411,
6329,
15084,
32503,
40686,
28808,
25280,
32749,
37538,
41026,
87839,
271304,
494757,
360706,
107712,
31435,
25816,
27748,
29926,
29974,
31033,
32079,
33814,
35940,
36403,
37241,
38715,
39783,
41468,
44318,
55987,
88101,
132608,
137290,
114547,
176106,
594329,
1499597,
2027824,
1499476,
644848,
182792,
55387,
26725,
19875,
18545,
18199,
17705,
17208,
17352,
18064,
19150,
20125,
21953,
22896,
23296,
21566,
19758,
17824,
17607,
17450,
17819,
17975,
17784,
17995,
17886,
18041,
18439,
18337,
18330,
19157,
19988,
20580,
20265,
19586,
19230,
19183,
19524,
19576,
21081,
23123,
24458,
23878,
21631,
19675,
18628,
18198,
18118,
17963,
17872,
17708,
17991,
17599,
18058,
17500,
17721,
17587,
17525,
17124,
17200,
17383,
17347,
16863,
16961,
16904,
16629,
16468,
16626,
16497,
16286,
16526,
16338,
16352,
16566,
17332,
17785,
17302,
16911,
16076,
15845,
15427,
15816,
15754,
15870,
15893,
15681,
15316,
15221,
14731,
14729,
14505,
14523,
14451,
14310,
14376,
13933,
13906,
13743,
13657,
13842,
13838,
13765,
13572,
13795,
13863,
14048,
14027,
13660,
13426,
13002,
12739,
12678,
12485,
12421,
12151,
12218,
12254,
12275,
12036,
11968,
12038,
11899,
11852,
11827,
11703,
11586,
11479,
11382,
11259,
11130,
11252,
10963,
10963,
10965,
10833,
10866,
10656,
10667,
10502,
10522,
10187,
10202,
10057,
10014,
9984,
10084,
9944,
9663,
9792,
9767,
9615,
9456,
9400,
9429,
9380,
9309,
9131,
9299,
9147,
9126,
8764,
8995,
8759,
8862,
8763,
8724,
8735,
8812,
8785,
8593,
8500,
8355,
8139,
7968,
8110,
7988,
7841,
8043,
7624,
7665,
7562,
7636,
7479,
7584,
7273,
7344,
7419,
7276,
7387,
7267,
7113,
7022,
7048,
6932,
6863,
6834,
6794,
6752,
6513,
6712,
6630,
6437,
6505,
6625,
6460,
6300,
6377,
6246,
6294,
6251,
6004,
6010,
5985,
5903,
5888,
5844,
5767,
5852,
5728,
5767,
5683,
5640,
5632,
5496,
5472,
5392,
5330,
5382,
5266,
5209,
5126,
5120,
5144,
5083,
5204,
4849,
4917,
4972,
4872,
4838,
4769,
4730,
4679,
4755,
4630,
4632,
4594,
4559,
4495,
4535,
4352,
4439,
4350,
4424,
4316,
4263,
4181,
4090,
4084,
3975,
3960,
4051,
3990,
3901,
3840,
3886,
3744,
3808,
3835,
3720,
3634,
3735,
3586,
3631,
3484,
3569,
3525,
3474,
3510,
3396,
3434,
3379,
3214,
3283,
3265,
3263,
3186,
3279,
3210,
3106,
3070,
3146,
3090,
2988,
3097,
3122,
2916,
3014,
3217,
3583,
4908,
7682,
12585,
19708,
27719,
33752,
35155,
31655,
24378,
16158,
9892,
5841,
3825,
2873,
2564,
2405,
2342,
2305,
2329,
2312,
2281,
2232,
2199,
2159,
2144,
2178,
2130,
2206,
1999,
2112,
2080,
2007,
1913,
2009,
1913,
1933,
1914,
1888,
1912,
1975,
2219,
2764,
3441,
4416,
5379,
6058,
6179,
5266,
4378,
3397,
2594,
2021,
1753,
1529,
1373,
1354,
1287,
1245,
1263,
1265,
1197,
1227,
1205,
1221,
1061,
1153,
1123,
1077,
1088,
1114,
1063,
1067,
1042,
1032,
1002,
971,
910,
953,
879,
857,
876,
925,
863,
821,
835,
843,
776,
811,
793,
785,
762,
775,
732,
711,
604,
635,
633,
636,
601,
642,
605,
592,
569,
523,
566,
526,
512,
503,
451,
463,
400,
422,
423,
402,
393,
348,
372,
391,
373,
373,
349,
348,
339,
302,
304,
294,
279,
263,
255,
260,
238,
232,
176,
201,
191,
199,
175,
154,
177,
164,
137,
125,
130,
114,
87,
105,
82,
78,
61,
58,
46,
51,
34,
26,
26,
17,
18,
11,
5,
11,
4,
7,
7,
8,
8,
10,
8,
8,
4,
6,
6,
5,
3,
5,
6,
4,
8,
2,
2,
4,
4,
5,
4,
2,
5,
8,
2,
4,
4,
7,
4,
5,
6,
1,
4,
0,
2,
2,
5,
8,
4,
2,
2,
3,
1,
4,
4,
4,
5,
0,
2,
4,
2,
0,
2,
3,
3,
6,
2,
6,
4,
1,
5,
3,
2,
5,
4,
1,
1,
4,
4,
4,
2,
4,
8,
4,
5,
2,
1,
3,
3,
2,
4,
3,
4,
1,
1,
5,
7,
0,
5,
7,
2,
2,
2,
3,
3,
4,
2,
2,
3,
0,
1,
0,
0,
0,
2,
3,
0,
0,
2,
4,
3,
5,
2,
1,
10,
0,
2,
1,
0,
2,
3,
2,
0,
1,
3,
2,
0,
1,
3,
3,
0,
0,
2,
4,
4,
1,
2,
3,
2,
0,
1,
2,
0,
0,
1,
0,
3,
1,
0,
2,
2,
0,
0,
2,
1,
3,
2,
1,
0,
5,
1,
1,
3,
2,
0,
0,
1,
1,
2,
2,
2,
0,
1,
1,
1,
0,
1,
3,
0,
1,
0,
2,
0,
1,
2,
2,
1,
0,
0,
0,
1,
0,
1,
3,
1,
3,
0,
0,
2,
1,
2,
5,
1,
0,
0,
1,
1,
1,
1,
0,
0,
0,
0,
0,
0,
0,
0,
0,
1,
2,
1,
1,
0,
1,
1,
0,
0,
0,
1,
0,
0,
0,
0,
0,
1,
2,
0,
1,
1,
0,
1,
0,
0,
0,
1,
1,
0,
0,
1,
0,
0,
0,
0,
0,
0,
0,
0,
0,
0,
1,
0,
1,
0,
1,
0,
0,
0,
0,
0,
0,
1,
0,
0,
1,
0,
0,
0,
0,
2,
0,
1,
1,
0,
1,
0,
1,
0,
0,
1,
2,
0,
0,
0,
0,
0,
0,
0,
0,
0,
0,
0,
0,
0,
0,
0,
0,
1,
0,
1,
0,
0,
0,
0,
0,
0,
0,
0,
0,
1,
0,
1,
0,
0,
0,
0,
0,
0,
1,
0,
1,
0,
0,
0,
0,
0,
0,
0,
0,
0,
0,
0,
0,
0,
0,
0,
0,
0,
0,
0,
0,
0,
0,
0,
0,
0,
0,
0,
0,
0,
0,
0,
0,
0,
0,
0,
0,
0,
0,
0,
0,
0,
0,
0,
0,
0,
0,
0,
0,
0,
0,
0,
0,
0,
0,
0,
0,
0,
0,
0,
0,
0,
0,
0,
0,
0,
0,
0,
0,
0,
0,
0,
0,
0,
0,
0,
0,
0,
0,
0,
0,
0,
0,
0,
0,
0,
0,
0,
0,
0,
0,
0,
0,
0,
0,
0,
0,
0,
0,
0,
0,
0,
0,
0,
0,
0,
0,
0,
0,
0,
0,
0,
0,
0,
0,
0,
0,
0,
0,
0,
0,
0,
0,
0,
0,
0,
0,
0,
0,
0,
0,
0,
0,
0,
0,
0,
0,
0,
0,
0,
0,
0,
0,
0,
0,
0,
0,
0,
0,
0,
0,
0,
0,
0,
0,
0,
0,
0,
0,
0,
0,
0,
0,
0,
0,
0,
0,
0,
0,
0,
0,
0,
0,
0,
0,
0,
0,
0,
0,
0,
0,
0,
0,
0,
0,
0,
0,
0,
0,
0,
0,
0,
0,
0,
0,
0,
0,
0,
0,
0,
0,
0,
0,
0,
0,
0,
0,
0,
0,
0,
0,
0,
0,
0,
0,
0,
0,
0,
0,
0,
0,
0,
0,
0,
0,
0,
0,
0,
0,
0,
0,
0,
0,
0,
0,
0,
0,
0,
0,
0,
0,
0,
0,
0,
0,
0,
0,
0,
0,
0,
0,
0,
0,
0,
0,
0,
0,
0,
0,
0,
0,
0,
0,
0,
0,
0,
0,
0,
0,
0,
0,
0,
0,
0,
0,
0,
0,
0,
0,
0,
0,
0,
0,
0,
0,
0,
0,
0,
0,
0,
0,
0,
0,
0,
0,
0,
0,
0,
0,
0,
0,
0,
0,
0,
0,
0,
0,
0,
0,
0,
0,
0,
0,
0,
0,
0,
0,
0,
0,
0,
0,
0,
0,
0,
0,
0,
0,
0,
0,
0,
0,
0,
0,
0,
0,
0,
0,
0,
0,
0,
0,
0,
0,
0,
0,
0,
0,
0,
0,
0,
0,
0,
0,
0,
0,
0,
0,
0,
0,
0,
0,
0,
0,
0,
0,
0,
0,
0,
0,
0,
0,
0,
0,
0,
0,
0,
0,
0,
0,
0,
0,
0,
0,
0,
0,
0,
0,
0,
0,
0,
0,
0,
0,
0,
0,
0,
0,
0,
0,
0,
0,
0,
0,
0,
0,
0,
0,
0,
0,
0,
0,
0,
0,
0,
0,
0,
0,
0,
0,
0,
0,
0,
0,
0,
0,
0,
0,
0,
0,
0,
0,
0,
0,
0,
0,
0,
0,
0,
0,
0,
0,
0,
0,
0,
0,
0,
0,
0,
0,
0,
0,
0,
0,
0,
0,
0,
0,
0,
0,
0,
0,
0,
0,
0,
0,
0,
0,
0,
0,
0,
0,
0,
0,
0,
0,
0,
0,
0,
0,
0,
0,
0,
0,
0,
0,
0,
0,
0,
0,
0,
0,
0,
0,
0,
0,
0,
0,
0,
0,
0,
0,
0,
0,
0,
0,
0,
0,
0,
0,
0,
0,
0,
0,
0,
0,
0,
0,
0,
0,
0,
0,
0,
0,
0,
0,
0,
0,
0,
0,
0,
#ENDOFDATA   :