File: N132962/Standards/15 keV/Au std.msa
#FORMAT      : EMSA/MAS Spectral Data File
#VERSION     : 1.0
#TITLE       : Au standard for 'N132962' detector
#NPOINTS     : 4096
#NCOLUMNS    : 1
#XUNITS      : eV
#YUNITS      : counts
#DATATYPE    : Y
#SIGNALTYPE  : EDS
#XLABEL      : Energy (eV)
#YLABEL      : Counts
#XPERCHAN -eV: 9.99778
#OFFSET   -eV: 1.69135
#CHOFFSET    : 0
#DATE        : 26-Sep-2025
#TIME        : 15:15:00
#OWNER       : Unknown
#ELEVANGLE   : 35
#BEAMKV   -kV: 15
#LIVETIME  -s: 1921.25
#REALTIME  -s: 2135.46
#PROBECUR -nA: 1.22003
##WORKING -mm: 15
##D2STDCMP   : Au,(Au:100.0000)
##SIMILAR    : 1.3
#SPECTRUM    :
211,
193,
139,
849,
5195,
18304,
39962,
73635,
121605,
129231,
86264,
73348,
97079,
101752,
85017,
89814,
94478,
93838,
82638,
69153,
66731,
70562,
76434,
81492,
81114,
79208,
80427,
84499,
90229,
92439,
92769,
94514,
95873,
95953,
98150,
98978,
100310,
100716,
102071,
103144,
103408,
104375,
105293,
106263,
106838,
108089,
108789,
111489,
119254,
130244,
130824,
122671,
122346,
148062,
210671,
260152,
234587,
176817,
145655,
131291,
122024,
113822,
107398,
106667,
114211,
133532,
165775,
225984,
421200,
975269,
1817651,
2221131,
1958162,
1630756,
1256993,
694009,
269895,
112107,
87836,
105554,
123437,
114531,
86273,
63926,
54678,
53381,
54355,
56642,
58225,
58582,
59789,
65124,
69621,
71117,
66773,
60421,
56164,
53233,
51626,
50656,
50717,
50920,
51009,
50872,
51320,
50624,
50667,
49698,
49268,
49160,
49761,
50406,
51024,
50405,
49801,
48750,
48820,
48451,
48191,
48467,
48612,
48590,
48417,
48740,
49009,
48529,
49250,
48660,
48622,
48463,
48411,
48918,
48574,
47865,
47548,
47618,
47522,
47729,
47952,
48079,
49259,
50665,
50848,
50994,
50528,
50636,
49216,
47969,
46986,
46844,
45745,
45662,
45368,
45474,
44929,
44248,
44822,
44564,
44320,
44099,
44163,
43988,
43802,
43711,
43609,
42891,
43084,
42774,
42624,
42337,
42183,
41857,
41580,
41751,
41348,
41206,
41236,
41464,
41041,
41531,
41357,
40971,
40749,
40091,
39852,
39296,
39373,
38836,
38591,
38694,
38612,
38472,
38542,
37970,
37415,
37670,
37390,
37497,
37184,
36876,
36771,
36794,
36391,
36088,
36040,
35776,
35194,
35035,
35059,
35117,
35487,
36282,
36947,
37527,
37112,
35830,
34790,
34179,
33338,
32768,
32831,
32352,
32384,
32100,
32027,
32285,
31893,
31609,
31501,
30705,
31356,
30906,
30679,
30794,
30559,
30523,
30191,
29544,
29527,
29434,
29043,
28824,
28893,
28809,
28281,
28194,
28601,
28354,
28278,
28502,
28011,
27878,
27313,
26989,
26626,
26555,
26788,
26018,
26035,
25763,
25624,
25412,
25313,
25351,
25546,
24902,
24812,
24902,
24816,
24242,
24441,
23975,
24001,
23410,
23510,
23635,
23531,
23445,
23279,
23503,
23949,
24777,
25099,
25137,
25106,
24020,
22790,
22147,
21768,
21349,
21337,
21039,
20912,
20793,
20592,
20650,
20531,
20208,
20172,
19864,
19945,
19560,
19501,
19333,
19372,
19041,
18853,
18740,
18847,
18612,
18647,
18485,
18431,
18336,
18345,
18222,
18796,
20752,
23603,
30104,
39849,
52497,
64947,
72903,
71529,
61801,
47509,
35061,
25293,
19913,
17580,
16871,
16259,
16285,
15815,
15686,
15146,
15125,
14900,
14850,
14555,
14610,
14568,
14590,
14209,
14226,
14116,
13874,
13605,
13573,
13549,
13328,
13235,
13152,
12645,
12877,
12631,
12572,
12496,
12393,
12218,
12317,
11818,
11889,
11845,
11583,
11488,
11582,
11662,
11907,
11823,
11804,
11834,
11534,
11370,
11311,
11509,
11826,
12868,
14186,
15819,
16940,
17938,
19252,
20132,
20549,
20223,
18716,
16274,
13804,
11617,
10385,
9822,
9603,
9516,
9545,
9463,
9150,
8826,
8654,
8079,
7825,
7638,
7487,
7424,
7314,
6946,
7004,
6920,
6858,
6812,
6782,
6750,
6589,
6544,
6322,
6369,
6324,
6103,
5965,
6004,
6045,
5975,
5673,
5694,
5564,
5503,
5514,
5392,
5299,
5244,
5193,
5079,
5126,
4967,
4767,
4770,
4750,
4520,
4632,
4528,
4421,
4653,
4590,
4831,
4958,
4903,
4658,
4404,
4118,
3890,
3765,
3589,
3553,
3498,
3444,
3288,
3427,
3246,
3165,
3091,
3041,
2952,
2735,
2658,
2661,
2604,
2488,
2423,
2312,
2281,
2159,
2078,
2104,
2016,
1980,
1886,
1754,
1702,
1606,
1556,
1459,
1496,
1386,
1261,
1245,
1219,
1107,
1036,
943,
904,
890,
740,
688,
641,
533,
474,
391,
274,
254,
189,
132,
84,
88,
80,
71,
73,
70,
73,
62,
54,
83,
73,
60,
79,
58,
60,
73,
62,
65,
60,
62,
60,
50,
51,
67,
55,
34,
47,
46,
49,
46,
57,
47,
60,
39,
55,
45,
44,
37,
40,
50,
32,
35,
48,
39,
51,
38,
25,
28,
37,
51,
53,
27,
31,
33,
30,
33,
26,
24,
37,
42,
44,
40,
34,
26,
50,
41,
37,
36,
33,
41,
37,
40,
32,
35,
41,
35,
28,
42,
32,
31,
37,
32,
25,
26,
36,
41,
22,
32,
23,
45,
31,
33,
28,
26,
25,
23,
23,
24,
24,
29,
30,
20,
23,
24,
21,
33,
25,
19,
30,
28,
30,
20,
28,
20,
25,
20,
28,
27,
21,
27,
31,
20,
18,
26,
25,
19,
20,
22,
25,
29,
20,
20,
15,
23,
19,
10,
19,
19,
18,
23,
20,
21,
26,
22,
20,
16,
19,
18,
15,
24,
17,
11,
10,
13,
21,
20,
10,
12,
12,
8,
15,
9,
11,
17,
12,
19,
11,
18,
13,
14,
13,
21,
10,
16,
15,
8,
12,
7,
15,
12,
8,
11,
12,
12,
11,
16,
11,
8,
17,
14,
5,
8,
6,
6,
14,
12,
9,
12,
9,
9,
9,
9,
9,
5,
13,
12,
12,
7,
5,
9,
7,
7,
9,
12,
6,
5,
8,
4,
3,
6,
4,
7,
13,
5,
9,
8,
8,
6,
7,
11,
5,
8,
6,
7,
4,
7,
5,
5,
2,
5,
6,
5,
3,
9,
6,
2,
2,
2,
5,
2,
3,
3,
7,
5,
2,
4,
6,
1,
3,
2,
5,
4,
1,
3,
2,
4,
4,
0,
3,
4,
3,
2,
1,
3,
3,
3,
3,
2,
2,
4,
2,
2,
4,
1,
2,
3,
2,
1,
4,
4,
3,
3,
3,
2,
1,
0,
2,
4,
2,
2,
0,
3,
5,
4,
0,
1,
1,
4,
0,
2,
1,
0,
3,
2,
1,
1,
2,
2,
0,
4,
0,
3,
3,
2,
2,
0,
2,
1,
1,
0,
0,
0,
2,
1,
1,
2,
2,
0,
0,
2,
0,
1,
2,
1,
0,
3,
0,
2,
2,
1,
0,
0,
1,
0,
1,
1,
0,
0,
1,
1,
2,
1,
0,
2,
0,
1,
1,
0,
1,
0,
1,
0,
0,
0,
0,
1,
3,
0,
1,
0,
0,
0,
0,
0,
0,
0,
1,
1,
0,
0,
0,
0,
0,
0,
0,
0,
0,
1,
0,
0,
0,
0,
0,
1,
0,
0,
0,
0,
1,
0,
0,
0,
0,
0,
0,
0,
0,
0,
0,
0,
0,
0,
1,
0,
0,
0,
0,
0,
0,
0,
0,
0,
1,
0,
0,
0,
0,
0,
0,
0,
0,
0,
0,
0,
0,
1,
0,
0,
0,
0,
0,
0,
0,
0,
0,
0,
0,
0,
0,
0,
0,
0,
0,
1,
0,
0,
0,
0,
0,
0,
0,
0,
0,
0,
0,
0,
0,
0,
0,
0,
0,
0,
0,
0,
0,
0,
0,
0,
0,
0,
0,
0,
0,
0,
0,
0,
0,
0,
0,
0,
0,
0,
0,
0,
0,
0,
0,
0,
0,
0,
0,
0,
0,
0,
0,
0,
0,
0,
0,
0,
0,
0,
0,
0,
0,
0,
0,
0,
0,
0,
0,
0,
0,
0,
0,
0,
0,
0,
0,
0,
0,
0,
0,
0,
0,
0,
0,
0,
0,
0,
0,
0,
0,
0,
0,
0,
0,
0,
0,
0,
0,
0,
0,
0,
0,
0,
0,
0,
0,
0,
0,
0,
0,
0,
0,
0,
0,
0,
0,
0,
0,
0,
0,
0,
0,
0,
0,
0,
0,
0,
0,
0,
0,
0,
0,
0,
0,
0,
0,
0,
0,
0,
0,
0,
0,
0,
0,
0,
0,
0,
0,
0,
0,
0,
0,
0,
0,
0,
0,
0,
0,
0,
0,
0,
0,
0,
0,
0,
0,
0,
0,
0,
0,
0,
0,
0,
0,
0,
0,
0,
0,
0,
0,
0,
0,
0,
0,
0,
0,
0,
0,
0,
0,
0,
0,
0,
0,
0,
0,
0,
0,
0,
0,
0,
0,
0,
0,
0,
0,
0,
0,
0,
0,
0,
0,
0,
0,
0,
0,
0,
0,
0,
0,
0,
0,
0,
0,
0,
0,
0,
0,
0,
0,
0,
0,
0,
0,
0,
0,
0,
0,
0,
0,
0,
0,
0,
0,
0,
0,
0,
0,
0,
0,
0,
0,
0,
0,
0,
0,
0,
0,
0,
0,
0,
0,
0,
0,
0,
0,
0,
0,
0,
0,
0,
0,
1,
0,
0,
0,
0,
0,
0,
0,
0,
0,
0,
0,
0,
0,
0,
0,
0,
0,
0,
0,
0,
0,
0,
0,
0,
0,
0,
0,
0,
0,
0,
0,
0,
0,
0,
0,
0,
0,
0,
0,
0,
0,
0,
0,
0,
0,
0,
0,
0,
0,
0,
0,
0,
0,
0,
0,
0,
0,
0,
0,
0,
0,
0,
0,
0,
0,
0,
0,
0,
0,
0,
0,
0,
0,
0,
0,
0,
0,
0,
0,
0,
0,
0,
0,
0,
0,
0,
0,
0,
0,
0,
0,
0,
0,
0,
0,
0,
0,
0,
0,
0,
0,
0,
0,
0,
0,
0,
0,
0,
0,
0,
0,
0,
0,
0,
0,
0,
0,
0,
0,
0,
0,
0,
0,
0,
0,
0,
0,
0,
#ENDOFDATA   :