File: N132962/Standards/15 keV/BaCl std.msa
#FORMAT      : EMSA/MAS Spectral Data File
#VERSION     : 1.0
#TITLE       : BaCl standard for 'N132962' detector
#NPOINTS     : 4096
#NCOLUMNS    : 1
#XUNITS      : eV
#YUNITS      : counts
#DATATYPE    : Y
#SIGNALTYPE  : EDS
#XLABEL      : Energy (eV)
#YLABEL      : Counts
#XPERCHAN -eV: 9.99778
#OFFSET   -eV: 1.69135
#CHOFFSET    : 0
#DATE        : 29-Sep-2025
#TIME        : 10:17:00
#OWNER       : Unknown
#ELEVANGLE   : 35
#BEAMKV   -kV: 15
#LIVETIME  -s: 715.975
#REALTIME  -s: 768.266
#PROBECUR -nA: 1.2156
##WORKING -mm: 15
##D2STDCMP   : BaCl,(Cl:20.5178),(Ba:79.4822)
##SIMILAR    : 4.7
#SPECTRUM    :
208,
261,
230,
642,
6144,
25922,
38797,
25480,
20174,
20790,
15897,
13364,
13322,
13935,
14882,
17090,
21964,
30399,
43759,
64959,
71639,
49020,
31405,
27814,
32477,
42625,
46176,
35040,
26630,
25166,
23144,
21514,
23228,
23908,
22461,
21676,
19313,
17045,
15569,
15208,
15230,
15545,
15728,
15937,
16304,
16444,
16847,
16981,
17857,
19043,
19145,
18614,
18087,
17715,
17878,
18247,
18910,
20189,
20811,
21058,
20352,
19373,
18169,
17304,
17349,
16974,
17320,
17333,
17083,
17187,
16989,
17324,
17289,
17572,
17704,
17835,
18030,
17983,
17901,
17706,
17894,
19711,
22760,
30235,
54554,
133497,
300657,
463068,
449494,
274715,
112746,
46540,
40456,
52357,
56981,
46096,
28925,
18005,
13909,
12853,
12849,
12928,
13267,
13240,
13128,
13015,
13053,
12745,
12573,
12488,
12386,
12486,
12532,
12614,
12558,
12126,
12454,
12218,
11970,
12007,
11814,
11945,
12031,
11823,
11727,
12093,
11992,
11869,
12135,
13363,
15129,
17419,
17889,
16828,
14869,
12969,
11919,
11571,
11312,
11416,
11425,
11938,
12612,
14191,
17707,
28193,
57041,
110872,
170053,
190644,
155769,
93858,
44959,
21388,
13381,
12169,
12765,
17068,
29483,
53357,
80560,
95480,
87696,
66004,
45461,
31623,
22493,
16851,
15386,
18523,
26282,
35613,
39475,
34586,
25205,
16435,
11442,
9381,
8727,
8537,
8838,
10081,
12771,
16126,
18825,
18282,
15322,
11725,
9167,
8164,
8276,
9425,
10665,
11389,
11171,
9950,
8817,
7977,
7614,
7340,
7208,
6847,
6711,
6479,
6312,
6316,
6351,
6200,
6256,
6202,
6376,
6268,
6286,
6285,
6146,
6122,
6096,
6216,
5967,
5986,
5983,
5944,
5810,
5774,
5857,
5853,
5659,
5719,
5731,
5678,
5807,
5473,
5572,
5690,
5612,
5676,
5805,
5797,
5586,
5528,
5486,
5407,
5300,
5272,
5136,
5418,
5406,
5322,
5293,
5302,
5275,
5081,
5014,
5067,
5085,
4844,
4888,
4835,
4770,
4853,
4787,
4700,
4720,
4681,
4726,
4591,
4546,
4469,
4460,
4485,
4531,
4355,
4473,
4379,
4364,
4269,
4288,
4256,
4229,
4185,
4280,
4249,
4097,
4041,
4024,
3967,
3920,
3926,
3821,
3897,
3900,
3830,
3897,
3752,
3867,
3717,
3932,
3825,
3774,
3745,
3699,
3604,
3648,
3486,
3493,
3550,
3408,
3550,
3458,
3429,
3448,
3326,
3364,
3317,
3243,
3228,
3270,
3155,
3186,
3217,
3154,
3134,
3141,
3141,
2919,
2994,
3058,
2987,
3011,
2967,
2871,
2884,
2864,
2818,
2702,
2784,
2810,
2722,
2656,
2783,
2656,
2547,
2635,
2628,
2564,
2484,
2461,
2474,
2443,
2426,
2448,
2405,
2341,
2325,
2238,
2369,
2238,
2237,
2239,
2227,
2271,
2155,
2192,
2163,
2112,
2137,
2029,
1975,
2033,
2004,
1969,
1950,
1951,
1881,
1911,
1863,
1855,
1824,
1768,
1785,
1785,
1740,
1766,
1813,
1700,
1698,
1632,
1637,
1645,
1614,
1610,
1556,
1545,
1508,
1512,
1484,
1442,
1500,
1393,
1422,
1383,
1415,
1373,
1356,
1389,
1267,
1261,
1295,
1185,
1202,
1231,
1191,
1189,
1205,
1166,
1132,
1157,
1104,
1101,
1022,
1014,
987,
1025,
998,
946,
994,
963,
936,
894,
882,
877,
830,
856,
785,
805,
811,
834,
782,
756,
753,
760,
803,
702,
688,
618,
652,
647,
669,
643,
582,
613,
559,
527,
527,
526,
540,
505,
548,
458,
499,
445,
463,
468,
406,
406,
378,
423,
373,
340,
341,
318,
325,
295,
352,
298,
267,
277,
230,
267,
259,
244,
226,
201,
202,
196,
179,
157,
159,
147,
118,
122,
132,
100,
96,
81,
71,
69,
53,
51,
40,
21,
15,
18,
7,
11,
15,
9,
7,
9,
11,
10,
5,
14,
13,
8,
7,
6,
3,
5,
6,
5,
9,
7,
8,
12,
4,
8,
5,
11,
8,
8,
3,
3,
7,
7,
7,
3,
6,
12,
10,
5,
5,
9,
7,
1,
2,
5,
7,
7,
7,
6,
6,
4,
2,
4,
0,
3,
7,
2,
5,
8,
14,
6,
5,
5,
4,
1,
1,
7,
4,
2,
4,
7,
3,
4,
7,
8,
2,
1,
5,
6,
4,
6,
5,
7,
1,
10,
3,
7,
7,
3,
0,
6,
6,
3,
3,
0,
5,
1,
2,
2,
2,
4,
7,
3,
4,
6,
0,
2,
2,
5,
3,
2,
1,
0,
3,
1,
3,
5,
2,
3,
0,
3,
1,
0,
2,
1,
3,
1,
4,
0,
3,
2,
1,
4,
2,
1,
2,
0,
0,
4,
3,
1,
3,
1,
2,
1,
2,
2,
0,
1,
1,
1,
1,
2,
1,
1,
1,
2,
3,
0,
0,
1,
2,
1,
1,
0,
0,
2,
0,
1,
0,
0,
0,
4,
1,
0,
0,
2,
1,
2,
2,
0,
0,
1,
0,
0,
2,
0,
0,
0,
1,
1,
1,
0,
0,
2,
0,
1,
1,
0,
0,
0,
1,
0,
3,
0,
0,
0,
2,
0,
0,
0,
1,
0,
0,
2,
0,
0,
1,
1,
2,
1,
0,
2,
0,
1,
0,
0,
0,
0,
0,
0,
1,
1,
0,
0,
0,
0,
0,
0,
1,
1,
2,
1,
0,
0,
1,
0,
1,
0,
0,
2,
0,
1,
1,
0,
0,
0,
0,
0,
0,
0,
1,
0,
1,
1,
0,
0,
0,
0,
0,
0,
0,
0,
0,
0,
0,
0,
0,
0,
0,
0,
0,
0,
0,
0,
0,
0,
0,
0,
0,
0,
0,
1,
0,
1,
0,
0,
0,
0,
0,
0,
1,
0,
0,
0,
0,
0,
0,
0,
0,
0,
0,
0,
0,
0,
0,
0,
0,
0,
0,
0,
1,
0,
0,
0,
0,
0,
0,
0,
0,
0,
0,
0,
0,
0,
1,
0,
0,
0,
0,
0,
0,
0,
0,
0,
0,
0,
0,
0,
0,
0,
0,
0,
0,
0,
0,
0,
0,
0,
0,
0,
0,
0,
0,
0,
0,
0,
0,
0,
0,
0,
0,
0,
0,
0,
0,
0,
0,
0,
0,
0,
0,
0,
0,
0,
0,
0,
0,
0,
0,
0,
0,
0,
0,
0,
0,
0,
0,
0,
0,
0,
0,
0,
1,
0,
0,
0,
0,
0,
0,
0,
0,
0,
0,
0,
0,
0,
0,
0,
0,
0,
0,
0,
0,
0,
0,
0,
0,
0,
0,
0,
0,
0,
0,
0,
0,
0,
0,
0,
0,
0,
0,
0,
0,
0,
0,
0,
0,
0,
0,
0,
0,
0,
0,
0,
0,
0,
0,
0,
0,
0,
0,
0,
0,
0,
0,
0,
0,
0,
0,
0,
0,
0,
0,
0,
0,
0,
0,
0,
0,
0,
0,
0,
0,
0,
0,
0,
0,
0,
0,
0,
0,
0,
0,
0,
0,
0,
0,
0,
0,
0,
0,
0,
0,
0,
0,
0,
0,
0,
0,
0,
0,
0,
0,
0,
0,
0,
0,
0,
0,
0,
0,
0,
0,
0,
0,
0,
0,
0,
0,
0,
0,
0,
0,
0,
0,
0,
0,
0,
0,
0,
0,
0,
0,
0,
0,
0,
0,
0,
0,
0,
0,
0,
0,
0,
0,
0,
0,
0,
0,
0,
0,
0,
0,
0,
0,
0,
0,
0,
0,
0,
0,
0,
0,
0,
0,
0,
0,
0,
0,
0,
0,
0,
0,
0,
0,
0,
0,
0,
0,
0,
0,
0,
0,
0,
0,
0,
0,
0,
0,
0,
0,
0,
0,
0,
0,
0,
0,
0,
0,
0,
0,
0,
0,
0,
0,
0,
0,
0,
0,
0,
0,
0,
0,
0,
0,
0,
0,
0,
0,
0,
0,
0,
0,
0,
0,
0,
0,
0,
0,
0,
0,
0,
0,
0,
0,
0,
0,
0,
0,
0,
0,
0,
0,
0,
0,
0,
0,
0,
0,
0,
0,
0,
0,
0,
0,
0,
0,
0,
0,
0,
0,
0,
0,
0,
0,
0,
0,
0,
0,
0,
0,
0,
0,
0,
0,
0,
0,
0,
0,
0,
0,
0,
0,
0,
0,
0,
0,
0,
0,
0,
0,
0,
0,
0,
0,
0,
0,
0,
0,
0,
0,
0,
0,
0,
0,
0,
0,
0,
0,
0,
0,
0,
0,
0,
0,
0,
0,
0,
0,
0,
0,
0,
0,
0,
0,
0,
0,
0,
0,
0,
0,
0,
0,
0,
0,
0,
0,
0,
0,
0,
0,
0,
0,
0,
0,
0,
0,
0,
0,
0,
0,
0,
0,
0,
0,
0,
0,
0,
0,
0,
0,
0,
0,
0,
0,
0,
0,
0,
0,
0,
0,
0,
0,
0,
0,
0,
0,
0,
0,
0,
0,
0,
0,
0,
0,
0,
0,
0,
0,
0,
0,
0,
0,
0,
0,
0,
0,
0,
0,
0,
0,
0,
0,
0,
0,
0,
0,
0,
0,
0,
0,
0,
0,
0,
0,
0,
0,
0,
0,
0,
0,
0,
0,
0,
0,
0,
0,
0,
0,
0,
0,
0,
0,
0,
0,
0,
0,
0,
0,
0,
0,
0,
0,
0,
0,
0,
0,
0,
0,
0,
0,
0,
0,
#ENDOFDATA   :