File: N132962/Standards/15 keV/BaF2 std.msa
#FORMAT      : EMSA/MAS Spectral Data File
#VERSION     : 1.0
#TITLE       : BaF2 standard for 'N132962' detector
#NPOINTS     : 4096
#NCOLUMNS    : 1
#XUNITS      : eV
#YUNITS      : counts
#DATATYPE    : Y
#SIGNALTYPE  : EDS
#XLABEL      : Energy (eV)
#YLABEL      : Counts
#XPERCHAN -eV: 9.99778
#OFFSET   -eV: 1.69135
#CHOFFSET    : 0
#DATE        : 26-Sep-2025
#TIME        : 19:07:00
#OWNER       : Unknown
#ELEVANGLE   : 35
#BEAMKV   -kV: 15
#LIVETIME  -s: 1435.99
#REALTIME  -s: 1555.26
#PROBECUR -nA: 1.21626
##WORKING -mm: 15
##D2STDCMP   : BaF2,(F:21.6724),(Ba:78.3276)
##SIMILAR    : 2.4
#SPECTRUM    :
849,
1136,
686,
1036,
4951,
17339,
41085,
74740,
118322,
129280,
91170,
67006,
63333,
63003,
65359,
73480,
92371,
126616,
191134,
304820,
450284,
774718,
1240942,
1076335,
462271,
160286,
103847,
73599,
46173,
34521,
33247,
39416,
47839,
49501,
47694,
44984,
39251,
34386,
31965,
31048,
31667,
32834,
33763,
34437,
35072,
35767,
35557,
35748,
36642,
37553,
37890,
37718,
37666,
37897,
38337,
39096,
40528,
43042,
44700,
45353,
45422,
43275,
39956,
37805,
36881,
36793,
36549,
36442,
36780,
37021,
37171,
36805,
37017,
37150,
36827,
37454,
37614,
36964,
37220,
36623,
36540,
36263,
36420,
35935,
35959,
35827,
36188,
36972,
37231,
37900,
38862,
38115,
36872,
35303,
34725,
34198,
34022,
33390,
33266,
33195,
33307,
33397,
33529,
33692,
33201,
32382,
32252,
31988,
31717,
31541,
31346,
31168,
31211,
30749,
30410,
29881,
29803,
29540,
29268,
28939,
29147,
28831,
28677,
28783,
28474,
28307,
27851,
27780,
28867,
31128,
36356,
42255,
43956,
41047,
35010,
30094,
27517,
26407,
26063,
26048,
26573,
27409,
29300,
33322,
42635,
71342,
146006,
280862,
425469,
477350,
390808,
237975,
114626,
52722,
31554,
27290,
29109,
41107,
72261,
129756,
197992,
233785,
215687,
163352,
111719,
76442,
53694,
40293,
36917,
44759,
64413,
86266,
94819,
84298,
59999,
38750,
25966,
20692,
19227,
19522,
20357,
23865,
30196,
38466,
44836,
43296,
36318,
27205,
20948,
18416,
18998,
21321,
24866,
26265,
25722,
23110,
19938,
17718,
17048,
16664,
16232,
15460,
14914,
14281,
14073,
13852,
13788,
13755,
13657,
13650,
14093,
14435,
14888,
15366,
15264,
14413,
13873,
13324,
13046,
12894,
12858,
12967,
12562,
12759,
12618,
12429,
12484,
12306,
12266,
12295,
12004,
12155,
12135,
12165,
11939,
12104,
11991,
11745,
11811,
11475,
11658,
11206,
11136,
11276,
10946,
11216,
11147,
11242,
11155,
10987,
10967,
10704,
10895,
10530,
10666,
10333,
10388,
10320,
10378,
10150,
10007,
10120,
9959,
9922,
9824,
9857,
9893,
9595,
9579,
9602,
9519,
9393,
9171,
9413,
9205,
9168,
9213,
9143,
9072,
8799,
8708,
8734,
8657,
8756,
8346,
8525,
8625,
8386,
8287,
8291,
8115,
8151,
8201,
7990,
8076,
8112,
8065,
7991,
7961,
7800,
7740,
7635,
7516,
7528,
7489,
7248,
7280,
7294,
7239,
7176,
7170,
7311,
6962,
6876,
6906,
6663,
6938,
6751,
6675,
6731,
6636,
6600,
6458,
6420,
6294,
6363,
6265,
6205,
6195,
6139,
6122,
5980,
5887,
5919,
5775,
5636,
5698,
5694,
5586,
5542,
5476,
5352,
5582,
5406,
5390,
5317,
5160,
5265,
5184,
5033,
4814,
4971,
4988,
4962,
4949,
4804,
4673,
4690,
4627,
4495,
4463,
4403,
4544,
4306,
4421,
4197,
4411,
4153,
4100,
4282,
4130,
4083,
3889,
4049,
3908,
3738,
3800,
3787,
3726,
3765,
3496,
3642,
3513,
3510,
3393,
3404,
3545,
3384,
3292,
3305,
3247,
3165,
3094,
3125,
2974,
2915,
2839,
2949,
2936,
2897,
2819,
2814,
2757,
2752,
2599,
2638,
2606,
2563,
2545,
2459,
2381,
2334,
2306,
2367,
2327,
2274,
2171,
2234,
2180,
2127,
2126,
2053,
1989,
1951,
1885,
1933,
1938,
1858,
1865,
1792,
1777,
1662,
1688,
1631,
1611,
1549,
1550,
1537,
1530,
1508,
1471,
1351,
1427,
1278,
1319,
1301,
1266,
1256,
1232,
1114,
1133,
1176,
1069,
1060,
1092,
1028,
953,
926,
1003,
884,
882,
845,
808,
786,
796,
704,
733,
708,
683,
610,
623,
567,
561,
559,
513,
483,
469,
470,
438,
398,
383,
354,
353,
308,
285,
242,
223,
210,
181,
173,
157,
110,
99,
101,
56,
61,
40,
38,
27,
26,
16,
15,
19,
15,
17,
17,
23,
21,
25,
21,
17,
23,
11,
18,
12,
18,
12,
22,
12,
12,
11,
7,
13,
16,
12,
15,
15,
15,
10,
12,
12,
12,
17,
10,
13,
15,
10,
9,
10,
15,
8,
8,
13,
9,
11,
16,
9,
8,
7,
9,
9,
10,
5,
15,
11,
6,
10,
4,
11,
10,
8,
12,
13,
6,
12,
14,
18,
4,
5,
10,
10,
7,
11,
15,
15,
6,
14,
10,
12,
10,
15,
7,
11,
8,
4,
4,
12,
9,
9,
7,
7,
8,
9,
5,
2,
10,
8,
9,
7,
9,
5,
9,
3,
4,
4,
5,
5,
7,
7,
7,
4,
8,
4,
9,
5,
1,
5,
3,
7,
2,
4,
3,
7,
5,
7,
3,
4,
6,
2,
3,
3,
3,
5,
3,
3,
3,
3,
4,
4,
2,
5,
3,
4,
2,
4,
2,
0,
2,
1,
2,
5,
5,
2,
1,
3,
2,
1,
0,
3,
3,
2,
3,
2,
1,
0,
1,
2,
3,
0,
0,
3,
4,
3,
2,
1,
2,
2,
5,
0,
4,
1,
1,
1,
3,
1,
3,
2,
1,
2,
1,
3,
0,
3,
0,
2,
2,
1,
3,
2,
2,
2,
1,
1,
0,
2,
0,
0,
1,
1,
0,
1,
2,
1,
2,
3,
0,
0,
3,
1,
0,
1,
1,
1,
0,
2,
0,
2,
1,
0,
1,
1,
2,
1,
1,
2,
1,
1,
0,
0,
0,
1,
1,
1,
0,
0,
1,
1,
0,
2,
0,
2,
0,
0,
1,
1,
3,
0,
0,
2,
1,
0,
0,
0,
0,
0,
0,
0,
0,
2,
0,
0,
0,
0,
1,
1,
0,
1,
1,
0,
1,
0,
1,
1,
0,
0,
0,
1,
0,
1,
1,
0,
0,
0,
0,
0,
1,
0,
0,
0,
0,
0,
0,
0,
0,
0,
0,
0,
0,
0,
0,
0,
1,
0,
0,
0,
0,
0,
1,
0,
0,
0,
1,
0,
0,
0,
1,
0,
0,
1,
0,
0,
1,
0,
0,
0,
0,
0,
0,
1,
0,
1,
0,
0,
0,
0,
0,
1,
0,
0,
0,
0,
0,
0,
0,
0,
0,
0,
1,
0,
0,
0,
0,
0,
0,
0,
0,
0,
0,
0,
0,
0,
0,
0,
0,
0,
0,
0,
0,
0,
0,
0,
0,
0,
0,
0,
0,
0,
0,
0,
0,
0,
0,
0,
0,
0,
0,
1,
0,
0,
0,
0,
0,
0,
0,
0,
0,
0,
0,
0,
0,
0,
0,
0,
0,
0,
0,
0,
0,
0,
0,
0,
0,
0,
0,
0,
0,
0,
0,
0,
0,
0,
0,
0,
0,
0,
0,
0,
0,
0,
0,
0,
0,
0,
0,
0,
0,
0,
0,
0,
0,
0,
0,
0,
0,
0,
0,
0,
0,
0,
0,
0,
0,
0,
0,
0,
0,
0,
0,
0,
0,
0,
0,
0,
0,
0,
0,
0,
0,
0,
0,
0,
0,
0,
0,
0,
0,
0,
0,
0,
0,
0,
0,
0,
0,
0,
0,
0,
0,
0,
0,
0,
0,
0,
0,
0,
0,
0,
0,
0,
0,
0,
0,
0,
0,
0,
0,
0,
0,
0,
0,
0,
0,
0,
0,
0,
0,
0,
0,
0,
0,
0,
0,
0,
0,
0,
0,
0,
0,
0,
0,
0,
0,
0,
0,
0,
0,
0,
0,
0,
0,
0,
0,
0,
0,
0,
0,
0,
0,
0,
0,
0,
0,
0,
0,
0,
0,
0,
0,
0,
0,
0,
0,
0,
0,
0,
0,
0,
0,
0,
0,
0,
0,
0,
0,
0,
0,
0,
0,
0,
0,
0,
0,
0,
0,
0,
0,
0,
0,
0,
0,
0,
0,
0,
0,
0,
0,
0,
0,
0,
0,
0,
0,
0,
0,
0,
0,
0,
0,
0,
0,
0,
0,
0,
0,
0,
0,
0,
0,
0,
0,
0,
0,
0,
0,
0,
0,
0,
0,
0,
0,
0,
0,
0,
0,
0,
0,
0,
0,
0,
0,
0,
0,
0,
0,
0,
0,
0,
0,
0,
0,
0,
0,
0,
0,
0,
0,
0,
0,
0,
0,
0,
0,
0,
0,
0,
0,
0,
0,
0,
0,
0,
0,
0,
0,
0,
0,
0,
0,
0,
0,
0,
0,
0,
0,
0,
0,
0,
0,
0,
0,
0,
0,
0,
0,
0,
0,
0,
0,
0,
0,
0,
0,
0,
0,
0,
0,
0,
0,
0,
0,
0,
0,
0,
0,
0,
0,
0,
0,
0,
0,
0,
0,
0,
0,
0,
0,
0,
0,
0,
0,
0,
0,
0,
0,
0,
0,
0,
0,
0,
0,
0,
0,
0,
0,
0,
0,
0,
0,
0,
0,
0,
0,
0,
0,
0,
0,
0,
0,
0,
0,
0,
0,
0,
0,
0,
0,
0,
0,
0,
0,
0,
0,
0,
0,
0,
0,
0,
0,
0,
0,
0,
0,
0,
0,
0,
0,
0,
0,
0,
0,
0,
0,
0,
0,
0,
0,
0,
0,
0,
0,
0,
0,
0,
0,
0,
0,
0,
0,
0,
0,
0,
0,
0,
0,
0,
0,
0,
0,
0,
0,
0,
0,
0,
0,
0,
0,
0,
0,
0,
0,
0,
0,
0,
0,
0,
0,
0,
0,
0,
0,
0,
0,
0,
0,
0,
0,
0,
0,
0,
0,
0,
0,
0,
0,
0,
0,
#ENDOFDATA   :