File: N132962/Standards/15 keV/Bi std.msa
#FORMAT      : EMSA/MAS Spectral Data File
#VERSION     : 1.0
#TITLE       : Bi standard for 'N132962' detector
#NPOINTS     : 4096
#NCOLUMNS    : 1
#XUNITS      : eV
#YUNITS      : counts
#DATATYPE    : Y
#SIGNALTYPE  : EDS
#XLABEL      : Energy (eV)
#YLABEL      : Counts
#XPERCHAN -eV: 9.99778
#OFFSET   -eV: 1.69135
#CHOFFSET    : 0
#DATE        : 26-Sep-2025
#TIME        : 18:57:00
#OWNER       : Unknown
#ELEVANGLE   : 35
#BEAMKV   -kV: 15
#LIVETIME  -s: 1927.62
#REALTIME  -s: 2127.5
#PROBECUR -nA: 1.21626
##WORKING -mm: 15
##D2STDCMP   : Bi,(Bi:100.0000)
##SIMILAR    : 1.2
#SPECTRUM    :
161,
198,
165,
1367,
9675,
36039,
82358,
127857,
168129,
175317,
125938,
88841,
74975,
66496,
62786,
67499,
84941,
103666,
93116,
76474,
76172,
87686,
110484,
119041,
100983,
91954,
95688,
93294,
88764,
85888,
82994,
82840,
84638,
86946,
87390,
87592,
88167,
89086,
90841,
91209,
93356,
93678,
94977,
95941,
96817,
97678,
98587,
100063,
101209,
103800,
104084,
102568,
101181,
100465,
100753,
101750,
103766,
108722,
113508,
115748,
121427,
137100,
169158,
187203,
164848,
125601,
104028,
95959,
93201,
89975,
89887,
90083,
94408,
102434,
113139,
122673,
133310,
176274,
342103,
808692,
1496551,
1801168,
1492098,
1207884,
1166440,
945532,
523428,
220680,
110573,
93358,
108412,
122073,
111237,
84724,
62762,
52829,
49761,
49273,
50083,
51914,
53269,
54308,
53500,
55275,
59816,
65544,
68125,
67792,
63126,
58339,
53706,
50761,
48596,
47324,
46988,
46561,
47066,
46931,
46861,
47334,
47205,
47599,
48501,
47366,
46959,
46429,
45384,
45340,
45907,
46562,
46154,
46552,
45138,
45206,
44522,
44688,
44053,
44031,
43864,
43826,
43874,
43711,
43865,
43590,
43649,
43493,
43005,
43697,
43179,
43017,
42971,
42803,
42496,
42683,
42111,
42177,
41979,
41849,
42527,
42326,
42414,
42871,
43574,
43557,
43651,
43797,
43068,
42349,
41813,
41134,
40684,
40315,
40104,
39642,
39207,
39440,
39654,
39443,
40273,
41211,
41820,
41824,
40104,
39290,
37869,
38004,
37332,
37166,
37185,
36410,
36513,
36675,
36290,
35742,
36112,
36308,
36249,
35570,
36121,
35436,
35298,
34406,
34630,
34397,
33754,
33715,
33942,
33498,
33660,
34032,
35393,
37567,
40158,
41574,
41219,
38440,
35716,
33109,
31873,
31575,
31575,
31193,
30853,
30870,
30605,
30208,
30249,
30104,
29766,
29660,
29486,
29459,
29628,
29643,
29821,
29570,
29643,
29250,
28613,
28231,
28001,
27544,
27781,
27514,
27322,
27420,
26959,
27347,
27676,
27530,
27075,
26752,
26182,
25978,
25817,
25567,
25280,
24890,
25345,
24795,
24415,
24362,
24521,
24160,
24251,
23787,
23650,
23809,
23419,
23464,
23346,
23309,
23015,
22842,
22603,
22530,
22684,
22385,
22150,
22019,
21850,
21470,
21507,
21153,
21144,
21263,
21090,
20855,
20719,
20691,
20267,
20132,
20277,
20041,
19872,
20002,
19601,
19521,
19148,
19165,
19238,
18912,
18674,
18536,
18382,
18296,
18089,
18278,
17985,
18018,
18255,
18288,
18031,
18207,
18121,
18056,
17566,
17326,
17172,
16964,
16881,
16556,
16372,
16284,
16205,
16043,
15810,
15714,
15433,
15651,
15363,
15425,
15101,
15004,
15209,
14716,
14531,
14466,
14345,
14256,
14321,
14389,
14072,
13974,
13873,
13645,
13654,
13367,
13491,
13361,
13166,
13312,
12975,
13318,
13541,
14488,
15378,
17510,
20104,
22975,
25573,
26169,
24531,
21523,
18074,
15215,
13014,
11932,
11203,
10958,
10832,
10678,
10705,
10653,
10392,
10480,
10336,
10078,
9983,
9890,
9935,
9730,
9512,
9497,
9357,
9368,
9250,
9071,
8864,
8938,
8960,
8563,
8437,
8483,
8479,
8346,
8213,
8190,
8114,
7937,
7916,
7813,
7604,
7519,
7483,
7380,
7301,
7239,
7041,
6976,
6967,
6932,
6799,
6765,
6658,
6608,
6489,
6474,
6344,
6344,
6222,
5933,
5876,
5835,
5744,
5697,
5922,
5899,
6044,
6475,
6896,
7216,
7354,
7262,
6941,
6171,
5478,
5142,
5051,
4524,
4570,
4460,
4415,
4299,
4303,
4277,
4171,
4136,
4031,
3749,
3589,
3560,
3527,
3404,
3288,
3197,
3172,
3141,
2946,
2911,
2833,
2772,
2849,
2601,
2638,
2526,
2377,
2506,
2295,
2253,
2182,
2139,
2128,
2045,
1957,
1891,
1817,
1812,
1810,
1600,
1546,
1527,
1485,
1379,
1223,
1209,
1145,
1097,
1100,
914,
886,
790,
733,
653,
632,
508,
460,
347,
289,
194,
160,
125,
99,
77,
82,
76,
60,
60,
72,
78,
64,
71,
68,
59,
68,
74,
50,
67,
56,
47,
66,
56,
58,
39,
64,
42,
59,
55,
52,
45,
61,
52,
50,
48,
43,
34,
46,
44,
44,
40,
38,
31,
41,
47,
35,
30,
38,
28,
45,
36,
53,
34,
35,
37,
31,
26,
35,
36,
26,
26,
33,
35,
41,
33,
30,
39,
40,
37,
32,
33,
36,
36,
31,
43,
33,
25,
26,
38,
34,
32,
30,
28,
32,
30,
25,
39,
25,
32,
27,
16,
37,
20,
25,
19,
23,
19,
22,
22,
21,
25,
22,
26,
19,
21,
15,
25,
20,
32,
15,
20,
18,
21,
20,
24,
19,
27,
17,
14,
26,
14,
21,
16,
13,
17,
22,
19,
20,
16,
22,
20,
14,
19,
19,
14,
11,
9,
10,
16,
14,
9,
23,
15,
12,
15,
9,
14,
11,
10,
18,
7,
20,
14,
14,
13,
9,
10,
21,
8,
11,
12,
8,
15,
10,
8,
18,
12,
11,
11,
13,
13,
22,
16,
4,
13,
12,
5,
9,
8,
15,
10,
6,
10,
13,
7,
12,
11,
11,
6,
10,
6,
10,
11,
7,
11,
9,
5,
4,
7,
6,
7,
8,
5,
5,
4,
8,
6,
8,
9,
5,
5,
2,
7,
10,
4,
12,
3,
6,
1,
8,
5,
4,
6,
3,
3,
6,
6,
4,
6,
6,
7,
6,
2,
5,
2,
6,
3,
2,
6,
2,
5,
4,
6,
6,
7,
5,
3,
1,
3,
3,
0,
4,
3,
4,
4,
3,
3,
7,
3,
5,
2,
6,
3,
3,
2,
2,
3,
5,
3,
1,
6,
1,
4,
3,
3,
3,
5,
3,
3,
2,
3,
1,
2,
1,
2,
6,
2,
2,
2,
1,
0,
1,
1,
2,
2,
3,
4,
2,
0,
4,
1,
0,
1,
3,
3,
3,
3,
1,
4,
2,
0,
4,
1,
1,
2,
0,
0,
0,
0,
1,
0,
2,
0,
0,
1,
2,
0,
3,
4,
1,
1,
1,
0,
3,
1,
4,
0,
0,
4,
2,
0,
1,
1,
0,
2,
1,
0,
2,
1,
1,
2,
1,
0,
1,
0,
1,
0,
3,
1,
1,
0,
0,
2,
0,
0,
1,
1,
2,
0,
0,
0,
1,
1,
0,
2,
1,
0,
0,
0,
0,
0,
1,
1,
0,
0,
1,
0,
1,
0,
0,
1,
1,
0,
1,
1,
2,
0,
0,
0,
1,
0,
1,
2,
1,
0,
0,
0,
1,
0,
0,
1,
0,
1,
2,
0,
2,
0,
0,
0,
0,
0,
0,
1,
0,
1,
0,
0,
0,
1,
0,
0,
0,
0,
0,
0,
0,
0,
0,
0,
1,
0,
0,
0,
0,
0,
0,
0,
0,
0,
0,
0,
0,
0,
0,
0,
0,
0,
0,
0,
0,
0,
0,
0,
0,
0,
0,
0,
0,
0,
0,
0,
0,
0,
0,
0,
0,
0,
0,
0,
0,
0,
0,
0,
0,
0,
0,
0,
0,
0,
0,
0,
0,
0,
0,
0,
0,
0,
0,
0,
0,
0,
0,
0,
0,
0,
0,
0,
0,
0,
0,
0,
0,
0,
0,
0,
0,
0,
0,
0,
0,
0,
0,
0,
0,
0,
0,
0,
0,
0,
0,
0,
0,
0,
0,
0,
0,
0,
0,
0,
0,
0,
0,
0,
0,
0,
0,
0,
0,
0,
0,
0,
0,
0,
0,
0,
0,
0,
0,
0,
0,
0,
0,
0,
0,
0,
0,
0,
0,
0,
0,
0,
0,
0,
0,
0,
0,
0,
0,
0,
0,
0,
0,
0,
0,
0,
0,
0,
0,
0,
0,
0,
0,
0,
0,
0,
0,
0,
0,
0,
0,
0,
0,
0,
0,
0,
0,
0,
0,
0,
0,
0,
0,
0,
0,
0,
0,
0,
0,
0,
0,
0,
0,
0,
0,
0,
0,
0,
0,
0,
0,
0,
0,
0,
0,
0,
0,
0,
0,
0,
0,
0,
0,
0,
0,
0,
0,
0,
0,
0,
0,
0,
0,
0,
0,
0,
0,
0,
0,
0,
0,
0,
0,
0,
0,
0,
0,
0,
0,
0,
0,
0,
0,
0,
0,
0,
0,
0,
0,
0,
0,
0,
0,
0,
0,
0,
0,
0,
0,
0,
0,
0,
0,
0,
0,
0,
0,
0,
0,
0,
0,
0,
0,
0,
0,
0,
0,
0,
0,
0,
0,
0,
0,
0,
0,
0,
0,
0,
0,
0,
0,
0,
0,
0,
0,
0,
0,
0,
0,
0,
0,
0,
0,
0,
0,
0,
0,
0,
0,
0,
0,
0,
0,
0,
0,
0,
0,
0,
0,
0,
0,
0,
0,
0,
0,
0,
0,
0,
0,
0,
0,
0,
0,
0,
0,
0,
0,
0,
0,
0,
0,
0,
0,
0,
0,
0,
0,
0,
0,
0,
0,
0,
0,
0,
0,
0,
0,
0,
0,
0,
0,
0,
0,
0,
0,
0,
0,
0,
0,
0,
0,
0,
0,
0,
0,
0,
0,
0,
0,
0,
0,
0,
0,
0,
0,
0,
0,
0,
0,
0,
0,
0,
0,
0,
0,
0,
0,
0,
0,
0,
0,
0,
0,
0,
0,
0,
0,
0,
0,
0,
0,
0,
0,
0,
0,
0,
0,
0,
0,
0,
0,
0,
0,
0,
0,
0,
0,
0,
0,
0,
0,
0,
0,
0,
0,
0,
0,
0,
#ENDOFDATA   :