File: N132962/Standards/15 keV/C std.msa
#FORMAT      : EMSA/MAS Spectral Data File
#VERSION     : 1.0
#TITLE       : C standard for 'N132962' detector
#NPOINTS     : 4096
#NCOLUMNS    : 1
#XUNITS      : eV
#YUNITS      : counts
#DATATYPE    : Y
#SIGNALTYPE  : EDS
#XLABEL      : Energy (eV)
#YLABEL      : Counts
#XPERCHAN -eV: 9.99778
#OFFSET   -eV: 1.69135
#CHOFFSET    : 0
#DATE        : 29-Sep-2025
#TIME        : 00:02:00
#OWNER       : Unknown
#ELEVANGLE   : 35
#BEAMKV   -kV: 15
#LIVETIME  -s: 1202.34
#REALTIME  -s: 1269.58
#PROBECUR -nA: 1.21151
##WORKING -mm: 15
##D2STDCMP   : C,(C:100.0000)
##SIMILAR    : 1.1
#SPECTRUM    :
111,
141,
67,
421,
2451,
12932,
87480,
668109,
2557815,
3330782,
1333660,
168265,
10757,
4188,
4352,
6326,
13833,
26288,
26132,
14081,
7949,
7206,
7900,
8443,
9035,
9345,
10257,
10590,
10990,
11567,
11686,
12169,
12648,
13053,
13280,
13387,
13817,
13807,
13775,
13842,
13808,
14173,
13905,
13735,
14011,
13820,
13851,
13693,
13635,
13333,
13463,
13225,
12883,
12636,
12334,
12446,
12366,
12366,
12498,
12467,
11952,
11154,
10386,
9983,
9588,
9224,
9179,
8947,
8787,
8587,
8648,
8521,
8398,
8152,
7893,
8010,
7990,
7761,
7682,
7430,
7335,
7336,
7169,
6984,
6736,
6805,
6588,
6455,
6628,
6321,
6417,
6190,
5941,
6155,
5837,
5618,
5726,
5565,
5499,
5452,
5390,
5305,
5246,
5198,
5006,
5019,
5163,
4933,
4900,
4736,
4681,
4560,
4552,
4540,
4429,
4383,
4393,
4207,
4233,
4210,
4080,
4132,
4044,
4010,
4017,
3832,
3817,
3721,
3817,
3716,
3664,
3732,
3564,
3462,
3516,
3390,
3345,
3356,
3374,
3301,
3225,
3147,
3146,
3147,
3098,
3120,
3034,
3086,
3083,
2924,
2951,
2836,
2898,
2738,
2795,
2619,
2647,
2700,
2667,
2718,
2671,
2603,
2567,
2564,
2455,
2445,
2439,
2479,
2433,
2275,
2315,
2316,
2289,
2286,
2229,
2234,
2211,
2256,
2154,
2169,
2177,
2132,
2098,
2093,
1970,
1983,
1918,
1977,
1983,
1928,
1816,
1955,
1825,
1874,
1799,
1824,
1882,
1812,
1672,
1767,
1768,
1695,
1673,
1701,
1612,
1708,
1587,
1632,
1603,
1582,
1609,
1605,
1689,
1652,
1707,
1526,
1442,
1503,
1369,
1360,
1377,
1388,
1381,
1407,
1365,
1413,
1360,
1278,
1300,
1295,
1275,
1318,
1301,
1264,
1287,
1249,
1274,
1183,
1183,
1148,
1126,
1174,
1136,
1144,
1083,
1090,
1066,
1128,
1059,
1088,
1057,
1037,
1022,
986,
967,
1033,
998,
983,
933,
963,
941,
921,
899,
901,
943,
916,
861,
836,
893,
824,
848,
869,
853,
822,
858,
827,
838,
798,
795,
781,
784,
750,
736,
752,
740,
744,
761,
717,
714,
705,
708,
662,
637,
662,
620,
707,
661,
643,
602,
627,
662,
582,
641,
577,
596,
610,
636,
585,
572,
547,
548,
498,
551,
566,
494,
531,
500,
512,
476,
512,
517,
512,
443,
461,
496,
450,
504,
471,
471,
434,
451,
454,
447,
426,
419,
418,
390,
425,
433,
401,
402,
412,
390,
396,
345,
367,
354,
359,
377,
358,
354,
347,
318,
345,
326,
336,
308,
326,
319,
335,
300,
301,
297,
287,
279,
275,
270,
277,
275,
297,
249,
256,
262,
257,
253,
256,
238,
270,
260,
239,
208,
249,
230,
220,
211,
209,
180,
209,
177,
232,
209,
165,
169,
202,
161,
165,
186,
166,
160,
173,
166,
150,
159,
173,
172,
135,
165,
160,
157,
124,
149,
144,
148,
150,
121,
135,
122,
112,
128,
142,
120,
107,
122,
100,
86,
125,
100,
88,
115,
82,
80,
102,
90,
86,
98,
78,
109,
87,
82,
64,
87,
88,
65,
60,
63,
74,
63,
78,
74,
65,
58,
48,
52,
60,
53,
48,
50,
43,
60,
45,
55,
49,
39,
34,
40,
40,
34,
47,
30,
35,
34,
36,
34,
25,
35,
29,
25,
21,
27,
19,
25,
10,
19,
13,
15,
19,
17,
7,
11,
11,
8,
13,
10,
7,
8,
8,
4,
1,
3,
3,
1,
3,
0,
0,
0,
0,
1,
0,
0,
0,
0,
0,
1,
0,
1,
0,
0,
0,
0,
0,
0,
0,
0,
0,
0,
0,
0,
0,
0,
0,
0,
1,
0,
0,
0,
0,
0,
0,
0,
0,
0,
0,
0,
0,
0,
0,
0,
0,
0,
0,
0,
0,
0,
0,
0,
0,
0,
0,
0,
0,
0,
0,
0,
0,
0,
0,
0,
0,
0,
0,
0,
0,
0,
0,
2,
0,
0,
0,
0,
0,
0,
0,
0,
0,
0,
0,
0,
0,
0,
0,
0,
0,
0,
1,
0,
0,
0,
0,
0,
0,
0,
0,
0,
0,
0,
0,
0,
0,
1,
0,
0,
0,
0,
0,
0,
0,
0,
0,
0,
0,
0,
0,
0,
0,
0,
0,
0,
0,
0,
0,
0,
0,
0,
0,
0,
0,
0,
0,
0,
0,
0,
0,
0,
0,
0,
0,
0,
0,
0,
0,
0,
0,
0,
0,
0,
0,
0,
0,
0,
0,
0,
0,
0,
0,
0,
0,
0,
0,
0,
0,
0,
0,
0,
0,
0,
0,
0,
0,
0,
0,
0,
0,
0,
0,
0,
0,
0,
0,
0,
0,
0,
0,
0,
0,
0,
0,
0,
0,
0,
0,
0,
0,
0,
0,
0,
0,
0,
0,
0,
0,
0,
0,
0,
0,
0,
0,
0,
0,
0,
0,
0,
0,
0,
0,
0,
0,
0,
0,
0,
0,
0,
0,
0,
0,
0,
0,
0,
0,
0,
0,
0,
0,
0,
0,
0,
0,
0,
0,
0,
0,
0,
0,
0,
0,
0,
0,
0,
0,
0,
0,
0,
0,
0,
0,
0,
0,
0,
0,
0,
0,
0,
0,
0,
0,
0,
0,
0,
0,
0,
0,
0,
0,
0,
0,
0,
0,
0,
0,
0,
0,
0,
0,
0,
0,
0,
0,
0,
0,
0,
0,
0,
0,
0,
0,
0,
0,
0,
0,
0,
0,
0,
0,
0,
0,
0,
0,
0,
0,
0,
0,
0,
0,
0,
0,
0,
0,
0,
0,
0,
0,
0,
0,
0,
0,
0,
0,
0,
0,
0,
0,
0,
0,
0,
0,
0,
0,
0,
0,
0,
0,
0,
0,
0,
0,
0,
0,
0,
0,
0,
0,
0,
0,
0,
0,
0,
0,
0,
0,
0,
0,
0,
0,
0,
0,
0,
0,
0,
0,
0,
0,
0,
0,
0,
0,
0,
0,
0,
0,
0,
0,
0,
0,
0,
0,
0,
0,
0,
0,
0,
0,
0,
0,
0,
0,
0,
0,
0,
0,
0,
0,
0,
0,
0,
0,
0,
0,
0,
0,
0,
0,
0,
0,
0,
0,
0,
0,
0,
0,
0,
0,
0,
0,
0,
0,
0,
0,
0,
0,
0,
0,
0,
0,
0,
0,
0,
0,
0,
0,
0,
0,
0,
0,
0,
0,
0,
0,
0,
0,
0,
0,
0,
0,
0,
0,
0,
0,
0,
0,
0,
0,
0,
0,
0,
0,
0,
0,
0,
0,
0,
0,
0,
0,
0,
0,
0,
0,
0,
0,
0,
0,
0,
0,
0,
0,
0,
0,
0,
0,
0,
0,
0,
0,
0,
0,
0,
0,
0,
0,
0,
0,
0,
0,
0,
0,
0,
0,
0,
0,
0,
0,
0,
0,
0,
0,
0,
0,
0,
0,
0,
0,
0,
0,
0,
0,
0,
0,
0,
0,
0,
0,
0,
0,
0,
0,
0,
0,
0,
0,
0,
0,
0,
0,
0,
0,
0,
0,
0,
0,
0,
0,
0,
0,
0,
0,
0,
0,
0,
0,
0,
0,
0,
0,
0,
0,
0,
0,
0,
0,
0,
0,
0,
0,
0,
0,
0,
0,
0,
0,
0,
0,
0,
0,
0,
0,
0,
0,
0,
0,
0,
0,
0,
0,
0,
0,
0,
0,
0,
0,
0,
0,
0,
0,
0,
0,
0,
0,
0,
0,
0,
0,
0,
0,
0,
0,
0,
0,
0,
0,
0,
0,
0,
0,
0,
0,
0,
0,
0,
0,
0,
0,
0,
0,
0,
0,
0,
0,
0,
0,
0,
0,
0,
0,
0,
0,
0,
0,
0,
0,
0,
0,
0,
0,
0,
0,
0,
0,
0,
0,
0,
0,
0,
0,
0,
0,
0,
0,
0,
0,
0,
0,
0,
0,
0,
0,
0,
0,
0,
0,
0,
0,
0,
0,
0,
0,
0,
0,
0,
0,
0,
0,
0,
0,
0,
0,
0,
0,
0,
0,
0,
0,
0,
0,
0,
0,
0,
0,
0,
0,
0,
0,
0,
0,
0,
0,
0,
0,
0,
0,
0,
0,
0,
0,
0,
0,
0,
0,
0,
0,
0,
0,
0,
0,
0,
0,
0,
0,
0,
0,
0,
0,
0,
0,
0,
0,
0,
0,
0,
0,
0,
0,
0,
0,
0,
0,
0,
0,
0,
0,
0,
0,
0,
0,
0,
0,
0,
0,
0,
0,
0,
0,
0,
0,
0,
0,
0,
0,
0,
0,
0,
0,
0,
0,
0,
0,
0,
0,
0,
0,
0,
0,
0,
0,
0,
0,
0,
0,
0,
0,
0,
0,
0,
0,
0,
0,
0,
0,
0,
0,
0,
0,
0,
0,
0,
0,
0,
0,
0,
0,
0,
0,
0,
0,
0,
0,
0,
0,
0,
0,
0,
0,
0,
0,
0,
0,
0,
0,
0,
0,
0,
0,
0,
0,
0,
0,
0,
0,
0,
0,
0,
0,
0,
0,
0,
0,
0,
0,
#ENDOFDATA   :