File: N132962/Standards/15 keV/CaF2 std.msa
#FORMAT      : EMSA/MAS Spectral Data File
#VERSION     : 1.0
#TITLE       : CaF2 standard for 'N132962' detector
#NPOINTS     : 4096
#NCOLUMNS    : 1
#XUNITS      : eV
#YUNITS      : counts
#DATATYPE    : Y
#SIGNALTYPE  : EDS
#XLABEL      : Energy (eV)
#YLABEL      : Counts
#XPERCHAN -eV: 9.99778
#OFFSET   -eV: 1.69135
#CHOFFSET    : 0
#DATE        : 28-Sep-2025
#TIME        : 17:36:00
#OWNER       : Unknown
#ELEVANGLE   : 35
#BEAMKV   -kV: 15
#LIVETIME  -s: 2160.341
#REALTIME  -s: 2286.88
#PROBECUR -nA: 1.21461
##WORKING -mm: 15
##D2STDCMP   : CaF2,(F:48.6672),(Ca:51.3328)
##SIMILAR    : 1.5
#SPECTRUM    :
347,
379,
171,
284,
1512,
6077,
19334,
60320,
176206,
305484,
275304,
153202,
68467,
34618,
24975,
24409,
28971,
36197,
41826,
63146,
192446,
700984,
1454079,
1282600,
456171,
82951,
26616,
24143,
26087,
27195,
28244,
29808,
30771,
31949,
33103,
34286,
34902,
36323,
36609,
38438,
39202,
39835,
41041,
42108,
42805,
43328,
43074,
42751,
42781,
43246,
43433,
43339,
42770,
42048,
42793,
42486,
43665,
45851,
47406,
46806,
45151,
42858,
41472,
43649,
50927,
54218,
48461,
40144,
36711,
35224,
34763,
34628,
34182,
34119,
34443,
35076,
34739,
33579,
32314,
32010,
31247,
30933,
30756,
30324,
30096,
29839,
29621,
29068,
29151,
28856,
28442,
27736,
27788,
27397,
27286,
26477,
26286,
26379,
26167,
26024,
26007,
25488,
25674,
25336,
25448,
24889,
25072,
24455,
24496,
24251,
23614,
23027,
22609,
22793,
23312,
24695,
27752,
33855,
47480,
95685,
268029,
685578,
1270593,
1596344,
1342624,
760542,
297258,
92082,
36256,
29323,
38242,
67830,
124891,
187960,
207930,
165735,
95359,
45031,
22365,
15618,
14181,
13746,
14280,
15008,
15826,
16646,
16853,
15602,
14583,
13453,
13247,
13137,
12751,
12784,
12967,
12842,
13092,
12861,
12700,
12445,
12344,
12291,
12229,
12079,
12163,
11920,
11673,
11729,
11672,
11534,
11687,
11400,
11243,
11283,
11187,
11225,
10800,
11035,
10938,
10732,
10838,
10687,
10690,
10359,
10363,
10265,
10171,
10223,
10082,
10055,
9869,
9853,
9890,
9732,
9578,
9478,
9411,
9556,
9234,
9175,
9229,
9093,
9107,
8954,
9066,
8665,
8888,
8497,
8702,
8400,
8734,
8536,
8817,
8737,
8681,
8366,
8055,
8051,
8052,
7960,
7849,
7656,
7643,
7587,
7463,
7608,
7464,
7397,
7287,
7331,
7288,
7113,
7079,
6993,
7053,
6809,
6779,
6883,
6772,
6747,
6589,
6780,
6740,
6894,
7154,
7335,
7633,
7599,
7287,
6935,
6642,
6189,
6236,
6063,
6098,
6103,
6048,
5955,
6126,
5724,
5555,
5605,
5636,
5337,
5441,
5387,
5356,
5138,
5323,
5209,
5328,
5166,
5018,
4977,
4939,
4879,
4956,
4801,
4753,
4629,
4710,
4695,
4452,
4694,
4542,
4483,
4369,
4472,
4504,
4464,
4206,
4265,
4223,
4251,
4090,
4119,
3991,
3954,
3933,
4039,
3856,
3973,
3903,
3828,
3768,
3629,
3765,
3717,
3733,
3571,
3554,
3453,
3511,
3331,
3449,
3387,
3376,
3395,
3264,
3320,
3254,
3239,
3255,
3158,
3104,
3020,
3036,
3037,
2992,
2956,
2991,
2915,
2768,
2775,
2807,
2816,
2701,
2732,
2694,
2725,
2675,
2653,
2574,
2567,
2598,
2413,
2467,
2466,
2420,
2511,
2420,
2492,
2343,
2314,
2225,
2334,
2187,
2215,
2199,
2180,
2141,
2073,
2064,
2072,
2025,
1965,
2012,
1893,
1929,
1893,
1906,
1828,
1867,
1797,
1756,
1775,
1729,
1710,
1665,
1631,
1611,
1636,
1567,
1544,
1551,
1533,
1478,
1491,
1513,
1435,
1445,
1430,
1369,
1325,
1283,
1347,
1288,
1283,
1331,
1278,
1201,
1238,
1127,
1123,
1161,
1126,
1117,
1072,
1072,
1031,
1022,
1031,
1026,
1011,
949,
1001,
928,
917,
954,
914,
869,
883,
874,
819,
819,
766,
839,
781,
769,
735,
694,
692,
715,
695,
717,
660,
648,
670,
616,
588,
573,
560,
577,
562,
552,
525,
552,
480,
477,
493,
465,
458,
428,
361,
413,
397,
436,
395,
346,
381,
365,
344,
327,
308,
330,
310,
294,
292,
291,
242,
251,
250,
235,
210,
218,
190,
189,
190,
179,
179,
150,
139,
157,
153,
115,
124,
94,
81,
88,
95,
94,
74,
67,
50,
43,
37,
35,
24,
20,
11,
10,
10,
4,
5,
9,
6,
8,
4,
4,
10,
5,
5,
3,
7,
3,
9,
3,
5,
6,
6,
6,
2,
3,
6,
3,
6,
5,
3,
4,
3,
3,
3,
4,
4,
2,
4,
5,
3,
5,
2,
6,
0,
1,
5,
2,
2,
7,
1,
2,
4,
1,
3,
2,
4,
3,
3,
0,
1,
2,
1,
1,
3,
2,
2,
5,
2,
4,
3,
3,
3,
2,
3,
2,
3,
3,
1,
2,
2,
4,
4,
4,
2,
2,
2,
3,
1,
1,
1,
2,
2,
3,
2,
4,
0,
3,
2,
2,
1,
2,
0,
2,
3,
0,
1,
0,
1,
2,
1,
2,
0,
0,
1,
1,
2,
0,
0,
1,
2,
1,
0,
1,
0,
0,
1,
0,
2,
0,
0,
1,
0,
3,
1,
0,
1,
2,
0,
1,
0,
0,
1,
1,
1,
0,
0,
0,
0,
1,
0,
1,
0,
2,
0,
0,
0,
0,
1,
0,
0,
1,
1,
0,
1,
1,
0,
0,
0,
0,
0,
0,
1,
0,
1,
0,
0,
0,
0,
0,
0,
0,
0,
1,
0,
0,
0,
0,
0,
0,
1,
0,
0,
0,
1,
0,
0,
0,
1,
0,
0,
0,
0,
0,
0,
0,
0,
0,
0,
1,
0,
0,
0,
0,
0,
0,
0,
1,
0,
0,
0,
0,
0,
0,
0,
0,
0,
0,
0,
0,
0,
0,
0,
0,
0,
0,
0,
0,
0,
0,
0,
0,
0,
0,
1,
1,
0,
0,
0,
0,
0,
0,
0,
0,
0,
0,
0,
0,
1,
0,
0,
0,
0,
0,
0,
0,
0,
0,
0,
0,
0,
0,
0,
0,
0,
0,
0,
0,
0,
0,
0,
0,
0,
0,
1,
0,
0,
0,
0,
0,
0,
0,
0,
0,
0,
0,
0,
0,
0,
0,
0,
0,
0,
0,
0,
0,
0,
0,
0,
0,
0,
0,
0,
0,
0,
0,
0,
0,
0,
0,
0,
0,
0,
0,
0,
0,
0,
0,
0,
0,
0,
0,
0,
0,
0,
0,
0,
0,
0,
0,
0,
0,
0,
0,
0,
0,
0,
0,
0,
0,
0,
1,
0,
0,
0,
0,
0,
0,
0,
0,
0,
0,
0,
0,
0,
0,
0,
0,
0,
0,
0,
0,
0,
0,
0,
0,
0,
0,
0,
0,
0,
0,
0,
0,
0,
0,
0,
0,
0,
0,
0,
0,
0,
0,
0,
0,
0,
0,
0,
0,
0,
0,
0,
0,
0,
0,
0,
0,
0,
0,
0,
0,
0,
0,
0,
0,
0,
0,
0,
0,
0,
0,
0,
0,
0,
0,
0,
0,
0,
0,
0,
0,
0,
0,
0,
0,
0,
0,
0,
0,
0,
0,
0,
0,
0,
0,
0,
0,
0,
0,
0,
0,
0,
0,
0,
0,
0,
0,
0,
0,
0,
0,
0,
0,
0,
0,
0,
0,
0,
0,
0,
0,
0,
0,
0,
0,
0,
0,
0,
0,
0,
0,
0,
0,
0,
0,
0,
0,
0,
0,
0,
0,
0,
0,
0,
0,
0,
0,
0,
0,
0,
0,
0,
0,
0,
0,
0,
0,
0,
0,
0,
0,
0,
0,
0,
0,
0,
0,
0,
0,
0,
0,
0,
0,
0,
0,
0,
0,
0,
0,
0,
0,
0,
0,
0,
0,
0,
0,
0,
0,
0,
0,
0,
0,
0,
0,
0,
0,
0,
0,
0,
0,
0,
0,
0,
0,
0,
0,
0,
0,
0,
0,
0,
0,
0,
0,
0,
0,
0,
0,
0,
0,
0,
0,
0,
0,
0,
0,
0,
0,
0,
0,
0,
0,
0,
0,
0,
0,
0,
0,
0,
0,
0,
0,
0,
0,
0,
0,
0,
0,
0,
0,
0,
0,
0,
0,
0,
0,
0,
0,
0,
0,
0,
0,
0,
0,
0,
0,
0,
0,
0,
0,
0,
0,
0,
0,
0,
0,
0,
0,
0,
0,
0,
0,
0,
0,
0,
0,
0,
0,
0,
0,
0,
0,
0,
0,
0,
0,
0,
0,
0,
0,
0,
0,
0,
0,
0,
0,
0,
0,
0,
0,
0,
0,
0,
0,
0,
0,
0,
0,
0,
0,
0,
0,
0,
0,
0,
0,
0,
0,
0,
0,
0,
0,
0,
0,
0,
0,
0,
0,
0,
0,
0,
0,
0,
0,
0,
0,
0,
0,
0,
0,
0,
0,
0,
0,
0,
0,
0,
0,
0,
0,
0,
0,
0,
0,
0,
0,
0,
0,
0,
0,
0,
0,
0,
0,
0,
0,
0,
0,
0,
0,
0,
0,
0,
0,
0,
0,
0,
0,
0,
0,
0,
0,
0,
0,
0,
0,
0,
0,
0,
0,
0,
0,
0,
0,
0,
0,
0,
0,
0,
0,
0,
0,
0,
0,
0,
0,
0,
0,
0,
0,
0,
0,
0,
0,
0,
0,
0,
0,
0,
0,
0,
0,
0,
0,
0,
0,
0,
0,
0,
0,
0,
0,
0,
0,
0,
0,
0,
0,
0,
0,
0,
0,
0,
0,
0,
0,
0,
0,
0,
0,
0,
0,
0,
0,
0,
0,
0,
0,
0,
0,
0,
0,
0,
0,
0,
0,
0,
0,
0,
0,
0,
0,
0,
0,
0,
0,
0,
0,
0,
0,
0,
0,
0,
0,
0,
0,
0,
0,
0,
0,
0,
0,
0,
0,
0,
0,
0,
0,
0,
0,
0,
0,
0,
0,
0,
0,
0,
#ENDOFDATA   :