File: N132962/Standards/15 keV/Cd std.msa
#FORMAT      : EMSA/MAS Spectral Data File
#VERSION     : 1.0
#TITLE       : Cd standard for 'N132962' detector
#NPOINTS     : 4096
#NCOLUMNS    : 1
#XUNITS      : eV
#YUNITS      : counts
#DATATYPE    : Y
#SIGNALTYPE  : EDS
#XLABEL      : Energy (eV)
#YLABEL      : Counts
#XPERCHAN -eV: 9.99778
#OFFSET   -eV: 1.69135
#CHOFFSET    : 0
#DATE        : 26-Sep-2025
#TIME        : 14:43:00
#OWNER       : Unknown
#ELEVANGLE   : 35
#BEAMKV   -kV: 15
#LIVETIME  -s: 1921.16
#REALTIME  -s: 2100.06
#PROBECUR -nA: 1.22014
##WORKING -mm: 15
##D2STDCMP   : Cd,(Cd:100.0000)
##SIMILAR    : 1.4
#SPECTRUM    :
191,
216,
118,
943,
6593,
24653,
57991,
102368,
169846,
259836,
430873,
530989,
326526,
151588,
87534,
57041,
59319,
74031,
63991,
51069,
53887,
53103,
49364,
48649,
46388,
43264,
43411,
46414,
50193,
51784,
51383,
51747,
54028,
55490,
57357,
58649,
59391,
59800,
61506,
63324,
64682,
66117,
67687,
70041,
73753,
83583,
94207,
92470,
84165,
78962,
79239,
81884,
84960,
84372,
81913,
80446,
81541,
84871,
88351,
88217,
85259,
79031,
73551,
70115,
69172,
69829,
70166,
70351,
69234,
69188,
68371,
67958,
67576,
67616,
67940,
67528,
67476,
67480,
66439,
66276,
65410,
65152,
64619,
64256,
64970,
68025,
74741,
81486,
81910,
77753,
82957,
102348,
122048,
119144,
96856,
76684,
69245,
74030,
85079,
95644,
111757,
188412,
457749,
1017938,
1583714,
1598983,
1049533,
501235,
310228,
440398,
668262,
734247,
585783,
383240,
244611,
179664,
177855,
210450,
217878,
171915,
110245,
74451,
71397,
85813,
93233,
80638,
59217,
43092,
37581,
38817,
45187,
51197,
52202,
46963,
39890,
34194,
31833,
30823,
30569,
30390,
30317,
30644,
30599,
30559,
30612,
30311,
30321,
30236,
30114,
30171,
30284,
30045,
30014,
30069,
29763,
29639,
29648,
29532,
29389,
29484,
29313,
29292,
28957,
29044,
28842,
28779,
28950,
28707,
28501,
28348,
28431,
28007,
28077,
27998,
27676,
27855,
27798,
27598,
27253,
27506,
27808,
27429,
27023,
26805,
26820,
26461,
26273,
26047,
26123,
25882,
25746,
25662,
25407,
25177,
25166,
25409,
25188,
24916,
25042,
24435,
24641,
24259,
24207,
24136,
23992,
24129,
24121,
24296,
24686,
25165,
25109,
25351,
25157,
25697,
25544,
25317,
24280,
23316,
22901,
22557,
22502,
22463,
22028,
21782,
21736,
21322,
21378,
21031,
21052,
20724,
20712,
20686,
20385,
20306,
20186,
20161,
19781,
19815,
19581,
19413,
18942,
19150,
18857,
18700,
18638,
18815,
18330,
18348,
18745,
18330,
18292,
18280,
17875,
17649,
17464,
17148,
17160,
16908,
16954,
16700,
16605,
16554,
16408,
16348,
16148,
16039,
16067,
16096,
15967,
15935,
15728,
15505,
15547,
15373,
15243,
15237,
15036,
14750,
14575,
14649,
14547,
14385,
14430,
14451,
14251,
13924,
13821,
13780,
13947,
14053,
13484,
13583,
13397,
13279,
13164,
13006,
13020,
12843,
12783,
12626,
12689,
12439,
12384,
12285,
12044,
12207,
12060,
11938,
11908,
11608,
11649,
11598,
11383,
11415,
11278,
11276,
11141,
11147,
10960,
10978,
10996,
10732,
10633,
10712,
10462,
10389,
10100,
10411,
10246,
10026,
9952,
9784,
9733,
9709,
9706,
9576,
9585,
9347,
9279,
9398,
9186,
9090,
9077,
9000,
8834,
8705,
8620,
8604,
8474,
8412,
8268,
8436,
8195,
8125,
8039,
7896,
7792,
7879,
7766,
7700,
7518,
7377,
7540,
7273,
7202,
7324,
6997,
7010,
6898,
6945,
6802,
6695,
6598,
6458,
6618,
6493,
6221,
6308,
6366,
6171,
5997,
6176,
5937,
5897,
5771,
5752,
5714,
5691,
5374,
5598,
5303,
5460,
5251,
5181,
5200,
5053,
5028,
4839,
4931,
4862,
4805,
4802,
4801,
4558,
4510,
4464,
4335,
4400,
4347,
4376,
4135,
4119,
4125,
4054,
3990,
3841,
3860,
3747,
3853,
3748,
3600,
3571,
3529,
3466,
3433,
3270,
3340,
3286,
3095,
3080,
2967,
3063,
3057,
2851,
2847,
2824,
2853,
2728,
2606,
2643,
2587,
2516,
2416,
2331,
2429,
2336,
2249,
2241,
2264,
2020,
2085,
1951,
1959,
1947,
1978,
1888,
1771,
1732,
1821,
1731,
1631,
1672,
1580,
1494,
1466,
1402,
1404,
1353,
1325,
1267,
1248,
1195,
1166,
1094,
1043,
978,
991,
932,
941,
838,
880,
802,
742,
713,
682,
652,
629,
537,
514,
474,
435,
402,
326,
326,
276,
234,
220,
162,
132,
103,
88,
58,
47,
52,
37,
41,
39,
36,
30,
39,
29,
32,
39,
36,
25,
37,
34,
39,
48,
31,
41,
35,
28,
25,
26,
29,
25,
28,
20,
20,
26,
24,
22,
18,
25,
42,
28,
22,
26,
29,
21,
21,
23,
26,
11,
22,
17,
25,
17,
20,
22,
9,
16,
16,
15,
12,
20,
23,
19,
13,
20,
25,
15,
17,
17,
24,
21,
26,
24,
20,
17,
20,
16,
20,
20,
27,
15,
12,
16,
20,
15,
15,
22,
19,
15,
13,
20,
16,
19,
7,
5,
13,
18,
16,
19,
15,
10,
5,
15,
9,
13,
10,
10,
10,
11,
7,
6,
10,
6,
7,
4,
9,
8,
4,
5,
2,
8,
7,
3,
11,
6,
6,
9,
8,
9,
9,
5,
9,
9,
7,
8,
7,
4,
13,
5,
9,
5,
6,
7,
7,
5,
5,
7,
3,
6,
4,
6,
9,
2,
6,
9,
7,
4,
7,
6,
7,
3,
2,
8,
3,
6,
5,
5,
5,
1,
4,
6,
3,
5,
3,
3,
1,
1,
2,
3,
5,
5,
1,
3,
2,
5,
7,
4,
4,
5,
3,
2,
2,
2,
2,
3,
4,
5,
5,
1,
5,
5,
4,
4,
2,
2,
2,
6,
2,
2,
5,
3,
5,
1,
8,
3,
3,
0,
1,
3,
1,
0,
4,
1,
3,
4,
3,
2,
3,
3,
1,
0,
1,
1,
1,
1,
0,
2,
1,
2,
1,
2,
0,
1,
1,
3,
0,
1,
4,
1,
2,
1,
1,
2,
1,
2,
0,
3,
3,
4,
1,
0,
3,
1,
0,
4,
1,
2,
1,
0,
1,
1,
3,
1,
0,
1,
1,
0,
2,
1,
1,
1,
0,
1,
0,
1,
0,
2,
0,
0,
0,
1,
0,
0,
0,
0,
0,
0,
0,
0,
0,
0,
0,
0,
2,
1,
2,
0,
1,
1,
0,
0,
0,
0,
2,
0,
2,
0,
0,
0,
2,
0,
0,
1,
1,
0,
0,
2,
0,
0,
0,
1,
0,
0,
0,
1,
4,
0,
1,
0,
1,
0,
0,
0,
0,
0,
0,
0,
0,
2,
0,
1,
0,
0,
0,
0,
0,
0,
0,
0,
0,
1,
0,
0,
1,
0,
0,
0,
1,
0,
0,
0,
0,
1,
0,
0,
0,
0,
0,
0,
0,
1,
0,
0,
0,
0,
0,
0,
0,
0,
0,
0,
0,
0,
0,
0,
0,
1,
0,
0,
0,
0,
0,
0,
0,
0,
0,
0,
0,
0,
0,
0,
0,
0,
0,
0,
0,
0,
0,
0,
0,
0,
0,
0,
0,
0,
0,
0,
0,
0,
0,
0,
0,
0,
0,
0,
1,
1,
0,
0,
0,
0,
0,
0,
0,
0,
0,
0,
0,
0,
0,
0,
0,
0,
0,
0,
0,
0,
0,
0,
0,
0,
0,
0,
0,
0,
0,
0,
0,
0,
0,
0,
0,
0,
0,
0,
0,
0,
0,
0,
0,
0,
0,
0,
0,
0,
0,
0,
0,
0,
0,
0,
0,
0,
0,
0,
0,
0,
0,
0,
0,
0,
0,
0,
0,
0,
0,
0,
0,
0,
0,
0,
0,
0,
0,
0,
0,
0,
0,
0,
0,
0,
0,
0,
0,
0,
0,
0,
0,
0,
0,
0,
0,
0,
0,
0,
0,
0,
0,
0,
0,
0,
0,
0,
0,
0,
0,
0,
0,
0,
0,
0,
0,
0,
0,
0,
0,
0,
0,
0,
0,
0,
0,
0,
0,
0,
0,
0,
0,
0,
0,
0,
0,
0,
0,
0,
0,
0,
0,
0,
0,
0,
0,
0,
0,
0,
0,
0,
0,
0,
0,
0,
0,
0,
0,
0,
0,
0,
0,
0,
0,
0,
0,
0,
0,
0,
0,
0,
0,
0,
0,
0,
0,
0,
0,
0,
0,
0,
0,
0,
0,
0,
0,
0,
0,
0,
0,
0,
0,
0,
0,
0,
0,
0,
0,
0,
0,
0,
0,
0,
0,
0,
0,
0,
0,
0,
0,
0,
0,
0,
0,
0,
0,
0,
0,
0,
0,
0,
0,
0,
0,
0,
0,
0,
0,
0,
0,
0,
0,
0,
0,
0,
0,
0,
0,
0,
0,
0,
0,
0,
0,
0,
0,
0,
0,
0,
0,
0,
0,
0,
0,
0,
0,
0,
0,
0,
0,
0,
0,
0,
0,
0,
0,
0,
0,
0,
0,
0,
0,
0,
0,
0,
0,
0,
0,
0,
0,
0,
0,
0,
0,
0,
0,
0,
0,
0,
0,
0,
0,
0,
0,
0,
0,
0,
0,
0,
0,
0,
0,
0,
0,
0,
0,
0,
0,
0,
0,
0,
0,
0,
0,
0,
0,
0,
0,
0,
0,
0,
0,
0,
0,
0,
0,
0,
0,
0,
0,
0,
0,
0,
0,
0,
0,
0,
0,
0,
0,
0,
0,
0,
0,
0,
0,
0,
0,
0,
0,
0,
0,
0,
0,
0,
0,
0,
0,
0,
0,
0,
0,
0,
0,
0,
0,
0,
0,
0,
0,
0,
0,
0,
0,
0,
0,
0,
0,
0,
0,
0,
0,
0,
0,
0,
0,
0,
0,
0,
0,
0,
0,
0,
0,
0,
0,
0,
0,
0,
0,
0,
0,
0,
0,
0,
0,
0,
0,
0,
0,
0,
0,
0,
0,
0,
0,
0,
0,
0,
0,
0,
0,
0,
0,
0,
0,
0,
0,
0,
0,
0,
0,
0,
0,
#ENDOFDATA   :