File: N132962/Standards/15 keV/CeAl2 std.msa
#FORMAT      : EMSA/MAS Spectral Data File
#VERSION     : 1.0
#TITLE       : CeAl2 standard for 'N132962' detector
#NPOINTS     : 4096
#NCOLUMNS    : 1
#XUNITS      : eV
#YUNITS      : counts
#DATATYPE    : Y
#SIGNALTYPE  : EDS
#XLABEL      : Energy (eV)
#YLABEL      : Counts
#XPERCHAN -eV: 9.99778
#OFFSET   -eV: 1.69135
#CHOFFSET    : 0
#DATE        : 27-Sep-2025
#TIME        : 19:56:00
#OWNER       : Unknown
#ELEVANGLE   : 35
#BEAMKV   -kV: 15
#LIVETIME  -s: 1679.22
#REALTIME  -s: 1808.8
#PROBECUR -nA: 1.21162
##WORKING -mm: 15
##D2STDCMP   : CeAl2,(Al:27.8047),(Ce:72.1953)
##SIMILAR    : 1.1
#SPECTRUM    :
168,
220,
163,
318,
1314,
5822,
17299,
39958,
82078,
100001,
69882,
54338,
56006,
57188,
60286,
68344,
86671,
106788,
97980,
88742,
124389,
226348,
329849,
278979,
153565,
98639,
94699,
117369,
175716,
224803,
192340,
113457,
65433,
52851,
58134,
71719,
76348,
68373,
66044,
63657,
56005,
50559,
48549,
48017,
49562,
52792,
68266,
168412,
533715,
1045252,
1040213,
537532,
182701,
74437,
48242,
41522,
40998,
43333,
45501,
45391,
44776,
42085,
39677,
38250,
38285,
38332,
39032,
39339,
39302,
39353,
39971,
40215,
40559,
40595,
40267,
40611,
40208,
40525,
40828,
40628,
40473,
40534,
40105,
39760,
39674,
39779,
39578,
39527,
39282,
39128,
38865,
38723,
38637,
38550,
38328,
38150,
37977,
38577,
38516,
38827,
38568,
38820,
39449,
40030,
39405,
37508,
36626,
35931,
35580,
35614,
35219,
35063,
34948,
34693,
34390,
34744,
34656,
34918,
34699,
34529,
33689,
33374,
33186,
32704,
32609,
32151,
31987,
32072,
31869,
31490,
31166,
31118,
30659,
30346,
30145,
30440,
30042,
29868,
30292,
30876,
33225,
38224,
43432,
46176,
43234,
37094,
31996,
29839,
28433,
28147,
27759,
28213,
27727,
28950,
29325,
31452,
37669,
56554,
108490,
217324,
364655,
463051,
431725,
296750,
155889,
71245,
38247,
28559,
26415,
26019,
27780,
34833,
55963,
102314,
167304,
218355,
221213,
179479,
126059,
86251,
62026,
45686,
36046,
33759,
41428,
59908,
81824,
95054,
88364,
66761,
44573,
29704,
22916,
20375,
19702,
19661,
19897,
20333,
22953,
28585,
36668,
43617,
45339,
39780,
31196,
23973,
20212,
19622,
21081,
23933,
26824,
28388,
26690,
23883,
20440,
18666,
18162,
17589,
17136,
16994,
15942,
15283,
15024,
15036,
14733,
15012,
14850,
14721,
14543,
14403,
14153,
14326,
14198,
13996,
14006,
13995,
14094,
13603,
13836,
13384,
13417,
13389,
13342,
13195,
13133,
12854,
13249,
13483,
13037,
13036,
12980,
12662,
12565,
12643,
12369,
12354,
12364,
12143,
12211,
12089,
11932,
11908,
11693,
11802,
11597,
11686,
11575,
11590,
11359,
11380,
11461,
11114,
10909,
11154,
10973,
10835,
10757,
10627,
10538,
10377,
10384,
10526,
10416,
10290,
10245,
10087,
9990,
10146,
10016,
9831,
9877,
9770,
9661,
9704,
9583,
9333,
9377,
9360,
9315,
9190,
9071,
8962,
9093,
8852,
8942,
8677,
8748,
8464,
8501,
8566,
8489,
8306,
8360,
8311,
8248,
8084,
7893,
7939,
8045,
7860,
7764,
7779,
7925,
7889,
7930,
7614,
7390,
7518,
7428,
7238,
7291,
7133,
7187,
6957,
6931,
7174,
7040,
7008,
6779,
6812,
6621,
6551,
6541,
6423,
6406,
6274,
6282,
6206,
6127,
6153,
6080,
5940,
5883,
5909,
5788,
5720,
5824,
5618,
5593,
5469,
5423,
5378,
5335,
5453,
5473,
5278,
5020,
5089,
5052,
4796,
4841,
4899,
4916,
4659,
4705,
4670,
4629,
4630,
4548,
4479,
4516,
4380,
4204,
4263,
4251,
4182,
4095,
4108,
4010,
3941,
3935,
3912,
3855,
3761,
3692,
3610,
3619,
3558,
3639,
3456,
3351,
3364,
3264,
3392,
3255,
3203,
3245,
3153,
3038,
3115,
2997,
2869,
2850,
2815,
2763,
2748,
2690,
2655,
2678,
2684,
2593,
2545,
2453,
2393,
2411,
2405,
2403,
2308,
2230,
2229,
2158,
2149,
2086,
2027,
2002,
1933,
1990,
1886,
1906,
1752,
1803,
1813,
1760,
1649,
1723,
1687,
1707,
1517,
1602,
1454,
1481,
1397,
1406,
1402,
1364,
1303,
1282,
1282,
1204,
1123,
1102,
1095,
1096,
1086,
1013,
1047,
956,
929,
909,
879,
854,
817,
780,
758,
681,
669,
683,
623,
619,
557,
530,
544,
512,
436,
459,
409,
400,
378,
328,
320,
250,
251,
217,
206,
171,
149,
124,
106,
80,
55,
60,
42,
27,
33,
23,
20,
26,
23,
18,
22,
32,
32,
17,
22,
20,
22,
19,
20,
12,
13,
22,
11,
22,
21,
30,
18,
22,
21,
18,
27,
11,
18,
11,
14,
13,
18,
16,
15,
12,
12,
5,
15,
14,
18,
14,
10,
9,
11,
12,
6,
7,
11,
10,
9,
7,
16,
12,
12,
9,
9,
9,
11,
22,
17,
13,
12,
20,
14,
9,
17,
16,
12,
9,
21,
9,
14,
15,
12,
13,
14,
13,
15,
17,
10,
12,
16,
6,
17,
11,
7,
10,
13,
14,
16,
10,
13,
14,
14,
16,
9,
12,
3,
9,
9,
12,
11,
10,
12,
8,
5,
7,
11,
7,
6,
12,
7,
10,
7,
7,
4,
5,
7,
4,
5,
14,
3,
7,
4,
4,
7,
2,
11,
4,
4,
3,
7,
3,
8,
6,
1,
1,
3,
2,
8,
3,
5,
4,
3,
1,
7,
4,
3,
3,
4,
3,
3,
3,
1,
4,
2,
0,
6,
3,
4,
1,
1,
3,
4,
2,
3,
2,
0,
2,
1,
0,
0,
2,
3,
0,
3,
2,
1,
4,
3,
3,
3,
0,
1,
0,
0,
2,
2,
0,
4,
5,
1,
1,
2,
1,
2,
0,
1,
2,
1,
1,
2,
4,
2,
2,
2,
0,
0,
2,
1,
0,
2,
0,
0,
1,
2,
3,
2,
2,
0,
0,
3,
0,
1,
2,
2,
1,
0,
0,
2,
0,
1,
2,
1,
1,
0,
1,
1,
2,
0,
0,
1,
1,
2,
0,
3,
4,
0,
1,
1,
1,
0,
0,
1,
1,
0,
0,
0,
1,
0,
2,
2,
0,
0,
1,
2,
0,
1,
0,
0,
0,
0,
1,
1,
0,
1,
3,
1,
0,
0,
1,
0,
1,
0,
0,
0,
1,
0,
0,
0,
0,
0,
0,
0,
0,
0,
1,
0,
0,
1,
2,
1,
0,
0,
1,
1,
0,
0,
0,
1,
1,
0,
1,
0,
0,
0,
0,
0,
1,
0,
0,
0,
0,
0,
0,
0,
0,
0,
0,
0,
1,
0,
0,
0,
1,
0,
1,
0,
0,
1,
0,
0,
0,
0,
0,
1,
0,
0,
0,
0,
0,
0,
0,
0,
0,
1,
0,
0,
0,
0,
0,
1,
0,
0,
0,
0,
0,
0,
0,
0,
0,
1,
0,
0,
1,
0,
0,
0,
0,
0,
0,
0,
0,
0,
1,
0,
0,
0,
0,
0,
0,
0,
0,
0,
0,
0,
0,
1,
0,
0,
0,
0,
0,
0,
0,
0,
0,
0,
0,
0,
0,
0,
0,
0,
0,
0,
0,
0,
0,
0,
0,
0,
0,
0,
0,
0,
0,
0,
0,
0,
0,
0,
0,
0,
0,
0,
0,
0,
0,
0,
0,
0,
0,
0,
0,
0,
0,
0,
0,
0,
0,
0,
0,
0,
0,
0,
0,
0,
0,
0,
0,
0,
0,
0,
0,
0,
0,
0,
0,
0,
0,
0,
0,
0,
0,
0,
0,
0,
0,
0,
0,
0,
0,
0,
0,
0,
0,
0,
0,
0,
0,
0,
0,
0,
0,
0,
0,
0,
0,
0,
0,
0,
0,
0,
0,
0,
0,
0,
0,
0,
0,
0,
0,
0,
0,
0,
0,
0,
0,
0,
0,
0,
0,
0,
0,
0,
0,
0,
0,
0,
0,
0,
0,
0,
0,
0,
0,
0,
0,
0,
0,
0,
0,
0,
0,
0,
0,
0,
0,
0,
0,
0,
0,
0,
0,
0,
0,
0,
0,
0,
0,
0,
0,
0,
0,
0,
0,
0,
0,
0,
0,
0,
0,
0,
0,
0,
0,
0,
0,
0,
0,
0,
0,
0,
0,
0,
0,
0,
0,
0,
0,
0,
0,
0,
0,
0,
0,
0,
0,
0,
0,
0,
0,
0,
0,
0,
0,
0,
0,
0,
0,
0,
0,
0,
0,
0,
0,
0,
0,
0,
0,
0,
0,
0,
0,
0,
0,
0,
0,
0,
0,
0,
0,
0,
0,
0,
0,
0,
0,
0,
0,
0,
0,
0,
0,
0,
0,
0,
0,
0,
0,
0,
0,
0,
0,
0,
0,
0,
0,
0,
0,
0,
0,
0,
0,
0,
0,
0,
0,
0,
0,
0,
0,
0,
0,
0,
0,
0,
0,
0,
0,
0,
0,
0,
0,
0,
0,
0,
0,
0,
0,
0,
0,
0,
0,
0,
0,
0,
0,
0,
0,
0,
0,
0,
0,
0,
0,
0,
0,
0,
0,
0,
0,
0,
0,
0,
0,
0,
0,
0,
0,
0,
0,
0,
0,
0,
0,
0,
0,
0,
0,
0,
0,
0,
0,
0,
0,
0,
0,
0,
0,
0,
0,
0,
0,
0,
0,
0,
0,
0,
0,
0,
0,
0,
0,
0,
0,
0,
0,
0,
0,
0,
0,
0,
0,
0,
0,
0,
0,
0,
0,
0,
0,
0,
0,
0,
0,
0,
0,
0,
0,
0,
0,
0,
0,
0,
0,
0,
0,
0,
0,
0,
0,
0,
0,
0,
0,
0,
0,
0,
0,
0,
0,
0,
0,
0,
0,
0,
0,
0,
0,
0,
0,
0,
0,
0,
0,
0,
0,
0,
0,
0,
0,
0,
0,
0,
0,
0,
0,
0,
0,
0,
0,
0,
0,
0,
0,
0,
0,
0,
0,
0,
0,
0,
0,
0,
0,
0,
0,
0,
0,
0,
0,
0,
0,
0,
0,
0,
0,
0,
0,
0,
#ENDOFDATA   :