File: N132962/Standards/15 keV/CeO2 std.msa
#FORMAT      : EMSA/MAS Spectral Data File
#VERSION     : 1.0
#TITLE       : CeO2 standard for 'N132962' detector
#NPOINTS     : 4096
#NCOLUMNS    : 1
#XUNITS      : eV
#YUNITS      : counts
#DATATYPE    : Y
#SIGNALTYPE  : EDS
#XLABEL      : Energy (eV)
#YLABEL      : Counts
#XPERCHAN -eV: 9.99778
#OFFSET   -eV: 1.69135
#CHOFFSET    : 0
#DATE        : 26-Sep-2025
#TIME        : 15:57:00
#OWNER       : Unknown
#ELEVANGLE   : 35
#BEAMKV   -kV: 15
#LIVETIME  -s: 1916.18
#REALTIME  -s: 2061.03
#PROBECUR -nA: 1.22066
##WORKING -mm: 15
##D2STDCMP   : CeO2,(O:18.5912),(Ce:81.4088)
##SIMILAR    : 1.1
#SPECTRUM    :
210,
225,
137,
571,
3538,
19264,
58785,
108402,
165169,
179572,
123905,
95283,
94449,
96104,
114683,
230736,
668768,
1195127,
873875,
272994,
125061,
202141,
297917,
254869,
139405,
87620,
83770,
112796,
194612,
270730,
225820,
116541,
59356,
48061,
54618,
71217,
78976,
70188,
66972,
65456,
57115,
50718,
46620,
45393,
45357,
45969,
47193,
47791,
47776,
48468,
48585,
48149,
48774,
48821,
49216,
50309,
52092,
54829,
57186,
57112,
55895,
53170,
49280,
47620,
47505,
48239,
48619,
49283,
49256,
48924,
48510,
48970,
48578,
48984,
48680,
49256,
48725,
48677,
48289,
48650,
48785,
48320,
47778,
48231,
48304,
47878,
47748,
47562,
47049,
47258,
46761,
46014,
46189,
45959,
45813,
45565,
45332,
44896,
45418,
45317,
45395,
46144,
46882,
47536,
46528,
44707,
43448,
42717,
42131,
42063,
41789,
41506,
41154,
41357,
41283,
40515,
41251,
41495,
41169,
40339,
40065,
39755,
39768,
39170,
38567,
38189,
37959,
37723,
37649,
37281,
36900,
36470,
36220,
35964,
35429,
35569,
35313,
35245,
35618,
36681,
39259,
45391,
52108,
55548,
51819,
44346,
38170,
34936,
33146,
33175,
33195,
32816,
33004,
33401,
34397,
37352,
45058,
68155,
132568,
269947,
453341,
575298,
537626,
369748,
193027,
87338,
45493,
33798,
31341,
30893,
32770,
41678,
67650,
124689,
206487,
270556,
274822,
223391,
156826,
108225,
76704,
57379,
44213,
40757,
50059,
73123,
101289,
117565,
108473,
81473,
54100,
35905,
27335,
24171,
23361,
23308,
23469,
24331,
27090,
33469,
44133,
52870,
55237,
48451,
37625,
28650,
23923,
22582,
24453,
28065,
31719,
33905,
32914,
29707,
26190,
23132,
21437,
20854,
20642,
19534,
18600,
17718,
17389,
17182,
16975,
16861,
16722,
16774,
16506,
16550,
16398,
16461,
16297,
16642,
16473,
16319,
16341,
15884,
15923,
15722,
15352,
15503,
15477,
15257,
15271,
15411,
15003,
15203,
15694,
15366,
14911,
14901,
14671,
14473,
14219,
14155,
13943,
14026,
14086,
13917,
13677,
13752,
13657,
13470,
13535,
13436,
13278,
13196,
13044,
13044,
12970,
12910,
12789,
12566,
12735,
12649,
12460,
12370,
12372,
12274,
12120,
12070,
11759,
11797,
11814,
11795,
11493,
11691,
11429,
11383,
11329,
11312,
11061,
11108,
10882,
10987,
10932,
10853,
10740,
10708,
10551,
10299,
10549,
10291,
10218,
10123,
10200,
9974,
9847,
9935,
9715,
9907,
9544,
9625,
9461,
9353,
9302,
9188,
9372,
9316,
9085,
9095,
9056,
9058,
8994,
8939,
8703,
8643,
8516,
8495,
8239,
8257,
8196,
8169,
8128,
8234,
8083,
8080,
7944,
7777,
7734,
7646,
7496,
7358,
7412,
7493,
7231,
7387,
7102,
7119,
6914,
6889,
6873,
6730,
6537,
6777,
6477,
6486,
6376,
6262,
6194,
6203,
6200,
6166,
6127,
5901,
5824,
5742,
5783,
5830,
5658,
5504,
5440,
5407,
5355,
5406,
5188,
5150,
5099,
5178,
5031,
5001,
5019,
4779,
4810,
4856,
4626,
4607,
4568,
4535,
4449,
4374,
4405,
4316,
4224,
4144,
4119,
4016,
3950,
3984,
3927,
3762,
3879,
3711,
3639,
3729,
3495,
3471,
3487,
3482,
3373,
3190,
3251,
3275,
3087,
3225,
3152,
2968,
3068,
2943,
2869,
2748,
2776,
2655,
2722,
2662,
2543,
2560,
2593,
2401,
2466,
2417,
2287,
2253,
2339,
2107,
2148,
2083,
2012,
1985,
1924,
1864,
1865,
1810,
1819,
1775,
1677,
1669,
1658,
1547,
1596,
1639,
1478,
1485,
1401,
1402,
1283,
1335,
1192,
1215,
1108,
1145,
1089,
1099,
1020,
1020,
1022,
949,
930,
841,
813,
797,
751,
736,
661,
623,
604,
597,
543,
500,
535,
422,
399,
351,
337,
311,
251,
195,
195,
169,
142,
108,
100,
66,
51,
43,
32,
35,
30,
33,
25,
24,
27,
31,
21,
26,
26,
25,
15,
27,
31,
29,
23,
20,
25,
14,
19,
27,
23,
18,
26,
19,
12,
15,
23,
18,
23,
16,
18,
17,
17,
18,
18,
24,
18,
20,
14,
19,
14,
21,
11,
15,
20,
24,
11,
17,
24,
14,
21,
15,
20,
24,
18,
14,
11,
15,
22,
9,
18,
9,
17,
21,
15,
14,
17,
15,
11,
18,
20,
23,
22,
17,
19,
15,
17,
17,
16,
10,
14,
17,
14,
13,
16,
21,
17,
10,
9,
14,
14,
15,
13,
13,
11,
11,
10,
4,
12,
10,
9,
17,
13,
12,
15,
8,
10,
10,
9,
15,
10,
4,
10,
8,
8,
10,
13,
6,
7,
9,
4,
7,
6,
6,
6,
12,
16,
4,
8,
8,
4,
8,
10,
6,
8,
6,
5,
8,
8,
5,
5,
4,
8,
4,
7,
4,
7,
7,
7,
1,
7,
6,
2,
8,
3,
4,
5,
3,
7,
3,
4,
4,
3,
4,
1,
4,
2,
2,
7,
5,
1,
5,
2,
4,
2,
0,
0,
5,
1,
2,
2,
2,
2,
2,
4,
4,
1,
1,
4,
2,
7,
2,
1,
0,
2,
0,
0,
2,
3,
2,
1,
4,
2,
3,
1,
3,
2,
0,
2,
0,
0,
2,
3,
1,
0,
1,
0,
0,
4,
0,
0,
2,
1,
2,
0,
2,
2,
1,
1,
2,
1,
0,
0,
2,
2,
2,
1,
1,
0,
0,
0,
1,
0,
1,
0,
0,
0,
1,
4,
0,
2,
2,
0,
1,
1,
1,
2,
1,
0,
3,
1,
0,
2,
0,
1,
1,
0,
0,
0,
0,
0,
0,
2,
0,
0,
1,
2,
0,
0,
0,
0,
2,
1,
0,
0,
0,
0,
0,
0,
2,
0,
1,
0,
1,
0,
1,
0,
1,
2,
1,
0,
2,
0,
0,
0,
0,
0,
0,
1,
1,
0,
1,
0,
0,
1,
0,
1,
1,
0,
0,
0,
0,
1,
1,
1,
1,
1,
0,
0,
0,
0,
0,
0,
0,
0,
0,
1,
0,
1,
0,
0,
0,
0,
0,
1,
1,
0,
0,
1,
0,
0,
0,
0,
0,
1,
0,
0,
0,
0,
0,
0,
0,
0,
0,
0,
0,
0,
1,
0,
0,
1,
0,
0,
0,
0,
0,
0,
0,
0,
0,
0,
0,
0,
0,
0,
0,
0,
0,
0,
1,
0,
0,
0,
0,
0,
0,
0,
0,
0,
0,
0,
0,
0,
0,
0,
0,
0,
0,
0,
1,
0,
0,
0,
0,
1,
0,
0,
0,
0,
0,
0,
0,
0,
0,
0,
0,
0,
0,
0,
0,
0,
0,
0,
0,
0,
0,
0,
0,
0,
0,
0,
0,
0,
0,
0,
0,
0,
0,
0,
0,
0,
0,
0,
0,
0,
0,
0,
0,
0,
0,
0,
0,
0,
0,
0,
0,
0,
0,
0,
0,
0,
0,
0,
0,
0,
0,
0,
0,
0,
0,
0,
0,
0,
0,
0,
0,
0,
0,
0,
0,
0,
0,
0,
0,
0,
0,
0,
0,
0,
0,
0,
0,
0,
0,
0,
0,
0,
0,
0,
0,
0,
0,
0,
0,
0,
0,
0,
0,
0,
0,
0,
0,
0,
0,
0,
0,
0,
0,
0,
0,
0,
0,
0,
0,
0,
0,
0,
0,
0,
0,
0,
0,
0,
0,
0,
0,
0,
0,
0,
0,
0,
0,
0,
0,
0,
0,
0,
0,
0,
0,
0,
0,
0,
0,
0,
0,
0,
0,
0,
0,
0,
0,
0,
0,
0,
0,
0,
0,
0,
0,
0,
0,
0,
0,
0,
0,
0,
0,
0,
0,
0,
0,
0,
0,
0,
0,
0,
0,
0,
0,
0,
0,
0,
0,
0,
0,
0,
0,
0,
0,
0,
0,
0,
0,
0,
0,
0,
0,
0,
0,
0,
0,
0,
0,
0,
0,
0,
0,
0,
0,
0,
0,
0,
0,
0,
0,
0,
0,
0,
0,
0,
0,
0,
0,
0,
0,
0,
0,
0,
0,
0,
0,
0,
0,
0,
0,
0,
0,
0,
0,
0,
0,
0,
0,
0,
0,
0,
0,
0,
0,
0,
0,
0,
0,
0,
0,
0,
0,
0,
0,
0,
0,
0,
0,
0,
0,
0,
0,
0,
0,
0,
0,
0,
0,
0,
0,
0,
0,
0,
0,
0,
0,
0,
0,
0,
0,
0,
0,
0,
0,
0,
0,
0,
0,
0,
0,
0,
0,
0,
0,
0,
0,
0,
0,
0,
0,
0,
0,
0,
0,
0,
0,
0,
0,
0,
0,
0,
0,
0,
0,
0,
0,
0,
0,
0,
0,
0,
0,
0,
0,
0,
0,
0,
0,
0,
0,
0,
0,
0,
0,
0,
0,
0,
0,
0,
0,
0,
0,
0,
0,
0,
0,
0,
0,
0,
0,
0,
0,
0,
0,
0,
0,
0,
0,
0,
0,
0,
0,
0,
0,
0,
0,
0,
0,
0,
0,
0,
0,
0,
0,
0,
0,
0,
0,
0,
0,
0,
0,
0,
0,
0,
0,
0,
0,
0,
0,
0,
0,
0,
0,
0,
0,
0,
0,
0,
0,
0,
0,
0,
0,
0,
0,
0,
0,
0,
0,
0,
0,
0,
0,
0,
0,
0,
0,
0,
0,
0,
0,
0,
0,
0,
0,
0,
0,
0,
0,
0,
0,
0,
0,
0,
0,
0,
0,
0,
0,
0,
0,
#ENDOFDATA   :