File: N132962/Standards/15 keV/CeP5O14 std.msa
#FORMAT      : EMSA/MAS Spectral Data File
#VERSION     : 1.0
#TITLE       : CeP5O14 standard for 'N132962' detector
#NPOINTS     : 4096
#NCOLUMNS    : 1
#XUNITS      : eV
#YUNITS      : counts
#DATATYPE    : Y
#SIGNALTYPE  : EDS
#XLABEL      : Energy (eV)
#YLABEL      : Counts
#XPERCHAN -eV: 9.99778
#OFFSET   -eV: 1.69135
#CHOFFSET    : 0
#DATE        : 17-Mar-2025
#TIME        : 17:06:00
#OWNER       : Unknown
#ELEVANGLE   : 35
#BEAMKV   -kV: 15
#LIVETIME  -s: 1438.64
#REALTIME  -s: 1518.4
#PROBECUR -nA: 1.0263
##WORKING -mm: 15
##D2STDCMP   : CeP5O14,(O:43.1597),(P:29.8415),(Ce:26.9988)
##SIMILAR    : 2.1
#SPECTRUM    :
155,
148,
69,
201,
848,
3153,
8490,
25252,
75427,
104948,
57537,
27967,
29452,
36195,
53508,
168653,
638915,
1233877,
898940,
238057,
41952,
34310,
46610,
43056,
29778,
24210,
24643,
30051,
44081,
60898,
57739,
38780,
26861,
25005,
28233,
32923,
34694,
31273,
30550,
30054,
28296,
26686,
25561,
25239,
25253,
25705,
26050,
26319,
26760,
27153,
27254,
26826,
26664,
26619,
26781,
27330,
27996,
29884,
31308,
31557,
30624,
30274,
33637,
50659,
108115,
286469,
639730,
891736,
703121,
320147,
117553,
69527,
52856,
33856,
22245,
18046,
17116,
17216,
16912,
16693,
16818,
16995,
17551,
18121,
19056,
18660,
17617,
16724,
16368,
16149,
16091,
16030,
15791,
15759,
15900,
15582,
15536,
15262,
15390,
15052,
15008,
15026,
15253,
15271,
14855,
14681,
14228,
14040,
14175,
14046,
13947,
13828,
13751,
13608,
13317,
13300,
13461,
13156,
13125,
13129,
12870,
12853,
12792,
12654,
12816,
12636,
12417,
12134,
12106,
12041,
11984,
12029,
11821,
12104,
12200,
11996,
11824,
11740,
11415,
11365,
11884,
12981,
14015,
14662,
13683,
12328,
11555,
10869,
10458,
10235,
10126,
10288,
10077,
10200,
10384,
10777,
12107,
16014,
27663,
52500,
85619,
108662,
102584,
71947,
39492,
20065,
12047,
9606,
9202,
9310,
9587,
10854,
15769,
25840,
40672,
52609,
53401,
43868,
31888,
22932,
17266,
13443,
10978,
10447,
12132,
16252,
21380,
24103,
22778,
17910,
12797,
9432,
7890,
7334,
7209,
7189,
7079,
7122,
7674,
9054,
10899,
12786,
12932,
11654,
9560,
7841,
6974,
6787,
7144,
7921,
8541,
8694,
8336,
7774,
7149,
6498,
6385,
6164,
6117,
6048,
5842,
5756,
5485,
5541,
5374,
5200,
5460,
5385,
5414,
5273,
5241,
5289,
5171,
5151,
5039,
5044,
5120,
4866,
4926,
4834,
4762,
4737,
4610,
4711,
4734,
4631,
4648,
4603,
4645,
4530,
4560,
4457,
4499,
4417,
4364,
4318,
4224,
4127,
4325,
4228,
4300,
4077,
4025,
4014,
3937,
4051,
3894,
3806,
3780,
3897,
3786,
3795,
3761,
3688,
3720,
3695,
3583,
3627,
3537,
3601,
3516,
3592,
3451,
3302,
3413,
3332,
3376,
3256,
3297,
3116,
3152,
3142,
3132,
3252,
3152,
3176,
3063,
2983,
3061,
2981,
3022,
2920,
2933,
2857,
2875,
2857,
2876,
2855,
2792,
2771,
2757,
2606,
2604,
2539,
2582,
2580,
2611,
2557,
2549,
2453,
2499,
2499,
2563,
2374,
2449,
2386,
2469,
2342,
2393,
2221,
2254,
2260,
2229,
2191,
2200,
2119,
2191,
2130,
2132,
2054,
2125,
1992,
1931,
1953,
1939,
1969,
1927,
1833,
1880,
1867,
1869,
1887,
1823,
1772,
1700,
1748,
1747,
1702,
1695,
1705,
1658,
1644,
1628,
1584,
1602,
1589,
1493,
1524,
1511,
1504,
1490,
1514,
1442,
1449,
1401,
1394,
1396,
1333,
1371,
1348,
1280,
1256,
1224,
1311,
1162,
1232,
1176,
1166,
1179,
1129,
1054,
1093,
1046,
1105,
1032,
1015,
1052,
1001,
993,
970,
959,
933,
920,
970,
907,
898,
868,
935,
930,
831,
830,
811,
845,
792,
747,
788,
708,
776,
748,
728,
720,
729,
692,
696,
650,
640,
670,
686,
622,
594,
600,
587,
596,
566,
523,
568,
523,
521,
499,
501,
494,
488,
479,
498,
432,
424,
411,
395,
367,
361,
374,
365,
339,
348,
324,
337,
353,
329,
292,
310,
291,
287,
300,
247,
260,
240,
256,
235,
217,
210,
214,
205,
166,
171,
164,
169,
156,
147,
149,
129,
122,
140,
84,
114,
105,
96,
98,
80,
81,
55,
66,
65,
46,
45,
37,
34,
28,
18,
14,
5,
8,
5,
1,
7,
2,
4,
3,
3,
4,
2,
4,
1,
2,
3,
2,
4,
1,
6,
2,
3,
5,
7,
0,
4,
2,
4,
0,
5,
4,
4,
1,
0,
2,
2,
2,
4,
2,
2,
1,
2,
2,
2,
2,
0,
2,
1,
3,
3,
1,
0,
2,
1,
0,
1,
1,
1,
1,
1,
1,
0,
1,
1,
3,
4,
3,
0,
3,
5,
1,
0,
3,
2,
0,
2,
1,
1,
1,
2,
1,
4,
1,
1,
0,
1,
4,
0,
0,
1,
4,
2,
1,
0,
2,
3,
0,
0,
0,
1,
2,
2,
3,
1,
1,
0,
3,
1,
0,
1,
1,
1,
0,
0,
1,
1,
1,
2,
0,
0,
0,
0,
2,
1,
0,
1,
1,
1,
0,
1,
0,
2,
1,
0,
0,
1,
0,
2,
0,
1,
0,
3,
3,
1,
0,
1,
0,
0,
2,
0,
0,
0,
2,
0,
0,
0,
0,
0,
0,
1,
1,
1,
0,
0,
1,
0,
0,
1,
0,
0,
0,
1,
0,
0,
0,
0,
0,
1,
1,
0,
0,
0,
1,
0,
1,
0,
0,
0,
2,
0,
0,
0,
0,
0,
2,
0,
0,
0,
0,
2,
0,
0,
0,
0,
1,
0,
1,
0,
1,
0,
0,
0,
1,
1,
0,
0,
0,
0,
1,
0,
0,
0,
0,
0,
0,
0,
0,
0,
0,
0,
0,
0,
0,
0,
0,
0,
0,
0,
0,
0,
0,
0,
1,
1,
0,
0,
0,
0,
0,
0,
0,
1,
0,
0,
0,
0,
0,
0,
0,
0,
0,
0,
0,
0,
0,
0,
0,
1,
1,
0,
0,
0,
0,
0,
0,
0,
0,
0,
0,
0,
0,
0,
0,
0,
0,
0,
0,
0,
0,
0,
0,
0,
1,
0,
0,
0,
0,
0,
0,
0,
0,
0,
0,
0,
1,
0,
0,
0,
0,
0,
0,
0,
0,
0,
0,
0,
0,
1,
0,
0,
0,
0,
0,
0,
0,
0,
0,
0,
0,
0,
0,
0,
0,
0,
0,
0,
0,
0,
0,
0,
0,
0,
0,
0,
0,
0,
0,
0,
0,
0,
0,
0,
0,
0,
0,
0,
0,
0,
0,
0,
0,
0,
0,
0,
0,
0,
0,
0,
0,
0,
0,
0,
0,
0,
0,
0,
0,
0,
0,
0,
0,
1,
0,
0,
0,
0,
0,
0,
0,
0,
0,
0,
0,
0,
0,
0,
0,
0,
0,
0,
0,
0,
0,
0,
0,
0,
0,
0,
0,
0,
0,
0,
0,
0,
0,
0,
0,
0,
0,
0,
0,
0,
0,
0,
0,
0,
0,
0,
0,
0,
0,
0,
0,
0,
0,
0,
0,
0,
0,
0,
0,
0,
0,
0,
0,
0,
0,
0,
0,
0,
0,
0,
0,
0,
0,
0,
0,
0,
0,
0,
0,
0,
0,
0,
0,
0,
0,
0,
0,
0,
0,
0,
0,
0,
0,
0,
0,
0,
0,
0,
0,
0,
0,
0,
0,
0,
0,
0,
0,
0,
0,
0,
0,
0,
0,
0,
0,
0,
0,
0,
0,
0,
0,
0,
0,
0,
0,
0,
0,
0,
0,
0,
0,
0,
0,
0,
0,
0,
0,
0,
0,
0,
0,
0,
0,
0,
0,
0,
0,
0,
0,
0,
0,
0,
0,
0,
0,
0,
0,
0,
0,
0,
0,
0,
0,
0,
0,
0,
0,
0,
0,
0,
0,
0,
0,
0,
0,
0,
0,
0,
0,
0,
0,
0,
0,
0,
0,
0,
0,
0,
0,
0,
0,
0,
0,
0,
0,
0,
0,
0,
0,
0,
0,
0,
0,
0,
0,
0,
0,
0,
0,
0,
0,
0,
0,
0,
0,
0,
0,
0,
0,
0,
0,
0,
0,
0,
0,
0,
0,
0,
0,
0,
0,
0,
0,
0,
0,
0,
0,
0,
0,
0,
0,
0,
0,
0,
0,
0,
0,
0,
0,
0,
0,
0,
0,
0,
0,
0,
0,
0,
0,
0,
0,
0,
0,
0,
0,
0,
0,
0,
0,
0,
0,
0,
0,
0,
0,
0,
0,
0,
0,
0,
0,
0,
0,
0,
0,
0,
0,
0,
0,
0,
0,
0,
0,
0,
0,
0,
0,
0,
0,
0,
0,
0,
0,
0,
0,
0,
0,
0,
0,
0,
0,
0,
0,
0,
0,
0,
0,
0,
0,
0,
0,
0,
0,
0,
0,
0,
0,
0,
0,
0,
0,
0,
0,
0,
0,
0,
0,
0,
0,
0,
0,
0,
0,
0,
0,
0,
0,
0,
0,
0,
0,
0,
0,
0,
0,
0,
0,
0,
0,
0,
0,
0,
0,
0,
0,
0,
0,
0,
0,
0,
0,
0,
0,
0,
0,
0,
0,
0,
0,
0,
0,
0,
0,
0,
0,
0,
0,
0,
0,
0,
0,
0,
0,
0,
0,
0,
0,
0,
0,
0,
0,
0,
0,
0,
0,
0,
0,
0,
0,
0,
0,
0,
0,
0,
0,
0,
0,
0,
0,
0,
0,
0,
0,
0,
0,
0,
0,
0,
0,
0,
0,
0,
0,
0,
0,
0,
0,
0,
0,
0,
0,
0,
0,
0,
0,
0,
0,
0,
0,
0,
0,
0,
0,
0,
0,
0,
0,
0,
0,
0,
0,
0,
0,
0,
0,
0,
0,
0,
0,
0,
0,
0,
0,
0,
0,
0,
0,
0,
0,
0,
0,
0,
0,
0,
0,
0,
#ENDOFDATA   :