File: N132962/Standards/15 keV/Co std.msa
#FORMAT      : EMSA/MAS Spectral Data File
#VERSION     : 1.0
#TITLE       : Co standard for 'N132962' detector
#NPOINTS     : 4096
#NCOLUMNS    : 1
#XUNITS      : eV
#YUNITS      : counts
#DATATYPE    : Y
#SIGNALTYPE  : EDS
#XLABEL      : Energy (eV)
#YLABEL      : Counts
#XPERCHAN -eV: 9.99778
#OFFSET   -eV: 1.69135
#CHOFFSET    : 0
#DATE        : 26-Sep-2025
#TIME        : 22:49:00
#OWNER       : Unknown
#ELEVANGLE   : 35
#BEAMKV   -kV: 15
#LIVETIME  -s: 2149.45
#REALTIME  -s: 2308.2
#PROBECUR -nA: 1.21491
##WORKING -mm: 15
##D2STDCMP   : Co,(Co:100.0000)
##SIMILAR    : 1.4
#SPECTRUM    :
228,
216,
97,
294,
1421,
5988,
16004,
37757,
81037,
102048,
73104,
60334,
65982,
72019,
77789,
90615,
116875,
145052,
140953,
134602,
187786,
387348,
702167,
776734,
965985,
1884660,
2140412,
1042154,
248922,
68073,
39836,
31953,
30442,
30809,
32274,
33861,
35414,
36670,
37973,
38801,
39538,
41223,
42623,
43466,
44077,
45197,
47163,
48278,
49381,
51055,
51917,
53053,
52314,
50884,
50254,
50888,
52090,
54436,
55875,
56553,
55089,
53336,
49508,
47681,
47530,
47796,
48043,
48168,
47960,
48339,
48021,
48020,
47825,
47667,
47798,
47990,
47932,
48220,
47652,
46996,
46610,
46329,
46017,
45382,
45387,
45531,
45649,
46447,
46042,
45182,
43811,
43193,
43048,
42834,
42196,
42233,
41895,
41485,
41143,
41146,
40457,
40210,
39985,
39948,
39499,
38877,
38795,
38388,
38061,
37591,
37463,
37344,
37039,
36994,
36276,
36141,
35663,
35574,
34970,
34971,
34502,
34639,
33784,
33441,
33413,
33232,
32879,
32616,
32284,
32291,
31706,
31517,
31187,
31197,
31028,
30598,
30277,
30130,
29746,
29548,
29248,
28899,
29029,
28547,
28242,
28048,
27957,
27536,
27593,
27602,
27151,
26697,
26743,
26459,
26465,
26040,
25712,
25460,
25270,
25228,
25132,
24727,
24630,
24614,
24373,
24127,
23998,
23929,
23534,
23432,
23991,
24342,
25174,
24772,
24070,
22988,
22418,
22690,
22923,
23908,
24537,
24405,
23166,
21772,
21247,
20717,
20452,
20292,
19903,
19808,
19927,
19868,
19868,
19924,
19704,
19570,
19788,
19891,
19754,
19174,
18843,
18360,
18166,
17988,
17955,
17731,
17453,
17410,
17311,
17550,
17997,
19038,
19830,
20635,
20272,
19161,
17845,
17066,
16730,
16706,
16756,
17050,
17399,
18269,
21080,
31321,
65182,
152974,
321668,
553136,
752810,
799354,
662787,
432416,
224718,
97219,
40614,
21049,
15897,
14371,
14437,
13833,
13922,
13838,
14109,
14255,
14773,
15241,
16423,
18536,
23566,
35581,
56436,
85087,
107771,
114095,
98523,
70872,
43823,
25439,
15605,
11955,
10340,
9822,
9730,
9734,
9683,
9597,
9513,
9520,
9386,
9481,
9405,
9246,
9306,
9526,
9270,
9343,
9175,
9178,
9236,
9111,
9029,
8948,
8748,
8609,
8699,
8326,
8458,
8452,
8306,
8256,
8226,
8020,
8125,
8051,
8009,
7924,
7711,
7771,
7515,
7472,
7488,
7535,
7511,
7434,
7091,
7221,
7344,
7092,
7215,
7110,
6955,
7057,
6724,
6798,
6862,
6936,
6782,
6677,
6609,
6377,
6630,
6239,
6543,
6373,
6213,
6370,
6096,
6208,
6088,
5913,
5908,
5916,
5781,
5839,
5740,
5710,
5678,
5566,
5512,
5535,
5401,
5225,
5331,
5375,
5197,
5163,
5095,
5007,
4939,
4965,
4799,
4660,
4861,
4745,
4735,
4703,
4711,
4533,
4389,
4544,
4358,
4358,
4313,
4221,
4286,
4208,
4189,
4147,
4079,
3945,
3962,
3857,
3843,
3916,
3791,
3670,
3753,
3608,
3527,
3499,
3499,
3457,
3443,
3408,
3317,
3352,
3175,
3160,
3174,
3106,
3051,
3006,
2946,
3019,
2942,
2897,
2880,
2831,
2860,
2616,
2646,
2652,
2682,
2635,
2611,
2498,
2502,
2387,
2464,
2353,
2351,
2277,
2255,
2294,
2172,
2191,
2038,
2107,
2065,
1951,
1981,
1948,
1940,
1845,
1783,
1796,
1756,
1759,
1699,
1718,
1630,
1579,
1608,
1564,
1557,
1503,
1544,
1482,
1415,
1358,
1334,
1298,
1296,
1317,
1266,
1259,
1258,
1234,
1191,
1148,
1069,
1138,
1044,
1019,
1011,
1036,
1139,
1129,
1174,
1203,
1254,
1173,
1031,
899,
861,
766,
766,
700,
611,
635,
586,
570,
540,
484,
544,
457,
467,
457,
456,
456,
404,
399,
387,
441,
388,
338,
297,
301,
243,
213,
172,
167,
132,
115,
102,
91,
54,
46,
47,
44,
28,
25,
25,
22,
28,
23,
22,
21,
29,
18,
23,
20,
15,
15,
21,
16,
25,
8,
15,
21,
15,
18,
18,
18,
9,
19,
20,
14,
14,
14,
15,
18,
14,
8,
10,
13,
11,
12,
13,
12,
17,
18,
19,
17,
16,
12,
16,
12,
7,
9,
18,
10,
14,
12,
14,
14,
6,
9,
8,
14,
18,
17,
18,
17,
18,
15,
13,
10,
17,
13,
13,
18,
14,
13,
13,
19,
14,
11,
11,
11,
12,
16,
17,
11,
11,
18,
16,
9,
17,
8,
12,
9,
13,
16,
11,
12,
9,
10,
13,
4,
15,
8,
13,
17,
15,
8,
12,
10,
7,
3,
9,
11,
7,
11,
12,
6,
5,
6,
7,
9,
8,
8,
5,
7,
5,
5,
7,
6,
14,
6,
9,
3,
6,
5,
9,
9,
11,
5,
9,
5,
6,
6,
2,
4,
4,
1,
4,
3,
7,
5,
7,
1,
4,
1,
3,
6,
2,
4,
4,
5,
3,
4,
3,
4,
2,
2,
3,
5,
4,
5,
3,
4,
4,
2,
5,
2,
4,
2,
4,
4,
3,
2,
2,
4,
3,
1,
2,
2,
3,
0,
2,
2,
3,
0,
1,
1,
3,
2,
1,
1,
2,
2,
5,
2,
1,
3,
0,
3,
2,
0,
0,
0,
1,
1,
1,
1,
1,
1,
3,
0,
0,
0,
0,
0,
1,
0,
0,
3,
2,
0,
0,
1,
0,
1,
0,
1,
1,
0,
1,
0,
0,
0,
1,
1,
1,
0,
0,
1,
0,
1,
0,
1,
0,
0,
1,
0,
0,
0,
0,
0,
0,
0,
0,
1,
0,
1,
1,
1,
1,
0,
0,
1,
0,
1,
0,
0,
0,
0,
0,
0,
0,
1,
0,
1,
0,
0,
0,
0,
0,
0,
0,
1,
0,
0,
0,
0,
0,
1,
1,
0,
0,
0,
0,
0,
0,
0,
0,
0,
0,
0,
0,
0,
0,
0,
0,
0,
0,
0,
0,
0,
0,
0,
0,
0,
0,
0,
0,
0,
0,
0,
0,
0,
0,
0,
0,
0,
0,
0,
0,
0,
0,
0,
0,
1,
0,
0,
0,
0,
0,
0,
0,
0,
0,
0,
0,
0,
0,
0,
0,
0,
0,
0,
0,
0,
0,
0,
0,
0,
0,
0,
0,
0,
0,
0,
0,
0,
0,
0,
0,
0,
0,
1,
0,
0,
0,
0,
0,
0,
0,
0,
0,
0,
0,
0,
0,
0,
0,
0,
0,
0,
0,
0,
0,
0,
0,
0,
0,
0,
0,
0,
0,
0,
0,
0,
0,
0,
0,
0,
1,
0,
0,
0,
0,
0,
0,
0,
0,
0,
0,
0,
0,
0,
0,
0,
0,
0,
0,
0,
0,
0,
0,
0,
0,
0,
0,
0,
0,
0,
0,
0,
0,
0,
0,
0,
0,
0,
0,
0,
0,
0,
0,
0,
0,
0,
0,
0,
0,
0,
0,
0,
0,
0,
0,
0,
0,
0,
0,
0,
0,
0,
0,
0,
0,
0,
0,
0,
0,
0,
0,
0,
0,
0,
0,
0,
0,
0,
0,
0,
0,
0,
0,
0,
0,
0,
0,
0,
0,
0,
0,
0,
0,
0,
0,
0,
0,
0,
0,
0,
0,
0,
0,
0,
0,
0,
0,
0,
0,
0,
0,
0,
0,
0,
0,
0,
0,
0,
0,
0,
0,
0,
0,
0,
0,
0,
0,
0,
0,
0,
0,
0,
0,
0,
0,
0,
0,
0,
0,
0,
0,
0,
0,
0,
0,
0,
0,
0,
0,
0,
0,
0,
0,
0,
0,
0,
0,
0,
0,
0,
0,
0,
0,
0,
0,
0,
0,
0,
0,
0,
0,
0,
0,
0,
0,
0,
0,
0,
0,
0,
0,
0,
0,
0,
0,
0,
0,
0,
0,
0,
0,
0,
0,
0,
0,
0,
0,
0,
0,
0,
0,
0,
0,
0,
0,
0,
0,
0,
0,
0,
0,
0,
0,
0,
0,
0,
0,
0,
0,
0,
0,
0,
0,
0,
0,
0,
0,
0,
0,
0,
0,
0,
0,
0,
0,
0,
0,
0,
0,
0,
0,
0,
0,
0,
0,
0,
0,
0,
0,
0,
0,
0,
0,
0,
0,
0,
0,
0,
0,
0,
0,
0,
0,
0,
0,
0,
0,
0,
0,
0,
0,
0,
0,
0,
0,
0,
0,
0,
0,
0,
0,
0,
0,
0,
0,
0,
0,
0,
0,
0,
0,
0,
0,
0,
0,
0,
0,
0,
0,
0,
0,
0,
0,
0,
0,
0,
0,
0,
0,
0,
0,
0,
0,
0,
0,
0,
0,
0,
0,
0,
0,
0,
0,
0,
0,
0,
0,
0,
0,
0,
0,
0,
0,
0,
0,
0,
0,
0,
0,
0,
0,
0,
0,
0,
0,
0,
0,
0,
0,
0,
0,
0,
0,
0,
0,
0,
0,
0,
0,
0,
0,
0,
0,
0,
0,
0,
0,
0,
0,
0,
0,
0,
0,
0,
0,
0,
0,
0,
0,
0,
0,
0,
0,
0,
0,
0,
0,
0,
0,
0,
0,
0,
0,
0,
0,
0,
0,
0,
0,
0,
0,
0,
0,
0,
0,
0,
0,
0,
0,
0,
0,
0,
0,
0,
0,
0,
0,
0,
0,
0,
0,
0,
0,
0,
0,
0,
0,
0,
0,
0,
0,
0,
0,
0,
0,
0,
0,
0,
0,
0,
0,
0,
0,
0,
0,
0,
#ENDOFDATA   :