File: N132962/Standards/15 keV/Cr std.msa
#FORMAT      : EMSA/MAS Spectral Data File
#VERSION     : 1.0
#TITLE       : Cr standard for 'N132962' detector
#NPOINTS     : 4096
#NCOLUMNS    : 1
#XUNITS      : eV
#YUNITS      : counts
#DATATYPE    : Y
#SIGNALTYPE  : EDS
#XLABEL      : Energy (eV)
#YLABEL      : Counts
#XPERCHAN -eV: 9.99778
#OFFSET   -eV: 1.69135
#CHOFFSET    : 0
#DATE        : 26-Sep-2025
#TIME        : 22:06:00
#OWNER       : Unknown
#ELEVANGLE   : 35
#BEAMKV   -kV: 15
#LIVETIME  -s: 2158.94
#REALTIME  -s: 2318.47
#PROBECUR -nA: 1.21395
##WORKING -mm: 15
##D2STDCMP   : Cr,(Cr:100.0000)
##SIMILAR    : 1.1
#SPECTRUM    :
238,
271,
122,
272,
1575,
6560,
17931,
36783,
65207,
80893,
75966,
78574,
89035,
108510,
185195,
464855,
899305,
1013464,
1110749,
1113845,
518611,
117732,
40935,
32091,
28407,
26080,
26528,
29056,
32003,
33490,
33726,
34871,
36820,
38977,
41108,
42767,
44466,
45693,
46277,
47282,
47258,
48441,
49177,
48788,
50342,
50790,
51501,
53053,
55456,
58600,
59216,
57511,
55731,
54858,
55245,
57597,
63102,
74854,
82001,
75724,
65629,
59053,
54124,
51551,
51240,
50737,
50969,
50404,
50147,
50057,
49467,
49684,
49716,
48879,
48845,
48210,
47988,
48285,
47759,
47079,
45851,
45850,
46006,
45840,
45031,
45263,
44608,
44465,
43593,
43544,
43162,
42475,
42183,
41841,
41443,
40741,
40857,
40325,
40058,
39441,
39128,
38840,
38642,
38277,
38261,
37584,
37070,
36796,
36344,
36468,
35976,
35135,
34782,
34965,
34652,
34049,
33892,
34002,
33845,
34650,
36325,
39037,
40435,
39213,
35662,
33063,
31670,
30588,
30054,
30142,
30032,
29405,
29290,
29066,
29284,
28758,
28361,
28623,
28580,
28593,
28515,
27947,
27383,
27066,
26390,
26440,
26469,
26534,
26097,
25668,
25675,
25521,
25362,
25241,
25067,
24679,
24647,
24060,
24244,
23861,
23180,
23389,
23171,
23340,
23476,
23620,
23412,
23036,
22714,
22869,
23093,
24227,
25025,
27370,
32270,
49086,
112692,
297761,
681543,
1199229,
1563271,
1504385,
1065430,
559535,
226445,
78796,
33467,
22840,
21181,
20917,
21191,
22023,
24106,
29250,
43027,
75549,
128608,
187858,
218487,
196982,
138620,
79462,
39999,
21822,
15446,
13838,
13329,
13231,
13402,
13507,
14004,
14792,
15952,
16563,
16468,
15554,
14379,
13442,
12905,
12783,
12538,
12375,
12197,
12296,
12162,
12155,
11982,
11836,
11871,
11891,
11891,
11888,
11863,
11958,
12037,
11925,
11751,
11495,
11495,
10985,
11163,
11012,
10763,
10762,
10779,
10594,
10590,
10721,
10640,
10668,
10524,
10627,
10257,
10277,
9896,
9795,
9939,
9848,
9700,
9723,
9500,
9630,
9492,
9394,
9423,
9286,
9266,
9171,
8953,
8974,
9128,
8864,
8884,
8709,
8609,
8587,
8560,
8639,
8360,
8390,
8266,
8181,
8171,
8188,
8011,
7814,
7867,
7760,
7808,
7668,
7580,
7641,
7465,
7532,
7543,
7463,
7252,
7244,
7148,
7026,
6942,
6890,
6886,
6805,
6754,
6984,
6754,
6784,
6623,
6455,
6524,
6291,
6394,
6365,
6221,
6217,
6147,
6243,
6072,
6021,
6015,
5877,
5867,
5844,
5719,
5754,
5650,
5598,
5624,
5391,
5439,
5394,
5359,
5278,
5362,
5186,
5252,
5020,
5098,
5076,
4929,
5119,
4830,
4938,
4845,
4716,
4713,
4609,
4586,
4475,
4477,
4428,
4399,
4306,
4367,
4408,
4548,
4758,
5101,
5286,
5539,
5667,
5329,
5003,
4391,
4128,
3770,
3740,
3717,
3699,
3603,
3551,
3595,
3652,
3520,
3570,
3615,
3601,
3641,
3687,
3562,
3369,
3315,
3124,
3083,
2987,
3092,
2923,
2874,
2878,
2778,
2834,
2733,
2703,
2690,
2660,
2546,
2604,
2597,
2552,
2505,
2441,
2332,
2301,
2289,
2262,
2304,
2225,
2202,
2126,
2097,
2055,
2049,
2057,
1926,
1961,
1983,
1889,
1877,
1832,
1757,
1760,
1692,
1671,
1706,
1682,
1594,
1606,
1485,
1485,
1502,
1433,
1477,
1359,
1398,
1359,
1317,
1224,
1260,
1272,
1198,
1178,
1219,
1149,
1120,
1077,
1064,
1011,
1124,
998,
1009,
923,
952,
921,
907,
905,
854,
864,
791,
812,
802,
693,
716,
712,
652,
694,
637,
637,
574,
554,
582,
552,
527,
528,
481,
438,
441,
428,
386,
379,
377,
375,
319,
328,
280,
266,
258,
238,
227,
245,
203,
189,
135,
135,
132,
102,
96,
66,
68,
50,
32,
27,
21,
24,
26,
24,
17,
30,
21,
18,
20,
22,
27,
17,
11,
18,
21,
18,
13,
18,
10,
19,
18,
13,
24,
13,
9,
19,
19,
12,
11,
9,
19,
20,
9,
12,
14,
5,
10,
11,
14,
12,
13,
10,
15,
15,
10,
11,
12,
12,
17,
11,
8,
14,
7,
9,
9,
10,
11,
12,
9,
10,
15,
9,
17,
16,
20,
6,
8,
18,
11,
13,
13,
9,
12,
8,
9,
15,
13,
9,
6,
13,
13,
2,
10,
26,
9,
12,
9,
12,
16,
14,
10,
4,
7,
5,
9,
10,
13,
8,
5,
10,
8,
6,
9,
11,
10,
4,
6,
7,
8,
9,
5,
6,
5,
9,
7,
9,
3,
4,
8,
9,
7,
7,
6,
4,
9,
5,
8,
8,
7,
5,
5,
1,
4,
7,
11,
2,
7,
6,
4,
9,
5,
5,
4,
5,
2,
2,
1,
7,
3,
2,
2,
1,
1,
2,
1,
1,
1,
2,
1,
5,
0,
3,
2,
4,
3,
1,
2,
1,
5,
2,
0,
2,
0,
2,
0,
2,
1,
4,
0,
2,
1,
1,
3,
0,
0,
2,
2,
0,
1,
1,
1,
1,
1,
0,
0,
1,
0,
1,
0,
1,
1,
1,
1,
1,
0,
2,
1,
0,
0,
1,
1,
0,
0,
0,
0,
1,
0,
0,
0,
0,
0,
0,
1,
1,
0,
0,
0,
0,
0,
0,
0,
1,
0,
0,
0,
0,
0,
1,
1,
0,
0,
0,
0,
0,
2,
1,
0,
0,
2,
0,
0,
0,
0,
0,
2,
0,
0,
0,
0,
0,
1,
1,
0,
1,
0,
0,
1,
0,
0,
0,
0,
1,
0,
0,
0,
0,
0,
1,
1,
0,
0,
1,
1,
0,
0,
0,
0,
0,
0,
0,
0,
0,
0,
0,
0,
0,
0,
0,
0,
0,
0,
0,
0,
0,
0,
0,
0,
0,
0,
0,
0,
0,
0,
0,
0,
1,
0,
0,
0,
0,
0,
0,
0,
0,
0,
0,
1,
0,
0,
0,
0,
0,
0,
0,
0,
0,
0,
0,
0,
0,
0,
0,
0,
0,
0,
0,
0,
0,
0,
0,
0,
0,
0,
0,
0,
0,
0,
0,
0,
0,
0,
0,
0,
0,
0,
0,
0,
0,
0,
0,
0,
0,
0,
0,
0,
0,
0,
0,
0,
0,
0,
0,
0,
0,
0,
0,
0,
0,
0,
0,
0,
0,
0,
0,
0,
0,
0,
0,
0,
0,
0,
0,
0,
0,
0,
0,
0,
0,
0,
0,
0,
0,
0,
0,
0,
0,
0,
0,
0,
0,
0,
0,
0,
0,
0,
0,
0,
0,
0,
0,
0,
0,
0,
0,
0,
0,
0,
0,
0,
0,
0,
0,
0,
0,
0,
0,
0,
0,
0,
0,
0,
0,
0,
0,
0,
0,
0,
0,
0,
0,
0,
0,
0,
0,
0,
0,
0,
0,
0,
0,
0,
0,
0,
0,
0,
0,
0,
0,
0,
0,
0,
0,
0,
0,
0,
0,
0,
0,
0,
0,
0,
0,
0,
0,
0,
0,
0,
0,
0,
0,
0,
0,
0,
0,
0,
0,
0,
0,
0,
0,
0,
0,
0,
0,
0,
0,
0,
0,
0,
0,
0,
0,
0,
0,
0,
1,
0,
0,
0,
0,
0,
0,
0,
0,
0,
0,
0,
0,
0,
0,
0,
0,
0,
0,
0,
0,
0,
0,
0,
0,
0,
0,
0,
0,
0,
0,
0,
0,
0,
0,
0,
0,
0,
0,
0,
0,
0,
0,
0,
0,
0,
0,
0,
0,
0,
0,
0,
0,
0,
0,
0,
0,
0,
0,
0,
0,
0,
0,
0,
0,
0,
0,
0,
0,
0,
0,
0,
0,
0,
0,
0,
0,
0,
0,
0,
0,
0,
0,
0,
0,
0,
0,
0,
0,
0,
0,
0,
0,
0,
0,
0,
0,
0,
0,
0,
0,
0,
0,
0,
0,
0,
0,
0,
0,
0,
0,
0,
0,
0,
0,
0,
0,
0,
0,
0,
0,
0,
0,
0,
0,
0,
0,
0,
0,
0,
0,
0,
0,
0,
0,
0,
0,
0,
0,
0,
0,
0,
0,
0,
0,
0,
0,
0,
0,
0,
0,
0,
0,
0,
0,
0,
0,
0,
0,
0,
0,
0,
0,
0,
0,
0,
0,
0,
0,
0,
0,
0,
0,
0,
0,
0,
0,
0,
0,
0,
0,
0,
0,
0,
0,
0,
0,
0,
0,
0,
0,
0,
0,
0,
0,
0,
0,
0,
0,
0,
0,
0,
0,
0,
0,
0,
0,
0,
0,
0,
0,
0,
0,
0,
0,
0,
0,
0,
0,
0,
0,
0,
0,
0,
0,
0,
0,
0,
0,
0,
0,
0,
0,
0,
0,
0,
0,
0,
0,
0,
0,
0,
0,
0,
0,
0,
0,
0,
0,
0,
0,
0,
0,
0,
0,
0,
0,
0,
0,
0,
0,
0,
0,
0,
0,
0,
0,
0,
0,
0,
0,
0,
0,
0,
0,
0,
0,
0,
0,
0,
0,
0,
0,
0,
0,
0,
0,
0,
0,
0,
0,
0,
0,
0,
0,
0,
0,
0,
0,
0,
0,
0,
0,
0,
0,
0,
0,
0,
0,
0,
0,
0,
0,
0,
0,
0,
0,
0,
0,
0,
0,
0,
0,
0,
0,
0,
0,
0,
0,
0,
0,
0,
0,
0,
0,
0,
0,
0,
0,
#ENDOFDATA   :