File: N132962/Standards/15 keV/Cr2O3 std.msa
#FORMAT      : EMSA/MAS Spectral Data File
#VERSION     : 1.0
#TITLE       : Cr2O3 standard for 'N132962' detector
#NPOINTS     : 4096
#NCOLUMNS    : 1
#XUNITS      : eV
#YUNITS      : counts
#DATATYPE    : Y
#SIGNALTYPE  : EDS
#XLABEL      : Energy (eV)
#YLABEL      : Counts
#XPERCHAN -eV: 9.99778
#OFFSET   -eV: 1.69135
#CHOFFSET    : 0
#DATE        : 28-Sep-2025
#TIME        : 18:39:00
#OWNER       : Unknown
#ELEVANGLE   : 35
#BEAMKV   -kV: 15
#LIVETIME  -s: 1920.27
#REALTIME  -s: 2056.36
#PROBECUR -nA: 1.21498
##WORKING -mm: 15
##D2STDCMP   : Cr2O3,(O:31.5792),(Cr:68.4208)
##SIMILAR    : 1.1
#SPECTRUM    :
182,
212,
83,
234,
1298,
5517,
16592,
46662,
111866,
140523,
87300,
63296,
70930,
94012,
183607,
603401,
1804432,
2933963,
2066174,
668249,
157134,
43438,
25305,
22176,
20864,
19894,
20596,
22087,
24038,
25447,
25751,
27536,
29924,
33908,
37758,
37597,
34868,
32977,
33234,
34136,
34757,
35861,
36760,
37312,
38002,
38229,
38766,
39974,
40702,
41401,
41818,
41686,
41217,
40942,
41706,
41745,
43130,
44905,
46574,
46014,
43862,
41291,
38348,
36415,
35841,
35560,
35606,
35818,
35246,
35146,
34943,
34457,
34626,
34125,
34186,
33597,
33705,
33074,
33107,
32735,
32385,
31859,
31918,
31656,
31316,
30993,
30551,
30438,
29950,
29460,
29577,
29050,
28679,
28702,
28115,
27972,
27687,
27307,
27182,
26834,
26461,
26306,
26110,
25461,
25326,
24970,
24875,
24812,
24443,
24241,
24015,
23410,
23419,
23220,
23012,
22860,
22484,
22435,
22780,
22783,
23765,
25221,
25832,
25183,
23409,
21819,
20813,
20232,
20318,
19974,
20068,
19754,
19316,
19197,
19018,
19020,
19034,
18764,
18441,
18315,
18548,
18548,
17909,
17739,
17564,
17400,
17302,
16907,
16981,
16840,
16819,
16654,
16513,
16515,
16305,
16053,
15972,
15973,
15326,
15363,
15420,
15108,
15002,
14923,
14690,
14816,
14619,
14790,
14549,
14636,
14873,
15385,
15968,
17261,
19738,
29198,
64115,
167583,
379420,
667111,
869356,
834607,
591639,
311592,
125916,
45939,
19900,
14493,
13446,
13231,
13566,
13831,
14767,
18065,
25773,
44139,
74943,
108522,
125995,
112286,
79160,
45602,
23714,
13721,
10266,
9104,
8872,
8899,
8884,
8896,
8917,
9122,
9098,
9604,
9549,
9547,
9242,
8877,
8327,
8484,
8210,
8102,
8045,
8144,
8054,
7972,
7928,
7921,
7852,
7698,
7732,
7906,
7704,
7631,
7576,
7601,
7453,
7355,
7380,
7187,
7047,
7112,
7148,
6975,
7040,
6965,
7104,
6973,
6905,
6857,
6854,
6682,
6653,
6356,
6558,
6410,
6289,
6184,
6205,
6194,
6174,
6099,
6109,
6048,
5986,
5866,
6057,
5796,
5749,
5822,
5783,
5817,
5424,
5650,
5465,
5453,
5357,
5424,
5283,
5469,
5308,
5226,
5171,
5082,
5147,
5087,
5034,
5025,
5104,
4841,
4850,
4789,
4655,
4683,
4696,
4598,
4572,
4593,
4668,
4498,
4472,
4398,
4373,
4325,
4324,
4269,
4215,
4256,
4230,
4146,
4122,
3998,
3925,
3998,
3975,
3823,
3918,
3698,
3817,
3754,
3751,
3703,
3848,
3659,
3563,
3576,
3653,
3467,
3437,
3403,
3392,
3276,
3368,
3310,
3336,
3201,
3283,
3130,
3022,
3093,
3117,
3084,
2993,
2920,
3040,
2940,
2928,
2894,
2872,
2813,
2701,
2790,
2744,
2691,
2622,
2634,
2666,
2754,
2811,
2915,
2991,
2920,
2860,
2777,
2550,
2429,
2328,
2332,
2205,
2178,
2216,
2277,
2067,
2067,
2029,
2125,
2146,
2024,
2168,
2034,
2060,
1950,
1968,
1882,
1904,
1809,
1838,
1752,
1725,
1680,
1662,
1624,
1651,
1555,
1603,
1661,
1570,
1451,
1471,
1490,
1431,
1398,
1466,
1399,
1348,
1397,
1340,
1336,
1308,
1316,
1264,
1270,
1235,
1287,
1171,
1166,
1118,
1092,
1089,
1120,
1060,
978,
986,
999,
969,
972,
944,
923,
895,
881,
920,
828,
866,
812,
860,
841,
765,
763,
715,
712,
703,
729,
647,
686,
617,
597,
646,
584,
601,
589,
537,
537,
571,
563,
514,
498,
497,
485,
456,
431,
468,
415,
415,
385,
392,
374,
354,
352,
324,
348,
340,
281,
305,
293,
296,
267,
291,
224,
219,
198,
196,
181,
187,
174,
165,
121,
135,
140,
117,
112,
107,
64,
75,
75,
67,
48,
43,
36,
28,
22,
14,
15,
11,
11,
13,
6,
3,
8,
4,
11,
7,
7,
8,
8,
10,
2,
7,
6,
3,
8,
6,
6,
10,
4,
5,
4,
7,
6,
4,
9,
5,
4,
7,
10,
8,
7,
4,
2,
12,
9,
9,
6,
3,
7,
2,
6,
7,
2,
1,
4,
2,
5,
1,
2,
7,
3,
4,
8,
6,
2,
7,
5,
7,
5,
9,
6,
2,
4,
6,
3,
4,
7,
2,
6,
2,
6,
4,
5,
6,
5,
1,
5,
5,
4,
5,
6,
4,
7,
1,
8,
7,
3,
3,
7,
0,
9,
6,
2,
1,
4,
7,
4,
3,
2,
1,
2,
3,
4,
4,
2,
2,
3,
4,
3,
3,
2,
4,
4,
1,
4,
2,
0,
2,
4,
3,
2,
2,
0,
2,
3,
4,
2,
0,
3,
2,
4,
2,
1,
1,
1,
3,
0,
2,
2,
1,
0,
2,
4,
1,
0,
1,
1,
1,
0,
2,
0,
0,
0,
1,
1,
1,
1,
1,
0,
0,
0,
1,
0,
2,
0,
2,
0,
0,
1,
1,
0,
0,
0,
2,
0,
0,
2,
1,
0,
0,
1,
0,
1,
0,
0,
1,
0,
1,
0,
0,
0,
0,
1,
0,
0,
0,
0,
0,
0,
0,
0,
0,
0,
0,
1,
0,
0,
0,
0,
0,
0,
1,
0,
0,
1,
0,
1,
0,
0,
0,
0,
0,
0,
0,
1,
0,
0,
0,
1,
0,
0,
0,
0,
0,
0,
0,
0,
0,
0,
0,
0,
0,
0,
0,
0,
0,
0,
0,
1,
0,
0,
0,
1,
0,
0,
0,
0,
0,
0,
0,
0,
0,
0,
0,
0,
0,
0,
0,
1,
0,
0,
0,
0,
0,
0,
0,
0,
0,
0,
0,
0,
0,
0,
0,
0,
0,
0,
1,
0,
0,
0,
0,
0,
0,
0,
0,
0,
0,
0,
0,
0,
0,
0,
0,
0,
0,
0,
0,
0,
0,
0,
0,
0,
0,
0,
0,
0,
0,
0,
0,
0,
0,
0,
0,
0,
0,
0,
0,
0,
0,
0,
0,
0,
0,
0,
0,
0,
0,
0,
0,
0,
0,
0,
0,
0,
0,
0,
0,
0,
0,
0,
0,
0,
0,
0,
0,
0,
0,
0,
0,
0,
0,
0,
0,
0,
0,
0,
0,
0,
0,
0,
0,
0,
0,
0,
0,
0,
0,
0,
0,
0,
0,
0,
0,
0,
0,
0,
0,
0,
0,
0,
0,
0,
0,
0,
0,
0,
0,
0,
0,
0,
0,
0,
0,
0,
0,
0,
0,
0,
0,
0,
0,
0,
0,
0,
0,
0,
0,
0,
0,
0,
0,
0,
0,
0,
0,
0,
0,
0,
0,
0,
0,
0,
0,
0,
0,
0,
0,
0,
0,
0,
0,
0,
0,
0,
0,
0,
0,
0,
0,
0,
0,
0,
0,
0,
0,
0,
0,
0,
0,
0,
0,
0,
0,
0,
0,
0,
0,
0,
0,
0,
0,
0,
0,
0,
0,
0,
0,
0,
0,
0,
0,
0,
0,
0,
0,
0,
0,
0,
0,
0,
0,
0,
0,
0,
0,
0,
0,
0,
0,
0,
0,
0,
0,
0,
0,
0,
0,
0,
0,
0,
0,
0,
0,
0,
0,
0,
0,
0,
0,
0,
0,
0,
0,
0,
0,
0,
0,
0,
0,
0,
0,
0,
0,
0,
0,
0,
0,
0,
0,
0,
0,
0,
0,
0,
0,
0,
0,
0,
0,
0,
0,
0,
0,
0,
0,
0,
0,
0,
0,
0,
0,
0,
0,
0,
0,
0,
0,
0,
0,
0,
0,
0,
0,
0,
0,
0,
0,
0,
0,
0,
0,
0,
0,
0,
0,
0,
0,
0,
0,
0,
0,
0,
0,
0,
0,
0,
0,
0,
0,
0,
0,
0,
0,
0,
0,
0,
0,
0,
0,
0,
0,
0,
0,
0,
0,
0,
0,
0,
0,
0,
0,
0,
0,
0,
0,
0,
0,
0,
0,
0,
0,
0,
0,
0,
0,
0,
0,
0,
0,
0,
0,
0,
0,
0,
0,
0,
0,
1,
0,
0,
0,
0,
0,
0,
0,
0,
0,
0,
0,
0,
0,
0,
0,
0,
0,
0,
0,
0,
0,
0,
0,
0,
0,
0,
0,
0,
0,
0,
0,
0,
0,
0,
0,
0,
0,
0,
0,
0,
0,
0,
0,
0,
0,
0,
0,
0,
0,
0,
0,
0,
0,
0,
0,
0,
0,
0,
0,
0,
0,
0,
0,
0,
0,
0,
0,
0,
0,
0,
0,
0,
0,
0,
0,
0,
0,
0,
0,
0,
0,
0,
0,
0,
0,
0,
0,
0,
0,
0,
0,
0,
0,
0,
0,
0,
0,
0,
0,
0,
0,
0,
0,
0,
0,
0,
0,
0,
0,
0,
0,
0,
0,
0,
0,
0,
0,
0,
0,
0,
0,
0,
0,
0,
0,
0,
0,
0,
0,
0,
0,
0,
0,
0,
0,
0,
0,
0,
0,
0,
0,
0,
0,
0,
0,
0,
0,
0,
0,
0,
0,
0,
0,
0,
0,
0,
0,
0,
0,
0,
0,
0,
0,
0,
0,
0,
0,
0,
0,
0,
0,
0,
0,
0,
0,
0,
0,
0,
0,
0,
0,
0,
0,
0,
0,
0,
0,
0,
0,
0,
0,
0,
0,
0,
0,
0,
0,
0,
0,
0,
0,
0,
0,
0,
0,
0,
0,
0,
0,
0,
0,
0,
#ENDOFDATA   :