File: N132962/Standards/15 keV/CsBr std.msa
#FORMAT      : EMSA/MAS Spectral Data File
#VERSION     : 1.0
#TITLE       : CsBr standard for 'N132962' detector
#NPOINTS     : 4096
#NCOLUMNS    : 1
#XUNITS      : eV
#YUNITS      : counts
#DATATYPE    : Y
#SIGNALTYPE  : EDS
#XLABEL      : Energy (eV)
#YLABEL      : Counts
#XPERCHAN -eV: 9.99778
#OFFSET   -eV: 1.69135
#CHOFFSET    : 0
#DATE        : 26-Sep-2025
#TIME        : 16:18:00
#OWNER       : Unknown
#ELEVANGLE   : 35
#BEAMKV   -kV: 15
#LIVETIME  -s: 1196.47
#REALTIME  -s: 1290.78
#PROBECUR -nA: 1.21623
##WORKING -mm: 15
##D2STDCMP   : CsBr,(Br:37.5472),(Cs:62.4528)
##SIMILAR    : 4.9
#SPECTRUM    :
122,
135,
131,
333,
1359,
5382,
13618,
28919,
56870,
68004,
46220,
34535,
35356,
36325,
38220,
44659,
63479,
107337,
156576,
147455,
92105,
63498,
65838,
80268,
83020,
61497,
42304,
37002,
37282,
40807,
48403,
52152,
49174,
46523,
41851,
38321,
36231,
35367,
36176,
37317,
38812,
43128,
54281,
66054,
65571,
58652,
61593,
125519,
346860,
637090,
683067,
472960,
234329,
101216,
54519,
39347,
35795,
36477,
37803,
37547,
35810,
33051,
30433,
29553,
29451,
29579,
30173,
30389,
31042,
31121,
30799,
31343,
32127,
32872,
32945,
32679,
33098,
33037,
32361,
31445,
31087,
31799,
31627,
32971,
33434,
34017,
33106,
32031,
31024,
30772,
30595,
30609,
30571,
30645,
30684,
31230,
31100,
30976,
30737,
30616,
30460,
29724,
29236,
29201,
28935,
28921,
28923,
28646,
28401,
28089,
28271,
27867,
27467,
27307,
27101,
27252,
27306,
26886,
26629,
26563,
26631,
26718,
26585,
27649,
29647,
34090,
38040,
37893,
34216,
29824,
27146,
25712,
25128,
25091,
25331,
25815,
27364,
30279,
36125,
52974,
104538,
207816,
325562,
371498,
300919,
177414,
83529,
40553,
27799,
26841,
32654,
53328,
96012,
150939,
184908,
173001,
132177,
91010,
63149,
45290,
34751,
32691,
40657,
57144,
72198,
74058,
59967,
40861,
27762,
21411,
19233,
19058,
19615,
22556,
28162,
35043,
38504,
35616,
28852,
22416,
18924,
17893,
19259,
21882,
23757,
24510,
22662,
19896,
18103,
17158,
16625,
16252,
15711,
15296,
14951,
14809,
14446,
14247,
14478,
13980,
13908,
14030,
14196,
14171,
14049,
13826,
13585,
13530,
13408,
13772,
13736,
13547,
14330,
14128,
13982,
13883,
13369,
12959,
12991,
12701,
12709,
12646,
12574,
12214,
12552,
11889,
12171,
12205,
12130,
11940,
11904,
11633,
11678,
11718,
11622,
11621,
11617,
11403,
11229,
11458,
11125,
11037,
10959,
10999,
10812,
10791,
10818,
10702,
10816,
10979,
10758,
10677,
10339,
10409,
10127,
10224,
9958,
9999,
10027,
9913,
9821,
9721,
9434,
9753,
9669,
9520,
9346,
9252,
9501,
9311,
9150,
9006,
9058,
8947,
8970,
8865,
8809,
8791,
8665,
8618,
8537,
8500,
8553,
8394,
8508,
8357,
8370,
8153,
8167,
8069,
8015,
7892,
7879,
7825,
7804,
7811,
7571,
7693,
7612,
7500,
7347,
7458,
7297,
7249,
7165,
7138,
7065,
7088,
6966,
7184,
6924,
6814,
6851,
6546,
6655,
6587,
6596,
6487,
6654,
6474,
6469,
6311,
6300,
6292,
6312,
6034,
6160,
5912,
5916,
5893,
6060,
6023,
5886,
5792,
5689,
5663,
5605,
5513,
5547,
5330,
5401,
5285,
5338,
5211,
5232,
5095,
5063,
5010,
4859,
4850,
4792,
4802,
4566,
4727,
4674,
4628,
4636,
4623,
4507,
4450,
4507,
4311,
4326,
4414,
4290,
4279,
4127,
4078,
4178,
4084,
3911,
3910,
4022,
3813,
3984,
3889,
3762,
3737,
3749,
3572,
3611,
3548,
3483,
3657,
3490,
3420,
3397,
3345,
3250,
3350,
3339,
3621,
4106,
4843,
5716,
6616,
7255,
7089,
6687,
5692,
4669,
3876,
3346,
2968,
2637,
2688,
2649,
2595,
2544,
2497,
2561,
2398,
2405,
2328,
2365,
2297,
2203,
2175,
2173,
2171,
2093,
2075,
2014,
1978,
1933,
1993,
1995,
1877,
1859,
1866,
1656,
1793,
1770,
1716,
1620,
1639,
1632,
1682,
1703,
1677,
1871,
2010,
1999,
1987,
1763,
1799,
1667,
1442,
1357,
1258,
1234,
1157,
1221,
1155,
1093,
1113,
1035,
960,
1014,
999,
879,
981,
895,
858,
905,
805,
728,
784,
753,
681,
734,
655,
647,
580,
600,
569,
571,
500,
521,
486,
433,
460,
453,
394,
395,
343,
308,
292,
260,
242,
252,
201,
194,
151,
121,
120,
84,
62,
73,
38,
34,
32,
25,
23,
16,
22,
23,
16,
22,
23,
22,
16,
18,
29,
13,
22,
16,
14,
19,
22,
20,
13,
13,
13,
15,
18,
13,
13,
21,
16,
13,
14,
15,
8,
15,
15,
9,
14,
9,
19,
17,
19,
10,
18,
13,
14,
15,
14,
9,
12,
12,
16,
10,
9,
8,
12,
13,
13,
8,
12,
12,
8,
16,
23,
16,
17,
14,
18,
14,
7,
15,
19,
12,
11,
9,
8,
8,
11,
12,
10,
10,
8,
11,
5,
11,
4,
11,
16,
5,
7,
8,
3,
9,
9,
9,
9,
13,
7,
9,
5,
11,
5,
7,
9,
10,
8,
9,
14,
9,
11,
4,
13,
5,
4,
6,
5,
4,
8,
7,
6,
4,
3,
5,
11,
5,
4,
7,
5,
3,
3,
5,
8,
6,
6,
1,
5,
4,
6,
6,
3,
4,
2,
5,
2,
6,
0,
4,
2,
4,
5,
0,
3,
2,
2,
3,
4,
5,
2,
0,
2,
3,
5,
0,
4,
3,
2,
0,
2,
2,
2,
1,
3,
3,
2,
3,
1,
2,
2,
3,
2,
1,
5,
2,
2,
3,
2,
2,
1,
1,
1,
3,
1,
1,
2,
1,
0,
1,
2,
2,
1,
0,
2,
1,
2,
1,
0,
1,
1,
2,
1,
1,
2,
3,
1,
0,
1,
0,
3,
1,
0,
0,
3,
1,
0,
0,
3,
0,
0,
1,
1,
1,
0,
0,
3,
1,
1,
1,
0,
2,
2,
1,
2,
1,
0,
0,
1,
3,
1,
1,
0,
2,
3,
3,
0,
1,
0,
1,
1,
0,
2,
2,
1,
0,
0,
3,
1,
0,
1,
1,
0,
0,
1,
1,
1,
1,
0,
1,
1,
1,
1,
4,
0,
1,
0,
0,
0,
0,
0,
0,
0,
0,
1,
0,
1,
0,
0,
0,
0,
0,
0,
1,
0,
1,
1,
0,
0,
0,
0,
1,
0,
0,
0,
0,
1,
0,
1,
1,
0,
0,
0,
0,
1,
0,
1,
1,
1,
0,
1,
0,
0,
2,
0,
0,
0,
0,
0,
1,
0,
0,
1,
0,
0,
0,
1,
0,
0,
0,
0,
0,
0,
0,
0,
0,
0,
0,
0,
0,
0,
1,
0,
0,
0,
0,
0,
0,
1,
0,
0,
0,
0,
0,
0,
0,
0,
0,
0,
1,
0,
0,
0,
0,
0,
1,
1,
1,
0,
0,
0,
0,
0,
1,
0,
0,
0,
0,
0,
0,
0,
0,
0,
0,
0,
0,
0,
0,
0,
0,
0,
0,
0,
0,
0,
0,
0,
0,
0,
0,
0,
0,
0,
0,
0,
0,
0,
0,
0,
0,
0,
0,
0,
0,
0,
0,
0,
0,
0,
0,
0,
0,
0,
0,
0,
0,
0,
0,
0,
0,
0,
0,
0,
0,
0,
0,
0,
0,
0,
0,
0,
0,
0,
0,
0,
0,
0,
0,
0,
0,
0,
0,
0,
0,
0,
0,
0,
0,
0,
0,
0,
0,
0,
0,
0,
0,
0,
0,
0,
0,
0,
0,
0,
0,
0,
0,
0,
0,
0,
0,
0,
0,
0,
0,
0,
0,
0,
0,
0,
0,
0,
0,
0,
0,
0,
0,
0,
0,
0,
0,
0,
0,
0,
0,
0,
0,
0,
0,
0,
0,
0,
0,
0,
0,
0,
0,
0,
0,
0,
0,
0,
0,
0,
0,
0,
0,
0,
0,
0,
0,
0,
0,
0,
0,
0,
0,
0,
0,
0,
0,
0,
0,
0,
0,
0,
0,
0,
0,
0,
0,
0,
0,
0,
0,
0,
0,
0,
0,
0,
0,
0,
0,
0,
0,
0,
0,
0,
0,
0,
0,
0,
0,
0,
0,
0,
0,
0,
0,
0,
0,
0,
0,
0,
0,
0,
0,
0,
0,
0,
0,
0,
0,
0,
0,
0,
0,
0,
0,
0,
0,
0,
0,
0,
0,
0,
0,
0,
0,
0,
0,
0,
0,
0,
0,
0,
0,
0,
0,
0,
0,
0,
0,
0,
0,
0,
0,
0,
0,
0,
0,
0,
0,
0,
0,
0,
0,
0,
0,
0,
0,
0,
0,
0,
0,
0,
0,
0,
0,
0,
0,
0,
0,
0,
0,
0,
0,
0,
0,
0,
0,
0,
0,
0,
0,
0,
0,
0,
0,
0,
0,
0,
0,
0,
0,
0,
0,
0,
0,
0,
0,
0,
0,
0,
0,
0,
0,
0,
0,
0,
0,
0,
0,
0,
0,
0,
0,
0,
0,
0,
0,
0,
0,
0,
0,
0,
0,
0,
0,
0,
0,
0,
0,
0,
0,
0,
0,
0,
0,
0,
0,
0,
0,
0,
0,
0,
0,
0,
0,
0,
0,
0,
0,
0,
0,
0,
0,
0,
0,
0,
0,
0,
0,
0,
0,
0,
0,
0,
0,
0,
0,
0,
0,
0,
0,
0,
0,
0,
0,
0,
0,
0,
0,
0,
0,
0,
0,
0,
0,
0,
0,
0,
0,
0,
0,
0,
0,
0,
0,
0,
0,
0,
0,
0,
0,
0,
0,
0,
0,
0,
0,
0,
0,
0,
0,
0,
0,
0,
0,
0,
0,
0,
0,
0,
0,
0,
0,
0,
0,
0,
0,
0,
0,
0,
0,
0,
0,
0,
0,
0,
0,
0,
0,
0,
0,
0,
0,
0,
0,
0,
0,
0,
0,
0,
0,
0,
0,
0,
0,
0,
0,
0,
0,
0,
0,
0,
0,
0,
0,
0,
#ENDOFDATA   :