File: N132962/Standards/15 keV/CsI std.msa
#FORMAT      : EMSA/MAS Spectral Data File
#VERSION     : 1.0
#TITLE       : CsI standard for 'N132962' detector
#NPOINTS     : 4096
#NCOLUMNS    : 1
#XUNITS      : eV
#YUNITS      : counts
#DATATYPE    : Y
#SIGNALTYPE  : EDS
#XLABEL      : Energy (eV)
#YLABEL      : Counts
#XPERCHAN -eV: 9.99778
#OFFSET   -eV: 1.69135
#CHOFFSET    : 0
#DATE        : 29-Sep-2025
#TIME        : 11:15:00
#OWNER       : Unknown
#ELEVANGLE   : 35
#BEAMKV   -kV: 15
#LIVETIME  -s: 1920.36
#REALTIME  -s: 2089.06
#PROBECUR -nA: 1.22564
##WORKING -mm: 15
##D2STDCMP   : CsI,(I:48.8451),(Cs:51.1549)
##SIMILAR    : 1.4
#SPECTRUM    :
234,
249,
144,
711,
6883,
32496,
77956,
127802,
193997,
210333,
144725,
108932,
105206,
110568,
145648,
250003,
369113,
385763,
382763,
336610,
217727,
134587,
91860,
86452,
88047,
74982,
62919,
64888,
68028,
70308,
79807,
84320,
75618,
67114,
61415,
55573,
50508,
48813,
49707,
51126,
52415,
53009,
54441,
55225,
56156,
57867,
58541,
59996,
61530,
62193,
63894,
63373,
63218,
63385,
64939,
66102,
68497,
72160,
75018,
74571,
72259,
69054,
64611,
62428,
61298,
62313,
62121,
62754,
62558,
62316,
63785,
64488,
66238,
68310,
67212,
64423,
63466,
63030,
62515,
62341,
62610,
62944,
64407,
66097,
66456,
65111,
63748,
61864,
60270,
59905,
60124,
59593,
59009,
59921,
59264,
58721,
58944,
58108,
57197,
56492,
56565,
56216,
55568,
55603,
54601,
54461,
54538,
53957,
53406,
52876,
53018,
52714,
53148,
54584,
58741,
65713,
71066,
69196,
62129,
55321,
51477,
50265,
50863,
52724,
58746,
68912,
79801,
93916,
136175,
255365,
444451,
581874,
537706,
352674,
177744,
89946,
64634,
75479,
120833,
219465,
376103,
558188,
688874,
681758,
525424,
315115,
159569,
91604,
85045,
105918,
132413,
155363,
186091,
230705,
258733,
238230,
183273,
134790,
105791,
92956,
84700,
78170,
77871,
88479,
102701,
104051,
88884,
68760,
55304,
47529,
41476,
37445,
35840,
37895,
44163,
52097,
56148,
52627,
43416,
34940,
30234,
29547,
31451,
34542,
37523,
38220,
35876,
32676,
29753,
28220,
27697,
27375,
26232,
25847,
25538,
25182,
24678,
24451,
24816,
24622,
24470,
24629,
24498,
24347,
24035,
23817,
23913,
23714,
23563,
23874,
23681,
23739,
24212,
24333,
23952,
23589,
23418,
22817,
22755,
22450,
22291,
22306,
22127,
22026,
21880,
21865,
21598,
21566,
21417,
21228,
21290,
21209,
21184,
21003,
20569,
20954,
20548,
20719,
20426,
20231,
20095,
19827,
19911,
19754,
19448,
19516,
19300,
19613,
19537,
19284,
19318,
18876,
18939,
18474,
18454,
18527,
18247,
18157,
18044,
18118,
18128,
17952,
17732,
17619,
17636,
17689,
17338,
17516,
17406,
17418,
17084,
17297,
16877,
16921,
16576,
16358,
16535,
16012,
15697,
15862,
15681,
15641,
15838,
16032,
15417,
15844,
15601,
15459,
15366,
15102,
14747,
14504,
14721,
14458,
14451,
14252,
14193,
14265,
13981,
13871,
13597,
13586,
13688,
13314,
13100,
13352,
12994,
13068,
13021,
12629,
12763,
12445,
12453,
12322,
12491,
12300,
12171,
11999,
11912,
11872,
12021,
11589,
11522,
11652,
11361,
11239,
11235,
11191,
10881,
11028,
10930,
10632,
10704,
10547,
10677,
10491,
10365,
10139,
10252,
10053,
9957,
9871,
10054,
9776,
9736,
9691,
9472,
9360,
9270,
9096,
9385,
9010,
8973,
8814,
8887,
8752,
8668,
8675,
8455,
8308,
8393,
8260,
8302,
8061,
8141,
7795,
7861,
7840,
7702,
7680,
7550,
7383,
7286,
7167,
7152,
7090,
6927,
7027,
6891,
6748,
6765,
6711,
6470,
6511,
6549,
6395,
6374,
6233,
6120,
6083,
5868,
5933,
5866,
5879,
5546,
5660,
5562,
5439,
5407,
5381,
5236,
5222,
5127,
5055,
5093,
4996,
4829,
4758,
4640,
4863,
4559,
4565,
4469,
4440,
4420,
4362,
4263,
4182,
4152,
3998,
4000,
3947,
3943,
3820,
3825,
3537,
3676,
3522,
3545,
3415,
3425,
3386,
3340,
3312,
3191,
3054,
3139,
2994,
2876,
2919,
2883,
2811,
2684,
2636,
2542,
2550,
2571,
2491,
2468,
2328,
2317,
2280,
2158,
2208,
2098,
2110,
2024,
2028,
1871,
1868,
1795,
1791,
1737,
1632,
1587,
1619,
1604,
1516,
1406,
1369,
1338,
1322,
1262,
1216,
1188,
1073,
1065,
1090,
984,
991,
846,
860,
762,
692,
744,
624,
634,
550,
507,
505,
470,
385,
337,
257,
265,
183,
156,
120,
104,
92,
62,
54,
47,
40,
48,
42,
44,
47,
53,
37,
46,
46,
37,
42,
30,
43,
46,
45,
38,
38,
35,
37,
35,
40,
33,
37,
43,
39,
41,
32,
36,
32,
31,
35,
38,
33,
26,
31,
29,
22,
27,
23,
19,
30,
23,
25,
22,
25,
29,
36,
20,
25,
21,
24,
24,
25,
27,
22,
17,
17,
21,
35,
36,
44,
23,
23,
19,
31,
31,
24,
24,
27,
25,
30,
26,
33,
25,
30,
18,
32,
27,
32,
19,
23,
28,
19,
23,
27,
20,
26,
11,
22,
25,
21,
28,
19,
18,
15,
15,
15,
24,
12,
13,
18,
12,
12,
13,
14,
13,
15,
5,
10,
14,
12,
8,
10,
12,
3,
13,
15,
12,
7,
11,
7,
8,
14,
6,
8,
12,
7,
8,
10,
10,
7,
10,
5,
12,
8,
11,
7,
11,
9,
8,
6,
8,
6,
9,
9,
11,
6,
10,
2,
6,
11,
2,
4,
6,
2,
3,
4,
5,
6,
7,
5,
4,
5,
1,
3,
7,
6,
3,
8,
4,
6,
7,
4,
2,
2,
4,
1,
7,
5,
2,
6,
5,
2,
0,
4,
4,
5,
4,
4,
2,
4,
2,
5,
1,
7,
6,
1,
5,
4,
4,
2,
1,
3,
4,
4,
6,
1,
1,
3,
1,
1,
3,
4,
1,
5,
1,
4,
2,
2,
4,
1,
3,
6,
2,
0,
1,
2,
1,
1,
1,
1,
3,
3,
1,
2,
1,
4,
0,
3,
0,
2,
0,
2,
2,
3,
2,
1,
5,
0,
2,
0,
4,
1,
2,
1,
2,
0,
0,
0,
0,
2,
0,
0,
2,
5,
0,
1,
0,
1,
1,
1,
1,
0,
1,
2,
0,
0,
3,
3,
1,
2,
2,
1,
1,
0,
2,
0,
1,
0,
0,
1,
1,
3,
0,
1,
0,
0,
1,
0,
2,
1,
0,
0,
1,
2,
1,
1,
0,
0,
0,
2,
2,
0,
0,
0,
0,
2,
1,
1,
0,
0,
0,
0,
0,
1,
0,
0,
0,
0,
0,
0,
1,
0,
3,
0,
1,
1,
0,
0,
0,
1,
0,
0,
0,
0,
0,
0,
0,
0,
1,
0,
0,
1,
1,
0,
0,
0,
0,
0,
0,
1,
0,
0,
0,
0,
0,
0,
0,
0,
0,
0,
0,
0,
0,
0,
0,
0,
1,
0,
0,
0,
0,
0,
0,
0,
0,
0,
0,
0,
0,
0,
0,
0,
0,
0,
0,
0,
0,
0,
0,
0,
0,
0,
0,
0,
0,
0,
0,
0,
0,
0,
0,
0,
0,
0,
0,
0,
0,
0,
0,
0,
0,
0,
0,
0,
0,
0,
1,
0,
0,
0,
0,
0,
0,
0,
0,
0,
1,
0,
0,
0,
0,
0,
0,
0,
0,
0,
0,
0,
0,
0,
0,
0,
0,
0,
0,
0,
0,
0,
0,
0,
0,
0,
0,
0,
0,
0,
0,
0,
0,
0,
0,
0,
0,
0,
0,
0,
0,
0,
0,
0,
0,
0,
0,
0,
0,
0,
0,
0,
0,
0,
0,
0,
0,
0,
0,
0,
0,
0,
0,
0,
0,
0,
0,
0,
0,
0,
0,
0,
0,
0,
0,
0,
0,
0,
0,
0,
0,
0,
0,
0,
0,
0,
0,
0,
0,
0,
0,
0,
0,
0,
0,
0,
0,
0,
0,
0,
0,
0,
0,
0,
0,
0,
0,
0,
0,
0,
0,
0,
0,
0,
0,
0,
0,
0,
0,
0,
0,
0,
0,
0,
0,
0,
0,
0,
0,
0,
0,
0,
0,
0,
0,
0,
0,
0,
0,
0,
0,
0,
0,
0,
0,
0,
0,
0,
0,
0,
0,
0,
0,
0,
0,
0,
0,
0,
0,
0,
0,
0,
0,
0,
0,
0,
0,
0,
0,
0,
0,
0,
0,
0,
0,
0,
0,
0,
0,
0,
0,
0,
0,
0,
0,
0,
0,
0,
0,
0,
0,
0,
0,
0,
0,
0,
0,
0,
0,
0,
0,
0,
0,
0,
0,
0,
0,
0,
0,
0,
0,
0,
0,
0,
0,
0,
0,
0,
0,
0,
0,
0,
0,
0,
0,
0,
0,
0,
0,
0,
0,
0,
0,
0,
0,
0,
0,
0,
0,
0,
0,
0,
0,
0,
0,
0,
0,
0,
0,
0,
0,
0,
0,
0,
0,
0,
0,
0,
0,
0,
0,
0,
0,
0,
0,
0,
0,
0,
0,
0,
0,
0,
0,
0,
0,
0,
0,
0,
0,
0,
0,
0,
0,
0,
0,
0,
0,
0,
0,
0,
0,
0,
0,
0,
0,
0,
0,
0,
0,
0,
0,
0,
0,
0,
0,
0,
0,
0,
0,
0,
0,
0,
0,
0,
0,
0,
0,
0,
0,
0,
0,
0,
0,
0,
0,
0,
0,
0,
0,
0,
0,
0,
0,
0,
0,
0,
0,
0,
0,
0,
0,
0,
0,
0,
0,
0,
0,
0,
0,
0,
0,
0,
0,
0,
0,
0,
0,
0,
0,
0,
0,
0,
0,
0,
0,
0,
0,
0,
0,
0,
0,
0,
0,
0,
0,
0,
0,
0,
0,
0,
0,
0,
0,
0,
0,
0,
0,
0,
0,
0,
0,
0,
0,
0,
0,
0,
0,
0,
0,
0,
0,
0,
0,
0,
0,
0,
0,
0,
0,
0,
0,
0,
0,
0,
0,
0,
0,
0,
0,
0,
0,
0,
0,
0,
0,
0,
#ENDOFDATA   :