File: N132962/Standards/15 keV/Cu std.msa
#FORMAT      : EMSA/MAS Spectral Data File
#VERSION     : 1.0
#TITLE       : Cu standard for 'N132962' detector
#NPOINTS     : 4096
#NCOLUMNS    : 1
#XUNITS      : eV
#YUNITS      : counts
#DATATYPE    : Y
#SIGNALTYPE  : EDS
#XLABEL      : Energy (eV)
#YLABEL      : Counts
#XPERCHAN -eV: 9.99778
#OFFSET   -eV: 1.69135
#CHOFFSET    : 0
#DATE        : 28-Sep-2025
#TIME        : 20:12:00
#OWNER       : Unknown
#ELEVANGLE   : 35
#BEAMKV   -kV: 15
#LIVETIME  -s: 1440.39
#REALTIME  -s: 1577.46
#PROBECUR -nA: 1.21481
##WORKING -mm: 15
##D2STDCMP   : Cu,(Cu:100.0000)
##SIMILAR    : 1.2
#SPECTRUM    :
164,
160,
58,
177,
963,
3924,
11363,
33897,
88430,
112429,
62144,
35022,
35147,
38692,
42427,
50255,
66324,
82771,
77795,
67443,
67829,
73059,
79206,
88789,
105171,
163160,
313144,
436519,
441597,
887430,
2374245,
3290411,
1984350,
546880,
102315,
37738,
25984,
23143,
23089,
23621,
24422,
25167,
25244,
25912,
26838,
27108,
27822,
29502,
32767,
36629,
37831,
34284,
32094,
31836,
32165,
33135,
35252,
38217,
40541,
41168,
42104,
44629,
45002,
40249,
34818,
32175,
31563,
31461,
31699,
31642,
31591,
31259,
31382,
31642,
31442,
31265,
31689,
31635,
31663,
31279,
31234,
30545,
31000,
30636,
30609,
30643,
30872,
30679,
30444,
30152,
29765,
29576,
29495,
29333,
28991,
28766,
28730,
28615,
28282,
28109,
27937,
28173,
27738,
27376,
26924,
27111,
26873,
26669,
26440,
26414,
26318,
25865,
25826,
25272,
25021,
24822,
25068,
25115,
25027,
24349,
24534,
24085,
24199,
24048,
23540,
23528,
23175,
23022,
22634,
22195,
22354,
22566,
22077,
21874,
22004,
21463,
21601,
21183,
21229,
20889,
20944,
20314,
20566,
20559,
19928,
19963,
19906,
19919,
19287,
19513,
18949,
18925,
18890,
18614,
18358,
18261,
18320,
18024,
17852,
17970,
17748,
17749,
17591,
17262,
16975,
17154,
17087,
16847,
16690,
16714,
16433,
16154,
16089,
15754,
15847,
15648,
15799,
15462,
15612,
15571,
15261,
15414,
15120,
14832,
14623,
14570,
14529,
14361,
14330,
14101,
14009,
13979,
13869,
13783,
13778,
13691,
13497,
13518,
13379,
13292,
13100,
12803,
12847,
12923,
12430,
12712,
12791,
12616,
12835,
12897,
12884,
12955,
12920,
12995,
12551,
12346,
11673,
11560,
11172,
11520,
11351,
11076,
10883,
11038,
10824,
10907,
10763,
10535,
10460,
10542,
10493,
10241,
10124,
10179,
10140,
10117,
10144,
9744,
9788,
9496,
9620,
9667,
9301,
9450,
9232,
8972,
9172,
9244,
9200,
9200,
8947,
9076,
9166,
8829,
8601,
8826,
8699,
8797,
8935,
9252,
9548,
11139,
16220,
31423,
66535,
128670,
211498,
284946,
310549,
272092,
193302,
111828,
54700,
24897,
12936,
9077,
7817,
7488,
7412,
7332,
7140,
7143,
7177,
7035,
7025,
6893,
7136,
7093,
7068,
7414,
7894,
9053,
11905,
17682,
26351,
36990,
44705,
46180,
39987,
29575,
19726,
12315,
8301,
6277,
5543,
5377,
5090,
4966,
5079,
4985,
4884,
4955,
4856,
4825,
4747,
4649,
4560,
4756,
4625,
4723,
4671,
4769,
4631,
4546,
4661,
4550,
4599,
4696,
4643,
4499,
4406,
4375,
4272,
4140,
4268,
4113,
4105,
4049,
4035,
4054,
3882,
3832,
3797,
3756,
3759,
3772,
3624,
3711,
3590,
3529,
3577,
3483,
3427,
3384,
3401,
3470,
3508,
3389,
3288,
3209,
3285,
3257,
3038,
3081,
3199,
3024,
2993,
3044,
2969,
2863,
2927,
2920,
2785,
2835,
2817,
2658,
2686,
2641,
2667,
2617,
2596,
2520,
2554,
2496,
2534,
2467,
2389,
2357,
2313,
2339,
2227,
2221,
2247,
2202,
2142,
2136,
2109,
2029,
2051,
2033,
1976,
2059,
1847,
2002,
1898,
1715,
1885,
1757,
1745,
1779,
1790,
1714,
1755,
1672,
1550,
1571,
1617,
1541,
1452,
1516,
1498,
1482,
1409,
1423,
1332,
1354,
1276,
1346,
1323,
1192,
1223,
1220,
1223,
1180,
1184,
1103,
1149,
1059,
1096,
1019,
1007,
979,
955,
1018,
919,
952,
885,
890,
850,
871,
823,
815,
794,
729,
687,
703,
684,
682,
684,
658,
621,
611,
613,
562,
574,
581,
533,
501,
502,
469,
478,
461,
466,
391,
396,
365,
365,
357,
346,
307,
312,
324,
280,
253,
242,
191,
216,
172,
181,
173,
178,
147,
112,
114,
87,
85,
68,
51,
44,
39,
24,
21,
13,
17,
13,
18,
16,
15,
12,
14,
14,
21,
14,
12,
16,
9,
11,
11,
16,
13,
10,
10,
10,
11,
5,
15,
17,
8,
12,
15,
21,
26,
43,
59,
58,
67,
107,
75,
66,
52,
33,
25,
21,
14,
11,
7,
7,
11,
8,
13,
5,
12,
12,
9,
7,
10,
4,
8,
10,
17,
19,
16,
33,
34,
41,
40,
46,
47,
24,
18,
19,
13,
12,
10,
12,
6,
8,
9,
3,
4,
9,
8,
9,
11,
8,
4,
6,
12,
7,
5,
7,
12,
6,
14,
9,
9,
5,
6,
14,
7,
7,
12,
8,
4,
3,
7,
4,
5,
11,
9,
5,
5,
4,
4,
8,
5,
4,
6,
6,
4,
3,
6,
7,
2,
4,
6,
5,
5,
6,
10,
2,
3,
3,
8,
1,
1,
2,
3,
3,
4,
6,
3,
4,
3,
2,
4,
3,
1,
1,
3,
4,
5,
4,
6,
4,
5,
5,
4,
1,
1,
1,
3,
3,
3,
2,
4,
0,
5,
3,
2,
5,
3,
2,
3,
0,
5,
1,
2,
1,
1,
1,
4,
5,
4,
3,
1,
1,
5,
4,
1,
3,
5,
1,
1,
2,
2,
5,
1,
3,
2,
2,
1,
0,
1,
5,
2,
2,
2,
2,
3,
1,
2,
0,
2,
1,
2,
3,
1,
0,
0,
0,
1,
1,
3,
2,
0,
0,
0,
1,
2,
0,
3,
0,
0,
1,
0,
0,
1,
3,
1,
0,
1,
1,
0,
0,
1,
0,
2,
0,
1,
0,
0,
2,
0,
0,
0,
0,
0,
1,
2,
0,
0,
0,
0,
1,
0,
0,
0,
1,
0,
0,
1,
0,
0,
0,
0,
0,
0,
0,
0,
2,
0,
0,
0,
0,
0,
0,
0,
0,
0,
0,
0,
0,
1,
1,
0,
0,
0,
0,
0,
1,
0,
0,
0,
1,
0,
0,
0,
0,
2,
0,
0,
0,
0,
0,
0,
0,
0,
0,
0,
0,
0,
0,
0,
0,
0,
1,
0,
0,
0,
2,
0,
0,
0,
0,
0,
1,
0,
0,
0,
0,
0,
0,
0,
0,
1,
0,
0,
0,
0,
0,
0,
0,
0,
0,
0,
0,
0,
0,
0,
0,
0,
0,
0,
0,
0,
0,
0,
0,
0,
0,
0,
0,
0,
0,
0,
0,
0,
0,
0,
0,
0,
0,
0,
0,
0,
1,
0,
0,
0,
0,
0,
0,
1,
0,
0,
0,
0,
0,
0,
0,
0,
0,
0,
0,
0,
0,
0,
0,
0,
0,
0,
0,
0,
0,
0,
0,
0,
0,
0,
0,
0,
0,
0,
0,
0,
0,
0,
0,
0,
0,
0,
0,
0,
0,
0,
0,
0,
0,
0,
0,
0,
0,
0,
0,
0,
0,
0,
0,
0,
0,
0,
0,
0,
0,
0,
0,
0,
0,
0,
0,
0,
0,
0,
0,
0,
0,
0,
0,
0,
0,
0,
0,
0,
0,
0,
0,
0,
0,
0,
0,
0,
0,
0,
0,
0,
0,
0,
0,
0,
0,
0,
0,
0,
0,
0,
0,
0,
0,
0,
0,
0,
0,
0,
0,
0,
0,
0,
0,
0,
0,
0,
0,
0,
0,
0,
0,
0,
0,
0,
0,
0,
0,
0,
0,
0,
0,
0,
0,
0,
0,
0,
0,
0,
0,
0,
0,
0,
0,
0,
0,
0,
0,
0,
0,
0,
0,
0,
0,
0,
0,
0,
0,
0,
0,
0,
0,
0,
0,
0,
0,
0,
0,
0,
0,
0,
0,
0,
0,
0,
0,
0,
0,
0,
0,
0,
0,
0,
0,
0,
0,
0,
0,
0,
0,
0,
0,
0,
0,
0,
0,
0,
0,
0,
0,
0,
0,
0,
0,
0,
0,
0,
0,
0,
0,
0,
0,
0,
0,
0,
0,
0,
0,
0,
0,
0,
0,
0,
0,
0,
0,
0,
0,
0,
0,
0,
0,
0,
0,
0,
0,
0,
0,
0,
0,
0,
0,
0,
0,
0,
0,
0,
0,
0,
0,
0,
0,
0,
0,
0,
0,
0,
0,
0,
0,
0,
0,
0,
0,
0,
0,
0,
0,
0,
0,
0,
0,
0,
0,
0,
0,
0,
0,
0,
0,
0,
0,
0,
0,
0,
0,
0,
0,
0,
0,
0,
0,
0,
0,
0,
0,
0,
0,
0,
0,
0,
0,
0,
0,
0,
0,
0,
0,
0,
0,
0,
0,
0,
0,
0,
0,
0,
0,
0,
0,
0,
0,
0,
0,
0,
0,
0,
0,
0,
0,
0,
0,
0,
0,
0,
0,
0,
0,
0,
0,
0,
0,
0,
0,
0,
0,
0,
0,
0,
0,
0,
0,
0,
0,
0,
0,
0,
0,
0,
0,
0,
0,
0,
0,
0,
0,
0,
0,
0,
0,
0,
0,
0,
0,
0,
0,
0,
0,
0,
0,
0,
0,
0,
0,
0,
0,
0,
0,
0,
0,
0,
0,
0,
0,
0,
0,
0,
0,
0,
0,
0,
0,
0,
0,
0,
0,
0,
0,
0,
0,
0,
0,
0,
0,
0,
0,
0,
0,
0,
0,
0,
0,
0,
0,
0,
0,
0,
0,
0,
0,
0,
0,
0,
0,
0,
0,
0,
0,
0,
0,
0,
0,
0,
0,
0,
0,
0,
0,
0,
0,
0,
0,
0,
0,
0,
0,
0,
0,
0,
0,
0,
0,
0,
0,
0,
0,
0,
0,
0,
0,
0,
#ENDOFDATA   :