File: N132962/Standards/15 keV/Dy std.msa
#FORMAT      : EMSA/MAS Spectral Data File
#VERSION     : 1.0
#TITLE       : Dy standard for 'N132962' detector
#NPOINTS     : 4096
#NCOLUMNS    : 1
#XUNITS      : eV
#YUNITS      : counts
#DATATYPE    : Y
#SIGNALTYPE  : EDS
#XLABEL      : Energy (eV)
#YLABEL      : Counts
#XPERCHAN -eV: 9.99778
#OFFSET   -eV: 1.69135
#CHOFFSET    : 0
#DATE        : 26-Sep-2025
#TIME        : 17:32:00
#OWNER       : Unknown
#ELEVANGLE   : 35
#BEAMKV   -kV: 15
#LIVETIME  -s: 1440.73
#REALTIME  -s: 1565.95
#PROBECUR -nA: 1.21629
##WORKING -mm: 15
##D2STDCMP   : Dy,(Dy:100.0000)
##SIMILAR    : 3.1
#SPECTRUM    :
150,
165,
69,
361,
2016,
6733,
15841,
36818,
74963,
92627,
66935,
55196,
57927,
59906,
62383,
79371,
138058,
206212,
166455,
91900,
75796,
92751,
121051,
119518,
93313,
81634,
81422,
84569,
88095,
90716,
99087,
135439,
237305,
337662,
288582,
168476,
107946,
93833,
92522,
96153,
116702,
191574,
370779,
577714,
592238,
369196,
149161,
63856,
53691,
66114,
81816,
78185,
61247,
50445,
50881,
55516,
58432,
56451,
53191,
48905,
45502,
41486,
38087,
36837,
36634,
37111,
37959,
38862,
38828,
38618,
37882,
38067,
38111,
38603,
38969,
39563,
39778,
40761,
40455,
39804,
39605,
40397,
40295,
40203,
40344,
40500,
41186,
41525,
41864,
40837,
40449,
40376,
39931,
40718,
40073,
40506,
40196,
39991,
40167,
41021,
40692,
40257,
39592,
39999,
40006,
39744,
39701,
39575,
39237,
39192,
38978,
38989,
38680,
38468,
38173,
38270,
38054,
38178,
38090,
37514,
37930,
37821,
37645,
37515,
37082,
36969,
36683,
36655,
36288,
36110,
35743,
35912,
35606,
35524,
35505,
34870,
35191,
34832,
34342,
34467,
34033,
33735,
33693,
33384,
33529,
33326,
33295,
33190,
32564,
32785,
32423,
32385,
31993,
32257,
31657,
32149,
32052,
32271,
32209,
31667,
31369,
30847,
30613,
30138,
30040,
29789,
29723,
29358,
29262,
29116,
28870,
28747,
28778,
28436,
28401,
28340,
28066,
28007,
27880,
28079,
28013,
28053,
27674,
27503,
27184,
26991,
26892,
27303,
28885,
31191,
35152,
37557,
37864,
34512,
30336,
27996,
26277,
25569,
24927,
24730,
24971,
24265,
24130,
23905,
24196,
23872,
23859,
24157,
24240,
24906,
27115,
34211,
55053,
100751,
174882,
261605,
315787,
301451,
228268,
140763,
75258,
40515,
27323,
23136,
21833,
21590,
20896,
20780,
20542,
20352,
20282,
20049,
20411,
20240,
20906,
21812,
24877,
33223,
51082,
80636,
113180,
134824,
134972,
113144,
85650,
62759,
48098,
38225,
30788,
26836,
27288,
34362,
45896,
58160,
65984,
63057,
52064,
38596,
27746,
21227,
17967,
16291,
15548,
14901,
14539,
14393,
14195,
14399,
14364,
14546,
14650,
14721,
14783,
14689,
14697,
15016,
16683,
19575,
24243,
28255,
30741,
30079,
26393,
21372,
17655,
15215,
14228,
14506,
15418,
16634,
17512,
17854,
17555,
15909,
14272,
13123,
12265,
12354,
12268,
12323,
12235,
12186,
11841,
11581,
11130,
10990,
10684,
10702,
10617,
10565,
10469,
10538,
10400,
10213,
10147,
10129,
10109,
10131,
9943,
9870,
9836,
9808,
9679,
9692,
9729,
9529,
9524,
9340,
9377,
9267,
9193,
9293,
9262,
9254,
8994,
8796,
8881,
8748,
8856,
8730,
8442,
8544,
8219,
8328,
8258,
8149,
8234,
8108,
8090,
7846,
7969,
7828,
7789,
7830,
7492,
7597,
7465,
7335,
7318,
7298,
7139,
7100,
7001,
7057,
7094,
6903,
6747,
6798,
6604,
6590,
6632,
6510,
6384,
6403,
6333,
6198,
6306,
6008,
5988,
5956,
6082,
5854,
5643,
5754,
5748,
5545,
5400,
5525,
5564,
5395,
5256,
5231,
5186,
5154,
5061,
4872,
5027,
4900,
4856,
4840,
4794,
4729,
4674,
4629,
4449,
4445,
4358,
4279,
4344,
4258,
4166,
4100,
4110,
4048,
3856,
3876,
3727,
3802,
3664,
3626,
3670,
3576,
3511,
3506,
3425,
3360,
3296,
3215,
3152,
3189,
3124,
3213,
3083,
3007,
3087,
2928,
2834,
2747,
2790,
2627,
2607,
2500,
2484,
2436,
2500,
2435,
2382,
2282,
2256,
2151,
2121,
2057,
2043,
2006,
1968,
1916,
1964,
1874,
1766,
1788,
1752,
1712,
1700,
1601,
1559,
1481,
1439,
1423,
1302,
1380,
1304,
1245,
1176,
1181,
1150,
1017,
982,
985,
917,
874,
873,
804,
799,
721,
702,
646,
632,
584,
552,
486,
484,
412,
369,
355,
308,
291,
226,
216,
161,
102,
116,
80,
63,
48,
39,
56,
44,
38,
53,
48,
49,
29,
44,
42,
32,
31,
32,
38,
42,
36,
38,
47,
40,
36,
33,
27,
44,
25,
34,
38,
31,
19,
30,
21,
37,
26,
34,
21,
30,
14,
31,
33,
28,
27,
27,
24,
30,
35,
26,
25,
23,
27,
34,
21,
29,
27,
29,
21,
22,
22,
26,
27,
32,
32,
37,
18,
25,
33,
31,
31,
31,
29,
35,
30,
30,
26,
27,
34,
26,
27,
32,
24,
19,
31,
32,
13,
23,
20,
31,
19,
30,
25,
24,
16,
28,
27,
25,
22,
18,
23,
25,
13,
23,
22,
24,
18,
20,
21,
16,
20,
30,
13,
18,
16,
17,
17,
22,
18,
16,
14,
12,
16,
22,
28,
15,
21,
6,
11,
15,
16,
16,
18,
10,
5,
19,
11,
12,
10,
10,
11,
13,
13,
8,
13,
13,
13,
7,
10,
17,
14,
11,
11,
5,
14,
14,
8,
15,
2,
14,
12,
11,
6,
9,
13,
11,
7,
7,
6,
8,
7,
11,
8,
7,
5,
3,
5,
7,
8,
6,
9,
5,
7,
5,
5,
6,
5,
8,
5,
4,
6,
5,
5,
12,
5,
8,
8,
4,
4,
4,
5,
5,
6,
9,
2,
4,
1,
4,
4,
4,
4,
5,
4,
0,
0,
4,
10,
5,
2,
3,
5,
1,
0,
2,
5,
0,
6,
3,
3,
2,
1,
2,
3,
3,
4,
5,
3,
2,
1,
1,
3,
3,
1,
4,
0,
1,
0,
0,
2,
1,
1,
2,
4,
3,
0,
2,
1,
3,
1,
0,
0,
2,
2,
2,
0,
1,
1,
0,
2,
2,
2,
1,
0,
5,
0,
0,
1,
2,
0,
1,
1,
3,
1,
1,
0,
1,
0,
0,
1,
1,
0,
2,
0,
0,
1,
0,
0,
0,
0,
0,
0,
1,
0,
1,
0,
0,
2,
0,
1,
1,
0,
1,
2,
2,
0,
1,
0,
2,
0,
1,
1,
0,
1,
0,
1,
1,
0,
0,
2,
2,
0,
0,
1,
0,
1,
3,
1,
0,
0,
0,
0,
0,
0,
1,
0,
0,
0,
0,
0,
1,
1,
0,
0,
0,
0,
1,
2,
0,
0,
0,
0,
0,
1,
0,
0,
1,
0,
1,
0,
1,
0,
0,
0,
0,
0,
1,
0,
0,
0,
1,
0,
1,
0,
0,
0,
0,
1,
0,
0,
0,
1,
0,
0,
0,
0,
1,
0,
1,
0,
0,
0,
0,
1,
0,
0,
0,
0,
0,
0,
0,
0,
0,
0,
0,
0,
0,
0,
0,
0,
0,
0,
0,
0,
0,
0,
0,
0,
0,
0,
0,
0,
0,
0,
0,
0,
0,
0,
0,
0,
0,
0,
0,
1,
0,
0,
0,
0,
0,
0,
0,
0,
0,
0,
0,
0,
0,
0,
0,
0,
0,
0,
0,
0,
0,
0,
0,
0,
0,
0,
0,
0,
0,
0,
0,
0,
0,
0,
0,
1,
0,
0,
0,
0,
0,
0,
0,
0,
0,
0,
0,
0,
0,
0,
0,
0,
0,
0,
0,
0,
0,
0,
0,
0,
0,
0,
0,
0,
0,
0,
0,
0,
0,
0,
0,
0,
0,
0,
0,
0,
0,
0,
0,
0,
0,
0,
0,
0,
0,
0,
0,
0,
0,
0,
0,
0,
0,
0,
0,
0,
0,
0,
0,
0,
0,
0,
0,
0,
0,
0,
0,
0,
0,
0,
0,
0,
0,
0,
0,
0,
0,
0,
0,
0,
0,
0,
0,
0,
0,
0,
0,
0,
0,
0,
0,
0,
0,
0,
0,
0,
0,
0,
0,
0,
0,
0,
0,
0,
0,
0,
0,
0,
0,
0,
0,
0,
0,
0,
0,
0,
0,
0,
0,
0,
0,
0,
0,
0,
0,
0,
0,
0,
0,
0,
0,
0,
0,
0,
0,
0,
0,
0,
0,
0,
0,
0,
0,
0,
0,
0,
0,
0,
0,
0,
0,
0,
0,
0,
0,
0,
0,
0,
0,
0,
0,
0,
0,
0,
0,
0,
0,
0,
0,
0,
0,
0,
0,
0,
0,
0,
0,
0,
0,
0,
0,
0,
0,
0,
0,
0,
0,
0,
0,
0,
0,
1,
0,
0,
0,
0,
0,
0,
0,
0,
0,
0,
0,
0,
0,
0,
0,
0,
0,
0,
0,
0,
0,
0,
0,
0,
0,
0,
0,
0,
0,
0,
0,
0,
0,
0,
0,
0,
0,
0,
0,
0,
0,
0,
0,
0,
0,
0,
0,
0,
0,
0,
0,
0,
0,
0,
0,
0,
0,
0,
0,
0,
0,
0,
0,
0,
0,
0,
0,
0,
0,
0,
0,
0,
0,
0,
0,
0,
0,
0,
0,
0,
0,
0,
0,
0,
0,
0,
0,
0,
0,
0,
0,
0,
0,
0,
0,
0,
0,
0,
0,
0,
0,
0,
0,
0,
0,
0,
0,
0,
0,
0,
0,
0,
0,
0,
0,
0,
0,
0,
0,
0,
0,
0,
0,
0,
0,
0,
0,
0,
0,
0,
0,
0,
0,
0,
0,
0,
0,
0,
0,
0,
0,
0,
0,
0,
0,
0,
0,
0,
0,
0,
0,
0,
0,
0,
0,
0,
0,
0,
0,
0,
0,
0,
0,
0,
0,
0,
0,
0,
0,
0,
0,
0,
0,
0,
0,
0,
0,
0,
0,
0,
0,
0,
0,
0,
0,
0,
0,
0,
0,
0,
0,
0,
#ENDOFDATA   :