File: N132962/Standards/15 keV/DyP5O14 std.msa
#FORMAT      : EMSA/MAS Spectral Data File
#VERSION     : 1.0
#TITLE       : DyP5O14 standard for 'N132962' detector
#NPOINTS     : 4096
#NCOLUMNS    : 1
#XUNITS      : eV
#YUNITS      : counts
#DATATYPE    : Y
#SIGNALTYPE  : EDS
#XLABEL      : Energy (eV)
#YLABEL      : Counts
#XPERCHAN -eV: 9.99778
#OFFSET   -eV: 1.69135
#CHOFFSET    : 0
#DATE        : 17-Mar-2025
#TIME        : 16:09:00
#OWNER       : Unknown
#ELEVANGLE   : 35
#BEAMKV   -kV: 15
#LIVETIME  -s: 718.616
#REALTIME  -s: 757.888
#PROBECUR -nA: 1.02671
##WORKING -mm: 15
##D2STDCMP   : DyP5O14,(O:41.3751),(P:28.6076),(Dy:30.0173)
##SIMILAR    : 2.7
#SPECTRUM    :
71,
67,
43,
106,
573,
1586,
4164,
12911,
38721,
54240,
28851,
13755,
15728,
19281,
25166,
74313,
275544,
527167,
387631,
104084,
17548,
9783,
10334,
11353,
12017,
12060,
12375,
13274,
14018,
14513,
15472,
18988,
28130,
37580,
33894,
23848,
18008,
17190,
16946,
17405,
20138,
30865,
60112,
96335,
101478,
66802,
30897,
16797,
15167,
16997,
19676,
19484,
16601,
14780,
15033,
15626,
16493,
16598,
16593,
16093,
15364,
14932,
16305,
23656,
49252,
129609,
288919,
401302,
315697,
145404,
53366,
32281,
24647,
16151,
11063,
9300,
8661,
8720,
8708,
8386,
8457,
8595,
8899,
9030,
9322,
9457,
8748,
8620,
8391,
8408,
8266,
8340,
8343,
8150,
8054,
8204,
8071,
8084,
8144,
7974,
7986,
7849,
7816,
7766,
7798,
7693,
7572,
7599,
7577,
7503,
7588,
7599,
7393,
7254,
7269,
7212,
7195,
6976,
6959,
6948,
6948,
6792,
6913,
6721,
6820,
6696,
6692,
6551,
6488,
6380,
6537,
6446,
6540,
6425,
6618,
6450,
6260,
6189,
6241,
5973,
6124,
5898,
5809,
5702,
5752,
5799,
5644,
5700,
5678,
5645,
5609,
5531,
5577,
5497,
5367,
5367,
5402,
5466,
5273,
5200,
5325,
5106,
5278,
5051,
4934,
4910,
4926,
4994,
4889,
4773,
4779,
4816,
4759,
4631,
4548,
4652,
4601,
4556,
4476,
4561,
4494,
4443,
4401,
4448,
4272,
4253,
4165,
4278,
4471,
4635,
4932,
5169,
5106,
4907,
4564,
4159,
4029,
4085,
3961,
4010,
3807,
3876,
3746,
3786,
3739,
3709,
3679,
3773,
3607,
3690,
3958,
4607,
6538,
10617,
17717,
26026,
31245,
29839,
23238,
14619,
8391,
5243,
3880,
3370,
3354,
3218,
3092,
3027,
3137,
3084,
2959,
3077,
3096,
2994,
3095,
3159,
3407,
4252,
5900,
8369,
11213,
13699,
13575,
11518,
8946,
6923,
5470,
4605,
3739,
3378,
3425,
3999,
5262,
6278,
7037,
6923,
5766,
4486,
3531,
2929,
2609,
2380,
2322,
2234,
2224,
2251,
2214,
2194,
2156,
2180,
2208,
2226,
2187,
2288,
2149,
2182,
2302,
2644,
2956,
3461,
3704,
3564,
3222,
2796,
2420,
2188,
2032,
2045,
2133,
2276,
2299,
2332,
2309,
2146,
2009,
1882,
1833,
1832,
1759,
1784,
1807,
1683,
1749,
1659,
1609,
1618,
1604,
1603,
1597,
1526,
1569,
1584,
1528,
1513,
1502,
1419,
1414,
1475,
1408,
1365,
1436,
1357,
1370,
1380,
1369,
1274,
1285,
1369,
1359,
1266,
1245,
1266,
1296,
1205,
1211,
1273,
1170,
1217,
1175,
1166,
1184,
1144,
1168,
1112,
1156,
1058,
1073,
1068,
1102,
1097,
1129,
1085,
972,
1018,
998,
1016,
1033,
965,
982,
985,
990,
954,
883,
925,
910,
907,
930,
907,
844,
856,
845,
858,
840,
830,
811,
754,
808,
750,
781,
731,
797,
796,
758,
738,
799,
706,
692,
675,
606,
658,
642,
634,
638,
656,
599,
654,
671,
586,
570,
580,
526,
536,
524,
543,
549,
560,
544,
551,
507,
499,
500,
487,
480,
481,
456,
478,
444,
434,
430,
382,
421,
410,
416,
361,
372,
366,
375,
378,
397,
375,
326,
323,
353,
345,
315,
350,
266,
286,
322,
292,
283,
253,
285,
270,
248,
250,
267,
234,
255,
246,
231,
233,
224,
224,
224,
193,
229,
204,
173,
191,
177,
166,
185,
155,
164,
145,
142,
146,
118,
129,
132,
117,
115,
120,
103,
102,
98,
91,
83,
94,
85,
79,
63,
68,
57,
59,
46,
45,
48,
48,
50,
34,
27,
19,
19,
19,
15,
14,
14,
6,
5,
1,
2,
5,
4,
4,
2,
3,
3,
1,
3,
1,
1,
1,
1,
6,
4,
2,
2,
2,
2,
4,
0,
0,
1,
2,
0,
0,
1,
0,
0,
3,
2,
1,
2,
1,
3,
0,
1,
0,
1,
0,
2,
1,
1,
1,
0,
0,
2,
0,
1,
1,
0,
1,
1,
0,
1,
0,
1,
0,
1,
1,
0,
0,
2,
0,
1,
0,
1,
1,
1,
2,
0,
1,
1,
1,
0,
1,
0,
1,
4,
1,
0,
0,
0,
1,
1,
0,
0,
0,
4,
0,
0,
0,
1,
0,
0,
1,
0,
1,
2,
2,
1,
0,
1,
2,
0,
1,
0,
0,
0,
0,
0,
0,
0,
1,
1,
0,
0,
0,
1,
2,
0,
2,
0,
2,
0,
3,
0,
1,
0,
1,
0,
3,
0,
0,
1,
1,
0,
0,
0,
0,
1,
1,
0,
1,
0,
0,
0,
0,
0,
0,
1,
0,
1,
0,
0,
0,
0,
1,
0,
1,
0,
1,
0,
0,
0,
0,
0,
1,
1,
1,
0,
0,
0,
1,
0,
0,
0,
0,
0,
0,
0,
1,
1,
1,
0,
1,
0,
0,
0,
1,
1,
1,
2,
1,
0,
0,
0,
1,
0,
0,
1,
0,
0,
1,
0,
0,
0,
0,
0,
0,
1,
1,
0,
0,
0,
0,
0,
0,
0,
0,
0,
0,
0,
0,
0,
0,
0,
0,
0,
0,
0,
0,
0,
0,
0,
1,
0,
0,
0,
0,
1,
0,
0,
0,
0,
0,
1,
0,
0,
0,
0,
0,
0,
0,
0,
0,
0,
0,
0,
0,
0,
0,
0,
0,
0,
0,
0,
0,
0,
0,
0,
0,
0,
0,
0,
0,
0,
0,
0,
0,
0,
0,
0,
0,
0,
0,
1,
0,
0,
0,
0,
0,
0,
0,
0,
0,
0,
0,
0,
0,
0,
0,
0,
0,
0,
0,
0,
0,
0,
0,
0,
0,
0,
0,
0,
0,
0,
0,
0,
0,
0,
0,
0,
0,
0,
0,
0,
0,
0,
0,
0,
0,
0,
0,
0,
0,
0,
0,
0,
0,
0,
0,
0,
0,
0,
0,
0,
0,
0,
0,
0,
0,
0,
0,
0,
0,
0,
0,
0,
0,
0,
0,
0,
0,
0,
0,
0,
0,
0,
0,
0,
0,
0,
0,
0,
0,
0,
0,
0,
0,
0,
0,
0,
0,
0,
0,
0,
0,
0,
0,
0,
0,
0,
0,
0,
0,
0,
0,
0,
0,
0,
0,
0,
0,
0,
0,
0,
0,
0,
0,
0,
0,
0,
0,
0,
0,
0,
0,
0,
0,
0,
0,
0,
0,
0,
0,
0,
0,
0,
0,
0,
0,
0,
0,
0,
0,
0,
0,
0,
0,
0,
0,
0,
0,
0,
0,
0,
0,
0,
0,
0,
0,
0,
0,
0,
0,
0,
0,
0,
0,
0,
0,
0,
0,
0,
0,
0,
0,
0,
0,
0,
0,
0,
0,
0,
0,
0,
0,
0,
0,
0,
0,
0,
0,
0,
0,
0,
0,
0,
0,
0,
1,
0,
0,
0,
0,
0,
0,
0,
0,
0,
0,
0,
0,
0,
0,
0,
0,
0,
0,
0,
0,
0,
0,
0,
0,
0,
0,
0,
0,
0,
0,
0,
0,
0,
0,
0,
0,
0,
0,
0,
0,
0,
0,
0,
0,
0,
0,
0,
0,
0,
0,
0,
0,
0,
0,
0,
0,
0,
0,
0,
0,
0,
0,
0,
0,
0,
0,
0,
0,
0,
0,
0,
0,
0,
0,
0,
0,
0,
0,
0,
0,
0,
0,
0,
0,
0,
0,
0,
0,
0,
0,
0,
0,
0,
0,
0,
0,
0,
0,
0,
0,
0,
0,
0,
0,
0,
0,
0,
0,
0,
0,
0,
0,
0,
0,
0,
0,
0,
0,
0,
0,
0,
0,
0,
0,
0,
0,
0,
0,
0,
0,
0,
0,
0,
0,
0,
0,
0,
0,
0,
0,
0,
0,
0,
0,
0,
0,
0,
0,
0,
0,
0,
0,
0,
0,
0,
0,
0,
0,
0,
0,
0,
0,
0,
0,
0,
0,
0,
0,
0,
0,
0,
0,
0,
0,
0,
0,
0,
0,
0,
0,
0,
0,
0,
0,
0,
0,
0,
0,
0,
0,
0,
0,
0,
0,
0,
0,
0,
0,
0,
0,
0,
0,
0,
0,
0,
0,
0,
0,
0,
0,
0,
0,
0,
0,
0,
0,
0,
0,
0,
0,
0,
0,
0,
0,
0,
0,
0,
0,
0,
0,
0,
0,
0,
0,
0,
0,
0,
0,
0,
0,
0,
0,
0,
0,
0,
0,
0,
0,
0,
0,
0,
0,
0,
0,
0,
0,
0,
0,
0,
0,
0,
0,
0,
0,
0,
0,
0,
0,
0,
0,
0,
0,
0,
0,
0,
0,
0,
0,
0,
0,
0,
0,
0,
0,
0,
0,
0,
0,
0,
0,
0,
0,
0,
0,
0,
0,
0,
0,
0,
0,
0,
0,
0,
0,
0,
0,
0,
0,
0,
0,
0,
0,
0,
0,
0,
0,
0,
0,
0,
0,
0,
0,
0,
0,
0,
0,
0,
0,
0,
0,
0,
0,
0,
0,
0,
0,
0,
0,
0,
0,
0,
0,
0,
0,
0,
0,
0,
0,
0,
0,
0,
0,
0,
0,
0,
0,
0,
0,
0,
0,
0,
0,
0,
0,
0,
0,
0,
0,
0,
0,
0,
0,
#ENDOFDATA   :