File: N132962/Standards/15 keV/Er std.msa
#FORMAT      : EMSA/MAS Spectral Data File
#VERSION     : 1.0
#TITLE       : Er standard for 'N132962' detector
#NPOINTS     : 4096
#NCOLUMNS    : 1
#XUNITS      : eV
#YUNITS      : counts
#DATATYPE    : Y
#SIGNALTYPE  : EDS
#XLABEL      : Energy (eV)
#YLABEL      : Counts
#XPERCHAN -eV: 9.99778
#OFFSET   -eV: 1.69135
#CHOFFSET    : 0
#DATE        : 25-Sep-2025
#TIME        : 17:30:00
#OWNER       : Unknown
#ELEVANGLE   : 35
#BEAMKV   -kV: 15
#LIVETIME  -s: 1440.31
#REALTIME  -s: 1546.62
#PROBECUR -nA: 1.20749
##WORKING -mm: 15
##D2STDCMP   : Er,(Er:100.0000)
##SIMILAR    : 15.1
#SPECTRUM    :
136,
167,
63,
297,
1724,
6804,
15820,
34674,
75599,
95183,
63513,
47436,
50172,
54589,
63012,
117640,
322926,
572509,
427895,
143754,
68096,
110635,
190886,
174043,
90291,
54864,
51751,
53818,
56639,
58585,
60337,
62267,
63852,
68941,
90908,
149599,
206772,
180701,
111956,
77454,
68994,
68347,
71020,
79312,
109145,
214773,
440285,
647959,
613704,
366010,
144965,
58033,
44292,
52667,
64535,
65533,
55702,
48998,
48449,
48811,
49484,
46881,
41038,
36976,
34395,
33702,
33050,
32445,
32191,
31420,
31743,
32185,
32324,
32681,
33129,
35007,
39129,
41779,
40043,
36187,
34077,
33693,
33551,
33038,
32628,
32534,
32967,
33397,
33651,
33270,
32252,
31800,
32044,
32007,
32292,
32078,
31894,
31950,
31839,
32528,
32197,
31685,
31355,
31417,
31170,
31402,
31242,
31015,
31680,
32333,
32192,
31478,
30557,
30270,
30194,
30207,
30456,
30234,
29728,
29490,
29077,
29057,
29173,
29459,
29143,
29000,
28368,
28232,
27782,
27808,
27654,
27384,
26833,
27363,
26716,
26684,
26531,
26235,
26365,
26253,
26017,
25939,
25502,
25430,
25437,
25164,
25385,
25056,
25774,
26380,
26563,
26314,
25836,
24733,
23992,
23964,
23626,
23496,
23463,
23138,
23187,
23034,
22810,
22976,
22583,
22661,
22578,
22022,
21989,
21851,
21799,
21866,
22179,
21713,
21725,
21656,
21190,
20993,
20665,
20786,
20403,
20342,
19924,
20186,
19631,
19677,
19441,
19441,
19607,
19291,
19196,
18998,
18938,
18787,
18829,
18876,
18574,
18376,
18505,
18361,
18815,
19227,
20754,
23010,
24192,
24212,
23013,
20699,
18820,
17566,
17387,
17255,
17440,
17206,
16969,
17131,
16630,
16347,
16230,
16056,
16094,
15889,
15952,
16133,
16211,
17700,
21548,
33214,
57285,
97483,
142954,
172388,
167987,
131619,
86079,
48975,
28250,
19251,
15619,
14788,
14245,
14000,
13768,
13822,
13440,
13780,
13504,
13467,
13725,
13458,
13463,
13343,
13237,
13541,
14550,
17566,
23387,
34204,
49403,
64307,
71662,
68706,
56782,
43360,
32729,
25415,
21118,
17994,
17166,
19621,
24728,
31562,
36886,
37594,
33366,
26325,
19130,
14911,
12264,
11119,
10555,
10025,
9671,
9396,
9446,
9232,
9302,
9133,
9226,
9161,
9301,
9324,
9373,
9270,
9141,
9267,
9056,
9347,
10017,
11412,
13422,
15968,
17256,
17222,
15671,
13292,
10958,
9612,
8795,
8767,
9043,
9620,
10224,
10481,
10432,
9804,
9155,
8521,
7981,
7604,
7418,
7273,
7475,
7467,
7548,
7277,
7194,
6949,
6811,
6691,
6488,
6566,
6582,
6408,
6496,
6333,
6315,
6195,
6205,
5951,
6074,
6028,
5983,
5922,
5916,
5751,
5759,
5690,
5709,
5741,
5723,
5653,
5677,
5517,
5383,
5436,
5364,
5191,
5181,
5125,
4876,
5055,
4953,
4882,
4877,
4769,
4928,
4792,
4653,
4512,
4600,
4573,
4414,
4487,
4421,
4352,
4324,
4216,
4219,
4120,
4106,
3948,
4016,
4140,
3901,
3973,
3946,
3887,
3803,
3696,
3685,
3698,
3637,
3461,
3585,
3534,
3391,
3309,
3341,
3322,
3283,
3166,
3119,
3232,
3065,
3071,
2961,
2966,
2960,
2846,
2848,
2728,
2781,
2700,
2711,
2691,
2530,
2473,
2613,
2467,
2453,
2375,
2394,
2367,
2264,
2225,
2197,
2226,
2076,
2079,
2102,
2080,
1994,
1998,
1858,
1909,
1875,
1887,
1796,
1748,
1696,
1695,
1581,
1616,
1541,
1499,
1517,
1444,
1438,
1495,
1367,
1363,
1353,
1266,
1262,
1276,
1267,
1225,
1236,
1166,
1073,
1100,
1036,
1064,
1008,
894,
950,
941,
837,
841,
808,
814,
734,
763,
657,
619,
662,
597,
622,
588,
621,
495,
512,
448,
392,
420,
384,
388,
324,
312,
282,
264,
242,
202,
192,
169,
116,
106,
72,
59,
45,
36,
36,
31,
34,
30,
24,
22,
29,
29,
29,
17,
21,
18,
22,
15,
20,
24,
21,
23,
24,
15,
16,
21,
14,
24,
17,
24,
20,
15,
24,
35,
28,
27,
22,
11,
13,
15,
13,
13,
10,
22,
9,
14,
17,
16,
15,
14,
13,
13,
18,
22,
15,
12,
16,
10,
11,
12,
6,
18,
10,
16,
17,
20,
13,
12,
22,
15,
20,
14,
18,
15,
14,
14,
16,
12,
7,
13,
10,
19,
17,
14,
7,
16,
8,
12,
9,
10,
15,
13,
17,
11,
8,
9,
8,
16,
13,
10,
12,
11,
8,
15,
11,
15,
11,
5,
9,
12,
12,
4,
10,
9,
12,
7,
12,
7,
7,
6,
12,
7,
8,
7,
12,
8,
4,
5,
9,
5,
5,
10,
3,
6,
7,
8,
3,
7,
5,
8,
5,
2,
5,
7,
4,
8,
6,
8,
5,
7,
7,
2,
8,
6,
3,
3,
8,
5,
5,
3,
4,
6,
6,
4,
6,
1,
4,
4,
8,
5,
2,
5,
4,
4,
6,
1,
5,
1,
3,
4,
4,
5,
4,
3,
0,
1,
3,
2,
3,
2,
4,
2,
0,
4,
0,
6,
2,
2,
2,
3,
4,
0,
6,
1,
2,
4,
3,
1,
2,
6,
2,
0,
1,
2,
1,
1,
1,
1,
1,
1,
0,
1,
3,
3,
0,
1,
2,
3,
2,
1,
3,
0,
1,
0,
0,
0,
1,
3,
0,
2,
0,
2,
0,
1,
2,
0,
2,
1,
0,
2,
2,
0,
2,
2,
1,
0,
0,
1,
3,
3,
0,
1,
0,
0,
1,
1,
0,
0,
2,
1,
4,
0,
0,
0,
1,
0,
0,
1,
0,
0,
0,
0,
0,
0,
0,
0,
1,
1,
1,
1,
1,
0,
0,
0,
1,
0,
0,
0,
1,
2,
0,
0,
0,
0,
0,
0,
0,
1,
0,
0,
0,
0,
0,
0,
0,
0,
0,
1,
0,
0,
0,
2,
0,
0,
0,
1,
1,
1,
0,
0,
1,
0,
0,
1,
0,
0,
1,
0,
1,
0,
2,
0,
0,
0,
0,
0,
0,
0,
0,
0,
0,
0,
0,
0,
0,
0,
0,
0,
0,
0,
0,
0,
1,
0,
0,
0,
0,
0,
0,
0,
0,
0,
0,
0,
0,
0,
0,
0,
0,
0,
0,
0,
0,
0,
0,
0,
0,
0,
0,
0,
0,
0,
0,
0,
0,
0,
0,
1,
0,
0,
0,
0,
0,
0,
0,
0,
0,
0,
0,
0,
0,
0,
0,
0,
0,
0,
0,
0,
0,
0,
0,
0,
0,
1,
0,
0,
0,
0,
0,
0,
0,
0,
0,
0,
0,
0,
0,
1,
0,
0,
0,
0,
0,
0,
1,
0,
0,
0,
0,
0,
0,
0,
0,
0,
0,
0,
1,
0,
0,
0,
0,
0,
0,
0,
0,
0,
0,
0,
0,
0,
0,
0,
0,
0,
0,
0,
0,
0,
0,
0,
0,
0,
0,
0,
0,
0,
0,
0,
0,
0,
0,
0,
0,
0,
0,
0,
0,
0,
0,
0,
0,
0,
0,
0,
0,
0,
0,
0,
0,
0,
0,
1,
0,
0,
0,
0,
0,
0,
0,
0,
0,
0,
0,
0,
0,
0,
0,
0,
0,
0,
0,
0,
0,
0,
0,
0,
0,
0,
0,
0,
0,
0,
0,
0,
0,
0,
0,
0,
0,
0,
0,
0,
0,
0,
0,
0,
0,
0,
0,
0,
0,
0,
0,
0,
0,
0,
0,
0,
0,
0,
0,
0,
0,
0,
0,
0,
0,
0,
0,
0,
0,
0,
0,
0,
0,
0,
0,
0,
0,
0,
0,
0,
0,
0,
0,
0,
0,
0,
0,
0,
0,
0,
0,
0,
0,
0,
0,
0,
0,
0,
0,
0,
0,
0,
0,
0,
0,
0,
0,
0,
0,
0,
0,
0,
0,
0,
0,
0,
0,
0,
0,
0,
0,
0,
0,
0,
0,
0,
0,
0,
0,
0,
0,
0,
0,
0,
0,
0,
0,
0,
0,
0,
0,
0,
0,
0,
0,
0,
0,
0,
0,
0,
0,
0,
0,
0,
0,
0,
0,
0,
0,
0,
0,
0,
0,
0,
0,
0,
0,
0,
0,
0,
0,
0,
0,
0,
0,
0,
0,
0,
0,
0,
0,
0,
0,
0,
0,
0,
0,
0,
0,
0,
0,
0,
0,
0,
0,
0,
0,
0,
0,
0,
0,
0,
0,
0,
0,
0,
0,
0,
0,
0,
0,
0,
0,
0,
0,
0,
0,
0,
0,
0,
0,
0,
0,
0,
0,
0,
0,
0,
0,
0,
0,
0,
0,
0,
0,
0,
0,
0,
0,
0,
0,
0,
0,
0,
0,
0,
0,
0,
0,
0,
0,
0,
0,
0,
0,
0,
0,
0,
0,
0,
0,
0,
0,
0,
0,
0,
0,
0,
0,
0,
0,
0,
0,
0,
0,
0,
0,
0,
0,
0,
0,
0,
0,
0,
0,
0,
0,
0,
0,
0,
0,
0,
0,
0,
0,
0,
0,
0,
0,
0,
0,
0,
0,
0,
0,
0,
0,
0,
0,
0,
0,
0,
0,
0,
0,
0,
0,
0,
0,
0,
0,
0,
0,
0,
0,
0,
0,
0,
0,
0,
0,
0,
0,
0,
0,
0,
0,
0,
0,
0,
0,
0,
0,
0,
0,
0,
0,
0,
0,
0,
0,
0,
0,
0,
0,
0,
#ENDOFDATA   :