File: N132962/Standards/15 keV/ErP5O14 std.msa
#FORMAT      : EMSA/MAS Spectral Data File
#VERSION     : 1.0
#TITLE       : ErP5O14 standard for 'N132962' detector
#NPOINTS     : 4096
#NCOLUMNS    : 1
#XUNITS      : eV
#YUNITS      : counts
#DATATYPE    : Y
#SIGNALTYPE  : EDS
#XLABEL      : Energy (eV)
#YLABEL      : Counts
#XPERCHAN -eV: 9.99778
#OFFSET   -eV: 1.69135
#CHOFFSET    : 0
#DATE        : 17-Mar-2025
#TIME        : 15:59:00
#OWNER       : Unknown
#ELEVANGLE   : 35
#BEAMKV   -kV: 15
#LIVETIME  -s: 959.0286
#REALTIME  -s: 1012
#PROBECUR -nA: 1.0242
##WORKING -mm: 15
##D2STDCMP   : ErP5O14,(O:41.0145),(P:28.3583),(Er:30.6271)
##SIMILAR    : 2.6
#SPECTRUM    :
92,
118,
62,
158,
675,
2040,
5443,
17460,
53579,
74709,
39114,
18212,
20450,
25124,
32948,
94983,
351224,
676768,
494850,
133516,
23044,
12992,
13855,
15403,
16081,
15943,
16611,
17599,
18819,
19123,
19426,
19898,
20702,
22605,
27485,
39090,
50309,
44923,
31955,
25437,
23830,
23760,
23952,
25944,
33086,
61644,
124748,
184528,
176255,
108772,
48219,
24520,
20670,
22856,
26427,
26402,
23221,
21347,
21731,
22426,
23191,
22742,
24080,
33007,
66151,
171463,
378504,
525430,
412375,
189812,
70185,
42712,
32872,
21799,
14757,
12171,
11802,
11532,
11338,
11463,
11353,
11694,
11879,
12168,
12743,
12385,
12079,
11813,
11390,
11384,
11116,
10977,
11028,
11012,
10923,
10709,
10781,
10761,
10835,
10568,
10654,
10520,
10632,
10487,
10438,
10311,
10290,
10077,
10344,
10121,
10172,
10137,
9874,
10042,
9978,
9913,
9893,
9517,
9508,
9681,
9327,
9386,
9652,
9434,
9453,
9253,
8958,
8853,
8874,
8794,
8730,
8696,
8880,
8901,
9011,
8706,
8532,
8315,
8224,
8204,
8076,
8128,
7939,
7865,
7724,
7795,
7720,
7802,
7744,
7600,
7570,
7466,
7558,
7343,
7442,
7281,
7215,
7158,
7020,
7034,
6988,
6961,
6965,
7004,
6749,
6831,
6815,
6656,
6550,
6394,
6381,
6628,
6421,
6475,
6373,
6409,
6085,
6336,
6274,
6023,
6231,
6085,
5997,
5840,
5831,
5853,
5797,
5766,
5729,
5694,
5659,
5461,
5540,
5473,
5373,
5475,
5430,
5356,
5371,
5341,
5307,
5493,
5637,
6042,
6203,
6383,
6049,
5469,
5196,
5094,
4908,
4858,
5057,
5093,
5150,
4976,
4815,
4628,
4499,
4533,
4578,
4418,
4490,
4461,
4611,
4650,
5547,
7523,
12127,
19256,
27911,
33865,
32994,
26359,
17466,
10601,
6536,
5005,
4161,
4027,
3972,
3758,
3712,
3701,
3811,
3655,
3709,
3799,
3699,
3544,
3642,
3678,
3617,
3627,
3817,
4327,
5288,
7447,
10250,
12937,
14371,
13815,
11573,
9135,
6923,
5578,
4733,
4341,
4228,
4540,
5478,
6703,
7644,
7899,
7037,
5836,
4591,
3818,
3177,
2924,
2827,
2841,
2640,
2635,
2703,
2572,
2523,
2524,
2537,
2502,
2577,
2534,
2484,
2539,
2526,
2450,
2392,
2491,
2667,
2957,
3177,
3708,
3849,
3905,
3640,
3166,
2704,
2358,
2340,
2231,
2404,
2399,
2509,
2592,
2556,
2484,
2296,
2186,
2050,
2004,
1889,
1981,
1910,
1914,
1928,
1891,
1963,
1821,
1767,
1790,
1737,
1711,
1665,
1644,
1689,
1629,
1601,
1649,
1507,
1599,
1619,
1642,
1589,
1551,
1599,
1560,
1522,
1480,
1528,
1444,
1462,
1339,
1449,
1365,
1354,
1359,
1322,
1375,
1246,
1296,
1337,
1329,
1222,
1256,
1262,
1233,
1199,
1230,
1178,
1193,
1166,
1150,
1112,
1116,
1097,
1100,
1073,
1008,
1098,
1022,
1033,
1001,
994,
978,
974,
943,
949,
904,
863,
876,
879,
884,
937,
891,
881,
825,
817,
817,
820,
814,
729,
773,
718,
770,
758,
735,
726,
723,
719,
722,
682,
631,
706,
648,
584,
588,
608,
572,
560,
601,
503,
551,
527,
515,
544,
535,
490,
507,
526,
500,
471,
480,
474,
464,
454,
449,
415,
387,
354,
417,
386,
397,
399,
350,
352,
371,
350,
382,
288,
317,
289,
317,
296,
267,
268,
277,
253,
232,
241,
237,
237,
209,
216,
222,
182,
174,
180,
192,
205,
171,
168,
144,
154,
151,
151,
138,
124,
114,
109,
107,
105,
100,
87,
87,
75,
76,
57,
55,
63,
53,
50,
39,
45,
30,
37,
22,
21,
12,
6,
8,
4,
2,
3,
4,
2,
4,
1,
2,
3,
1,
0,
3,
2,
1,
2,
2,
2,
0,
4,
4,
3,
6,
1,
2,
0,
2,
2,
4,
1,
0,
3,
1,
2,
1,
5,
3,
1,
0,
0,
0,
3,
0,
1,
3,
1,
1,
2,
1,
0,
0,
0,
0,
2,
1,
2,
2,
0,
0,
0,
1,
0,
0,
0,
1,
0,
0,
0,
3,
2,
2,
0,
2,
2,
1,
1,
1,
0,
1,
2,
0,
0,
5,
2,
1,
2,
1,
0,
2,
4,
0,
1,
0,
1,
1,
1,
1,
2,
1,
0,
1,
2,
1,
0,
0,
1,
0,
1,
0,
0,
1,
0,
1,
2,
0,
0,
1,
1,
1,
0,
0,
1,
1,
1,
2,
0,
2,
1,
2,
1,
0,
0,
1,
0,
0,
0,
0,
1,
1,
1,
0,
0,
0,
0,
0,
1,
2,
3,
0,
0,
1,
2,
0,
0,
1,
1,
0,
0,
1,
1,
0,
4,
2,
0,
0,
1,
1,
0,
0,
0,
0,
0,
0,
0,
0,
0,
0,
0,
0,
1,
0,
0,
0,
0,
1,
0,
0,
0,
0,
0,
2,
0,
1,
0,
0,
0,
1,
0,
0,
0,
0,
1,
0,
1,
0,
0,
1,
1,
0,
0,
0,
0,
0,
0,
0,
0,
1,
0,
0,
0,
0,
0,
0,
0,
0,
0,
0,
0,
0,
0,
0,
0,
0,
0,
0,
0,
0,
0,
0,
0,
0,
0,
0,
0,
0,
0,
0,
0,
0,
0,
0,
0,
0,
0,
0,
0,
0,
0,
0,
0,
0,
0,
0,
0,
0,
0,
0,
0,
0,
0,
0,
0,
0,
0,
0,
0,
1,
0,
0,
0,
0,
0,
0,
0,
0,
0,
0,
0,
0,
0,
0,
0,
1,
0,
0,
0,
0,
0,
0,
0,
0,
0,
0,
0,
0,
0,
0,
0,
0,
0,
0,
0,
0,
0,
0,
0,
0,
0,
0,
0,
0,
0,
0,
0,
0,
0,
0,
0,
0,
0,
0,
0,
0,
0,
0,
0,
0,
0,
0,
0,
0,
0,
0,
0,
0,
0,
0,
0,
0,
0,
0,
0,
0,
0,
0,
0,
0,
0,
0,
0,
0,
0,
0,
0,
0,
0,
0,
0,
0,
0,
0,
0,
0,
0,
0,
0,
0,
0,
0,
0,
0,
0,
0,
0,
0,
0,
0,
0,
0,
0,
0,
0,
0,
0,
0,
0,
0,
0,
0,
0,
0,
0,
0,
0,
0,
0,
0,
0,
0,
0,
0,
0,
0,
0,
0,
0,
0,
0,
0,
0,
0,
0,
0,
0,
0,
0,
0,
0,
0,
0,
0,
0,
0,
0,
0,
0,
0,
0,
0,
0,
0,
0,
0,
0,
0,
0,
0,
0,
0,
0,
0,
0,
0,
0,
0,
0,
0,
0,
0,
0,
0,
0,
0,
0,
0,
0,
0,
0,
0,
0,
0,
0,
0,
0,
0,
0,
0,
0,
0,
0,
0,
0,
0,
0,
0,
0,
0,
0,
0,
0,
0,
0,
0,
0,
0,
0,
0,
0,
0,
0,
0,
0,
0,
0,
0,
0,
0,
0,
0,
0,
0,
0,
0,
0,
0,
0,
0,
0,
0,
0,
0,
0,
0,
0,
0,
0,
0,
0,
0,
0,
0,
0,
0,
0,
0,
0,
0,
0,
0,
0,
0,
0,
0,
0,
0,
0,
0,
0,
0,
0,
0,
0,
0,
0,
0,
0,
0,
0,
0,
0,
0,
0,
0,
0,
0,
0,
0,
0,
0,
0,
0,
0,
0,
0,
0,
0,
0,
0,
0,
0,
0,
0,
0,
0,
0,
0,
0,
0,
0,
0,
0,
0,
0,
0,
0,
0,
0,
0,
0,
0,
0,
0,
0,
0,
0,
0,
0,
0,
0,
0,
0,
0,
0,
0,
0,
0,
0,
0,
0,
0,
0,
0,
0,
0,
0,
0,
0,
0,
0,
0,
0,
0,
0,
0,
0,
0,
0,
0,
0,
0,
0,
0,
0,
0,
0,
0,
0,
0,
0,
0,
0,
0,
0,
0,
0,
0,
0,
0,
0,
0,
0,
0,
0,
0,
0,
0,
0,
0,
0,
0,
0,
0,
0,
0,
0,
0,
0,
0,
0,
0,
0,
0,
0,
0,
0,
0,
0,
0,
0,
0,
0,
0,
0,
0,
0,
0,
0,
0,
0,
0,
0,
0,
0,
0,
0,
0,
0,
0,
0,
0,
0,
0,
0,
0,
0,
0,
0,
0,
0,
0,
0,
0,
0,
0,
0,
0,
0,
0,
0,
0,
0,
0,
0,
0,
0,
0,
0,
0,
0,
0,
0,
0,
0,
0,
0,
0,
0,
0,
0,
0,
0,
0,
0,
0,
0,
0,
0,
0,
0,
0,
0,
0,
0,
0,
0,
0,
0,
0,
0,
0,
0,
0,
0,
0,
0,
0,
0,
0,
0,
0,
0,
0,
0,
0,
0,
0,
0,
0,
0,
0,
0,
0,
0,
0,
0,
0,
0,
0,
0,
0,
0,
0,
0,
0,
0,
0,
0,
0,
0,
0,
0,
0,
0,
0,
0,
0,
0,
0,
0,
0,
0,
0,
0,
0,
0,
0,
0,
0,
0,
0,
0,
0,
0,
0,
0,
0,
0,
0,
0,
0,
0,
0,
0,
0,
0,
0,
0,
0,
0,
0,
0,
0,
0,
0,
0,
0,
0,
0,
0,
0,
0,
0,
0,
0,
0,
0,
0,
#ENDOFDATA   :