File: N132962/Standards/15 keV/EuF3 std.msa
#FORMAT      : EMSA/MAS Spectral Data File
#VERSION     : 1.0
#TITLE       : EuF3 standard for 'N132962' detector
#NPOINTS     : 4096
#NCOLUMNS    : 1
#XUNITS      : eV
#YUNITS      : counts
#DATATYPE    : Y
#SIGNALTYPE  : EDS
#XLABEL      : Energy (eV)
#YLABEL      : Counts
#XPERCHAN -eV: 9.99778
#OFFSET   -eV: 1.69135
#CHOFFSET    : 0
#DATE        : 27-Sep-2025
#TIME        : 20:06:00
#OWNER       : Unknown
#ELEVANGLE   : 35
#BEAMKV   -kV: 15
#LIVETIME  -s: 1441.13
#REALTIME  -s: 1554.23
#PROBECUR -nA: 1.21162
##WORKING -mm: 15
##D2STDCMP   : EuF3,(F:27.2758),(Eu:72.7242)
##SIMILAR    : 7.0
#SPECTRUM    :
158,
167,
93,
291,
1548,
5778,
16468,
39043,
78797,
96519,
71919,
59555,
59878,
60119,
61613,
68006,
75848,
85077,
86801,
99664,
200857,
611651,
1232247,
1065031,
375203,
92257,
65586,
100782,
178009,
219617,
161766,
97319,
71702,
66005,
69457,
88117,
154192,
274306,
334683,
241094,
110408,
51008,
40294,
46381,
59515,
62566,
52059,
45125,
46679,
48868,
46045,
41335,
37869,
35570,
34615,
34426,
35120,
37341,
39200,
39922,
38977,
36911,
33646,
32553,
32576,
32467,
32909,
33001,
33160,
33393,
33237,
33743,
33595,
34014,
34076,
33804,
34220,
34099,
34311,
34298,
34423,
33963,
33866,
33990,
33772,
33783,
33832,
33603,
33804,
33722,
33468,
33646,
33115,
33023,
32899,
32808,
32389,
32492,
32645,
32006,
32189,
32093,
31758,
31707,
31280,
31429,
31300,
31276,
31176,
30877,
30837,
30848,
30223,
30011,
30081,
29889,
29838,
29400,
29125,
29388,
28894,
28747,
28591,
28691,
28455,
28452,
28331,
27989,
27747,
27501,
26979,
27071,
27196,
26798,
27057,
27548,
27613,
27334,
26785,
26353,
25800,
25210,
25539,
25132,
25261,
25133,
24886,
24432,
24579,
24252,
24105,
24164,
24019,
23777,
23542,
23229,
23675,
23297,
23081,
23074,
22755,
22337,
22254,
22011,
21750,
21842,
21872,
22186,
22095,
23251,
25850,
28844,
31502,
31521,
28756,
25286,
22837,
21062,
20715,
20297,
19924,
19799,
20050,
19926,
19734,
19938,
19477,
20088,
20787,
23993,
33648,
60871,
118940,
200514,
272401,
287077,
232081,
146667,
76364,
38587,
23543,
19160,
18232,
17627,
17661,
17277,
17003,
17246,
17441,
18116,
21415,
30399,
50507,
82053,
115219,
132933,
123954,
97949,
70213,
50438,
38493,
29743,
23981,
21338,
23746,
31465,
43743,
54994,
58467,
52482,
39892,
28270,
19807,
15613,
13974,
12909,
13107,
12767,
12850,
12824,
12793,
12882,
12832,
12782,
13384,
15025,
18208,
22979,
26955,
28334,
26958,
22141,
17659,
14211,
12534,
12608,
13345,
14738,
16116,
16705,
15922,
14586,
12897,
11830,
11196,
11008,
11077,
11226,
11233,
10927,
10604,
10087,
9933,
9828,
9533,
9559,
9275,
9348,
9318,
9256,
9189,
9219,
9074,
9047,
8881,
8885,
8814,
8765,
8826,
8821,
8570,
8713,
8481,
8365,
8452,
8256,
8439,
8328,
8054,
8011,
8078,
7977,
7933,
7783,
7894,
7780,
7554,
7694,
7509,
7536,
7387,
7446,
7181,
7207,
7296,
7291,
7181,
7163,
7146,
7117,
7020,
7139,
7061,
6816,
6981,
6779,
6687,
6708,
6620,
6651,
6549,
6344,
6316,
6421,
6244,
6177,
6076,
6117,
6156,
5949,
5985,
5822,
5851,
5855,
5762,
5559,
5537,
5533,
5713,
5384,
5530,
5358,
5356,
5127,
5312,
5052,
5102,
5142,
5088,
4861,
4992,
4913,
4999,
4818,
4676,
4716,
4678,
4655,
4542,
4471,
4513,
4430,
4307,
4362,
4340,
4258,
4294,
4202,
4100,
4119,
4124,
4002,
4040,
3903,
3812,
3766,
3766,
3805,
3632,
3683,
3676,
3625,
3530,
3485,
3383,
3255,
3340,
3346,
3242,
3292,
3227,
3132,
3067,
3035,
3025,
2976,
2896,
2962,
2902,
2859,
2834,
2806,
2684,
2738,
2675,
2587,
2536,
2553,
2442,
2535,
2357,
2417,
2406,
2294,
2211,
2120,
2248,
2117,
2071,
2185,
2050,
2031,
1990,
1906,
1883,
1855,
1836,
1767,
1750,
1770,
1734,
1705,
1638,
1597,
1579,
1512,
1438,
1505,
1499,
1390,
1352,
1366,
1344,
1378,
1270,
1239,
1213,
1104,
1121,
1160,
1039,
1089,
1033,
1000,
942,
925,
937,
902,
884,
815,
798,
766,
781,
746,
686,
700,
627,
630,
561,
535,
564,
481,
494,
478,
395,
398,
357,
345,
320,
292,
283,
244,
211,
213,
194,
141,
137,
90,
85,
65,
51,
42,
29,
36,
19,
35,
24,
22,
26,
26,
21,
26,
16,
24,
22,
17,
17,
17,
16,
11,
18,
10,
15,
16,
21,
17,
12,
13,
10,
22,
18,
12,
16,
12,
12,
21,
10,
11,
17,
14,
20,
19,
15,
12,
22,
14,
21,
12,
12,
13,
7,
10,
13,
9,
12,
12,
7,
9,
12,
10,
9,
10,
18,
20,
13,
13,
14,
16,
17,
16,
14,
10,
17,
11,
17,
12,
13,
11,
19,
20,
11,
7,
10,
5,
11,
11,
8,
10,
15,
15,
11,
8,
9,
9,
9,
11,
6,
11,
5,
5,
8,
12,
9,
11,
8,
13,
10,
8,
10,
4,
9,
8,
4,
8,
9,
10,
6,
6,
8,
4,
7,
3,
4,
7,
6,
9,
4,
6,
5,
4,
8,
3,
6,
9,
5,
7,
8,
4,
2,
7,
8,
8,
7,
5,
7,
5,
2,
6,
8,
4,
3,
5,
5,
3,
2,
2,
2,
5,
3,
5,
3,
3,
4,
5,
5,
8,
0,
5,
2,
3,
6,
1,
8,
3,
2,
3,
4,
4,
3,
2,
2,
2,
1,
3,
1,
1,
2,
5,
0,
3,
3,
2,
2,
2,
1,
0,
1,
0,
1,
2,
1,
0,
0,
2,
1,
0,
2,
0,
0,
0,
0,
1,
1,
0,
1,
0,
1,
1,
1,
4,
2,
0,
0,
0,
1,
2,
0,
0,
0,
2,
1,
1,
1,
0,
0,
0,
0,
0,
1,
2,
2,
0,
2,
2,
3,
0,
0,
0,
0,
1,
2,
0,
2,
2,
1,
0,
0,
0,
0,
0,
1,
0,
2,
0,
2,
0,
0,
0,
0,
0,
0,
0,
0,
0,
0,
0,
0,
0,
2,
0,
0,
0,
0,
0,
2,
0,
0,
0,
0,
0,
0,
0,
0,
0,
1,
0,
0,
0,
1,
0,
0,
0,
0,
0,
0,
0,
0,
0,
0,
0,
1,
0,
1,
0,
0,
0,
0,
0,
1,
2,
0,
0,
0,
0,
0,
1,
0,
0,
0,
0,
0,
0,
0,
1,
0,
1,
0,
0,
0,
0,
0,
1,
0,
0,
0,
0,
0,
1,
0,
0,
0,
0,
0,
0,
0,
1,
0,
0,
0,
1,
0,
0,
0,
0,
0,
0,
0,
0,
1,
1,
0,
0,
0,
0,
0,
0,
0,
0,
0,
0,
0,
0,
0,
0,
0,
0,
0,
0,
0,
0,
0,
0,
0,
0,
0,
0,
0,
0,
0,
0,
0,
0,
0,
0,
0,
0,
0,
0,
0,
0,
0,
0,
0,
0,
0,
0,
0,
0,
0,
0,
0,
0,
0,
0,
1,
1,
0,
0,
0,
0,
0,
1,
0,
0,
0,
0,
0,
0,
0,
0,
0,
0,
0,
0,
0,
0,
0,
0,
0,
0,
0,
0,
0,
0,
0,
0,
0,
0,
0,
0,
0,
0,
0,
0,
0,
0,
0,
0,
0,
0,
0,
0,
0,
0,
0,
0,
0,
0,
0,
0,
0,
0,
0,
0,
0,
0,
0,
0,
0,
0,
0,
0,
0,
0,
0,
0,
0,
0,
0,
0,
0,
0,
0,
0,
0,
0,
0,
0,
0,
0,
0,
0,
0,
0,
0,
0,
0,
0,
0,
0,
0,
0,
0,
0,
0,
0,
0,
0,
0,
0,
0,
0,
0,
0,
0,
0,
0,
0,
0,
0,
0,
0,
0,
0,
0,
0,
0,
0,
0,
0,
0,
0,
0,
0,
0,
0,
0,
0,
0,
0,
0,
0,
0,
0,
0,
0,
0,
0,
0,
0,
0,
0,
0,
0,
0,
0,
0,
0,
0,
0,
0,
0,
0,
0,
0,
0,
0,
0,
0,
0,
0,
0,
0,
0,
0,
0,
0,
0,
0,
0,
0,
0,
0,
0,
0,
0,
0,
0,
0,
0,
0,
0,
0,
0,
0,
0,
0,
0,
0,
0,
0,
0,
0,
0,
0,
0,
0,
0,
0,
0,
0,
0,
0,
0,
0,
0,
0,
0,
0,
0,
0,
0,
0,
0,
0,
0,
0,
0,
0,
0,
0,
0,
0,
0,
0,
0,
0,
0,
0,
0,
0,
0,
0,
0,
0,
0,
0,
0,
0,
0,
0,
0,
0,
0,
0,
0,
0,
0,
0,
0,
0,
0,
0,
0,
0,
0,
0,
0,
0,
0,
0,
0,
0,
0,
0,
0,
0,
0,
0,
0,
0,
0,
0,
0,
0,
0,
0,
0,
0,
0,
0,
0,
0,
0,
0,
0,
0,
0,
0,
0,
0,
0,
0,
0,
0,
0,
0,
0,
0,
0,
0,
0,
0,
0,
0,
0,
0,
0,
0,
0,
0,
0,
0,
0,
0,
0,
0,
0,
0,
0,
0,
0,
0,
0,
0,
0,
0,
0,
0,
0,
0,
0,
0,
0,
0,
0,
0,
0,
0,
0,
0,
0,
0,
0,
0,
0,
0,
0,
0,
0,
0,
0,
0,
0,
0,
0,
0,
0,
0,
0,
0,
0,
0,
0,
0,
0,
0,
0,
0,
0,
0,
0,
0,
0,
0,
0,
0,
0,
0,
0,
0,
0,
0,
0,
0,
0,
0,
0,
0,
0,
0,
0,
0,
0,
0,
0,
0,
0,
0,
0,
0,
0,
0,
0,
0,
0,
0,
0,
0,
0,
0,
0,
0,
0,
0,
0,
0,
0,
0,
0,
0,
0,
0,
0,
0,
0,
0,
0,
0,
0,
0,
0,
0,
0,
0,
0,
#ENDOFDATA   :