File: N132962/Standards/15 keV/EuP5O14 std.msa
#FORMAT      : EMSA/MAS Spectral Data File
#VERSION     : 1.0
#TITLE       : EuP5O14 standard for 'N132962' detector
#NPOINTS     : 4096
#NCOLUMNS    : 1
#XUNITS      : eV
#YUNITS      : counts
#DATATYPE    : Y
#SIGNALTYPE  : EDS
#XLABEL      : Energy (eV)
#YLABEL      : Counts
#XPERCHAN -eV: 9.99778
#OFFSET   -eV: 1.69135
#CHOFFSET    : 0
#DATE        : 17-Mar-2025
#TIME        : 16:31:00
#OWNER       : Unknown
#ELEVANGLE   : 35
#BEAMKV   -kV: 15
#LIVETIME  -s: 1438.35
#REALTIME  -s: 1517.08
#PROBECUR -nA: 1.02671
##WORKING -mm: 15
##D2STDCMP   : EuP5O14,(O:42.1963),(P:29.1755),(Eu:28.6282)
##SIMILAR    : 2.3
#SPECTRUM    :
143,
143,
70,
292,
1102,
3024,
8357,
26270,
77567,
107511,
58542,
28268,
29464,
36143,
51879,
158623,
594398,
1147674,
834947,
223837,
36608,
19931,
20752,
23131,
24058,
24714,
27930,
38320,
59399,
70343,
54660,
36948,
31643,
31568,
34255,
40369,
65187,
116964,
151087,
118413,
61376,
33397,
28155,
30629,
35982,
37418,
33197,
30767,
32024,
32945,
31278,
29032,
27553,
26496,
26547,
26554,
27596,
28858,
30374,
31060,
30362,
29379,
32092,
47912,
100023,
265387,
589856,
821894,
645734,
296407,
108865,
65237,
49780,
32365,
21967,
18172,
17448,
17231,
17152,
17105,
16880,
17105,
17625,
18502,
19140,
18728,
17853,
16925,
16617,
16385,
16269,
16268,
16274,
16011,
16018,
15926,
15871,
15958,
15804,
15618,
15409,
15530,
15189,
15233,
15318,
15129,
15172,
14982,
14809,
14534,
14258,
14201,
14542,
14053,
13750,
13870,
13838,
13596,
13579,
13408,
13505,
13388,
13198,
13258,
13384,
13099,
12839,
12607,
12713,
12556,
12432,
12659,
12525,
12731,
12868,
12779,
12494,
12482,
11995,
11881,
11291,
11367,
11298,
11386,
11106,
10913,
10925,
11085,
10772,
10927,
10585,
10504,
10494,
10462,
10299,
10269,
10457,
10338,
10087,
9972,
9969,
9741,
9831,
9655,
9584,
9532,
9609,
9707,
9588,
9837,
10503,
11256,
11902,
11830,
10977,
10033,
9282,
9145,
8835,
8793,
8626,
8562,
8509,
8345,
8354,
8335,
8140,
8313,
8509,
9270,
11463,
18884,
33942,
55612,
74913,
79443,
64667,
42110,
23354,
12962,
9171,
7759,
7402,
7414,
7201,
7113,
7127,
7018,
7151,
7275,
8205,
10697,
15701,
24012,
32821,
37586,
35022,
27750,
20559,
15516,
12189,
10112,
8406,
7752,
8356,
10368,
13669,
16607,
17714,
15918,
12592,
9618,
7450,
6117,
5710,
5529,
5287,
5493,
5408,
5238,
5312,
5285,
5292,
5370,
5359,
5716,
6654,
7803,
9097,
9476,
8931,
7748,
6161,
5501,
5000,
4914,
5198,
5458,
5945,
5987,
5994,
5450,
5026,
4758,
4547,
4436,
4413,
4372,
4378,
4195,
4053,
4060,
3943,
3890,
3895,
3821,
3781,
3839,
3916,
3777,
3706,
3681,
3671,
3658,
3654,
3554,
3535,
3538,
3452,
3371,
3462,
3392,
3447,
3396,
3385,
3231,
3231,
3331,
3238,
3202,
3198,
3094,
3031,
3025,
3086,
3012,
3104,
2940,
2915,
3023,
2987,
2871,
2907,
2870,
2768,
2751,
2792,
2801,
2641,
2700,
2753,
2742,
2585,
2560,
2572,
2535,
2545,
2567,
2523,
2542,
2422,
2401,
2397,
2344,
2379,
2288,
2332,
2335,
2241,
2213,
2254,
2163,
2130,
2151,
2171,
2100,
2104,
2113,
2032,
1983,
2003,
1986,
1972,
1918,
1922,
1909,
1922,
1863,
1849,
1859,
1828,
1746,
1737,
1703,
1730,
1691,
1651,
1726,
1643,
1645,
1533,
1607,
1579,
1523,
1499,
1527,
1573,
1505,
1471,
1425,
1450,
1429,
1381,
1392,
1305,
1340,
1312,
1315,
1267,
1260,
1243,
1260,
1147,
1231,
1125,
1227,
1163,
1122,
1141,
1092,
1077,
1032,
1004,
1001,
1003,
1010,
1054,
1030,
987,
928,
907,
916,
910,
929,
882,
886,
843,
892,
785,
778,
761,
775,
752,
742,
734,
733,
688,
711,
716,
710,
700,
672,
655,
612,
597,
572,
591,
560,
548,
558,
549,
512,
545,
496,
506,
459,
469,
440,
420,
459,
442,
405,
395,
387,
396,
370,
384,
361,
335,
305,
330,
341,
265,
308,
272,
299,
259,
266,
266,
238,
227,
237,
216,
198,
186,
176,
174,
178,
146,
171,
146,
145,
131,
107,
116,
102,
96,
83,
99,
86,
71,
53,
51,
61,
47,
41,
29,
20,
11,
13,
12,
8,
3,
3,
5,
7,
4,
2,
5,
3,
2,
3,
4,
3,
3,
0,
5,
4,
7,
3,
0,
5,
7,
3,
4,
0,
3,
3,
3,
4,
1,
3,
3,
2,
4,
1,
2,
2,
1,
2,
2,
2,
1,
3,
0,
1,
2,
0,
0,
3,
3,
2,
2,
1,
2,
1,
2,
1,
1,
1,
1,
0,
2,
1,
1,
4,
1,
0,
3,
0,
1,
1,
1,
1,
2,
1,
4,
1,
1,
3,
2,
0,
2,
0,
3,
4,
0,
3,
2,
3,
2,
0,
2,
1,
1,
1,
1,
2,
3,
1,
2,
2,
1,
1,
1,
5,
0,
3,
0,
1,
1,
1,
2,
1,
1,
1,
0,
1,
0,
0,
2,
2,
3,
0,
0,
1,
3,
1,
0,
1,
1,
0,
1,
2,
0,
1,
1,
2,
1,
1,
1,
2,
2,
0,
0,
1,
0,
0,
0,
0,
1,
0,
0,
0,
1,
0,
2,
1,
0,
1,
0,
1,
0,
0,
1,
0,
0,
0,
0,
1,
0,
1,
0,
0,
0,
1,
0,
0,
0,
1,
0,
0,
0,
0,
0,
0,
0,
0,
0,
0,
0,
1,
0,
0,
0,
1,
1,
0,
1,
0,
0,
0,
0,
1,
0,
1,
0,
0,
1,
0,
0,
0,
0,
0,
0,
0,
0,
0,
0,
0,
0,
0,
0,
0,
0,
0,
0,
0,
0,
0,
0,
0,
0,
0,
0,
0,
0,
0,
0,
0,
0,
0,
0,
0,
1,
0,
0,
0,
0,
0,
0,
0,
0,
0,
0,
0,
0,
0,
0,
0,
0,
0,
0,
1,
0,
0,
0,
0,
0,
0,
0,
0,
0,
0,
0,
0,
0,
0,
0,
0,
0,
0,
0,
0,
0,
0,
0,
0,
0,
0,
0,
0,
0,
0,
0,
0,
0,
0,
0,
0,
0,
1,
0,
1,
0,
0,
0,
1,
0,
0,
0,
0,
0,
0,
0,
0,
0,
1,
0,
0,
0,
0,
0,
0,
0,
0,
0,
0,
0,
0,
1,
0,
0,
0,
0,
0,
0,
0,
0,
0,
0,
0,
0,
0,
0,
0,
0,
0,
0,
0,
0,
1,
0,
0,
0,
0,
0,
0,
0,
0,
0,
0,
0,
0,
0,
0,
0,
0,
0,
0,
0,
0,
0,
0,
0,
0,
1,
0,
0,
0,
0,
0,
0,
0,
0,
0,
0,
0,
0,
0,
0,
0,
0,
0,
0,
0,
0,
0,
0,
0,
0,
0,
0,
0,
0,
0,
0,
0,
0,
0,
0,
0,
0,
0,
0,
0,
0,
0,
0,
0,
0,
0,
0,
0,
0,
0,
0,
0,
0,
0,
0,
0,
0,
0,
0,
0,
0,
0,
0,
0,
0,
0,
0,
0,
0,
0,
0,
0,
0,
0,
0,
0,
0,
0,
0,
0,
0,
0,
0,
0,
0,
0,
0,
0,
0,
0,
0,
0,
0,
0,
0,
0,
0,
0,
0,
0,
0,
0,
0,
0,
0,
0,
0,
0,
0,
0,
0,
0,
0,
0,
0,
0,
0,
0,
0,
0,
0,
0,
0,
0,
0,
0,
0,
0,
0,
0,
0,
0,
0,
0,
0,
0,
0,
0,
0,
0,
0,
0,
0,
0,
0,
0,
0,
0,
0,
0,
0,
0,
0,
0,
0,
0,
0,
0,
0,
0,
0,
0,
0,
0,
0,
0,
0,
0,
0,
0,
0,
0,
0,
0,
0,
0,
0,
0,
0,
0,
0,
0,
0,
0,
0,
0,
0,
0,
0,
0,
0,
0,
0,
0,
0,
0,
0,
0,
0,
0,
0,
0,
0,
0,
0,
0,
0,
0,
0,
0,
0,
0,
0,
0,
0,
0,
0,
0,
0,
0,
0,
0,
0,
0,
0,
0,
0,
0,
0,
0,
0,
0,
0,
0,
0,
0,
0,
0,
0,
0,
0,
0,
0,
0,
0,
0,
0,
0,
0,
0,
0,
0,
0,
0,
0,
0,
0,
0,
0,
0,
0,
0,
0,
0,
0,
0,
0,
0,
0,
0,
0,
0,
0,
0,
0,
0,
0,
0,
0,
0,
0,
0,
0,
0,
0,
0,
0,
0,
0,
0,
0,
0,
0,
0,
0,
0,
0,
0,
0,
0,
0,
0,
0,
0,
0,
0,
0,
0,
0,
0,
0,
0,
0,
0,
0,
0,
0,
0,
0,
0,
0,
0,
0,
0,
0,
0,
0,
0,
0,
0,
0,
0,
0,
0,
0,
0,
0,
0,
0,
0,
0,
0,
0,
0,
0,
0,
0,
0,
0,
0,
0,
0,
0,
0,
0,
0,
0,
0,
0,
0,
0,
0,
0,
0,
0,
0,
0,
0,
0,
0,
0,
0,
0,
0,
0,
0,
0,
0,
0,
0,
0,
0,
0,
0,
0,
0,
0,
0,
0,
0,
0,
0,
0,
0,
0,
0,
0,
0,
0,
0,
0,
0,
0,
0,
0,
0,
0,
0,
0,
0,
0,
0,
0,
0,
0,
0,
0,
0,
0,
0,
0,
0,
0,
0,
0,
0,
0,
0,
0,
0,
0,
0,
0,
0,
0,
0,
0,
0,
0,
0,
0,
0,
0,
0,
0,
0,
0,
0,
0,
0,
0,
0,
0,
0,
0,
0,
0,
0,
0,
0,
0,
0,
0,
0,
0,
0,
0,
0,
0,
0,
0,
0,
0,
0,
0,
0,
0,
0,
0,
0,
0,
0,
0,
0,
0,
0,
0,
0,
0,
0,
#ENDOFDATA   :