File: N132962/Standards/15 keV/Fe std.msa
#FORMAT      : EMSA/MAS Spectral Data File
#VERSION     : 1.0
#TITLE       : Fe standard for 'N132962' detector
#NPOINTS     : 4096
#NCOLUMNS    : 1
#XUNITS      : eV
#YUNITS      : counts
#DATATYPE    : Y
#SIGNALTYPE  : EDS
#XLABEL      : Energy (eV)
#YLABEL      : Counts
#XPERCHAN -eV: 9.99778
#OFFSET   -eV: 1.69135
#CHOFFSET    : 0
#DATE        : 25-Sep-2025
#TIME        : 22:32:00
#OWNER       : Unknown
#ELEVANGLE   : 35
#BEAMKV   -kV: 15
#LIVETIME  -s: 1919.63
#REALTIME  -s: 2057.75
#PROBECUR -nA: 1.20962
##WORKING -mm: 15
##D2STDCMP   : Fe,(Fe:100.0000)
##SIMILAR    : 1.1
#SPECTRUM    :
184,
211,
85,
259,
1281,
5037,
14059,
29675,
53508,
67494,
59654,
58896,
66523,
72490,
78172,
89360,
109255,
137404,
195246,
404165,
711457,
760864,
980584,
1538686,
1206063,
397404,
83697,
37003,
28578,
26083,
26090,
26799,
27941,
29011,
30558,
31721,
33084,
34583,
35570,
37023,
38407,
39456,
41398,
42366,
43544,
44337,
46155,
46162,
45376,
44588,
45419,
44766,
45039,
45368,
45650,
46573,
47950,
49306,
51252,
52131,
50811,
48331,
45359,
44017,
43321,
43321,
43358,
44105,
43723,
43595,
43012,
43493,
42849,
42503,
42709,
42454,
42623,
42456,
42163,
41650,
41466,
41518,
41255,
40734,
40545,
39870,
39891,
39979,
39418,
39306,
39017,
38570,
38393,
38219,
37678,
37630,
37101,
36813,
36790,
36387,
36142,
35704,
35311,
35090,
35129,
34630,
34568,
34191,
33798,
33300,
32889,
32489,
32475,
32520,
31901,
31675,
31548,
31063,
30776,
30872,
30332,
30329,
29963,
29902,
29275,
29114,
28852,
28260,
28428,
28312,
27599,
27595,
27185,
27044,
27150,
26909,
26432,
26186,
25886,
25619,
25485,
25432,
25130,
25146,
25038,
24765,
24287,
24192,
24689,
24928,
25288,
24852,
25009,
24915,
26027,
26123,
25458,
23825,
22897,
22082,
22076,
21661,
21501,
21366,
21483,
21264,
20850,
20417,
20331,
20302,
20446,
20077,
19887,
19864,
19698,
19586,
19397,
19194,
19348,
19100,
18805,
18693,
18689,
18544,
18248,
17976,
17952,
17554,
17444,
17390,
17383,
17014,
16680,
16572,
16770,
16685,
16662,
16560,
16507,
16342,
16463,
16610,
16654,
16856,
17304,
18125,
19412,
24310,
42295,
98472,
235795,
473942,
751662,
917444,
858662,
616071,
343146,
152666,
59019,
25526,
16983,
14976,
14591,
14290,
14212,
14598,
14509,
14601,
15199,
16885,
20962,
30996,
51968,
82188,
114563,
129182,
118256,
87730,
54092,
30196,
17347,
11955,
10124,
9771,
9622,
9622,
9878,
9531,
9646,
9606,
9660,
9380,
9387,
9310,
9364,
9284,
9443,
9247,
9324,
9201,
9082,
8797,
8843,
8797,
8682,
8684,
8592,
8655,
8426,
8386,
8418,
8217,
8291,
8242,
8077,
8045,
7941,
7935,
8044,
7841,
7929,
7796,
7518,
7561,
7596,
7488,
7612,
7405,
7311,
7304,
7287,
7088,
7222,
7052,
7041,
6816,
6908,
6887,
6919,
6728,
6563,
6573,
6518,
6545,
6464,
6379,
6299,
6373,
6245,
6197,
6263,
6146,
5970,
5977,
5958,
5780,
5996,
5833,
5808,
5828,
5688,
5494,
5705,
5667,
5465,
5489,
5325,
5354,
5405,
5253,
5188,
5026,
5138,
4966,
5081,
4971,
4883,
4821,
4870,
4819,
4837,
4605,
4649,
4615,
4549,
4571,
4583,
4392,
4528,
4479,
4428,
4244,
4179,
4141,
4197,
4120,
4158,
4064,
3938,
3883,
3774,
3897,
3773,
3602,
3675,
3761,
3660,
3555,
3546,
3670,
3521,
3434,
3406,
3440,
3389,
3366,
3351,
3312,
3166,
3133,
3050,
3039,
3011,
3102,
3028,
2921,
2957,
2939,
2747,
2721,
2678,
2676,
2624,
2604,
2608,
2504,
2487,
2485,
2464,
2477,
2371,
2393,
2371,
2259,
2214,
2210,
2118,
2132,
2174,
2112,
2049,
2031,
1970,
1933,
1918,
1964,
1907,
1858,
1712,
1802,
1709,
1832,
1749,
1968,
1969,
1996,
2081,
2126,
2045,
1720,
1726,
1583,
1492,
1403,
1372,
1289,
1275,
1310,
1281,
1205,
1212,
1144,
1222,
1103,
1121,
1131,
1167,
1110,
1116,
1134,
1099,
1079,
950,
904,
862,
895,
813,
848,
781,
772,
823,
704,
728,
673,
628,
683,
649,
605,
576,
595,
577,
525,
507,
478,
439,
455,
433,
425,
436,
375,
372,
386,
338,
322,
296,
281,
265,
254,
250,
197,
210,
163,
140,
144,
133,
124,
85,
62,
64,
55,
33,
28,
26,
26,
22,
14,
20,
13,
21,
23,
30,
10,
19,
16,
19,
17,
12,
15,
23,
19,
17,
20,
12,
9,
15,
14,
14,
19,
10,
18,
5,
16,
15,
20,
9,
14,
16,
15,
10,
12,
12,
12,
12,
7,
14,
13,
16,
10,
6,
6,
10,
22,
6,
12,
9,
13,
11,
13,
18,
14,
10,
10,
16,
16,
19,
8,
13,
9,
13,
17,
17,
17,
10,
11,
16,
10,
14,
14,
13,
5,
8,
18,
15,
11,
8,
9,
10,
9,
9,
13,
10,
13,
12,
7,
12,
12,
6,
12,
10,
7,
8,
13,
10,
10,
10,
11,
10,
13,
4,
11,
11,
8,
8,
7,
12,
7,
8,
6,
5,
9,
2,
10,
6,
6,
4,
6,
3,
11,
3,
9,
7,
4,
11,
6,
7,
7,
4,
6,
3,
5,
6,
2,
6,
2,
4,
5,
4,
7,
7,
4,
2,
2,
3,
4,
6,
2,
5,
4,
4,
2,
6,
4,
5,
4,
1,
5,
1,
1,
5,
7,
5,
4,
3,
0,
0,
2,
1,
3,
3,
1,
1,
1,
1,
4,
1,
0,
3,
3,
0,
4,
2,
1,
1,
3,
1,
1,
0,
1,
1,
1,
4,
1,
3,
0,
1,
1,
1,
0,
1,
0,
0,
0,
3,
2,
0,
1,
0,
0,
0,
0,
1,
1,
2,
2,
0,
2,
1,
0,
0,
0,
0,
0,
1,
1,
0,
0,
0,
0,
1,
0,
0,
1,
1,
1,
0,
0,
0,
0,
1,
1,
0,
1,
0,
0,
0,
0,
0,
0,
0,
0,
1,
1,
0,
2,
0,
1,
0,
0,
1,
0,
0,
0,
1,
0,
0,
0,
0,
0,
0,
1,
0,
0,
0,
0,
0,
2,
0,
0,
0,
0,
0,
0,
0,
0,
1,
0,
0,
0,
0,
0,
0,
0,
0,
0,
0,
1,
0,
0,
0,
0,
1,
0,
0,
1,
0,
0,
0,
0,
0,
0,
0,
0,
0,
1,
0,
0,
0,
0,
0,
0,
1,
0,
0,
0,
0,
0,
0,
0,
0,
0,
0,
0,
0,
0,
0,
0,
0,
0,
1,
1,
0,
0,
0,
0,
0,
0,
0,
0,
0,
0,
1,
0,
0,
0,
0,
0,
0,
0,
0,
0,
0,
0,
0,
0,
0,
0,
0,
0,
0,
0,
0,
0,
0,
0,
0,
0,
0,
0,
0,
0,
0,
0,
0,
0,
0,
0,
0,
0,
0,
0,
0,
0,
0,
0,
0,
0,
0,
0,
0,
0,
0,
0,
0,
0,
0,
0,
0,
0,
0,
0,
0,
0,
0,
0,
0,
0,
0,
0,
0,
0,
0,
0,
0,
0,
0,
0,
0,
0,
0,
0,
0,
0,
0,
0,
0,
0,
0,
0,
0,
0,
0,
0,
0,
0,
0,
0,
0,
0,
0,
0,
0,
0,
0,
0,
0,
0,
0,
0,
0,
0,
0,
0,
0,
0,
0,
0,
0,
0,
0,
0,
0,
0,
0,
0,
0,
0,
0,
0,
0,
0,
0,
0,
0,
0,
0,
0,
0,
0,
0,
0,
0,
0,
0,
0,
0,
0,
0,
0,
0,
0,
0,
0,
0,
0,
0,
0,
0,
0,
0,
0,
0,
0,
0,
0,
0,
0,
0,
0,
0,
0,
0,
0,
0,
0,
0,
0,
0,
0,
0,
0,
0,
0,
0,
0,
0,
0,
0,
0,
0,
0,
0,
0,
0,
0,
0,
0,
0,
0,
0,
0,
0,
0,
0,
0,
0,
0,
0,
0,
0,
0,
0,
0,
0,
0,
0,
0,
0,
0,
0,
0,
0,
0,
0,
0,
0,
0,
0,
0,
0,
0,
0,
0,
0,
0,
0,
0,
0,
0,
0,
0,
0,
0,
0,
0,
0,
0,
0,
0,
0,
0,
0,
0,
0,
0,
0,
0,
0,
0,
0,
0,
0,
0,
0,
0,
0,
0,
0,
0,
0,
0,
0,
0,
0,
0,
0,
0,
0,
0,
0,
0,
0,
0,
0,
0,
0,
0,
0,
0,
0,
0,
0,
0,
0,
0,
0,
0,
0,
0,
0,
0,
0,
0,
0,
0,
0,
0,
0,
0,
0,
0,
0,
0,
0,
0,
0,
0,
0,
0,
0,
0,
0,
0,
0,
0,
0,
0,
0,
0,
0,
0,
0,
0,
0,
0,
0,
0,
0,
0,
0,
0,
0,
0,
0,
0,
0,
0,
0,
0,
0,
0,
0,
0,
0,
0,
0,
0,
0,
0,
0,
0,
0,
0,
0,
0,
0,
0,
0,
0,
0,
0,
0,
0,
0,
0,
0,
0,
0,
0,
0,
0,
0,
0,
0,
0,
0,
0,
0,
0,
0,
0,
0,
0,
0,
0,
0,
0,
0,
0,
0,
0,
0,
0,
0,
0,
0,
0,
0,
0,
0,
0,
0,
0,
0,
0,
0,
0,
0,
0,
0,
0,
0,
0,
0,
0,
0,
0,
0,
0,
0,
0,
0,
0,
0,
0,
0,
0,
0,
0,
0,
0,
0,
0,
0,
0,
0,
0,
0,
0,
0,
0,
0,
0,
0,
0,
0,
0,
0,
0,
0,
0,
0,
0,
0,
0,
0,
0,
0,
0,
0,
0,
0,
0,
0,
0,
0,
0,
0,
0,
0,
0,
0,
0,
0,
0,
0,
0,
0,
0,
0,
0,
0,
0,
0,
0,
0,
0,
0,
0,
0,
0,
0,
0,
0,
0,
0,
0,
#ENDOFDATA   :