File: N132962/Standards/15 keV/FeS2 std.msa
#FORMAT      : EMSA/MAS Spectral Data File
#VERSION     : 1.0
#TITLE       : FeS2 standard for 'N132962' detector
#NPOINTS     : 4096
#NCOLUMNS    : 1
#XUNITS      : eV
#YUNITS      : counts
#DATATYPE    : Y
#SIGNALTYPE  : EDS
#XLABEL      : Energy (eV)
#YLABEL      : Counts
#XPERCHAN -eV: 9.99778
#OFFSET   -eV: 1.69135
#CHOFFSET    : 0
#DATE        : 27-Sep-2025
#TIME        : 18:36:00
#OWNER       : Unknown
#ELEVANGLE   : 35
#BEAMKV   -kV: 15
#LIVETIME  -s: 1919.7
#REALTIME  -s: 2070.09
#PROBECUR -nA: 1.20973
##WORKING -mm: 15
##D2STDCMP   : FeS2,(S:53.4489),(Fe:46.5511)
##SIMILAR    : 1.2
#SPECTRUM    :
204,
239,
124,
734,
4647,
9793,
11163,
21899,
51261,
65570,
38513,
24513,
25664,
27871,
31586,
38788,
53780,
78549,
118981,
173456,
218184,
234713,
387624,
670730,
558066,
210435,
67404,
44169,
38906,
38600,
42054,
45454,
44137,
43319,
43639,
43146,
43067,
43931,
44976,
45770,
46429,
47604,
47757,
48530,
49797,
50008,
51245,
51961,
52123,
52873,
53105,
52184,
51271,
51221,
51679,
51399,
52653,
56303,
57923,
57378,
54892,
51570,
48697,
46931,
46608,
47576,
48032,
48524,
49381,
49332,
51334,
60048,
86060,
153197,
369470,
1016850,
2087991,
2609931,
1893523,
815840,
277240,
189794,
212462,
177630,
101738,
50062,
31100,
26518,
25954,
26031,
25435,
25576,
25765,
25848,
25742,
26065,
26184,
26513,
26647,
27227,
27784,
27158,
26036,
25340,
24435,
24413,
24141,
23840,
24016,
23701,
23631,
23365,
23161,
22979,
23043,
22813,
22773,
22596,
22349,
22331,
21994,
21957,
21944,
21502,
21349,
21130,
21387,
20956,
20919,
20776,
20591,
20346,
20397,
20089,
20096,
19977,
19786,
19727,
19631,
19137,
19115,
19081,
18638,
18615,
18447,
18577,
18411,
18034,
18164,
18242,
18515,
19103,
20550,
22249,
22923,
22329,
20630,
18905,
17625,
17492,
16988,
16846,
16302,
16235,
15759,
15967,
15731,
15551,
15193,
15151,
15458,
14919,
14827,
14888,
14922,
14764,
14692,
14312,
14389,
14486,
13975,
13741,
13939,
13746,
13636,
13710,
13437,
13345,
12986,
13116,
13002,
13013,
12852,
12961,
12659,
12609,
12373,
12378,
12579,
12354,
12399,
12101,
12303,
12389,
12532,
12953,
13209,
15170,
22585,
46592,
104999,
205020,
321329,
392619,
365354,
263537,
149231,
67908,
29250,
15689,
11540,
10870,
10542,
10507,
10520,
10312,
10203,
10357,
10590,
11366,
13296,
17318,
26126,
38643,
51973,
58333,
53712,
40243,
25767,
16284,
10887,
8933,
8342,
8000,
7911,
7983,
7875,
7935,
7863,
7889,
7731,
7561,
7606,
7487,
7493,
7501,
7319,
7193,
7426,
7215,
7110,
7025,
6995,
6843,
7020,
6899,
6957,
6808,
6876,
6809,
6474,
6673,
6431,
6511,
6255,
6325,
6266,
6325,
6232,
6083,
6252,
6064,
6148,
5981,
5839,
6057,
6055,
6258,
6482,
6544,
6632,
6670,
6306,
5901,
5835,
5628,
5479,
5347,
5276,
5240,
5191,
5174,
5086,
5097,
5028,
5022,
4935,
4875,
4863,
4836,
4810,
4768,
4910,
4750,
4591,
4568,
4569,
4593,
4548,
4407,
4250,
4251,
4347,
4253,
4118,
4126,
4175,
4203,
4033,
4028,
3900,
3927,
3908,
3931,
3803,
3757,
3705,
3701,
3515,
3549,
3596,
3517,
3547,
3441,
3371,
3540,
3221,
3395,
3284,
3298,
3098,
3171,
3195,
3070,
3080,
3019,
3048,
2979,
3028,
2807,
2834,
2871,
2749,
2804,
2726,
2746,
2694,
2698,
2682,
2696,
2585,
2575,
2553,
2484,
2398,
2345,
2400,
2399,
2320,
2363,
2334,
2302,
2174,
2061,
2163,
2146,
2219,
2072,
2177,
2067,
2014,
1939,
1962,
1893,
1867,
1863,
1835,
1870,
1861,
1742,
1691,
1707,
1600,
1655,
1604,
1635,
1596,
1555,
1563,
1548,
1530,
1520,
1452,
1489,
1385,
1380,
1283,
1353,
1261,
1288,
1297,
1247,
1208,
1283,
1202,
1246,
1241,
1188,
1148,
1161,
1105,
1058,
1056,
980,
953,
936,
921,
937,
926,
895,
870,
810,
822,
797,
756,
798,
775,
727,
737,
696,
722,
725,
620,
630,
631,
614,
629,
590,
580,
528,
512,
494,
511,
495,
445,
475,
425,
463,
406,
419,
367,
332,
359,
312,
341,
327,
294,
292,
265,
250,
287,
256,
233,
213,
184,
176,
183,
174,
163,
147,
131,
118,
102,
89,
76,
64,
56,
62,
35,
33,
22,
20,
13,
13,
11,
13,
10,
9,
14,
17,
10,
9,
11,
14,
9,
10,
9,
11,
5,
5,
8,
11,
9,
4,
10,
4,
5,
10,
9,
12,
7,
7,
5,
6,
5,
10,
7,
8,
10,
7,
10,
5,
4,
5,
5,
8,
8,
4,
5,
6,
8,
7,
9,
7,
3,
4,
3,
6,
8,
7,
4,
3,
7,
2,
7,
9,
7,
6,
2,
5,
3,
11,
8,
10,
4,
5,
5,
8,
8,
4,
4,
3,
6,
3,
5,
6,
3,
4,
6,
7,
3,
5,
1,
1,
5,
6,
7,
1,
3,
3,
2,
4,
4,
2,
4,
2,
3,
3,
5,
0,
6,
1,
1,
4,
4,
4,
3,
2,
1,
1,
0,
1,
3,
2,
1,
1,
1,
1,
1,
4,
3,
1,
1,
4,
2,
3,
0,
1,
2,
2,
1,
0,
2,
0,
2,
2,
2,
1,
0,
1,
1,
0,
3,
3,
2,
0,
0,
1,
1,
1,
2,
1,
2,
3,
2,
1,
3,
1,
3,
0,
1,
0,
1,
0,
2,
2,
1,
1,
1,
2,
0,
0,
1,
2,
1,
0,
0,
1,
2,
3,
0,
0,
0,
0,
0,
0,
1,
0,
0,
0,
0,
1,
0,
0,
0,
0,
1,
0,
0,
0,
0,
1,
0,
0,
0,
2,
0,
0,
0,
0,
0,
0,
0,
0,
0,
0,
0,
0,
0,
2,
0,
0,
0,
0,
0,
0,
1,
1,
0,
0,
0,
0,
0,
0,
0,
0,
0,
0,
0,
0,
0,
2,
0,
1,
0,
0,
0,
0,
0,
1,
0,
0,
0,
0,
0,
1,
0,
0,
0,
0,
0,
0,
1,
0,
0,
0,
0,
0,
0,
0,
0,
0,
0,
0,
0,
0,
1,
0,
0,
0,
1,
0,
1,
0,
0,
0,
0,
0,
0,
0,
0,
0,
1,
0,
0,
0,
0,
0,
0,
0,
0,
0,
0,
0,
0,
0,
0,
0,
0,
0,
0,
0,
0,
0,
0,
0,
0,
0,
0,
0,
0,
0,
0,
0,
0,
0,
0,
0,
0,
0,
0,
0,
1,
0,
0,
0,
0,
0,
0,
0,
0,
0,
0,
0,
0,
0,
0,
0,
0,
0,
0,
0,
0,
0,
0,
0,
0,
0,
0,
0,
0,
0,
0,
0,
0,
0,
0,
0,
0,
0,
0,
0,
0,
0,
0,
0,
0,
0,
0,
0,
0,
0,
0,
0,
0,
0,
0,
0,
0,
0,
0,
0,
0,
0,
0,
0,
0,
0,
0,
0,
0,
0,
0,
0,
0,
0,
0,
0,
0,
0,
0,
0,
0,
0,
0,
0,
0,
0,
0,
0,
0,
0,
0,
0,
0,
0,
0,
0,
0,
0,
0,
0,
0,
0,
0,
0,
0,
0,
0,
0,
0,
0,
0,
0,
0,
0,
0,
0,
0,
0,
0,
0,
0,
0,
0,
0,
0,
0,
0,
0,
0,
0,
0,
0,
0,
0,
0,
0,
0,
0,
0,
0,
0,
0,
0,
0,
0,
0,
0,
0,
0,
0,
0,
0,
0,
0,
0,
0,
0,
0,
0,
0,
0,
0,
0,
0,
0,
0,
0,
0,
0,
0,
0,
0,
0,
0,
0,
0,
0,
0,
0,
0,
0,
0,
0,
0,
0,
0,
0,
0,
0,
0,
0,
0,
0,
0,
0,
0,
0,
0,
0,
0,
0,
0,
0,
0,
0,
0,
0,
0,
0,
0,
0,
0,
0,
0,
0,
0,
0,
0,
0,
0,
0,
0,
0,
0,
0,
0,
0,
0,
0,
0,
0,
0,
0,
0,
0,
0,
0,
0,
0,
0,
0,
0,
0,
0,
0,
0,
0,
0,
0,
0,
0,
0,
0,
0,
0,
0,
0,
0,
0,
0,
0,
0,
0,
0,
0,
0,
0,
0,
0,
0,
0,
0,
0,
0,
0,
0,
0,
0,
0,
0,
0,
0,
0,
0,
0,
0,
0,
0,
0,
0,
0,
0,
0,
0,
0,
0,
0,
0,
0,
0,
0,
0,
0,
0,
0,
0,
0,
0,
0,
0,
0,
0,
0,
0,
0,
0,
0,
0,
0,
0,
0,
0,
0,
0,
0,
0,
0,
0,
0,
0,
0,
0,
0,
0,
0,
0,
0,
0,
0,
0,
0,
0,
0,
0,
0,
0,
0,
0,
0,
0,
0,
0,
0,
0,
0,
0,
0,
0,
0,
0,
0,
0,
0,
0,
0,
0,
0,
0,
0,
0,
0,
0,
0,
0,
0,
0,
0,
0,
0,
0,
0,
0,
0,
0,
0,
0,
0,
0,
0,
0,
0,
0,
0,
0,
0,
0,
0,
0,
0,
0,
0,
0,
0,
0,
0,
0,
0,
0,
0,
0,
0,
0,
0,
0,
0,
0,
0,
0,
0,
0,
0,
0,
0,
0,
0,
0,
0,
0,
0,
0,
0,
0,
0,
0,
0,
0,
0,
0,
0,
0,
0,
0,
0,
0,
0,
0,
0,
0,
0,
0,
0,
0,
0,
0,
0,
0,
0,
0,
0,
0,
0,
0,
0,
0,
0,
0,
0,
0,
0,
0,
0,
0,
0,
0,
0,
0,
0,
0,
0,
0,
0,
0,
0,
0,
0,
0,
0,
0,
0,
0,
0,
0,
0,
0,
0,
0,
0,
0,
0,
0,
0,
0,
0,
0,
0,
0,
0,
0,
0,
0,
0,
0,
0,
0,
0,
0,
0,
0,
0,
0,
0,
0,
0,
0,
#ENDOFDATA   :