File: N132962/Standards/15 keV/FeSi2 std.msa
#FORMAT      : EMSA/MAS Spectral Data File
#VERSION     : 1.0
#TITLE       : FeSi2 standard for 'N132962' detector
#NPOINTS     : 4096
#NCOLUMNS    : 1
#XUNITS      : eV
#YUNITS      : counts
#DATATYPE    : Y
#SIGNALTYPE  : EDS
#XLABEL      : Energy (eV)
#YLABEL      : Counts
#XPERCHAN -eV: 9.99778
#OFFSET   -eV: 1.69135
#CHOFFSET    : 0
#DATE        : 27-Sep-2025
#TIME        : 18:57:00
#OWNER       : Unknown
#ELEVANGLE   : 35
#BEAMKV   -kV: 15
#LIVETIME  -s: 1919.35
#REALTIME  -s: 2080.915
#PROBECUR -nA: 1.21052
##WORKING -mm: 15
##D2STDCMP   : FeSi2,(Si:50.1451),(Fe:49.8549)
##SIMILAR    : 1.2
#SPECTRUM    :
203,
219,
143,
336,
945,
3113,
8338,
21829,
52799,
66656,
41337,
28729,
29914,
33159,
37838,
45030,
56903,
71919,
89249,
151227,
250309,
303456,
525427,
907677,
733514,
257518,
71374,
43063,
37875,
37085,
40120,
43076,
42522,
42259,
43166,
43298,
42751,
43061,
44137,
45199,
45776,
47144,
48075,
48932,
50191,
51220,
52209,
53525,
55316,
57923,
60100,
61293,
62700,
66519,
87375,
255057,
1019362,
2589648,
3464896,
2400267,
939822,
319733,
150122,
72974,
37766,
28659,
27393,
27535,
27566,
27375,
27566,
27676,
27902,
27912,
28243,
28243,
28883,
29211,
29987,
30976,
32029,
33400,
32628,
30300,
28610,
27631,
27366,
26809,
27163,
26809,
26588,
26617,
26289,
26182,
26049,
25663,
25844,
25511,
25885,
25633,
25276,
25154,
25022,
24723,
24464,
24311,
24195,
24165,
23949,
23661,
23650,
23405,
23593,
24355,
26614,
30046,
31664,
29410,
26156,
23671,
22401,
22085,
21323,
21434,
20929,
20791,
20685,
20482,
20325,
20093,
20202,
20107,
19812,
19789,
19506,
19336,
19061,
18921,
18731,
18583,
18445,
18539,
18106,
18152,
17861,
17692,
17834,
17540,
17447,
17213,
17083,
17139,
17253,
17364,
17606,
17643,
17399,
16874,
16516,
16056,
15752,
15472,
15550,
15336,
15334,
15305,
14910,
14779,
14865,
14821,
14542,
14523,
14277,
14248,
14062,
14138,
14166,
13955,
14032,
13695,
13495,
13518,
13450,
13112,
13128,
12967,
12832,
12741,
12585,
12650,
12443,
12130,
12350,
12307,
12053,
12099,
11953,
11817,
11935,
12088,
11762,
11707,
11753,
11796,
11913,
12031,
12654,
14883,
22112,
46542,
105214,
206376,
323431,
394245,
368270,
264320,
149502,
68531,
28913,
14800,
11108,
10278,
10063,
9842,
9834,
9745,
9925,
10047,
10325,
10822,
12461,
16670,
25876,
38709,
52265,
57908,
53223,
39763,
26085,
15843,
10720,
8766,
7928,
7585,
7424,
7518,
7502,
7343,
7553,
7432,
7353,
7255,
7094,
6943,
6954,
7008,
7027,
6949,
6983,
6766,
6864,
6723,
6594,
6520,
6506,
6329,
6509,
6492,
6991,
7271,
7372,
7662,
7753,
7123,
6760,
6298,
6100,
5832,
5818,
5745,
5693,
5595,
5641,
5558,
5539,
5629,
5506,
5402,
5367,
5395,
5378,
5337,
5312,
5263,
5190,
5294,
5058,
5074,
4886,
4910,
4773,
4953,
4778,
4773,
4663,
4520,
4549,
4600,
4628,
4399,
4486,
4367,
4383,
4211,
4146,
4104,
4261,
4160,
4211,
4146,
4156,
3956,
3909,
3962,
3888,
3814,
3875,
3780,
3825,
3758,
3727,
3689,
3578,
3500,
3504,
3501,
3492,
3569,
3411,
3371,
3374,
3282,
3242,
3266,
3154,
3095,
3101,
3087,
3126,
3051,
3118,
3020,
2859,
2859,
2965,
2908,
2796,
2761,
2683,
2672,
2684,
2739,
2539,
2610,
2610,
2505,
2516,
2470,
2417,
2345,
2407,
2329,
2371,
2239,
2263,
2253,
2159,
2182,
2104,
2127,
2151,
2087,
2061,
2065,
2079,
1960,
1940,
1921,
1881,
1841,
1811,
1794,
1846,
1756,
1771,
1689,
1693,
1739,
1611,
1621,
1597,
1550,
1593,
1483,
1579,
1438,
1479,
1458,
1483,
1400,
1403,
1341,
1293,
1232,
1346,
1212,
1274,
1216,
1170,
1158,
1169,
1172,
1101,
1133,
1209,
1147,
1135,
1079,
1089,
1156,
965,
994,
1039,
958,
903,
866,
838,
787,
817,
814,
800,
762,
762,
787,
788,
757,
687,
714,
710,
638,
592,
625,
655,
565,
555,
523,
525,
544,
507,
486,
546,
480,
495,
446,
426,
404,
430,
362,
357,
384,
329,
325,
306,
324,
313,
298,
268,
230,
253,
206,
197,
224,
191,
225,
195,
178,
155,
167,
132,
136,
128,
114,
93,
122,
81,
62,
51,
51,
39,
35,
26,
18,
20,
11,
14,
12,
10,
13,
10,
8,
18,
15,
15,
13,
8,
12,
6,
5,
10,
7,
4,
7,
11,
9,
5,
6,
8,
7,
5,
8,
6,
6,
7,
9,
5,
1,
4,
6,
5,
6,
7,
4,
9,
6,
6,
5,
6,
6,
7,
9,
2,
1,
4,
3,
3,
4,
4,
3,
1,
3,
2,
3,
7,
11,
4,
10,
2,
3,
4,
4,
3,
5,
8,
5,
5,
4,
4,
3,
3,
7,
8,
5,
3,
5,
5,
4,
4,
2,
1,
2,
7,
4,
5,
7,
5,
7,
2,
3,
4,
7,
1,
5,
1,
5,
3,
2,
3,
6,
2,
3,
3,
5,
3,
1,
3,
4,
5,
3,
4,
2,
0,
2,
2,
1,
1,
2,
0,
2,
3,
3,
2,
0,
2,
3,
3,
1,
2,
0,
3,
2,
3,
1,
2,
6,
2,
1,
1,
1,
2,
3,
0,
0,
0,
1,
1,
2,
1,
0,
4,
2,
2,
4,
0,
2,
1,
1,
0,
0,
0,
1,
0,
1,
0,
1,
1,
1,
1,
0,
1,
0,
1,
0,
1,
0,
1,
2,
1,
0,
1,
0,
0,
0,
0,
1,
0,
1,
0,
1,
0,
0,
0,
0,
0,
0,
1,
2,
0,
0,
0,
1,
0,
0,
0,
1,
0,
0,
0,
0,
1,
1,
0,
0,
0,
1,
0,
0,
0,
0,
0,
0,
0,
1,
0,
1,
0,
0,
0,
0,
0,
1,
0,
1,
1,
0,
1,
0,
0,
0,
0,
3,
0,
0,
0,
0,
0,
0,
0,
0,
0,
0,
0,
0,
0,
0,
0,
0,
1,
0,
0,
0,
0,
1,
0,
0,
0,
0,
1,
0,
1,
0,
0,
2,
0,
0,
1,
0,
0,
0,
0,
0,
0,
0,
0,
0,
0,
0,
0,
0,
0,
0,
1,
0,
0,
0,
0,
0,
0,
0,
0,
0,
0,
0,
0,
0,
0,
0,
0,
0,
0,
0,
0,
0,
0,
0,
0,
0,
1,
0,
0,
0,
0,
0,
0,
0,
0,
0,
0,
0,
0,
0,
0,
0,
0,
0,
0,
0,
0,
0,
0,
0,
0,
0,
0,
0,
0,
0,
0,
0,
0,
0,
0,
0,
0,
0,
0,
0,
0,
0,
0,
0,
0,
0,
0,
0,
0,
0,
0,
0,
0,
0,
0,
0,
0,
0,
0,
0,
0,
0,
0,
0,
0,
0,
0,
0,
0,
0,
0,
0,
0,
0,
0,
0,
0,
0,
0,
0,
0,
0,
0,
0,
0,
0,
0,
0,
0,
0,
0,
0,
0,
0,
0,
0,
0,
0,
0,
0,
0,
0,
0,
0,
0,
0,
0,
0,
0,
0,
0,
0,
0,
0,
0,
0,
0,
0,
0,
0,
0,
0,
0,
0,
0,
0,
0,
0,
0,
0,
0,
0,
0,
0,
0,
0,
0,
0,
0,
0,
0,
0,
0,
0,
0,
0,
0,
0,
0,
0,
0,
0,
0,
0,
0,
0,
0,
0,
0,
0,
0,
0,
0,
0,
0,
0,
0,
0,
0,
0,
0,
0,
0,
0,
0,
0,
0,
0,
0,
0,
0,
0,
0,
0,
0,
0,
0,
0,
0,
0,
0,
0,
0,
0,
0,
0,
0,
0,
0,
0,
0,
0,
0,
0,
0,
0,
0,
0,
0,
0,
0,
0,
0,
0,
0,
0,
0,
0,
0,
0,
0,
0,
0,
0,
0,
0,
0,
0,
0,
0,
0,
0,
0,
0,
0,
0,
0,
0,
0,
0,
0,
0,
0,
0,
0,
0,
0,
0,
0,
0,
0,
0,
0,
0,
0,
0,
0,
0,
0,
0,
0,
0,
0,
0,
0,
0,
0,
0,
0,
0,
0,
0,
0,
0,
0,
0,
0,
0,
0,
0,
0,
0,
0,
0,
0,
0,
0,
0,
0,
0,
0,
0,
0,
0,
0,
0,
0,
0,
0,
0,
0,
0,
0,
0,
0,
0,
0,
0,
0,
0,
0,
0,
0,
0,
0,
0,
0,
0,
0,
0,
0,
0,
0,
0,
0,
0,
0,
0,
0,
0,
0,
0,
0,
0,
0,
0,
0,
0,
0,
0,
0,
0,
0,
0,
0,
0,
0,
0,
0,
0,
0,
0,
0,
0,
0,
0,
0,
0,
0,
0,
0,
0,
0,
0,
0,
0,
0,
0,
0,
0,
0,
0,
0,
0,
0,
0,
0,
0,
0,
0,
0,
0,
0,
0,
0,
0,
0,
0,
0,
0,
0,
0,
0,
0,
0,
0,
0,
0,
0,
0,
0,
0,
0,
0,
0,
0,
0,
0,
0,
0,
0,
0,
0,
0,
0,
0,
0,
0,
0,
0,
0,
0,
0,
0,
0,
0,
0,
0,
0,
0,
0,
0,
0,
0,
0,
0,
0,
0,
0,
0,
0,
0,
0,
0,
0,
0,
0,
0,
0,
0,
0,
0,
0,
0,
0,
0,
0,
0,
0,
0,
0,
0,
0,
0,
0,
0,
0,
0,
0,
0,
0,
0,
0,
0,
0,
0,
0,
0,
0,
0,
0,
0,
0,
0,
0,
0,
0,
0,
0,
0,
0,
0,
0,
0,
0,
0,
0,
0,
0,
0,
0,
0,
0,
0,
0,
0,
0,
0,
0,
0,
0,
0,
0,
0,
0,
0,
0,
0,
0,
0,
0,
0,
0,
0,
0,
0,
0,
0,
0,
0,
0,
0,
0,
0,
0,
0,
0,
0,
0,
0,
#ENDOFDATA   :