File: N132962/Standards/15 keV/GaP std.msa
#FORMAT      : EMSA/MAS Spectral Data File
#VERSION     : 1.0
#TITLE       : GaP standard for 'N132962' detector
#NPOINTS     : 4096
#NCOLUMNS    : 1
#XUNITS      : eV
#YUNITS      : counts
#DATATYPE    : Y
#SIGNALTYPE  : EDS
#XLABEL      : Energy (eV)
#YLABEL      : Counts
#XPERCHAN -eV: 9.99778
#OFFSET   -eV: 1.69135
#CHOFFSET    : 0
#DATE        : 27-Sep-2025
#TIME        : 18:04:00
#OWNER       : Unknown
#ELEVANGLE   : 35
#BEAMKV   -kV: 15
#LIVETIME  -s: 2158.83
#REALTIME  -s: 2360.6
#PROBECUR -nA: 1.20959
##WORKING -mm: 15
##D2STDCMP   : GaP,(P:30.7594),(Ga:69.2406)
##SIMILAR    : 1.0
#SPECTRUM    :
205,
256,
110,
410,
1511,
4494,
11947,
32248,
89570,
121730,
69547,
37161,
37038,
41291,
44938,
51422,
62798,
74591,
73697,
69179,
71994,
77605,
84085,
88255,
92900,
96071,
100197,
105961,
111601,
124914,
174241,
290013,
378167,
350230,
473864,
1450882,
3362029,
3883541,
2183854,
658388,
156554,
65208,
46563,
42509,
41313,
41751,
42493,
43543,
44052,
45220,
46596,
46079,
46243,
46827,
48142,
49228,
51564,
54724,
58093,
58948,
58445,
59438,
68276,
100217,
200961,
504313,
1088756,
1472305,
1133991,
516632,
204823,
143321,
120375,
85389,
59373,
46089,
39445,
37345,
36899,
36204,
36112,
36066,
36210,
36210,
36375,
35956,
35957,
35830,
36327,
35980,
35953,
35747,
35757,
35338,
35781,
35452,
35672,
35305,
35456,
35602,
35397,
36614,
38428,
40943,
41444,
39385,
36373,
34243,
33271,
32918,
32607,
32219,
31744,
31692,
31495,
31418,
31196,
31148,
30480,
30437,
30232,
30181,
30043,
29587,
29316,
29374,
29193,
29057,
28787,
28642,
28213,
28735,
28570,
28852,
29060,
28576,
27804,
27553,
27173,
26589,
26569,
26136,
25864,
26037,
25677,
25628,
25153,
25246,
24877,
24714,
24577,
24256,
23813,
23980,
23788,
23679,
23553,
23358,
22957,
22813,
22622,
22636,
22372,
21966,
22250,
21888,
21667,
21511,
20969,
21007,
20972,
20946,
20584,
20519,
20331,
20494,
20085,
20010,
20000,
19644,
19584,
19374,
19420,
18866,
19008,
18678,
18693,
18681,
18327,
18088,
18091,
17996,
17907,
17837,
17639,
17566,
17273,
17154,
16888,
16890,
16796,
16367,
16467,
16343,
16242,
16064,
16103,
15826,
15585,
15613,
15577,
15730,
15843,
15476,
15637,
15470,
15062,
14598,
14516,
14431,
14460,
14342,
13923,
14021,
13964,
13802,
13772,
13481,
13375,
13575,
13249,
13010,
13032,
12877,
12941,
12740,
12788,
12496,
12524,
12517,
12224,
12204,
11968,
12013,
11803,
11798,
11815,
11968,
11888,
11821,
11657,
11837,
11375,
11262,
10859,
10813,
10805,
10795,
10632,
10585,
10420,
10429,
10432,
10237,
9936,
10228,
10162,
10051,
9821,
10065,
9808,
9339,
9646,
9595,
9430,
9314,
9235,
9132,
8960,
8797,
8923,
8804,
8751,
8713,
8613,
8651,
8614,
8627,
8440,
8420,
8260,
8380,
8191,
8150,
8104,
8116,
8035,
8086,
7928,
8239,
8416,
9893,
13385,
22771,
42006,
73732,
112492,
143975,
155012,
138467,
102839,
65258,
36104,
19075,
11042,
8009,
7078,
6874,
6592,
6582,
6546,
6423,
6306,
6204,
6111,
6043,
6209,
6136,
5930,
5970,
5932,
5950,
5968,
5818,
6019,
6196,
6878,
8126,
10966,
15006,
19999,
23842,
25306,
23040,
18934,
14156,
10218,
7347,
5814,
5189,
4627,
4456,
4476,
4344,
4357,
4296,
4162,
4220,
4137,
4048,
4022,
3937,
3946,
4008,
3998,
3769,
3874,
3842,
3746,
3710,
3702,
3739,
3754,
3727,
3791,
3850,
3782,
3646,
3555,
3482,
3338,
3360,
3226,
3290,
3094,
3104,
3138,
2883,
2925,
2921,
2844,
2810,
2826,
2675,
2734,
2753,
2673,
2700,
2596,
2479,
2525,
2463,
2489,
2407,
2410,
2382,
2342,
2300,
2268,
2296,
2247,
2103,
2156,
2087,
2009,
1920,
1868,
1963,
1927,
1786,
1850,
1847,
1790,
1695,
1716,
1735,
1690,
1743,
1534,
1649,
1630,
1546,
1541,
1451,
1443,
1436,
1342,
1364,
1347,
1338,
1259,
1295,
1175,
1188,
1173,
1120,
1124,
1064,
1088,
1058,
1004,
1050,
975,
973,
942,
920,
891,
860,
828,
840,
818,
795,
730,
710,
730,
652,
677,
662,
614,
597,
575,
554,
544,
539,
497,
507,
468,
435,
445,
390,
378,
396,
333,
361,
294,
277,
288,
266,
222,
213,
199,
205,
175,
135,
120,
129,
98,
84,
64,
52,
44,
36,
21,
20,
17,
19,
19,
16,
9,
22,
21,
13,
15,
13,
18,
12,
8,
16,
21,
9,
16,
7,
17,
10,
8,
16,
12,
8,
11,
6,
9,
4,
15,
3,
11,
7,
15,
11,
11,
2,
11,
10,
16,
10,
5,
11,
8,
6,
13,
8,
7,
5,
6,
8,
7,
8,
8,
9,
6,
6,
4,
10,
8,
12,
10,
10,
13,
7,
7,
9,
11,
7,
7,
12,
6,
6,
8,
6,
3,
12,
11,
4,
8,
8,
7,
6,
4,
6,
8,
11,
5,
7,
4,
5,
9,
9,
8,
3,
6,
6,
10,
7,
3,
4,
5,
4,
4,
7,
4,
8,
9,
9,
12,
16,
11,
21,
19,
19,
16,
15,
11,
9,
3,
7,
2,
4,
1,
5,
7,
4,
7,
8,
4,
6,
6,
4,
5,
5,
10,
6,
7,
6,
4,
2,
5,
4,
8,
9,
7,
9,
6,
4,
9,
3,
8,
2,
6,
3,
4,
5,
1,
1,
3,
2,
3,
1,
6,
2,
4,
5,
6,
1,
3,
3,
4,
2,
1,
3,
0,
2,
4,
2,
8,
1,
3,
3,
2,
0,
1,
2,
4,
0,
0,
2,
1,
1,
0,
1,
2,
1,
1,
1,
2,
0,
2,
0,
1,
1,
0,
1,
1,
0,
0,
1,
0,
2,
4,
0,
2,
2,
1,
1,
1,
1,
2,
2,
1,
1,
0,
1,
2,
2,
1,
2,
2,
1,
1,
1,
2,
2,
2,
1,
1,
0,
0,
2,
1,
2,
3,
1,
1,
2,
1,
0,
2,
0,
0,
1,
4,
0,
1,
0,
0,
0,
1,
1,
0,
0,
1,
1,
0,
0,
0,
0,
0,
0,
0,
0,
1,
0,
0,
0,
1,
0,
0,
1,
0,
0,
0,
0,
1,
1,
0,
0,
0,
1,
0,
0,
0,
0,
0,
1,
1,
0,
1,
1,
0,
0,
0,
0,
0,
1,
1,
0,
0,
0,
0,
0,
0,
0,
0,
0,
0,
0,
0,
0,
0,
0,
0,
0,
0,
0,
0,
0,
0,
0,
1,
0,
0,
0,
0,
0,
0,
0,
0,
0,
2,
0,
0,
0,
0,
0,
0,
0,
0,
0,
0,
0,
0,
0,
1,
0,
0,
0,
0,
0,
0,
0,
0,
0,
1,
0,
0,
0,
0,
0,
0,
0,
0,
0,
0,
0,
0,
0,
0,
0,
0,
0,
0,
0,
0,
0,
0,
0,
0,
0,
0,
0,
0,
0,
0,
0,
0,
0,
0,
0,
0,
0,
0,
0,
0,
0,
0,
0,
0,
0,
0,
0,
0,
0,
0,
0,
0,
0,
0,
0,
0,
0,
0,
0,
0,
0,
0,
0,
0,
0,
0,
0,
0,
0,
0,
0,
0,
0,
0,
0,
0,
0,
0,
0,
0,
0,
0,
0,
0,
0,
0,
0,
0,
0,
0,
0,
0,
0,
0,
1,
0,
0,
0,
0,
0,
0,
0,
0,
0,
0,
0,
0,
0,
0,
0,
0,
0,
0,
0,
0,
0,
0,
0,
0,
0,
0,
0,
0,
0,
0,
0,
0,
0,
0,
0,
0,
0,
0,
0,
0,
0,
0,
0,
0,
0,
0,
0,
0,
0,
0,
0,
0,
0,
0,
0,
0,
0,
0,
0,
0,
0,
0,
0,
0,
0,
0,
0,
0,
0,
0,
0,
0,
0,
0,
0,
0,
0,
0,
0,
0,
0,
0,
0,
0,
0,
0,
0,
0,
0,
0,
0,
0,
0,
0,
0,
0,
0,
0,
0,
0,
0,
0,
0,
0,
0,
0,
0,
0,
0,
0,
0,
0,
0,
0,
0,
0,
0,
0,
0,
0,
0,
0,
0,
0,
0,
0,
0,
0,
0,
0,
0,
0,
0,
0,
0,
0,
0,
0,
0,
0,
0,
0,
0,
0,
0,
0,
0,
0,
0,
0,
0,
0,
0,
0,
0,
0,
0,
0,
0,
0,
0,
0,
0,
0,
0,
0,
0,
0,
0,
0,
0,
0,
0,
0,
0,
0,
0,
0,
0,
0,
0,
0,
0,
0,
0,
0,
0,
0,
0,
0,
0,
0,
0,
0,
0,
0,
0,
0,
0,
0,
0,
0,
0,
0,
0,
0,
0,
0,
0,
0,
0,
0,
0,
0,
0,
0,
0,
0,
0,
0,
0,
0,
0,
0,
0,
0,
0,
0,
0,
0,
0,
0,
0,
0,
0,
0,
0,
0,
0,
0,
0,
0,
0,
0,
0,
0,
0,
0,
0,
0,
0,
0,
0,
0,
0,
0,
0,
0,
0,
0,
0,
0,
0,
0,
0,
0,
0,
0,
0,
0,
0,
0,
0,
0,
0,
0,
0,
0,
0,
0,
0,
0,
0,
0,
0,
0,
0,
0,
0,
0,
0,
0,
0,
0,
0,
0,
0,
0,
0,
0,
0,
0,
0,
0,
0,
0,
0,
0,
0,
0,
0,
0,
0,
0,
0,
0,
0,
0,
0,
0,
0,
0,
0,
0,
0,
0,
0,
0,
0,
0,
0,
0,
0,
0,
0,
0,
0,
0,
0,
0,
0,
0,
0,
0,
0,
0,
0,
0,
0,
0,
0,
0,
0,
0,
0,
0,
0,
0,
0,
0,
0,
0,
0,
0,
0,
0,
0,
0,
0,
0,
0,
0,
0,
0,
0,
0,
0,
0,
0,
0,
0,
0,
0,
0,
0,
0,
0,
0,
0,
0,
0,
0,
0,
0,
0,
0,
0,
0,
0,
0,
#ENDOFDATA   :