File: N132962/Standards/15 keV/Gd std.msa
#FORMAT      : EMSA/MAS Spectral Data File
#VERSION     : 1.0
#TITLE       : Gd standard for 'N132962' detector
#NPOINTS     : 4096
#NCOLUMNS    : 1
#XUNITS      : eV
#YUNITS      : counts
#DATATYPE    : Y
#SIGNALTYPE  : EDS
#XLABEL      : Energy (eV)
#YLABEL      : Counts
#XPERCHAN -eV: 9.99778
#OFFSET   -eV: 1.69135
#CHOFFSET    : 0
#DATE        : 26-Sep-2025
#TIME        : 17:11:00
#OWNER       : Unknown
#ELEVANGLE   : 35
#BEAMKV   -kV: 15
#LIVETIME  -s: 1680.26
#REALTIME  -s: 1826.2
#PROBECUR -nA: 1.21578
##WORKING -mm: 15
##D2STDCMP   : Gd,(Gd:100.0000)
##SIMILAR    : 3.7
#SPECTRUM    :
158,
180,
100,
457,
2242,
7262,
19286,
44528,
84871,
104289,
83278,
75193,
76855,
76615,
79945,
102915,
173900,
254811,
204248,
112338,
91734,
108142,
134248,
132991,
109627,
99549,
101061,
114467,
159673,
282773,
423024,
376371,
215666,
129267,
109632,
107667,
118459,
171083,
331263,
567338,
626120,
406461,
166473,
71059,
56461,
66468,
84677,
87591,
72410,
63230,
65567,
68802,
64495,
57743,
52823,
49729,
49157,
50898,
52345,
52549,
51384,
48965,
46531,
44178,
43676,
43653,
44402,
44781,
45765,
45286,
45844,
46518,
46814,
46412,
46807,
47298,
47680,
48139,
48059,
47720,
47836,
48262,
47919,
47698,
47776,
48033,
48205,
48612,
48403,
48212,
47897,
47777,
47973,
47865,
47750,
47871,
47375,
47582,
47117,
47428,
46884,
47077,
47037,
46770,
46299,
46552,
45932,
46092,
45536,
45745,
45740,
45370,
45065,
45018,
45409,
44527,
44598,
44128,
43969,
44189,
43935,
43254,
43430,
43282,
43069,
42698,
42258,
42087,
42110,
41923,
41603,
41296,
41053,
41120,
41163,
40413,
40298,
40314,
39969,
39792,
40071,
39810,
40324,
40640,
40426,
39625,
38798,
38169,
37728,
37709,
37423,
37431,
36771,
36803,
36496,
36228,
35935,
35694,
35967,
35247,
35286,
35134,
35018,
34805,
34861,
34774,
34788,
34202,
33992,
33486,
33389,
32619,
33194,
33190,
33403,
35176,
38344,
43298,
48125,
49564,
46221,
40407,
35769,
32910,
31231,
30940,
30591,
30446,
30199,
30055,
30185,
29685,
29729,
29925,
30385,
31655,
36220,
51556,
92391,
178398,
302506,
413484,
441654,
365892,
237945,
127149,
63913,
37862,
29841,
27800,
27726,
27672,
28312,
28114,
28400,
27327,
26636,
27086,
29467,
37816,
58627,
96981,
148328,
189661,
198028,
171585,
128348,
91836,
68406,
52344,
41572,
34236,
33917,
40847,
56181,
75034,
89092,
88280,
74855,
55264,
38919,
28397,
23319,
20498,
19774,
18935,
18746,
18900,
18973,
19409,
19489,
19406,
19377,
19096,
19674,
21928,
26350,
32338,
39343,
42315,
40875,
35022,
27596,
22668,
19624,
18822,
19787,
21305,
23211,
24261,
24021,
22659,
20070,
18366,
16798,
16296,
16251,
16370,
16263,
15980,
15647,
15057,
14835,
14469,
14202,
14407,
13863,
14077,
13718,
13719,
13716,
13512,
13340,
13608,
13327,
13370,
13315,
13201,
13006,
12996,
12885,
12809,
12757,
12649,
12484,
12665,
12502,
12449,
12267,
12141,
12208,
12031,
11948,
11725,
11713,
11680,
11538,
11567,
11594,
11301,
11430,
11079,
10940,
11094,
11098,
10942,
10654,
10653,
10611,
10665,
10362,
10561,
10326,
10280,
10284,
10185,
10162,
10063,
9915,
9784,
9589,
9644,
9618,
9635,
9354,
9309,
9255,
9215,
9053,
8881,
8877,
8711,
8929,
8685,
8547,
8645,
8423,
8459,
8265,
8239,
8329,
7987,
8075,
7938,
7949,
7781,
7798,
7581,
7461,
7474,
7477,
7413,
7283,
7338,
7130,
7047,
7025,
6903,
6783,
6849,
6829,
6698,
6584,
6738,
6306,
6298,
6292,
6204,
6122,
6037,
5837,
6023,
5966,
5857,
5797,
5634,
5705,
5652,
5424,
5358,
5386,
5387,
5351,
5357,
5295,
5253,
5037,
4876,
4969,
4829,
4788,
4611,
4670,
4561,
4423,
4416,
4372,
4338,
4227,
4123,
4229,
4104,
4009,
3963,
3960,
3843,
3815,
3784,
3721,
3580,
3529,
3516,
3470,
3387,
3210,
3184,
3164,
3259,
3099,
3048,
3015,
2876,
2921,
2818,
2789,
2705,
2637,
2684,
2489,
2502,
2478,
2418,
2383,
2224,
2220,
2179,
2118,
2054,
2048,
2047,
1953,
1952,
1785,
1770,
1735,
1685,
1629,
1550,
1494,
1488,
1394,
1415,
1335,
1274,
1265,
1181,
1133,
1123,
1042,
1026,
991,
886,
899,
905,
811,
745,
644,
642,
585,
569,
487,
458,
441,
375,
345,
295,
219,
186,
174,
113,
102,
67,
60,
57,
47,
42,
40,
66,
49,
46,
41,
44,
36,
30,
44,
36,
49,
37,
42,
42,
40,
47,
33,
46,
36,
32,
34,
37,
32,
43,
27,
33,
38,
42,
33,
20,
28,
33,
37,
31,
30,
29,
37,
23,
33,
28,
28,
27,
29,
30,
19,
38,
25,
33,
17,
25,
26,
26,
23,
26,
28,
37,
43,
35,
33,
27,
42,
33,
31,
28,
38,
35,
34,
35,
34,
25,
44,
29,
30,
34,
25,
35,
32,
28,
23,
30,
23,
26,
34,
30,
25,
31,
30,
40,
25,
21,
24,
20,
30,
20,
16,
23,
18,
21,
30,
25,
27,
28,
27,
24,
27,
25,
19,
27,
20,
9,
16,
18,
22,
12,
19,
28,
17,
21,
24,
21,
18,
14,
16,
12,
18,
18,
22,
16,
17,
15,
9,
18,
14,
13,
20,
12,
10,
11,
12,
12,
10,
11,
9,
13,
11,
7,
12,
12,
11,
7,
12,
9,
13,
8,
10,
8,
10,
9,
7,
5,
13,
16,
8,
7,
10,
8,
13,
9,
7,
8,
5,
8,
9,
6,
8,
10,
5,
6,
10,
11,
5,
8,
7,
9,
4,
10,
10,
7,
5,
7,
5,
8,
0,
8,
6,
5,
7,
1,
2,
2,
5,
3,
3,
5,
7,
3,
4,
5,
4,
3,
2,
4,
2,
4,
3,
2,
2,
3,
3,
4,
0,
3,
1,
5,
1,
2,
3,
2,
3,
2,
3,
0,
3,
0,
2,
1,
2,
1,
1,
2,
0,
0,
0,
3,
3,
2,
2,
4,
1,
3,
2,
3,
1,
1,
1,
1,
5,
0,
1,
0,
1,
1,
1,
1,
1,
2,
1,
1,
0,
1,
0,
0,
0,
2,
0,
1,
0,
0,
1,
1,
0,
0,
0,
0,
0,
0,
0,
1,
1,
2,
0,
1,
0,
2,
1,
0,
2,
1,
1,
0,
0,
1,
3,
1,
0,
1,
0,
0,
0,
0,
0,
0,
0,
2,
0,
1,
1,
1,
1,
0,
0,
0,
1,
0,
0,
0,
2,
0,
0,
2,
0,
2,
0,
0,
0,
1,
0,
1,
1,
0,
0,
0,
1,
0,
0,
0,
0,
0,
1,
1,
0,
0,
0,
0,
0,
2,
0,
0,
0,
0,
0,
0,
2,
1,
0,
0,
0,
1,
0,
0,
0,
0,
0,
2,
0,
0,
1,
0,
0,
0,
0,
0,
0,
1,
0,
0,
0,
0,
0,
0,
0,
0,
0,
0,
0,
1,
0,
0,
0,
0,
0,
0,
0,
0,
0,
0,
1,
0,
0,
0,
0,
0,
0,
0,
0,
0,
0,
0,
0,
0,
0,
0,
0,
0,
0,
0,
0,
0,
0,
0,
0,
0,
0,
0,
0,
0,
0,
0,
0,
0,
0,
0,
0,
0,
0,
0,
0,
0,
0,
0,
0,
0,
0,
0,
0,
0,
0,
0,
0,
0,
0,
0,
0,
0,
0,
0,
0,
0,
0,
0,
0,
0,
0,
0,
0,
0,
0,
0,
0,
0,
0,
0,
0,
0,
0,
0,
0,
0,
0,
0,
0,
0,
0,
0,
0,
0,
0,
0,
0,
0,
0,
0,
0,
0,
0,
0,
0,
0,
0,
0,
0,
0,
0,
0,
0,
0,
0,
0,
0,
0,
0,
0,
0,
0,
0,
0,
0,
0,
0,
0,
0,
0,
0,
0,
0,
0,
0,
0,
0,
0,
0,
0,
0,
0,
0,
0,
0,
0,
0,
0,
0,
0,
0,
0,
0,
0,
0,
0,
0,
0,
0,
0,
0,
0,
0,
0,
0,
0,
0,
0,
0,
0,
0,
0,
0,
0,
0,
0,
0,
0,
0,
0,
0,
0,
0,
0,
0,
0,
0,
0,
0,
0,
0,
0,
0,
0,
0,
0,
0,
0,
0,
0,
0,
0,
0,
0,
0,
0,
0,
0,
0,
0,
0,
0,
0,
0,
0,
0,
0,
0,
0,
0,
0,
0,
0,
0,
0,
0,
0,
0,
0,
0,
0,
0,
0,
0,
0,
0,
0,
0,
0,
0,
0,
0,
0,
0,
0,
0,
0,
0,
0,
0,
0,
0,
0,
0,
0,
0,
0,
0,
0,
0,
0,
0,
0,
0,
0,
0,
0,
0,
0,
0,
0,
0,
0,
0,
0,
0,
0,
0,
0,
0,
0,
0,
0,
0,
0,
0,
0,
0,
0,
0,
0,
0,
0,
0,
0,
0,
0,
0,
0,
0,
0,
0,
0,
0,
0,
0,
0,
0,
0,
0,
0,
0,
0,
0,
0,
0,
0,
0,
0,
0,
0,
0,
0,
0,
0,
0,
0,
0,
0,
0,
0,
0,
0,
0,
0,
0,
0,
0,
0,
0,
0,
0,
0,
0,
0,
0,
0,
0,
0,
0,
0,
0,
0,
0,
0,
0,
0,
0,
0,
0,
0,
0,
0,
0,
0,
0,
0,
0,
0,
0,
0,
0,
0,
0,
0,
0,
0,
0,
0,
0,
0,
0,
0,
0,
0,
0,
0,
0,
0,
0,
0,
0,
0,
0,
0,
0,
0,
0,
0,
0,
0,
0,
0,
0,
0,
0,
0,
0,
0,
0,
0,
0,
0,
0,
0,
0,
0,
0,
0,
0,
0,
0,
0,
0,
0,
0,
0,
0,
0,
0,
0,
0,
0,
0,
0,
0,
0,
0,
0,
0,
0,
0,
0,
0,
0,
0,
0,
0,
0,
0,
0,
0,
0,
0,
0,
0,
0,
0,
#ENDOFDATA   :