File: N132962/Standards/15 keV/GdP5O14 std.msa
#FORMAT      : EMSA/MAS Spectral Data File
#VERSION     : 1.0
#TITLE       : GdP5O14 standard for 'N132962' detector
#NPOINTS     : 4096
#NCOLUMNS    : 1
#XUNITS      : eV
#YUNITS      : counts
#DATATYPE    : Y
#SIGNALTYPE  : EDS
#XLABEL      : Energy (eV)
#YLABEL      : Counts
#XPERCHAN -eV: 9.99778
#OFFSET   -eV: 1.69135
#CHOFFSET    : 0
#DATE        : 17-Mar-2025
#TIME        : 16:22:00
#OWNER       : Unknown
#ELEVANGLE   : 35
#BEAMKV   -kV: 15
#LIVETIME  -s: 962.106
#REALTIME  -s: 1014.72
#PROBECUR -nA: 1.02671
##WORKING -mm: 15
##D2STDCMP   : GdP5O14,(O:41.7803),(P:28.8878),(Gd:29.3320)
##SIMILAR    : 1.3
#SPECTRUM    :
83,
117,
47,
223,
796,
2013,
5604,
17315,
53120,
73390,
39665,
18677,
19644,
23837,
34208,
104717,
389532,
748708,
549344,
147130,
24578,
13422,
13857,
15327,
16149,
16195,
16736,
18526,
23314,
34248,
47085,
44201,
30176,
23087,
21996,
22468,
23220,
30320,
54933,
94955,
109937,
77529,
38087,
21787,
19268,
21196,
24723,
25221,
22395,
20752,
21244,
21657,
21190,
19491,
18597,
18429,
18537,
19583,
20258,
20566,
19852,
19666,
21900,
32168,
67570,
176900,
394251,
549111,
431991,
199601,
72515,
43935,
33540,
21843,
14549,
12140,
11602,
11488,
11625,
11399,
11544,
11530,
11619,
12078,
12670,
12368,
11808,
11506,
11351,
11188,
10777,
10931,
10946,
10616,
10656,
10633,
10640,
10689,
10558,
10580,
10318,
10216,
10356,
10171,
10132,
10113,
10162,
10192,
10084,
9917,
9670,
9706,
9686,
9326,
9541,
9495,
9467,
9203,
9227,
9213,
9174,
8936,
9204,
8962,
9087,
8939,
8721,
8527,
8472,
8501,
8302,
8543,
8572,
8491,
8603,
8412,
8277,
8028,
7948,
7908,
7869,
7709,
7757,
7851,
7772,
7671,
7572,
7450,
7395,
7218,
7111,
7088,
7118,
6958,
6998,
7050,
6730,
6892,
6810,
6663,
6881,
6554,
6455,
6634,
6647,
6316,
6433,
6367,
6358,
6222,
6143,
6135,
6020,
6131,
6054,
6205,
6501,
7070,
7438,
7758,
7247,
6576,
6319,
5845,
5722,
5655,
5509,
5516,
5418,
5343,
5197,
5128,
5375,
5375,
5321,
5357,
5938,
7381,
11657,
20485,
33808,
45340,
48706,
40870,
27486,
15549,
8962,
6026,
4974,
4882,
4689,
4799,
4685,
4770,
4776,
4662,
4578,
4684,
4803,
5622,
7793,
11742,
17119,
21347,
22284,
19298,
15001,
11092,
8711,
7039,
5861,
5054,
4933,
5739,
7270,
9323,
10643,
10654,
9431,
7181,
5353,
4353,
3862,
3514,
3384,
3297,
3459,
3460,
3310,
3335,
3370,
3366,
3245,
3336,
3405,
3623,
4049,
4767,
5397,
5631,
5371,
4907,
4108,
3467,
3157,
3069,
3292,
3425,
3669,
3745,
3671,
3437,
3164,
3012,
2884,
2770,
2724,
2716,
2806,
2657,
2689,
2586,
2529,
2485,
2520,
2312,
2496,
2359,
2396,
2436,
2301,
2374,
2293,
2394,
2260,
2286,
2234,
2286,
2184,
2180,
2065,
2239,
2131,
2123,
2060,
2029,
2079,
2070,
2004,
1950,
1939,
1921,
1874,
1927,
1846,
1865,
1856,
1834,
1807,
1827,
1791,
1801,
1770,
1708,
1836,
1728,
1774,
1672,
1673,
1648,
1690,
1596,
1603,
1603,
1670,
1508,
1568,
1480,
1514,
1446,
1544,
1484,
1446,
1459,
1474,
1461,
1434,
1415,
1397,
1350,
1389,
1301,
1330,
1268,
1306,
1228,
1360,
1246,
1230,
1221,
1152,
1250,
1124,
1171,
1181,
1131,
1120,
1093,
1083,
1064,
1068,
991,
1049,
1038,
1046,
1000,
1002,
1025,
1003,
1010,
902,
971,
889,
930,
872,
911,
911,
825,
891,
886,
828,
821,
828,
825,
746,
810,
802,
789,
794,
725,
726,
746,
718,
662,
661,
721,
677,
660,
622,
658,
622,
586,
655,
602,
579,
578,
610,
564,
533,
541,
518,
510,
513,
491,
512,
501,
447,
468,
469,
429,
419,
425,
400,
414,
413,
413,
402,
353,
386,
356,
373,
342,
377,
318,
321,
348,
340,
349,
300,
274,
283,
267,
271,
233,
264,
271,
232,
241,
232,
219,
213,
244,
188,
226,
223,
185,
150,
178,
155,
164,
162,
132,
121,
134,
133,
131,
120,
132,
110,
104,
95,
93,
91,
78,
76,
66,
64,
80,
50,
50,
48,
36,
30,
24,
28,
23,
14,
14,
15,
5,
7,
3,
1,
5,
2,
3,
2,
2,
1,
3,
3,
0,
2,
3,
2,
2,
5,
2,
1,
3,
4,
2,
2,
2,
3,
2,
1,
1,
0,
0,
1,
0,
3,
0,
0,
2,
2,
1,
0,
2,
1,
1,
0,
1,
4,
2,
2,
2,
0,
0,
0,
1,
0,
2,
0,
0,
1,
2,
0,
1,
0,
1,
2,
1,
0,
0,
0,
1,
0,
0,
0,
1,
1,
0,
1,
1,
1,
3,
0,
0,
1,
0,
2,
1,
0,
0,
0,
1,
0,
1,
1,
0,
1,
0,
1,
3,
1,
1,
0,
1,
1,
0,
0,
0,
0,
0,
0,
0,
0,
0,
0,
0,
1,
1,
0,
0,
0,
0,
0,
0,
3,
0,
1,
2,
1,
1,
0,
0,
0,
0,
0,
2,
0,
0,
0,
0,
2,
1,
2,
0,
2,
0,
0,
0,
1,
0,
1,
2,
0,
0,
0,
0,
3,
0,
0,
0,
0,
0,
0,
0,
0,
1,
1,
0,
1,
1,
0,
0,
1,
1,
0,
1,
0,
0,
0,
0,
0,
0,
0,
1,
1,
0,
0,
0,
1,
0,
0,
0,
0,
0,
0,
0,
0,
0,
0,
0,
0,
0,
0,
0,
0,
1,
0,
1,
0,
0,
0,
0,
0,
0,
0,
0,
0,
0,
0,
0,
0,
0,
0,
0,
0,
0,
0,
0,
0,
0,
1,
0,
0,
1,
0,
0,
0,
0,
0,
0,
0,
0,
0,
0,
1,
1,
0,
0,
0,
0,
0,
0,
0,
0,
0,
0,
0,
0,
0,
0,
0,
0,
0,
0,
0,
0,
0,
0,
0,
0,
0,
0,
0,
0,
0,
2,
0,
0,
0,
0,
0,
0,
0,
0,
0,
0,
0,
0,
0,
0,
0,
0,
0,
0,
0,
0,
0,
0,
0,
0,
0,
0,
0,
0,
0,
0,
0,
0,
0,
0,
0,
0,
0,
0,
0,
0,
0,
0,
0,
0,
0,
0,
0,
0,
0,
0,
1,
0,
0,
0,
0,
0,
0,
0,
0,
0,
0,
0,
0,
0,
0,
0,
1,
0,
0,
0,
0,
0,
0,
0,
0,
0,
0,
0,
0,
0,
0,
0,
0,
0,
0,
0,
0,
0,
0,
0,
0,
0,
0,
0,
0,
0,
0,
0,
0,
0,
0,
0,
0,
0,
0,
0,
0,
0,
0,
0,
1,
0,
0,
0,
0,
0,
0,
0,
0,
0,
0,
0,
0,
0,
0,
0,
0,
0,
0,
0,
0,
0,
0,
0,
0,
0,
0,
0,
0,
0,
0,
0,
0,
0,
0,
0,
0,
0,
0,
0,
0,
0,
0,
0,
0,
0,
0,
0,
0,
0,
0,
0,
0,
0,
0,
0,
0,
0,
0,
0,
0,
0,
0,
0,
0,
0,
0,
0,
0,
0,
0,
0,
0,
0,
0,
0,
0,
0,
0,
0,
0,
0,
0,
0,
0,
0,
0,
0,
0,
0,
0,
0,
0,
0,
0,
0,
0,
0,
0,
0,
0,
0,
0,
0,
0,
0,
0,
0,
0,
0,
0,
0,
0,
0,
0,
0,
0,
0,
0,
0,
0,
0,
0,
0,
0,
0,
0,
0,
0,
0,
0,
0,
0,
0,
0,
0,
0,
0,
0,
0,
0,
0,
0,
0,
0,
0,
0,
0,
0,
0,
0,
0,
0,
0,
0,
0,
0,
0,
0,
0,
0,
0,
0,
0,
0,
0,
0,
0,
0,
0,
0,
0,
0,
0,
0,
0,
0,
0,
0,
0,
0,
0,
0,
0,
0,
0,
0,
0,
0,
0,
0,
0,
0,
0,
0,
0,
0,
0,
0,
0,
0,
0,
0,
0,
0,
0,
0,
0,
0,
0,
0,
0,
0,
0,
0,
0,
0,
0,
0,
0,
0,
0,
0,
0,
0,
0,
0,
0,
0,
0,
0,
0,
0,
0,
0,
0,
0,
0,
0,
0,
0,
0,
0,
0,
0,
0,
0,
0,
0,
0,
0,
0,
0,
0,
0,
0,
0,
0,
0,
0,
0,
0,
0,
0,
0,
0,
0,
0,
0,
0,
0,
0,
0,
0,
0,
0,
0,
0,
0,
0,
0,
0,
0,
0,
0,
0,
0,
0,
0,
0,
0,
0,
0,
0,
0,
0,
0,
0,
0,
0,
0,
0,
0,
0,
0,
0,
0,
0,
0,
0,
0,
0,
0,
0,
0,
0,
0,
0,
0,
0,
0,
0,
0,
0,
0,
0,
0,
0,
0,
0,
0,
0,
0,
0,
0,
0,
0,
0,
0,
0,
0,
0,
0,
0,
0,
0,
0,
0,
0,
0,
0,
0,
0,
0,
0,
0,
0,
0,
0,
0,
0,
0,
0,
0,
0,
0,
0,
0,
0,
0,
0,
0,
0,
0,
0,
0,
0,
0,
0,
0,
0,
0,
0,
0,
0,
0,
0,
0,
0,
0,
0,
0,
0,
0,
0,
0,
0,
0,
0,
0,
0,
0,
0,
0,
0,
0,
0,
0,
0,
0,
0,
0,
0,
0,
0,
0,
0,
0,
0,
0,
0,
0,
0,
0,
0,
0,
0,
0,
0,
0,
0,
0,
0,
0,
0,
0,
0,
0,
0,
0,
0,
0,
0,
0,
0,
0,
0,
0,
0,
0,
0,
0,
0,
0,
0,
0,
0,
0,
0,
0,
0,
0,
0,
0,
0,
0,
0,
0,
0,
0,
0,
0,
0,
0,
0,
0,
0,
0,
0,
0,
0,
0,
0,
0,
#ENDOFDATA   :