File: N132962/Standards/15 keV/Ge std.msa
#FORMAT      : EMSA/MAS Spectral Data File
#VERSION     : 1.0
#TITLE       : Ge standard for 'N132962' detector
#NPOINTS     : 4096
#NCOLUMNS    : 1
#XUNITS      : eV
#YUNITS      : counts
#DATATYPE    : Y
#SIGNALTYPE  : EDS
#XLABEL      : Energy (eV)
#YLABEL      : Counts
#XPERCHAN -eV: 9.99778
#OFFSET   -eV: 1.69135
#CHOFFSET    : 0
#DATE        : 26-Sep-2025
#TIME        : 23:31:00
#OWNER       : Unknown
#ELEVANGLE   : 35
#BEAMKV   -kV: 15
#LIVETIME  -s: 1912.62
#REALTIME  -s: 2115.39
#PROBECUR -nA: 1.21571
##WORKING -mm: 15
##D2STDCMP   : Ge,(Ge:100.0000)
##SIMILAR    : 1.2
#SPECTRUM    :
201,
202,
78,
208,
1045,
3864,
10351,
21842,
42824,
53568,
40877,
35293,
38903,
42585,
45830,
53495,
69140,
84901,
81215,
72788,
74057,
80037,
85987,
92266,
94653,
94841,
96800,
101125,
105626,
108124,
112017,
118850,
141965,
228378,
377362,
432698,
370935,
571063,
1909019,
4446937,
5250335,
3152863,
1038198,
235971,
72711,
41510,
34533,
33668,
33301,
33113,
33536,
34405,
34231,
34862,
35723,
36819,
38837,
41888,
44035,
44484,
42732,
40925,
38788,
37531,
37435,
38119,
37804,
38620,
38708,
39159,
39558,
40251,
40710,
41624,
42777,
43168,
44049,
46539,
54141,
62628,
63649,
56483,
47173,
41677,
39531,
39509,
39366,
39280,
38741,
38929,
38381,
38716,
38576,
38585,
37908,
38088,
38041,
38026,
37889,
37453,
37540,
37011,
36907,
36795,
36755,
36513,
36253,
36134,
35708,
35438,
35557,
35094,
35049,
35078,
34726,
34549,
33974,
34243,
33872,
33670,
33549,
33364,
33254,
33334,
32560,
32573,
32353,
32173,
31720,
31382,
31573,
31329,
30721,
31000,
30589,
30484,
30263,
29758,
29671,
29611,
29438,
29072,
28822,
28759,
28529,
28414,
28209,
27809,
27655,
27539,
27365,
27332,
26855,
26639,
26522,
26548,
26087,
25833,
25908,
25636,
25313,
25224,
24725,
24686,
24609,
24497,
24388,
23934,
24125,
23768,
23604,
23624,
23202,
23167,
22797,
22648,
22527,
22599,
22917,
23232,
23287,
22878,
22272,
21903,
21702,
21121,
21000,
20807,
20703,
20371,
20480,
19961,
20076,
19957,
19831,
19920,
19591,
19456,
19305,
19185,
19274,
18792,
18359,
18731,
18438,
18277,
18179,
17820,
17785,
17775,
18126,
19059,
19914,
20440,
20014,
18845,
18037,
16988,
16798,
16381,
16178,
16220,
16237,
15826,
15792,
15687,
15768,
15192,
15184,
15216,
15135,
14849,
15035,
14929,
14891,
15256,
14943,
14534,
14380,
14021,
13947,
13969,
13869,
13752,
13401,
13579,
13394,
13560,
13580,
13541,
13232,
13144,
12863,
12962,
12745,
12310,
12333,
12206,
12124,
12221,
11988,
12053,
12038,
11669,
11521,
11547,
11450,
11401,
11340,
11506,
11288,
11342,
10978,
10727,
11108,
10857,
10840,
10487,
10467,
10385,
10194,
10281,
10018,
10035,
9836,
9718,
9921,
9841,
9540,
9509,
9579,
9403,
9354,
9145,
9293,
9207,
8809,
9044,
8832,
8814,
8623,
8741,
8517,
8808,
8513,
8326,
8334,
8387,
8101,
8139,
8062,
8017,
7967,
7958,
7847,
7925,
7718,
7732,
7797,
7779,
7903,
8248,
9578,
13295,
22687,
40549,
67538,
102360,
131359,
142237,
130526,
99802,
66404,
38243,
20569,
11899,
8219,
6894,
6418,
6340,
6187,
6118,
6130,
5936,
5878,
5903,
5884,
5852,
5780,
5626,
5611,
5732,
5567,
5578,
5694,
5516,
5437,
5488,
5543,
5949,
6626,
8026,
10702,
14899,
18996,
22595,
23464,
21316,
17655,
13554,
9863,
7145,
5633,
4825,
4410,
4045,
3987,
3889,
3761,
3786,
3716,
3627,
3611,
3601,
3618,
3597,
3610,
3409,
3488,
3453,
3390,
3364,
3265,
3294,
3236,
3151,
3121,
3092,
3044,
3028,
2999,
2973,
2991,
2882,
2976,
2917,
2934,
2852,
2700,
2709,
2669,
2543,
2521,
2524,
2494,
2457,
2372,
2382,
2219,
2230,
2179,
2238,
2164,
2186,
2125,
2066,
2089,
1925,
1975,
1916,
1926,
1876,
1792,
1801,
1778,
1774,
1732,
1604,
1664,
1563,
1574,
1538,
1524,
1431,
1480,
1447,
1374,
1385,
1306,
1282,
1293,
1214,
1244,
1228,
1194,
1154,
1121,
1071,
1021,
1025,
924,
955,
977,
948,
872,
839,
873,
815,
788,
787,
711,
774,
667,
665,
656,
624,
597,
575,
530,
545,
497,
487,
484,
421,
390,
369,
354,
365,
335,
260,
268,
248,
217,
220,
179,
150,
145,
118,
94,
66,
49,
39,
24,
34,
24,
23,
23,
19,
27,
26,
15,
25,
14,
25,
27,
18,
18,
19,
12,
25,
18,
15,
23,
27,
18,
11,
10,
15,
9,
18,
14,
14,
11,
15,
11,
16,
21,
16,
12,
5,
12,
12,
12,
15,
9,
10,
15,
12,
11,
9,
6,
7,
7,
10,
9,
13,
14,
12,
8,
6,
6,
12,
16,
14,
18,
11,
11,
15,
17,
10,
9,
13,
16,
12,
11,
12,
13,
16,
8,
10,
10,
5,
5,
9,
9,
11,
7,
14,
10,
16,
9,
10,
12,
13,
4,
6,
8,
8,
7,
10,
9,
12,
5,
4,
8,
15,
13,
7,
4,
10,
7,
10,
6,
6,
3,
7,
8,
8,
6,
7,
6,
5,
5,
7,
4,
2,
5,
6,
8,
5,
8,
5,
4,
3,
3,
2,
8,
9,
5,
2,
5,
5,
7,
4,
2,
10,
6,
5,
7,
6,
6,
5,
7,
10,
9,
22,
18,
26,
18,
17,
23,
20,
10,
8,
6,
1,
6,
2,
4,
4,
3,
5,
8,
5,
6,
2,
0,
3,
4,
5,
2,
4,
4,
7,
2,
2,
4,
5,
3,
3,
6,
2,
7,
8,
8,
4,
6,
4,
6,
7,
5,
1,
5,
3,
5,
3,
7,
5,
0,
3,
1,
2,
3,
3,
4,
3,
2,
1,
4,
3,
4,
5,
2,
2,
2,
1,
1,
6,
2,
1,
2,
3,
2,
3,
0,
2,
1,
0,
3,
0,
3,
2,
0,
1,
4,
2,
0,
1,
4,
1,
2,
1,
2,
2,
2,
3,
0,
2,
1,
3,
0,
1,
2,
3,
2,
1,
2,
1,
1,
2,
0,
0,
0,
0,
2,
0,
1,
0,
0,
0,
0,
0,
1,
0,
1,
2,
0,
0,
1,
0,
0,
0,
0,
0,
0,
0,
0,
1,
1,
0,
0,
0,
0,
0,
0,
0,
0,
0,
1,
0,
0,
1,
0,
0,
0,
0,
0,
0,
0,
0,
0,
0,
0,
1,
0,
0,
0,
0,
0,
0,
0,
1,
0,
0,
0,
0,
0,
0,
1,
1,
0,
0,
0,
0,
1,
0,
0,
0,
0,
0,
1,
0,
0,
0,
0,
0,
0,
0,
0,
0,
0,
1,
0,
0,
1,
0,
0,
0,
0,
1,
0,
0,
0,
0,
1,
0,
0,
0,
0,
0,
0,
0,
0,
0,
0,
0,
0,
0,
0,
0,
0,
0,
1,
0,
0,
0,
0,
0,
0,
0,
0,
0,
0,
0,
0,
0,
0,
0,
0,
0,
0,
0,
0,
0,
0,
0,
0,
0,
0,
0,
0,
0,
0,
0,
0,
0,
0,
0,
0,
0,
0,
0,
0,
0,
0,
0,
0,
0,
0,
1,
0,
0,
0,
0,
0,
0,
0,
0,
0,
0,
0,
0,
0,
0,
0,
0,
0,
0,
0,
0,
0,
0,
0,
0,
0,
0,
0,
0,
0,
0,
0,
0,
0,
0,
0,
0,
0,
0,
0,
0,
0,
0,
0,
0,
0,
0,
0,
0,
0,
0,
0,
0,
0,
0,
0,
0,
0,
0,
0,
0,
0,
0,
0,
0,
0,
0,
0,
0,
0,
0,
0,
0,
0,
0,
0,
0,
0,
0,
0,
0,
0,
0,
0,
0,
0,
0,
0,
0,
0,
0,
0,
0,
0,
0,
0,
0,
0,
0,
0,
0,
0,
0,
0,
0,
0,
0,
0,
0,
0,
1,
0,
0,
0,
0,
0,
0,
0,
0,
0,
0,
0,
0,
0,
0,
0,
0,
0,
0,
0,
0,
0,
0,
0,
0,
0,
0,
0,
0,
0,
0,
0,
0,
0,
0,
0,
0,
0,
0,
0,
0,
0,
0,
0,
0,
0,
0,
0,
0,
0,
0,
0,
0,
0,
0,
0,
0,
0,
0,
0,
0,
0,
0,
0,
0,
0,
0,
0,
0,
0,
0,
0,
0,
0,
0,
0,
0,
0,
0,
0,
0,
0,
0,
0,
0,
0,
0,
0,
0,
0,
0,
0,
0,
0,
0,
0,
0,
0,
0,
0,
0,
0,
0,
0,
0,
0,
0,
0,
0,
0,
0,
0,
0,
0,
0,
0,
0,
0,
0,
0,
0,
0,
0,
0,
0,
0,
0,
0,
0,
0,
0,
0,
0,
0,
0,
0,
0,
0,
0,
0,
0,
0,
0,
0,
0,
0,
0,
0,
0,
0,
0,
0,
0,
0,
0,
0,
0,
0,
0,
0,
0,
0,
0,
0,
0,
0,
0,
0,
0,
0,
0,
0,
0,
0,
0,
0,
0,
0,
0,
0,
0,
0,
0,
0,
0,
0,
0,
0,
0,
0,
0,
0,
0,
0,
0,
0,
0,
0,
0,
0,
0,
0,
0,
0,
0,
0,
0,
0,
0,
0,
0,
0,
0,
0,
0,
0,
0,
0,
0,
0,
0,
0,
0,
0,
0,
0,
0,
0,
0,
0,
0,
0,
0,
0,
0,
0,
0,
0,
0,
0,
0,
0,
0,
0,
0,
0,
0,
0,
0,
0,
0,
0,
0,
0,
0,
1,
0,
0,
0,
0,
0,
0,
0,
0,
0,
0,
0,
0,
0,
0,
0,
0,
0,
0,
0,
0,
0,
0,
0,
0,
0,
0,
0,
0,
0,
0,
0,
0,
0,
0,
0,
0,
0,
0,
0,
0,
0,
0,
0,
0,
0,
0,
0,
0,
0,
0,
0,
0,
0,
0,
0,
0,
0,
0,
0,
0,
0,
#ENDOFDATA   :