File: N132962/Standards/15 keV/Hf std.msa
#FORMAT      : EMSA/MAS Spectral Data File
#VERSION     : 1.0
#TITLE       : Hf standard for 'N132962' detector
#NPOINTS     : 4096
#NCOLUMNS    : 1
#XUNITS      : eV
#YUNITS      : counts
#DATATYPE    : Y
#SIGNALTYPE  : EDS
#XLABEL      : Energy (eV)
#YLABEL      : Counts
#XPERCHAN -eV: 9.99778
#OFFSET   -eV: 1.69135
#CHOFFSET    : 0
#DATE        : 26-Sep-2025
#TIME        : 18:04:00
#OWNER       : Unknown
#ELEVANGLE   : 35
#BEAMKV   -kV: 15
#LIVETIME  -s: 1921.5
#REALTIME  -s: 2142.51
#PROBECUR -nA: 1.21605
##WORKING -mm: 15
##D2STDCMP   : Hf,(Hf:100.0000)
##SIMILAR    : 1.1
#SPECTRUM    :
214,
209,
110,
430,
2865,
12931,
33465,
52513,
78702,
92915,
71626,
58951,
58451,
59271,
62305,
72880,
103799,
139020,
119639,
84967,
78196,
83947,
91407,
96813,
96146,
95550,
97007,
101623,
106689,
109598,
109382,
111818,
112593,
112429,
114313,
115202,
115775,
116544,
118793,
122322,
142322,
210220,
315362,
327467,
234303,
158636,
132492,
127168,
127401,
131879,
143715,
181414,
366621,
1089517,
2475712,
3241047,
2518843,
1348345,
548285,
187074,
91541,
84087,
97838,
106685,
94297,
74927,
74180,
92405,
108389,
104121,
94521,
91636,
82261,
70745,
61632,
56459,
53379,
51713,
51349,
50665,
49907,
50652,
51145,
51118,
51703,
51878,
51419,
51077,
50720,
50687,
50835,
50494,
50758,
50607,
50882,
51335,
51829,
52138,
52304,
52299,
52078,
52293,
51508,
51426,
52052,
51496,
52189,
52585,
55248,
57506,
59042,
59112,
56360,
53777,
52069,
50538,
50668,
50627,
50077,
49844,
50098,
49715,
49982,
49690,
50051,
50147,
49516,
49175,
48943,
48593,
48252,
48391,
48113,
47576,
47975,
47511,
47435,
46791,
46775,
46842,
46368,
46151,
46396,
45894,
45816,
45563,
45328,
45172,
45101,
44548,
44711,
44466,
44061,
43644,
43525,
43553,
43214,
43201,
42955,
42929,
42702,
42475,
42012,
42077,
41664,
41597,
41414,
41327,
40646,
40546,
40257,
40463,
39934,
39996,
39795,
39942,
39660,
39560,
39486,
39889,
39582,
39261,
38695,
38305,
37995,
37378,
37250,
37039,
36603,
36408,
36317,
36421,
36093,
35614,
35570,
35323,
35577,
35127,
35005,
34631,
34316,
34043,
34013,
33641,
34067,
33752,
33592,
33181,
32767,
32952,
33376,
33893,
35325,
35840,
35185,
34456,
33016,
31523,
30856,
30695,
30372,
30203,
29701,
29776,
29527,
29734,
29222,
29872,
30416,
31842,
34252,
37007,
37909,
36503,
34159,
31276,
29518,
28381,
28021,
27592,
26886,
26771,
26298,
26269,
26210,
26454,
26398,
26357,
26098,
26338,
26402,
25940,
25553,
25334,
25398,
25623,
26409,
30055,
40342,
61812,
100508,
151867,
199670,
220729,
201760,
154081,
100468,
60253,
37970,
28331,
25555,
24113,
23612,
22902,
22453,
21894,
21563,
21330,
20667,
20573,
20834,
20495,
20270,
20203,
19869,
20131,
20056,
19729,
19770,
19345,
19349,
19681,
19749,
21177,
22742,
26300,
32016,
41459,
54973,
69451,
79487,
79678,
70509,
55890,
43289,
34810,
30290,
29752,
32638,
38757,
46178,
49661,
48570,
42776,
33820,
25966,
21578,
18935,
17644,
16886,
16217,
15438,
14934,
14661,
14316,
13974,
13795,
13670,
13702,
13437,
13487,
13396,
13272,
13165,
12917,
13032,
13107,
13131,
12845,
12821,
12967,
12856,
12569,
12689,
13001,
13092,
14121,
15799,
18116,
20113,
21230,
20881,
18900,
16649,
14500,
13191,
12241,
11952,
12153,
12341,
12843,
13031,
13451,
12935,
11951,
11419,
10879,
10430,
10191,
9799,
9713,
9707,
9639,
9711,
9718,
9493,
9315,
9101,
8837,
8592,
8506,
8249,
8377,
8290,
8251,
8072,
8180,
7964,
8041,
7927,
7623,
7485,
7525,
7489,
7331,
7199,
7170,
7095,
6952,
7188,
6970,
6908,
6801,
6718,
6591,
6538,
6529,
6369,
6332,
6256,
6096,
6019,
5972,
5829,
5828,
5810,
5686,
5612,
5571,
5350,
5481,
5366,
5257,
5095,
4979,
4944,
4907,
4871,
4858,
4799,
4666,
4682,
4487,
4384,
4307,
4412,
4264,
4101,
4187,
4018,
3894,
3854,
3800,
3769,
3794,
3592,
3636,
3453,
3361,
3372,
3293,
3271,
3316,
3068,
3019,
2963,
2832,
2755,
2759,
2785,
2631,
2523,
2506,
2444,
2439,
2210,
2170,
2171,
2117,
2037,
1974,
1948,
1830,
1777,
1740,
1724,
1645,
1652,
1578,
1521,
1374,
1302,
1237,
1219,
1209,
1052,
1108,
989,
928,
807,
774,
692,
682,
647,
532,
457,
373,
349,
288,
217,
149,
139,
98,
90,
64,
72,
72,
84,
77,
73,
63,
55,
70,
57,
58,
55,
47,
63,
58,
58,
73,
66,
66,
55,
76,
76,
95,
79,
67,
70,
67,
63,
59,
41,
34,
45,
35,
44,
47,
41,
44,
41,
45,
34,
34,
39,
34,
53,
26,
25,
29,
30,
36,
26,
29,
38,
36,
38,
38,
30,
34,
50,
66,
62,
69,
75,
60,
60,
61,
51,
45,
60,
43,
57,
42,
47,
43,
32,
40,
51,
45,
35,
44,
38,
31,
27,
44,
32,
40,
28,
28,
26,
33,
42,
58,
25,
33,
31,
31,
32,
57,
34,
32,
32,
31,
39,
26,
19,
34,
34,
41,
27,
37,
44,
24,
26,
27,
25,
27,
30,
32,
26,
23,
29,
20,
26,
27,
25,
15,
25,
25,
16,
29,
22,
18,
22,
17,
15,
23,
16,
22,
22,
18,
24,
18,
21,
13,
21,
18,
13,
11,
11,
23,
23,
20,
18,
21,
20,
12,
22,
11,
21,
20,
26,
5,
8,
19,
14,
17,
15,
15,
12,
13,
15,
14,
20,
15,
10,
16,
15,
11,
19,
14,
6,
11,
5,
9,
10,
8,
15,
8,
7,
10,
13,
10,
6,
9,
8,
11,
13,
6,
6,
11,
13,
7,
6,
9,
6,
9,
7,
5,
9,
10,
11,
5,
7,
7,
9,
8,
6,
5,
8,
10,
7,
3,
6,
5,
4,
10,
11,
10,
9,
5,
7,
4,
4,
6,
11,
9,
4,
4,
6,
3,
3,
5,
5,
6,
4,
4,
0,
6,
3,
4,
5,
5,
2,
3,
3,
5,
5,
1,
2,
1,
3,
2,
5,
3,
5,
2,
2,
3,
0,
5,
6,
2,
3,
2,
4,
3,
4,
0,
0,
2,
4,
3,
1,
3,
0,
2,
1,
2,
0,
1,
2,
2,
0,
2,
2,
3,
0,
0,
1,
0,
2,
1,
1,
1,
1,
0,
1,
4,
2,
0,
1,
0,
0,
1,
0,
1,
1,
0,
0,
0,
0,
0,
0,
4,
0,
1,
1,
1,
1,
0,
0,
3,
0,
1,
0,
0,
1,
1,
0,
0,
0,
2,
0,
2,
1,
3,
0,
0,
0,
1,
1,
0,
1,
2,
1,
0,
1,
2,
0,
2,
1,
0,
3,
0,
2,
3,
0,
3,
0,
1,
0,
0,
0,
0,
0,
1,
1,
0,
0,
0,
0,
1,
0,
0,
0,
0,
0,
0,
0,
0,
0,
0,
0,
0,
0,
0,
0,
0,
1,
0,
1,
0,
1,
0,
0,
1,
0,
0,
0,
0,
0,
0,
0,
0,
1,
0,
0,
0,
0,
0,
0,
0,
1,
0,
0,
1,
0,
0,
0,
0,
1,
0,
0,
0,
0,
0,
0,
0,
1,
0,
0,
0,
0,
0,
0,
0,
0,
0,
0,
0,
0,
0,
0,
0,
0,
0,
0,
0,
0,
1,
0,
0,
0,
0,
0,
0,
0,
0,
0,
0,
0,
0,
0,
0,
0,
0,
0,
0,
0,
0,
0,
0,
0,
0,
0,
0,
0,
0,
0,
0,
0,
0,
0,
0,
0,
0,
0,
0,
0,
0,
0,
0,
0,
0,
0,
0,
0,
0,
0,
0,
0,
0,
0,
0,
0,
0,
0,
0,
0,
0,
0,
0,
0,
0,
0,
0,
0,
0,
0,
0,
0,
0,
0,
0,
0,
0,
0,
0,
0,
0,
0,
0,
0,
0,
0,
0,
0,
0,
0,
0,
0,
0,
0,
0,
0,
0,
0,
0,
0,
0,
0,
0,
0,
0,
0,
0,
0,
0,
0,
0,
0,
0,
0,
0,
0,
0,
0,
0,
0,
0,
0,
0,
0,
0,
0,
0,
0,
0,
0,
0,
0,
0,
0,
0,
0,
0,
0,
0,
0,
0,
1,
0,
0,
0,
0,
0,
0,
0,
0,
0,
0,
0,
0,
0,
0,
0,
0,
0,
0,
0,
0,
0,
0,
0,
0,
0,
0,
0,
0,
0,
0,
0,
0,
0,
0,
0,
0,
0,
0,
0,
0,
0,
0,
0,
0,
0,
0,
0,
0,
0,
0,
0,
0,
0,
0,
0,
0,
0,
0,
0,
0,
0,
0,
0,
0,
0,
0,
0,
0,
0,
0,
0,
0,
0,
0,
0,
0,
0,
0,
0,
0,
0,
0,
0,
0,
0,
0,
0,
0,
0,
0,
0,
0,
0,
0,
0,
0,
0,
0,
0,
0,
0,
0,
0,
0,
0,
0,
0,
0,
0,
0,
0,
0,
0,
0,
0,
0,
0,
0,
0,
0,
0,
0,
0,
0,
0,
0,
0,
0,
0,
0,
0,
0,
0,
0,
0,
0,
0,
0,
0,
0,
0,
0,
0,
0,
0,
0,
0,
0,
0,
0,
0,
0,
0,
0,
0,
0,
0,
0,
0,
0,
0,
0,
0,
0,
0,
0,
0,
0,
0,
0,
0,
0,
0,
0,
0,
0,
0,
0,
0,
0,
0,
0,
0,
0,
0,
0,
0,
0,
0,
0,
0,
0,
0,
0,
0,
0,
0,
0,
0,
0,
0,
0,
0,
0,
0,
0,
0,
0,
0,
0,
0,
0,
0,
0,
0,
0,
0,
0,
0,
0,
0,
0,
0,
0,
0,
0,
0,
0,
0,
0,
0,
0,
0,
0,
0,
0,
0,
0,
0,
0,
0,
0,
0,
0,
0,
0,
0,
0,
0,
0,
0,
0,
0,
0,
0,
0,
0,
0,
0,
0,
0,
0,
#ENDOFDATA   :