File: N132962/Standards/15 keV/HgTe std.msa
#FORMAT      : EMSA/MAS Spectral Data File
#VERSION     : 1.0
#TITLE       : HgTe standard for 'N132962' detector
#NPOINTS     : 4096
#NCOLUMNS    : 1
#XUNITS      : eV
#YUNITS      : counts
#DATATYPE    : Y
#SIGNALTYPE  : EDS
#XLABEL      : Energy (eV)
#YLABEL      : Counts
#XPERCHAN -eV: 9.99778
#OFFSET   -eV: 1.69135
#CHOFFSET    : 0
#DATE        : 27-Sep-2025
#TIME        : 20:26:00
#OWNER       : Unknown
#ELEVANGLE   : 35
#BEAMKV   -kV: 15
#LIVETIME  -s: 1439.51
#REALTIME  -s: 1576.39
#PROBECUR -nA: 1.21175
##WORKING -mm: 15
##D2STDCMP   : HgTe,(Te:38.8797),(Hg:61.1203)
##SIMILAR    : 1.2
#SPECTRUM    :
138,
158,
89,
583,
4563,
18021,
40225,
70312,
116804,
127460,
81380,
55475,
53708,
64616,
103569,
134370,
109346,
82848,
76461,
65679,
51431,
44758,
44996,
46982,
48994,
53116,
57179,
57532,
56617,
56374,
59713,
63189,
59881,
58070,
57790,
56354,
55327,
55885,
56558,
57666,
58534,
59928,
60361,
61645,
62388,
62786,
63594,
64728,
65507,
66627,
67317,
66717,
66870,
67249,
70747,
84037,
109428,
129688,
119264,
95632,
80645,
72383,
65451,
62347,
62149,
64111,
68581,
75235,
85437,
98769,
141571,
289799,
600754,
874848,
856198,
711266,
614480,
443024,
225347,
96699,
59207,
60627,
72573,
78732,
69460,
54551,
44678,
41486,
40897,
41255,
42250,
43310,
43115,
44088,
46602,
48682,
49591,
48710,
44902,
42443,
41016,
39124,
38723,
38204,
38323,
37888,
38135,
38556,
39823,
42375,
45766,
48120,
46823,
43344,
39864,
38369,
37836,
38135,
39023,
40162,
42358,
46237,
61648,
110751,
208347,
309323,
329046,
244636,
137475,
70167,
47743,
53087,
80540,
129142,
171838,
177542,
146021,
107096,
78292,
59382,
50671,
52446,
63909,
75640,
74403,
61845,
47058,
37789,
34448,
34827,
37424,
42710,
47148,
46490,
41037,
34761,
30966,
30214,
31048,
33701,
35947,
36769,
34366,
31179,
29492,
28576,
27915,
27216,
26721,
27002,
26407,
26302,
26462,
26346,
26427,
26028,
26018,
26044,
25864,
25955,
25638,
25497,
25249,
25450,
24981,
24922,
25273,
24690,
24757,
24762,
24514,
24335,
24471,
24175,
24148,
23819,
23993,
24075,
24059,
24237,
24045,
23768,
23210,
23110,
23011,
23135,
22985,
22686,
22345,
22769,
22639,
22649,
22751,
22906,
22479,
22115,
21760,
21619,
21305,
21030,
21295,
20715,
20778,
20540,
20650,
20523,
20384,
19957,
20017,
19958,
19627,
19855,
19812,
19378,
19479,
19530,
19204,
19174,
18959,
18876,
18522,
18417,
18309,
18060,
18346,
18261,
18072,
18139,
18175,
18291,
18266,
17859,
17609,
17400,
17140,
17277,
16764,
16717,
16825,
16655,
16392,
16544,
16392,
16346,
16198,
16295,
15848,
16209,
16010,
15914,
15643,
15743,
15532,
15029,
15147,
14939,
14860,
14875,
14756,
14697,
14822,
14186,
14276,
14131,
14252,
14161,
13973,
14340,
14457,
14543,
14605,
14642,
14399,
13732,
13486,
13355,
13113,
12847,
12942,
12782,
12865,
12584,
12466,
12227,
12188,
12278,
12046,
12042,
11994,
11918,
11830,
11711,
11624,
11351,
11495,
11381,
11223,
11143,
11085,
11160,
11023,
10839,
10707,
10688,
10870,
11024,
11282,
12438,
14273,
17286,
20970,
24817,
27706,
27949,
25317,
20503,
16166,
13057,
10984,
10030,
9629,
9457,
9299,
9123,
8986,
8945,
8954,
8885,
8614,
8702,
8508,
8625,
8403,
8371,
8418,
8165,
7939,
7923,
7922,
7784,
7835,
7728,
7787,
7876,
7483,
7488,
7337,
7374,
7137,
7203,
7009,
7160,
6884,
6885,
6807,
6686,
6599,
6658,
6505,
6452,
6329,
6467,
6339,
6431,
6312,
6208,
6146,
6018,
6132,
5982,
6231,
6458,
6837,
7410,
7940,
8471,
8745,
8836,
8340,
7612,
6598,
6008,
5482,
5114,
4974,
4925,
4876,
4918,
4839,
4823,
4616,
4431,
4377,
4379,
4167,
4027,
4022,
3878,
3906,
3941,
3841,
3724,
3638,
3564,
3462,
3549,
3437,
3373,
3454,
3433,
3232,
3135,
3216,
3139,
3169,
3017,
3003,
2979,
2796,
2819,
2767,
2695,
2638,
2604,
2552,
2410,
2530,
2393,
2397,
2376,
2346,
2292,
2156,
2129,
2059,
2130,
2060,
2017,
2014,
2007,
1945,
1952,
1964,
1789,
1689,
1651,
1606,
1586,
1505,
1450,
1389,
1365,
1289,
1292,
1211,
1139,
1103,
1012,
1068,
1006,
1056,
903,
843,
830,
810,
734,
776,
703,
633,
584,
492,
466,
414,
373,
361,
284,
263,
200,
180,
138,
94,
87,
56,
70,
53,
47,
53,
31,
29,
34,
43,
41,
34,
32,
32,
38,
38,
39,
33,
33,
37,
31,
38,
32,
39,
37,
28,
34,
43,
44,
19,
30,
25,
33,
27,
28,
28,
27,
24,
20,
35,
20,
22,
38,
21,
22,
25,
25,
20,
27,
22,
21,
16,
25,
20,
16,
23,
14,
19,
20,
12,
23,
30,
19,
33,
31,
19,
22,
17,
23,
18,
24,
26,
18,
21,
19,
16,
22,
14,
19,
13,
18,
21,
16,
19,
13,
25,
13,
8,
23,
18,
13,
10,
16,
11,
11,
23,
23,
16,
13,
20,
16,
13,
10,
24,
18,
25,
10,
18,
14,
17,
15,
9,
14,
15,
9,
14,
11,
16,
15,
10,
15,
18,
10,
15,
7,
11,
13,
10,
7,
4,
21,
8,
13,
13,
8,
5,
4,
10,
6,
5,
7,
8,
7,
9,
10,
9,
4,
9,
4,
6,
9,
6,
4,
7,
6,
12,
7,
5,
8,
3,
7,
5,
9,
9,
12,
6,
3,
8,
9,
6,
7,
8,
8,
4,
6,
5,
8,
6,
2,
1,
8,
3,
4,
4,
3,
4,
5,
7,
7,
5,
3,
3,
3,
2,
10,
4,
5,
3,
1,
2,
5,
3,
3,
1,
6,
5,
1,
6,
5,
4,
4,
3,
5,
3,
5,
2,
4,
4,
3,
3,
2,
5,
0,
4,
3,
1,
3,
2,
6,
1,
1,
2,
4,
1,
4,
2,
1,
2,
1,
1,
2,
3,
3,
2,
1,
1,
2,
1,
2,
1,
5,
2,
1,
2,
1,
2,
1,
2,
3,
4,
1,
1,
0,
3,
1,
1,
3,
0,
2,
1,
1,
0,
1,
0,
2,
1,
3,
1,
2,
1,
0,
1,
0,
3,
1,
0,
1,
0,
0,
0,
0,
2,
1,
1,
0,
0,
1,
1,
1,
0,
0,
0,
1,
1,
1,
2,
1,
2,
0,
2,
1,
0,
0,
1,
1,
1,
1,
0,
0,
0,
0,
0,
1,
1,
0,
1,
2,
1,
0,
0,
0,
1,
1,
0,
2,
1,
2,
1,
0,
1,
0,
3,
0,
1,
0,
0,
0,
0,
0,
0,
0,
0,
0,
0,
0,
0,
1,
1,
0,
0,
0,
0,
0,
0,
0,
0,
0,
0,
1,
0,
0,
0,
1,
0,
0,
0,
0,
0,
0,
0,
0,
0,
0,
1,
0,
0,
0,
1,
0,
0,
0,
1,
1,
0,
0,
0,
0,
0,
0,
0,
0,
0,
0,
0,
0,
0,
0,
0,
0,
0,
0,
0,
0,
0,
0,
0,
1,
0,
0,
0,
0,
0,
0,
0,
1,
0,
0,
0,
0,
0,
0,
0,
0,
1,
0,
0,
0,
0,
0,
0,
0,
0,
1,
0,
0,
0,
0,
0,
0,
0,
0,
0,
0,
0,
0,
0,
0,
0,
0,
0,
0,
0,
0,
0,
0,
0,
0,
0,
0,
0,
0,
0,
0,
0,
0,
0,
0,
0,
0,
1,
0,
0,
0,
0,
0,
0,
0,
0,
0,
0,
0,
0,
0,
0,
0,
0,
0,
0,
0,
0,
0,
0,
0,
0,
0,
0,
0,
0,
0,
0,
0,
0,
0,
0,
0,
0,
0,
0,
0,
0,
0,
0,
0,
0,
0,
0,
0,
0,
0,
0,
0,
0,
0,
0,
0,
0,
0,
0,
0,
0,
0,
0,
0,
0,
0,
0,
0,
0,
0,
0,
0,
0,
0,
0,
0,
0,
0,
0,
0,
0,
0,
0,
0,
0,
0,
0,
0,
0,
0,
0,
0,
0,
0,
0,
0,
0,
0,
0,
0,
0,
0,
0,
0,
0,
0,
0,
0,
0,
0,
0,
0,
0,
0,
0,
0,
0,
0,
0,
0,
0,
0,
0,
0,
0,
0,
0,
0,
0,
0,
0,
0,
0,
0,
0,
0,
0,
0,
0,
0,
0,
0,
0,
0,
0,
0,
0,
0,
0,
0,
0,
0,
0,
0,
0,
0,
0,
0,
0,
0,
0,
0,
0,
0,
0,
0,
0,
0,
0,
0,
0,
0,
0,
0,
0,
0,
0,
0,
0,
0,
0,
0,
0,
0,
0,
0,
0,
0,
0,
0,
0,
0,
0,
0,
0,
0,
0,
0,
0,
0,
0,
0,
0,
0,
0,
0,
0,
0,
0,
0,
0,
0,
0,
0,
0,
0,
0,
0,
0,
0,
0,
0,
0,
0,
0,
0,
0,
0,
0,
0,
0,
0,
0,
0,
0,
0,
0,
0,
0,
0,
0,
0,
0,
0,
0,
0,
0,
0,
0,
0,
0,
0,
0,
0,
0,
0,
0,
0,
0,
0,
0,
0,
0,
0,
0,
0,
0,
0,
0,
0,
0,
0,
0,
0,
0,
0,
0,
0,
0,
0,
0,
0,
0,
0,
0,
0,
0,
0,
0,
0,
0,
0,
0,
0,
0,
0,
0,
0,
0,
0,
0,
0,
0,
0,
0,
0,
0,
0,
0,
0,
0,
0,
0,
0,
0,
0,
0,
0,
0,
0,
0,
0,
0,
0,
0,
0,
0,
0,
0,
0,
0,
0,
0,
0,
0,
0,
0,
0,
0,
0,
0,
0,
0,
0,
0,
0,
0,
0,
0,
0,
0,
0,
0,
0,
0,
0,
0,
0,
0,
0,
0,
0,
0,
0,
0,
0,
0,
0,
0,
0,
0,
0,
0,
0,
0,
0,
0,
0,
0,
0,
0,
0,
0,
0,
0,
0,
#ENDOFDATA   :