File: N132962/Standards/15 keV/Ho std.msa
#FORMAT      : EMSA/MAS Spectral Data File
#VERSION     : 1.0
#TITLE       : Ho standard for 'N132962' detector
#NPOINTS     : 4096
#NCOLUMNS    : 1
#XUNITS      : eV
#YUNITS      : counts
#DATATYPE    : Y
#SIGNALTYPE  : EDS
#XLABEL      : Energy (eV)
#YLABEL      : Counts
#XPERCHAN -eV: 9.99778
#OFFSET   -eV: 1.69135
#CHOFFSET    : 0
#DATE        : 26-Sep-2025
#TIME        : 17:43:00
#OWNER       : Unknown
#ELEVANGLE   : 35
#BEAMKV   -kV: 15
#LIVETIME  -s: 1679.91
#REALTIME  -s: 1828.59
#PROBECUR -nA: 1.21629
##WORKING -mm: 15
##D2STDCMP   : Ho,(Ho:100.0000)
##SIMILAR    : 2.3
#SPECTRUM    :
168,
204,
99,
410,
2368,
8396,
19350,
42441,
89346,
111975,
78758,
61390,
62932,
65407,
68299,
84774,
136991,
198148,
164404,
99092,
86912,
109376,
145251,
141819,
110008,
94760,
94765,
98389,
101867,
103696,
104659,
107822,
130341,
206379,
342352,
380556,
259777,
151627,
116139,
109416,
110194,
118123,
152917,
268187,
527828,
804825,
803730,
490678,
194157,
79311,
62866,
73805,
90870,
89997,
71088,
59555,
61120,
68575,
73897,
70398,
62277,
54297,
48110,
44611,
43663,
43034,
43947,
44090,
44354,
45016,
45414,
45159,
45125,
44568,
45076,
45350,
45517,
45971,
45653,
46708,
46606,
46682,
46562,
47057,
46883,
46773,
47252,
47352,
47617,
47894,
47849,
47823,
47529,
47402,
47077,
47158,
46906,
46739,
46996,
47108,
46982,
46587,
46622,
46594,
46727,
46351,
45948,
45962,
45859,
46337,
45639,
45686,
45335,
45181,
44826,
45024,
44730,
44777,
44583,
44273,
44094,
44057,
43992,
44070,
43804,
43315,
43251,
42599,
42662,
42518,
42347,
42514,
42142,
41868,
41567,
41304,
41526,
40998,
40989,
40577,
40430,
40216,
39922,
39647,
39625,
39723,
39535,
39131,
38705,
38868,
38355,
37667,
38211,
38018,
37793,
37713,
37355,
37058,
36682,
36659,
36415,
36387,
36464,
36199,
36126,
36429,
36400,
35704,
35124,
34838,
34613,
34486,
33989,
34103,
33398,
33332,
33299,
33259,
33185,
33194,
33295,
33016,
32710,
32114,
31869,
31664,
31382,
31233,
30716,
30698,
30715,
31033,
30828,
30814,
32094,
33829,
37763,
41704,
42835,
41248,
36918,
33113,
30608,
29020,
28589,
28362,
28243,
27856,
27722,
27946,
27831,
28817,
29312,
30201,
29791,
29321,
28648,
29441,
33758,
47963,
82633,
148951,
238247,
317885,
339027,
287073,
197026,
113792,
61182,
36928,
28236,
25366,
24742,
24231,
24135,
23659,
23488,
23405,
23290,
22584,
22791,
22393,
22444,
22944,
23834,
27041,
34956,
51997,
79341,
112991,
139199,
143746,
126451,
97866,
73167,
54989,
43393,
35095,
29994,
30249,
36500,
48343,
61681,
71036,
69161,
58738,
44054,
32174,
24821,
20854,
18969,
18209,
17017,
17014,
16312,
16230,
16171,
16066,
15985,
16018,
16369,
16058,
16211,
16298,
16271,
16354,
16843,
18403,
21476,
25740,
30855,
33040,
32262,
28498,
23358,
19019,
16802,
15804,
15838,
16750,
17825,
18796,
19608,
18808,
17721,
16075,
14610,
13794,
13100,
13362,
13309,
13561,
13373,
13121,
12841,
12614,
12194,
12060,
11812,
11878,
11692,
11542,
11606,
11699,
11692,
11327,
11356,
11319,
11342,
11056,
11102,
10869,
10774,
10809,
10488,
10381,
10469,
10344,
10371,
10106,
10105,
10106,
9833,
9899,
9835,
9812,
9712,
9618,
9648,
9478,
9293,
9205,
9068,
9165,
8968,
8886,
8900,
8600,
8769,
8740,
8582,
8533,
8258,
8540,
8274,
8137,
8132,
8060,
8091,
7955,
7777,
7949,
7507,
7587,
7488,
7443,
7337,
7306,
7368,
7264,
7299,
7077,
6981,
6844,
6708,
6816,
6633,
6433,
6410,
6458,
6479,
6180,
6259,
6139,
6035,
5942,
5949,
6019,
5647,
5720,
5684,
5636,
5592,
5461,
5334,
5310,
5268,
5176,
5098,
5109,
4855,
4860,
5027,
4884,
4716,
4591,
4476,
4432,
4518,
4319,
4305,
4226,
4248,
4188,
4146,
4009,
3991,
3981,
3845,
3721,
3775,
3758,
3557,
3545,
3560,
3461,
3430,
3374,
3288,
3252,
3130,
3115,
3064,
3061,
2971,
2864,
2792,
2800,
2773,
2711,
2618,
2562,
2468,
2527,
2378,
2262,
2345,
2209,
2163,
2125,
2103,
2106,
1908,
1901,
1840,
1848,
1799,
1796,
1630,
1565,
1474,
1537,
1466,
1493,
1396,
1321,
1312,
1230,
1142,
1129,
985,
1035,
992,
934,
875,
814,
770,
775,
683,
643,
572,
554,
481,
407,
378,
289,
266,
246,
172,
138,
120,
110,
73,
76,
63,
64,
66,
60,
47,
63,
62,
59,
51,
72,
57,
56,
48,
55,
52,
50,
51,
43,
41,
52,
44,
37,
54,
34,
43,
46,
39,
44,
40,
49,
25,
35,
43,
40,
37,
36,
32,
44,
39,
41,
36,
31,
31,
34,
41,
38,
29,
28,
29,
32,
23,
27,
30,
30,
30,
18,
20,
34,
33,
50,
47,
35,
43,
29,
36,
42,
38,
39,
38,
36,
37,
23,
35,
32,
30,
32,
33,
31,
24,
25,
33,
37,
29,
25,
39,
30,
31,
19,
33,
40,
30,
23,
26,
28,
22,
25,
25,
19,
18,
20,
22,
22,
27,
26,
24,
17,
26,
21,
19,
18,
27,
25,
14,
23,
28,
14,
15,
33,
19,
25,
18,
20,
18,
19,
22,
17,
14,
21,
9,
14,
19,
18,
13,
19,
19,
15,
12,
13,
15,
13,
12,
19,
14,
22,
21,
12,
13,
16,
14,
14,
20,
13,
18,
12,
13,
8,
6,
18,
7,
16,
16,
13,
17,
11,
10,
12,
11,
7,
11,
14,
13,
10,
10,
10,
12,
8,
9,
12,
7,
12,
5,
2,
12,
8,
10,
6,
7,
8,
6,
4,
8,
5,
10,
5,
6,
8,
8,
6,
7,
8,
7,
8,
2,
3,
5,
5,
6,
8,
3,
2,
6,
7,
4,
6,
7,
8,
4,
8,
0,
4,
2,
6,
2,
7,
2,
3,
5,
0,
4,
4,
2,
3,
3,
6,
3,
2,
2,
2,
1,
2,
1,
0,
3,
1,
1,
1,
5,
1,
3,
2,
3,
1,
0,
3,
5,
3,
1,
3,
3,
2,
2,
2,
0,
0,
3,
0,
2,
0,
0,
1,
1,
0,
2,
0,
1,
3,
1,
2,
1,
1,
0,
3,
1,
2,
1,
2,
2,
2,
0,
2,
1,
1,
0,
1,
0,
0,
3,
0,
2,
0,
2,
0,
0,
1,
1,
1,
1,
2,
0,
0,
1,
0,
1,
1,
0,
2,
0,
2,
0,
0,
1,
0,
1,
0,
1,
0,
0,
0,
1,
0,
0,
0,
0,
1,
0,
0,
0,
2,
0,
1,
0,
0,
1,
1,
0,
0,
0,
0,
1,
3,
0,
0,
1,
0,
1,
1,
0,
1,
0,
0,
0,
1,
1,
0,
2,
0,
2,
0,
0,
0,
1,
0,
0,
0,
1,
2,
0,
0,
0,
0,
0,
1,
0,
0,
0,
0,
0,
0,
0,
0,
1,
0,
0,
0,
0,
0,
0,
1,
0,
0,
0,
0,
0,
1,
0,
1,
0,
0,
0,
0,
0,
0,
0,
0,
0,
0,
1,
0,
0,
0,
0,
0,
1,
0,
0,
0,
0,
0,
0,
0,
0,
0,
0,
0,
0,
0,
0,
0,
0,
0,
0,
0,
0,
0,
0,
0,
0,
0,
0,
0,
0,
0,
0,
0,
0,
0,
0,
0,
0,
0,
0,
0,
0,
0,
0,
0,
0,
0,
0,
0,
0,
0,
0,
0,
0,
0,
0,
0,
0,
0,
0,
0,
0,
0,
0,
0,
0,
0,
0,
0,
0,
0,
0,
0,
0,
0,
0,
0,
0,
0,
0,
0,
0,
0,
0,
0,
0,
0,
0,
0,
0,
0,
0,
0,
0,
0,
0,
0,
0,
0,
0,
0,
0,
0,
0,
0,
0,
0,
0,
0,
0,
0,
0,
0,
0,
0,
0,
0,
0,
0,
0,
0,
0,
0,
0,
0,
0,
0,
0,
0,
0,
0,
0,
0,
0,
0,
0,
0,
0,
0,
0,
0,
0,
0,
0,
0,
0,
0,
0,
0,
0,
0,
0,
0,
0,
0,
0,
0,
0,
0,
0,
0,
0,
0,
0,
0,
0,
0,
0,
0,
0,
0,
0,
0,
0,
0,
0,
0,
0,
0,
0,
0,
0,
0,
0,
0,
0,
0,
0,
0,
0,
0,
0,
0,
0,
0,
0,
0,
0,
0,
0,
0,
0,
0,
0,
0,
0,
0,
0,
0,
0,
0,
0,
0,
0,
0,
0,
0,
0,
0,
0,
0,
0,
0,
0,
0,
0,
0,
0,
0,
0,
0,
0,
0,
0,
0,
0,
0,
0,
0,
0,
0,
0,
0,
0,
0,
0,
0,
0,
0,
0,
0,
0,
0,
0,
0,
0,
0,
0,
0,
0,
0,
0,
0,
0,
0,
0,
0,
0,
0,
0,
0,
0,
0,
0,
0,
0,
0,
0,
0,
0,
0,
0,
0,
0,
0,
0,
0,
0,
0,
0,
0,
0,
0,
0,
0,
0,
0,
0,
0,
0,
0,
0,
0,
0,
0,
0,
0,
0,
0,
0,
0,
0,
0,
0,
0,
0,
0,
0,
0,
0,
0,
0,
0,
0,
0,
0,
0,
0,
0,
0,
0,
0,
0,
0,
0,
0,
0,
0,
0,
0,
0,
0,
0,
0,
0,
0,
0,
0,
0,
0,
0,
0,
0,
0,
0,
0,
0,
0,
0,
0,
0,
0,
0,
0,
0,
0,
0,
0,
0,
0,
0,
0,
0,
0,
0,
0,
0,
0,
0,
0,
0,
0,
0,
0,
0,
0,
0,
0,
0,
0,
0,
0,
0,
0,
0,
0,
0,
0,
0,
0,
0,
0,
0,
0,
0,
0,
0,
0,
0,
0,
0,
0,
0,
0,
0,
0,
0,
0,
0,
0,
0,
0,
0,
0,
0,
0,
0,
0,
0,
0,
0,
0,
0,
0,
0,
0,
0,
0,
0,
0,
0,
#ENDOFDATA   :