File: N132962/Standards/15 keV/HoP5O14 std.msa
#FORMAT      : EMSA/MAS Spectral Data File
#VERSION     : 1.0
#TITLE       : HoP5O14 standard for 'N132962' detector
#NPOINTS     : 4096
#NCOLUMNS    : 1
#XUNITS      : eV
#YUNITS      : counts
#DATATYPE    : Y
#SIGNALTYPE  : EDS
#XLABEL      : Energy (eV)
#YLABEL      : Counts
#XPERCHAN -eV: 9.99778
#OFFSET   -eV: 1.69135
#CHOFFSET    : 0
#DATE        : 17-Mar-2025
#TIME        : 16:05:00
#OWNER       : Unknown
#ELEVANGLE   : 35
#BEAMKV   -kV: 15
#LIVETIME  -s: 959.051
#REALTIME  -s: 1011.88
#PROBECUR -nA: 1.02545
##WORKING -mm: 15
##D2STDCMP   : HoP5O14,(O:41.1902),(P:28.4798),(Ho:30.3301)
##SIMILAR    : 1.1
#SPECTRUM    :
99,
115,
47,
157,
778,
2211,
5435,
17237,
53862,
74311,
39088,
17137,
17304,
21057,
31635,
97071,
359259,
690216,
506351,
136814,
23970,
13469,
13893,
15639,
16387,
16262,
16993,
17891,
19092,
19572,
19526,
20624,
23575,
32156,
47124,
51537,
38197,
27309,
23868,
23217,
23703,
24562,
29500,
49867,
98856,
153324,
154876,
99017,
44728,
23753,
20903,
23046,
26297,
25804,
22230,
20099,
20332,
22493,
23955,
23564,
22314,
20984,
22343,
32323,
65801,
172607,
385991,
534946,
421305,
192914,
71663,
43035,
32739,
21495,
14537,
12259,
11733,
11501,
11392,
11481,
11577,
11595,
11657,
12340,
12627,
12264,
11870,
11524,
11169,
11199,
11383,
11099,
10975,
11088,
10948,
10836,
10874,
10880,
10633,
10709,
10631,
10761,
10461,
10390,
10373,
10410,
10238,
10031,
10079,
10153,
10099,
9982,
10172,
10047,
9761,
9807,
9724,
9618,
9555,
9327,
9480,
9340,
9120,
9242,
9254,
9058,
9033,
8868,
8917,
8883,
8748,
8858,
8661,
8909,
9044,
8881,
8553,
8329,
8232,
8150,
8197,
8074,
8004,
7966,
7632,
7843,
7681,
7787,
7554,
7533,
7446,
7415,
7235,
7304,
7219,
7192,
7234,
7117,
7219,
7078,
6956,
6972,
6840,
6849,
6930,
6886,
6788,
6620,
6476,
6537,
6540,
6506,
6495,
6502,
6314,
6306,
6153,
6098,
6184,
6088,
6031,
6123,
5851,
6020,
5945,
5862,
5635,
5739,
5774,
5789,
5579,
5572,
5567,
5574,
5555,
5976,
6175,
6547,
6773,
6483,
6006,
5495,
5348,
5158,
4945,
4994,
4918,
4970,
4899,
4894,
4977,
4957,
5073,
4947,
4948,
4869,
4874,
4854,
5396,
6826,
10562,
17804,
27270,
35935,
38168,
32881,
22928,
13793,
8288,
5554,
4637,
4106,
4156,
4173,
4089,
3965,
3927,
4007,
3921,
3824,
3913,
3877,
3683,
3841,
4006,
4269,
4920,
6881,
9501,
13210,
15927,
16578,
14618,
11834,
9110,
7167,
5737,
4919,
4320,
4303,
5059,
6282,
7702,
8743,
8607,
7439,
5895,
4705,
3810,
3230,
2927,
3012,
2929,
2837,
2813,
2754,
2795,
2796,
2682,
2736,
2807,
2712,
2656,
2755,
2672,
2661,
2756,
2884,
3275,
3761,
4271,
4392,
4413,
3877,
3343,
2886,
2614,
2508,
2510,
2512,
2637,
2829,
2835,
2884,
2745,
2511,
2293,
2203,
2239,
2145,
2154,
2126,
2174,
2150,
2137,
2008,
2084,
1910,
1976,
2018,
1973,
1845,
1903,
1875,
1888,
1815,
1830,
1812,
1760,
1729,
1728,
1772,
1776,
1673,
1613,
1646,
1618,
1668,
1596,
1624,
1602,
1583,
1621,
1565,
1466,
1531,
1485,
1501,
1475,
1452,
1458,
1387,
1387,
1333,
1353,
1349,
1378,
1278,
1350,
1274,
1351,
1314,
1225,
1142,
1217,
1247,
1219,
1207,
1164,
1103,
1205,
1150,
1183,
1118,
1063,
1097,
1036,
1046,
1060,
1055,
1037,
1004,
985,
1003,
915,
945,
943,
942,
949,
929,
906,
891,
863,
870,
855,
835,
866,
803,
783,
804,
775,
776,
756,
717,
756,
712,
724,
746,
711,
669,
694,
634,
647,
618,
677,
633,
603,
600,
606,
573,
572,
529,
554,
527,
514,
497,
529,
540,
486,
465,
468,
483,
457,
443,
444,
452,
395,
408,
394,
386,
360,
417,
398,
360,
365,
350,
342,
332,
304,
349,
295,
295,
259,
273,
226,
267,
240,
253,
239,
218,
225,
220,
206,
217,
197,
219,
192,
202,
180,
156,
178,
146,
164,
144,
131,
148,
151,
126,
125,
110,
120,
100,
110,
84,
84,
82,
74,
73,
65,
66,
48,
45,
40,
40,
30,
27,
21,
13,
12,
12,
4,
6,
6,
6,
5,
1,
4,
5,
0,
1,
1,
1,
1,
2,
3,
2,
1,
4,
3,
0,
6,
4,
4,
4,
4,
2,
3,
2,
2,
3,
0,
0,
1,
1,
1,
4,
0,
1,
3,
1,
3,
1,
0,
2,
3,
0,
0,
0,
2,
0,
2,
1,
1,
2,
2,
3,
2,
2,
0,
1,
1,
1,
1,
3,
2,
2,
1,
1,
3,
1,
1,
4,
0,
2,
1,
3,
3,
0,
0,
3,
1,
1,
0,
1,
0,
0,
1,
0,
1,
1,
1,
0,
1,
1,
0,
0,
3,
2,
2,
1,
1,
2,
2,
0,
2,
2,
2,
1,
0,
1,
0,
1,
0,
1,
2,
0,
0,
0,
3,
2,
2,
1,
1,
0,
0,
0,
1,
0,
2,
0,
1,
1,
0,
1,
0,
2,
1,
1,
0,
0,
0,
1,
0,
1,
1,
2,
2,
0,
0,
0,
0,
2,
1,
0,
0,
0,
1,
1,
0,
2,
0,
1,
0,
0,
0,
1,
1,
1,
0,
0,
0,
0,
1,
0,
1,
0,
1,
0,
0,
1,
0,
0,
0,
0,
0,
1,
0,
0,
1,
0,
0,
0,
0,
0,
0,
0,
1,
1,
1,
0,
0,
1,
1,
0,
0,
0,
1,
0,
0,
0,
0,
1,
0,
0,
0,
0,
0,
0,
0,
0,
0,
0,
0,
0,
0,
0,
1,
0,
2,
0,
0,
0,
0,
0,
0,
0,
0,
0,
0,
0,
0,
0,
0,
0,
1,
0,
0,
0,
0,
0,
0,
0,
0,
0,
1,
0,
0,
0,
0,
0,
0,
0,
0,
0,
0,
0,
0,
0,
0,
1,
0,
0,
0,
0,
0,
0,
0,
0,
0,
0,
0,
0,
0,
0,
0,
0,
0,
0,
0,
0,
0,
0,
1,
0,
0,
0,
0,
1,
0,
0,
0,
0,
0,
0,
0,
0,
0,
0,
0,
0,
0,
0,
0,
0,
0,
0,
0,
0,
0,
1,
0,
0,
0,
0,
0,
0,
0,
0,
0,
0,
0,
0,
0,
0,
0,
0,
0,
0,
0,
0,
0,
0,
0,
0,
0,
0,
0,
0,
0,
0,
0,
0,
0,
0,
0,
0,
0,
0,
0,
0,
0,
0,
0,
0,
0,
0,
0,
0,
0,
0,
0,
0,
0,
0,
0,
0,
0,
0,
0,
0,
0,
0,
0,
0,
0,
0,
0,
0,
0,
0,
0,
0,
0,
0,
0,
0,
0,
0,
0,
0,
0,
0,
0,
0,
0,
0,
0,
0,
0,
0,
0,
0,
0,
0,
0,
0,
0,
0,
0,
0,
0,
0,
0,
0,
0,
0,
0,
0,
0,
0,
0,
0,
0,
0,
0,
0,
0,
0,
0,
0,
0,
0,
0,
0,
0,
0,
0,
0,
0,
0,
0,
0,
0,
0,
0,
0,
0,
0,
0,
0,
0,
0,
0,
0,
0,
0,
0,
0,
0,
0,
0,
0,
0,
0,
0,
0,
0,
0,
0,
0,
0,
0,
0,
0,
0,
0,
0,
0,
0,
0,
0,
0,
0,
0,
0,
0,
0,
0,
0,
0,
0,
0,
0,
0,
0,
0,
0,
0,
0,
0,
0,
0,
0,
0,
0,
0,
0,
0,
0,
0,
0,
0,
0,
0,
0,
0,
0,
0,
0,
0,
0,
0,
0,
0,
0,
0,
0,
0,
0,
0,
0,
0,
0,
0,
0,
0,
0,
0,
0,
0,
0,
0,
0,
0,
0,
0,
0,
0,
0,
0,
0,
0,
0,
0,
0,
0,
0,
0,
0,
0,
0,
0,
0,
0,
0,
0,
0,
0,
0,
0,
0,
0,
0,
0,
0,
0,
0,
0,
0,
0,
0,
0,
0,
0,
0,
0,
0,
0,
0,
0,
0,
0,
0,
0,
0,
0,
0,
0,
0,
0,
0,
0,
0,
0,
0,
0,
0,
0,
0,
0,
0,
0,
0,
0,
0,
0,
0,
0,
0,
0,
0,
0,
0,
0,
0,
0,
0,
0,
0,
0,
0,
0,
0,
0,
0,
0,
0,
0,
0,
0,
0,
0,
0,
0,
0,
0,
0,
0,
0,
0,
0,
0,
0,
0,
0,
0,
0,
0,
0,
0,
0,
0,
0,
0,
0,
0,
0,
0,
0,
0,
0,
0,
0,
0,
0,
0,
0,
0,
0,
0,
0,
0,
0,
0,
0,
0,
0,
0,
0,
0,
0,
0,
0,
0,
0,
0,
0,
0,
0,
0,
0,
0,
0,
0,
0,
0,
0,
0,
0,
0,
0,
0,
0,
0,
0,
0,
0,
0,
0,
0,
0,
0,
0,
0,
0,
0,
0,
0,
0,
0,
0,
0,
0,
0,
0,
0,
0,
0,
0,
0,
0,
0,
0,
0,
0,
0,
0,
0,
0,
0,
0,
0,
0,
0,
0,
0,
0,
0,
0,
0,
0,
0,
0,
0,
0,
0,
0,
0,
0,
0,
0,
0,
0,
0,
0,
0,
0,
0,
0,
0,
0,
0,
0,
0,
0,
0,
0,
0,
0,
0,
0,
0,
0,
0,
0,
0,
0,
0,
0,
0,
0,
0,
0,
0,
0,
0,
0,
0,
0,
0,
0,
0,
0,
0,
0,
0,
0,
0,
0,
0,
0,
0,
0,
0,
0,
0,
0,
0,
0,
0,
0,
0,
0,
0,
0,
0,
0,
0,
0,
0,
0,
0,
0,
0,
0,
0,
0,
0,
0,
0,
0,
0,
0,
0,
0,
0,
#ENDOFDATA   :