File: N132962/Standards/15 keV/In std.msa
#FORMAT      : EMSA/MAS Spectral Data File
#VERSION     : 1.0
#TITLE       : In standard for 'N132962' detector
#NPOINTS     : 4096
#NCOLUMNS    : 1
#XUNITS      : eV
#YUNITS      : counts
#DATATYPE    : Y
#SIGNALTYPE  : EDS
#XLABEL      : Energy (eV)
#YLABEL      : Counts
#XPERCHAN -eV: 9.99778
#OFFSET   -eV: 1.69135
#CHOFFSET    : 0
#DATE        : 25-Sep-2025
#TIME        : 20:10:00
#OWNER       : Unknown
#ELEVANGLE   : 35
#BEAMKV   -kV: 15
#LIVETIME  -s: 1441.5
#REALTIME  -s: 1566.01
#PROBECUR -nA: 1.20878
##WORKING -mm: 15
##D2STDCMP   : In,(In:100.0000)
##SIMILAR    : 92.0
#SPECTRUM    :
125,
182,
74,
505,
3966,
15848,
39651,
83485,
165693,
206386,
194397,
316117,
392161,
238147,
116575,
86937,
93915,
122052,
93680,
45391,
33552,
41114,
47509,
43108,
35255,
31494,
30748,
31780,
34038,
35527,
36867,
38069,
38209,
37935,
38007,
39177,
40265,
40728,
41365,
43227,
43735,
44973,
47553,
48875,
49203,
48964,
50058,
50242,
51717,
53786,
59351,
64506,
63783,
57830,
53439,
53330,
56052,
61092,
65066,
63861,
59134,
54678,
50408,
48414,
47944,
48117,
48484,
48195,
47545,
47731,
47827,
48224,
47955,
47487,
47394,
46148,
46022,
46222,
46537,
45932,
45470,
45343,
44616,
44350,
43546,
43991,
44833,
45584,
44824,
43398,
42501,
42112,
42301,
43613,
47884,
58041,
72673,
79746,
71708,
56986,
47191,
44721,
47732,
54998,
62170,
72673,
116326,
273717,
613731,
978051,
1030448,
713481,
343539,
166212,
189862,
330275,
459081,
457471,
342828,
221800,
144906,
107258,
110289,
138025,
151238,
126725,
83300,
52376,
42823,
49281,
60492,
64243,
53945,
38589,
29136,
25624,
27316,
32023,
36636,
36714,
32390,
27095,
23467,
21910,
21308,
20789,
20928,
21128,
21749,
22551,
22933,
22709,
22216,
21094,
20660,
20292,
20434,
20257,
20166,
20106,
20187,
20173,
20161,
20296,
20098,
20250,
20134,
19876,
19802,
19550,
19473,
19461,
19504,
19231,
19038,
19006,
18983,
19061,
18941,
18544,
18830,
18639,
18626,
18475,
18299,
18207,
18153,
18126,
17985,
18022,
17634,
17675,
17542,
17562,
17622,
17305,
17249,
17372,
16973,
17019,
16898,
16858,
16472,
16653,
16661,
16669,
16473,
16393,
16356,
16136,
16347,
16225,
16403,
16185,
16115,
16054,
15959,
15792,
16178,
15927,
15999,
15554,
15294,
15341,
15066,
15244,
15312,
15143,
15043,
14785,
14547,
14256,
14139,
14371,
14465,
14137,
14130,
13777,
13547,
13507,
13453,
13336,
13191,
12923,
12799,
12773,
12957,
12943,
12943,
12965,
12528,
12521,
12196,
12224,
12045,
12061,
12018,
11930,
11879,
11767,
11510,
11659,
11347,
11515,
11449,
11303,
11278,
11388,
11393,
11122,
11149,
11086,
10695,
10562,
10561,
10620,
10537,
10341,
10229,
10067,
10142,
9943,
10025,
10054,
9889,
9787,
9686,
9710,
9621,
9696,
9429,
9472,
9343,
9152,
9289,
8976,
9001,
9017,
8829,
8864,
8873,
8598,
8739,
8672,
8288,
8385,
8462,
8342,
8066,
8190,
8233,
8119,
7856,
7959,
7906,
7741,
7783,
7707,
7653,
7643,
7433,
7450,
7549,
7462,
7361,
7303,
7033,
6971,
7042,
6953,
7032,
6987,
6867,
6810,
6571,
6477,
6622,
6477,
6376,
6340,
6352,
6200,
6229,
6245,
6048,
6016,
5946,
6001,
6076,
5911,
5962,
5918,
5716,
5675,
5635,
5475,
5444,
5429,
5369,
5362,
5127,
5253,
5149,
5079,
5164,
4914,
4975,
4877,
4864,
4928,
4791,
4704,
4644,
4620,
4507,
4570,
4449,
4487,
4319,
4192,
4321,
4219,
4122,
4245,
4064,
4018,
3862,
4034,
3866,
3940,
3717,
3765,
3788,
3680,
3747,
3591,
3469,
3514,
3402,
3355,
3252,
3363,
3241,
3246,
3089,
3089,
3093,
2960,
2973,
2993,
2833,
2918,
2825,
2776,
2640,
2702,
2679,
2684,
2680,
2562,
2568,
2432,
2524,
2431,
2346,
2301,
2341,
2204,
2220,
2115,
2116,
2099,
2029,
2123,
2010,
1835,
1983,
1876,
1869,
1849,
1764,
1759,
1672,
1669,
1707,
1559,
1558,
1519,
1566,
1529,
1430,
1352,
1477,
1291,
1382,
1275,
1238,
1238,
1226,
1157,
1118,
1074,
1003,
1092,
1008,
982,
919,
907,
888,
910,
850,
790,
785,
715,
739,
710,
671,
651,
604,
630,
552,
559,
519,
475,
447,
459,
426,
392,
354,
353,
311,
245,
267,
236,
206,
152,
152,
134,
93,
79,
70,
43,
26,
25,
34,
36,
25,
25,
17,
26,
19,
19,
17,
15,
19,
26,
23,
25,
14,
19,
19,
18,
20,
16,
18,
13,
15,
14,
15,
18,
20,
25,
9,
22,
14,
12,
14,
11,
13,
21,
15,
16,
13,
10,
11,
14,
13,
14,
11,
14,
11,
22,
15,
8,
10,
12,
10,
10,
11,
9,
12,
9,
15,
11,
14,
17,
10,
11,
13,
16,
18,
16,
20,
13,
15,
16,
12,
9,
16,
12,
10,
12,
10,
13,
10,
13,
13,
6,
7,
10,
5,
12,
7,
10,
7,
12,
8,
8,
6,
8,
6,
9,
3,
9,
8,
4,
3,
7,
3,
6,
7,
9,
2,
5,
5,
3,
2,
6,
3,
3,
3,
2,
4,
10,
4,
2,
5,
5,
5,
9,
7,
5,
8,
7,
5,
3,
3,
4,
3,
6,
5,
2,
1,
5,
8,
3,
3,
4,
4,
1,
2,
6,
1,
6,
2,
2,
4,
2,
2,
4,
1,
0,
3,
1,
3,
2,
7,
2,
4,
0,
3,
1,
1,
1,
2,
2,
0,
3,
5,
3,
2,
1,
3,
1,
1,
3,
2,
2,
3,
0,
3,
2,
4,
1,
0,
0,
0,
1,
1,
4,
1,
3,
4,
1,
2,
0,
3,
0,
1,
0,
0,
3,
0,
3,
1,
0,
0,
1,
1,
2,
0,
1,
3,
0,
0,
1,
2,
4,
1,
2,
3,
0,
2,
2,
1,
4,
0,
1,
0,
1,
1,
1,
0,
1,
2,
2,
1,
1,
0,
1,
0,
0,
0,
0,
0,
0,
0,
0,
2,
0,
0,
2,
0,
0,
2,
0,
1,
0,
0,
0,
0,
2,
1,
1,
1,
0,
0,
1,
2,
1,
0,
0,
1,
0,
0,
0,
1,
0,
0,
0,
1,
0,
0,
0,
0,
0,
0,
1,
0,
0,
1,
1,
0,
1,
0,
0,
0,
0,
0,
0,
0,
3,
2,
0,
0,
0,
0,
0,
0,
0,
0,
0,
0,
0,
0,
1,
1,
2,
0,
0,
0,
0,
0,
0,
0,
0,
0,
0,
0,
0,
1,
0,
0,
0,
0,
0,
1,
0,
0,
0,
1,
0,
0,
0,
0,
1,
0,
0,
0,
0,
0,
0,
0,
0,
0,
2,
1,
0,
0,
1,
0,
0,
0,
0,
0,
0,
0,
0,
1,
0,
0,
0,
1,
0,
0,
0,
0,
0,
0,
0,
0,
0,
0,
0,
0,
0,
0,
0,
0,
0,
0,
0,
0,
0,
0,
0,
0,
0,
0,
0,
0,
1,
0,
0,
0,
0,
0,
0,
0,
0,
0,
0,
0,
0,
0,
0,
0,
0,
0,
0,
0,
0,
0,
0,
0,
0,
0,
0,
0,
0,
0,
0,
0,
0,
0,
0,
0,
0,
0,
0,
0,
0,
0,
0,
0,
0,
0,
0,
0,
0,
0,
0,
0,
0,
0,
0,
0,
0,
0,
0,
0,
0,
0,
0,
0,
0,
0,
0,
0,
0,
0,
0,
0,
0,
0,
0,
0,
0,
0,
0,
0,
0,
0,
0,
0,
0,
0,
0,
0,
0,
0,
0,
0,
0,
0,
0,
0,
0,
0,
0,
0,
0,
0,
0,
0,
0,
0,
0,
0,
0,
0,
0,
0,
0,
0,
0,
0,
0,
0,
0,
0,
0,
0,
0,
0,
0,
0,
0,
0,
0,
0,
0,
0,
0,
0,
0,
0,
0,
0,
0,
0,
0,
0,
0,
0,
0,
0,
0,
0,
0,
0,
0,
0,
0,
0,
0,
0,
0,
0,
0,
0,
0,
0,
0,
0,
0,
0,
0,
0,
0,
0,
0,
0,
0,
0,
0,
0,
0,
0,
0,
0,
0,
0,
0,
0,
0,
0,
0,
0,
0,
0,
0,
0,
0,
0,
0,
0,
0,
0,
0,
0,
0,
0,
0,
0,
0,
0,
0,
0,
0,
0,
0,
0,
0,
0,
0,
0,
0,
0,
0,
0,
0,
0,
0,
0,
0,
0,
0,
0,
0,
0,
0,
0,
0,
0,
0,
0,
0,
0,
0,
0,
0,
0,
0,
0,
0,
0,
0,
0,
0,
0,
0,
0,
0,
0,
0,
0,
0,
0,
0,
0,
0,
0,
0,
0,
0,
0,
0,
0,
0,
0,
0,
0,
0,
0,
0,
0,
0,
0,
0,
0,
0,
0,
0,
0,
0,
0,
0,
0,
0,
0,
0,
0,
0,
0,
0,
0,
0,
0,
0,
0,
0,
0,
0,
0,
0,
0,
0,
0,
0,
0,
0,
0,
0,
0,
0,
0,
0,
0,
0,
0,
0,
0,
0,
0,
0,
0,
0,
0,
0,
0,
0,
0,
0,
0,
0,
0,
0,
0,
0,
0,
0,
0,
0,
0,
0,
0,
0,
0,
0,
0,
0,
0,
0,
0,
0,
0,
0,
0,
0,
0,
0,
0,
0,
0,
0,
0,
0,
0,
0,
0,
0,
0,
0,
0,
0,
0,
0,
0,
0,
0,
0,
0,
0,
0,
0,
0,
0,
0,
0,
0,
0,
0,
0,
0,
0,
0,
0,
0,
0,
0,
0,
0,
0,
0,
0,
0,
0,
0,
0,
0,
0,
0,
0,
0,
0,
0,
0,
0,
0,
0,
0,
0,
0,
0,
0,
0,
0,
0,
0,
0,
0,
0,
0,
0,
0,
0,
0,
0,
0,
0,
0,
0,
0,
0,
0,
0,
0,
0,
0,
0,
0,
0,
0,
0,
0,
#ENDOFDATA   :