File: N132962/Standards/15 keV/InAs std.msa
#FORMAT      : EMSA/MAS Spectral Data File
#VERSION     : 1.0
#TITLE       : InAs standard for 'N132962' detector
#NPOINTS     : 4096
#NCOLUMNS    : 1
#XUNITS      : eV
#YUNITS      : counts
#DATATYPE    : Y
#SIGNALTYPE  : EDS
#XLABEL      : Energy (eV)
#YLABEL      : Counts
#XPERCHAN -eV: 9.99778
#OFFSET   -eV: 1.69135
#CHOFFSET    : 0
#DATE        : 27-Sep-2025
#TIME        : 19:35:00
#OWNER       : Unknown
#ELEVANGLE   : 35
#BEAMKV   -kV: 15
#LIVETIME  -s: 1919.11
#REALTIME  -s: 2078.22
#PROBECUR -nA: 1.21093
##WORKING -mm: 15
##D2STDCMP   : InAs,(As:39.4865),(In:60.5135)
##SIMILAR    : 1.3
#SPECTRUM    :
202,
227,
92,
287,
1811,
7065,
19356,
45229,
94612,
118655,
104219,
151769,
185831,
127449,
81705,
68763,
61897,
62415,
57724,
49536,
51217,
59836,
63022,
59081,
54499,
52167,
51881,
53812,
56830,
59788,
65498,
71359,
69322,
69149,
72179,
78016,
98556,
126734,
132383,
119580,
162278,
442255,
1039764,
1386190,
1035039,
475469,
172568,
85201,
63155,
58691,
62028,
66018,
64459,
58685,
55744,
55984,
58264,
63924,
67697,
67539,
63442,
59417,
55140,
52933,
52627,
53439,
54088,
53428,
53159,
53452,
53026,
53599,
53626,
53892,
53319,
53227,
53610,
53818,
53456,
52951,
52809,
52504,
52490,
52600,
52828,
52874,
53425,
52872,
52243,
51742,
50824,
50387,
50421,
51420,
54927,
63514,
75475,
81018,
73625,
61599,
53743,
51682,
54699,
60570,
66190,
74480,
111360,
242714,
522366,
824772,
865964,
602232,
297854,
152660,
172812,
291715,
397773,
395798,
300473,
198375,
133441,
102229,
104863,
128236,
139318,
119736,
83040,
57169,
49418,
55361,
66225,
69511,
59777,
45877,
36936,
33901,
35324,
39911,
43807,
44210,
40128,
35218,
31775,
29818,
29133,
29359,
29135,
29321,
29182,
29365,
29037,
29527,
30160,
29723,
29376,
29129,
28622,
28018,
28537,
28530,
28293,
28286,
27681,
27415,
27375,
26953,
26745,
27049,
26828,
26460,
26457,
26312,
26131,
25839,
25737,
25711,
25696,
25199,
25415,
25025,
24906,
24871,
24724,
24530,
24304,
24292,
24180,
24271,
23923,
23732,
23423,
23563,
23191,
23268,
23263,
22860,
22814,
22692,
22554,
22245,
22172,
21950,
21775,
21834,
21576,
21473,
21580,
21270,
21114,
21158,
20988,
21084,
21399,
21161,
21132,
20966,
20440,
20466,
20168,
19946,
19803,
19988,
19637,
19139,
19236,
19223,
19133,
18894,
18825,
18669,
18416,
18414,
18186,
18181,
18277,
18119,
17674,
17351,
17502,
17291,
17231,
16967,
17028,
16842,
16703,
16718,
16376,
16573,
16656,
16500,
16445,
15971,
15804,
15777,
15545,
15513,
15221,
15313,
15205,
15065,
14883,
14609,
14757,
14747,
14483,
14708,
14507,
14291,
14174,
14004,
14023,
13897,
13673,
13454,
13527,
13664,
13325,
13339,
13074,
12957,
12936,
13090,
12708,
12472,
12666,
12603,
12250,
12441,
12205,
12023,
12144,
11878,
11834,
11793,
11616,
11602,
11391,
11435,
11208,
11199,
11239,
11000,
11103,
10933,
10677,
10477,
10482,
10577,
10351,
10421,
10078,
10028,
10108,
9831,
10021,
10045,
9732,
9676,
9872,
9611,
9674,
9468,
9349,
9281,
9240,
9172,
9065,
8991,
8828,
8631,
8738,
8782,
8610,
8560,
8547,
8274,
8351,
8174,
8110,
8322,
7978,
7973,
7876,
8003,
8668,
9891,
12679,
17986,
25612,
33761,
39596,
41379,
37107,
29517,
21053,
14443,
10435,
8090,
7061,
6883,
6581,
6677,
6625,
6520,
6254,
6263,
6198,
6129,
6113,
6095,
5902,
6010,
5942,
5810,
5614,
5664,
5652,
5590,
5585,
5199,
5248,
5191,
5177,
5353,
5315,
5548,
5946,
6812,
7622,
8583,
9343,
9189,
8481,
7581,
6378,
5524,
4959,
4537,
4505,
4223,
4065,
4007,
4054,
3875,
3950,
3949,
3746,
3679,
3664,
3631,
3576,
3446,
3511,
3330,
3327,
3371,
3203,
3295,
3193,
3226,
3023,
3075,
2948,
2970,
2934,
2897,
2786,
2703,
2785,
2675,
2638,
2660,
2566,
2463,
2463,
2411,
2328,
2323,
2301,
2166,
2190,
2173,
2126,
2023,
1994,
2031,
1929,
1918,
1828,
1886,
1824,
1791,
1717,
1591,
1607,
1571,
1514,
1551,
1458,
1452,
1398,
1355,
1341,
1356,
1261,
1227,
1221,
1107,
1121,
1138,
1095,
906,
973,
959,
903,
880,
843,
884,
740,
719,
681,
641,
610,
629,
603,
534,
485,
446,
442,
393,
354,
307,
298,
270,
264,
208,
189,
158,
108,
79,
69,
52,
40,
39,
33,
34,
46,
41,
37,
42,
35,
32,
23,
20,
23,
26,
24,
27,
29,
24,
25,
26,
16,
17,
26,
40,
38,
26,
22,
26,
24,
21,
17,
12,
23,
19,
17,
10,
22,
18,
20,
11,
15,
16,
18,
14,
14,
13,
15,
16,
17,
10,
17,
11,
16,
14,
11,
15,
12,
15,
16,
18,
17,
22,
21,
27,
13,
19,
20,
16,
19,
22,
18,
18,
12,
23,
14,
23,
16,
12,
15,
11,
10,
13,
11,
15,
10,
11,
9,
11,
13,
10,
14,
22,
9,
4,
10,
9,
13,
9,
10,
7,
13,
14,
6,
9,
9,
11,
8,
8,
6,
7,
11,
8,
9,
13,
9,
3,
9,
12,
5,
4,
6,
10,
2,
3,
7,
6,
7,
5,
9,
4,
4,
8,
9,
7,
3,
7,
5,
7,
5,
6,
5,
3,
9,
4,
7,
3,
6,
5,
4,
7,
6,
4,
7,
1,
5,
1,
4,
6,
7,
7,
8,
1,
2,
3,
9,
4,
4,
6,
1,
5,
7,
6,
4,
10,
4,
0,
3,
5,
5,
0,
2,
2,
0,
2,
4,
6,
1,
2,
3,
3,
3,
4,
7,
7,
7,
4,
2,
2,
6,
8,
2,
3,
5,
3,
3,
3,
1,
4,
1,
3,
2,
2,
1,
3,
1,
2,
1,
1,
3,
2,
3,
2,
2,
1,
2,
0,
3,
2,
1,
1,
0,
1,
3,
1,
1,
0,
2,
1,
2,
1,
1,
1,
2,
0,
0,
0,
2,
1,
3,
1,
0,
2,
0,
1,
1,
0,
1,
1,
1,
0,
1,
1,
1,
2,
1,
0,
1,
0,
2,
1,
3,
0,
2,
1,
2,
2,
2,
1,
1,
1,
0,
1,
0,
1,
0,
0,
1,
1,
0,
0,
0,
0,
1,
0,
0,
0,
2,
0,
1,
0,
0,
2,
1,
1,
1,
1,
0,
1,
1,
0,
0,
0,
0,
0,
0,
0,
1,
0,
0,
1,
1,
0,
0,
0,
2,
1,
0,
0,
0,
1,
0,
0,
0,
1,
0,
0,
0,
1,
0,
0,
0,
0,
0,
0,
0,
0,
0,
0,
0,
0,
0,
0,
0,
0,
0,
1,
0,
0,
0,
0,
2,
1,
0,
0,
0,
0,
0,
0,
0,
0,
0,
0,
0,
1,
0,
0,
0,
0,
0,
0,
0,
0,
0,
0,
0,
0,
0,
0,
0,
0,
0,
0,
0,
0,
0,
0,
0,
0,
0,
0,
0,
0,
0,
0,
0,
0,
0,
0,
0,
0,
0,
0,
0,
0,
0,
0,
0,
0,
0,
0,
0,
0,
0,
0,
0,
0,
0,
0,
0,
0,
0,
0,
0,
0,
0,
0,
0,
0,
0,
0,
0,
0,
0,
0,
0,
0,
0,
0,
0,
0,
0,
0,
0,
0,
0,
0,
0,
0,
0,
0,
0,
0,
0,
0,
0,
0,
0,
0,
0,
0,
0,
0,
0,
0,
0,
0,
0,
0,
0,
0,
0,
0,
0,
0,
0,
0,
0,
0,
0,
0,
0,
0,
0,
0,
0,
0,
0,
0,
0,
0,
0,
0,
0,
0,
0,
0,
0,
0,
0,
0,
0,
0,
0,
0,
0,
0,
0,
0,
0,
0,
0,
0,
0,
0,
0,
0,
0,
0,
0,
0,
0,
0,
0,
0,
0,
0,
0,
0,
0,
0,
0,
0,
0,
0,
0,
0,
0,
0,
0,
0,
0,
0,
0,
0,
0,
0,
0,
0,
0,
0,
0,
0,
0,
0,
0,
0,
0,
0,
0,
0,
0,
0,
0,
0,
0,
0,
0,
0,
0,
0,
0,
0,
0,
0,
0,
0,
0,
0,
0,
0,
0,
0,
0,
0,
0,
0,
0,
0,
0,
0,
0,
0,
0,
0,
0,
0,
0,
0,
0,
0,
0,
0,
0,
0,
0,
0,
0,
0,
0,
0,
0,
0,
0,
0,
0,
0,
0,
0,
0,
0,
0,
0,
0,
0,
0,
0,
0,
0,
0,
0,
0,
0,
0,
0,
0,
0,
0,
0,
0,
0,
0,
0,
0,
0,
0,
0,
0,
0,
0,
0,
0,
0,
0,
0,
0,
0,
0,
0,
0,
0,
0,
0,
0,
0,
0,
0,
0,
0,
0,
0,
0,
0,
0,
0,
0,
0,
0,
0,
0,
0,
0,
0,
0,
0,
0,
0,
0,
0,
0,
0,
0,
0,
0,
0,
0,
0,
0,
0,
0,
0,
0,
0,
0,
0,
0,
0,
0,
0,
0,
0,
0,
0,
0,
0,
0,
0,
0,
0,
0,
0,
0,
0,
0,
0,
0,
0,
0,
0,
0,
0,
0,
0,
0,
0,
0,
0,
0,
0,
0,
0,
0,
0,
0,
0,
0,
0,
0,
0,
0,
0,
0,
0,
0,
0,
0,
0,
0,
0,
0,
0,
0,
0,
0,
0,
0,
0,
0,
0,
0,
0,
0,
0,
0,
0,
0,
0,
0,
0,
0,
0,
0,
0,
0,
0,
0,
0,
0,
0,
0,
0,
0,
0,
0,
0,
0,
0,
0,
0,
0,
0,
0,
0,
0,
0,
0,
0,
0,
0,
0,
0,
0,
0,
0,
0,
0,
0,
0,
0,
0,
0,
0,
0,
0,
0,
0,
0,
1,
0,
0,
0,
0,
0,
0,
0,
0,
0,
0,
0,
0,
0,
0,
0,
0,
0,
0,
0,
0,
0,
0,
0,
0,
0,
0,
0,
#ENDOFDATA   :