File: N132962/Standards/15 keV/InP std.msa
#FORMAT      : EMSA/MAS Spectral Data File
#VERSION     : 1.0
#TITLE       : InP standard for 'N132962' detector
#NPOINTS     : 4096
#NCOLUMNS    : 1
#XUNITS      : eV
#YUNITS      : counts
#DATATYPE    : Y
#SIGNALTYPE  : EDS
#XLABEL      : Energy (eV)
#YLABEL      : Counts
#XPERCHAN -eV: 9.99778
#OFFSET   -eV: 1.69135
#CHOFFSET    : 0
#DATE        : 26-Sep-2025
#TIME        : 14:53:00
#OWNER       : Unknown
#ELEVANGLE   : 35
#BEAMKV   -kV: 15
#LIVETIME  -s: 2159.67
#REALTIME  -s: 2345.66
#PROBECUR -nA: 1.21997
##WORKING -mm: 15
##D2STDCMP   : InP,(P:21.2452),(In:78.7548)
##SIMILAR    : 1.0
#SPECTRUM    :
207,
256,
171,
857,
3383,
8739,
21644,
46492,
93454,
127354,
140232,
243667,
306401,
197232,
110492,
82968,
64894,
59133,
53974,
48802,
51189,
61337,
66744,
63107,
55695,
49677,
48922,
50602,
54099,
54957,
54767,
54888,
55811,
57273,
59583,
61621,
62796,
64466,
66632,
69008,
69402,
71060,
72117,
73515,
74446,
75622,
76362,
77609,
79321,
82977,
89638,
96329,
94252,
87153,
82516,
82061,
86216,
92956,
98816,
97674,
94120,
89945,
93803,
120650,
206883,
471840,
981555,
1317676,
1020169,
479262,
206027,
149614,
126064,
92202,
69157,
60327,
58842,
59040,
58554,
58525,
58397,
57674,
57262,
56947,
56432,
56245,
56657,
56081,
55588,
55491,
55375,
54876,
55170,
56282,
61057,
73837,
91674,
99663,
89821,
71998,
60293,
57894,
62744,
71075,
79197,
91214,
144456,
336508,
745161,
1187257,
1250998,
867250,
420012,
205525,
233476,
404797,
560212,
558690,
419046,
272482,
178037,
133909,
137393,
170879,
188224,
158169,
106527,
68413,
56602,
65447,
80047,
84839,
72047,
53293,
40604,
36969,
38332,
44056,
49415,
49697,
44489,
37731,
33189,
30909,
29874,
29586,
29665,
29585,
29472,
29304,
29079,
28976,
28910,
29037,
28911,
28898,
28685,
28873,
29082,
28395,
28189,
28059,
28327,
28221,
28176,
27936,
28126,
27530,
27528,
27579,
27361,
27061,
27340,
27114,
27211,
28085,
28192,
28482,
28193,
27642,
27469,
27049,
26791,
26330,
26284,
26039,
25411,
25314,
25220,
25006,
24918,
24980,
24652,
24429,
24308,
23894,
23806,
23592,
23770,
23384,
23397,
23012,
23052,
22743,
22570,
22751,
22507,
22461,
21984,
22075,
22662,
23169,
23312,
23525,
23675,
22610,
22186,
21608,
21657,
21657,
21407,
20876,
20810,
20698,
20644,
20815,
20670,
20541,
20284,
19995,
19649,
19480,
19473,
19282,
19456,
19185,
18832,
18749,
18559,
18323,
18420,
18223,
17856,
17425,
17918,
17508,
17375,
17706,
17610,
17464,
17518,
17047,
16771,
16654,
16414,
16225,
16263,
16202,
15762,
15958,
15783,
15601,
15348,
15510,
15393,
15323,
15311,
14931,
14900,
14747,
14718,
14437,
14484,
14557,
14408,
14326,
14019,
14067,
14153,
13839,
13679,
13473,
13598,
13130,
13266,
13118,
12980,
13010,
12844,
12880,
12668,
12726,
12434,
12520,
12307,
12257,
12265,
11983,
11890,
11704,
11581,
11627,
11613,
11604,
11662,
11388,
11089,
11213,
10909,
11000,
10884,
10735,
10543,
10591,
10540,
10562,
10631,
10383,
10452,
10069,
9921,
10046,
9929,
9825,
9718,
9767,
9347,
9545,
9385,
9395,
9274,
9191,
9125,
9058,
8909,
8916,
8872,
8649,
8487,
8614,
8364,
8411,
8318,
8265,
8081,
8128,
7878,
8059,
7907,
7756,
7664,
7538,
7554,
7430,
7511,
7295,
7458,
7093,
7137,
7041,
7102,
6969,
6810,
6683,
6729,
6591,
6487,
6576,
6501,
6372,
6206,
6303,
6186,
6157,
6022,
5920,
5947,
5847,
5771,
5610,
5759,
5572,
5448,
5476,
5356,
5281,
5225,
5102,
5034,
5078,
5012,
4937,
4756,
4778,
4613,
4725,
4663,
4567,
4392,
4495,
4526,
4266,
4350,
4051,
4208,
4078,
4028,
3956,
3993,
3843,
3854,
3749,
3752,
3654,
3556,
3621,
3604,
3386,
3440,
3322,
3293,
3347,
3049,
3115,
3121,
2926,
2995,
2955,
2886,
2867,
2768,
2623,
2641,
2525,
2709,
2459,
2435,
2414,
2315,
2367,
2383,
2248,
2256,
2201,
2121,
2043,
2088,
1959,
1933,
1909,
1852,
1799,
1773,
1683,
1670,
1705,
1584,
1593,
1501,
1497,
1456,
1407,
1342,
1354,
1254,
1307,
1258,
1177,
1147,
1051,
1055,
1018,
997,
916,
872,
852,
847,
838,
792,
708,
720,
672,
694,
640,
576,
497,
483,
530,
434,
397,
411,
348,
319,
286,
228,
238,
184,
172,
123,
73,
68,
57,
36,
46,
34,
34,
32,
19,
26,
26,
30,
25,
21,
27,
28,
20,
21,
29,
26,
42,
27,
18,
24,
28,
26,
21,
26,
32,
26,
22,
22,
21,
20,
22,
23,
15,
16,
19,
23,
18,
24,
20,
15,
27,
13,
8,
7,
24,
13,
15,
18,
14,
14,
25,
11,
9,
10,
14,
16,
18,
12,
22,
16,
16,
16,
15,
17,
13,
15,
16,
12,
13,
11,
16,
17,
10,
15,
12,
12,
11,
19,
16,
9,
13,
18,
11,
14,
16,
10,
13,
12,
11,
12,
8,
13,
9,
10,
12,
7,
7,
5,
9,
8,
10,
9,
4,
9,
8,
12,
3,
12,
4,
9,
4,
8,
5,
4,
6,
5,
4,
8,
3,
9,
6,
9,
2,
5,
6,
6,
8,
3,
6,
3,
2,
5,
1,
8,
4,
5,
5,
3,
2,
6,
2,
6,
5,
2,
4,
2,
4,
5,
2,
8,
2,
2,
3,
1,
6,
4,
5,
3,
4,
3,
4,
1,
2,
4,
1,
3,
1,
1,
4,
2,
2,
3,
5,
1,
3,
4,
3,
1,
3,
1,
5,
1,
2,
4,
1,
2,
3,
2,
3,
3,
1,
5,
3,
0,
3,
1,
1,
0,
2,
1,
3,
1,
3,
1,
0,
2,
0,
2,
2,
2,
3,
0,
0,
1,
1,
1,
2,
0,
2,
0,
4,
1,
1,
3,
0,
4,
2,
1,
1,
2,
1,
1,
2,
1,
2,
0,
0,
0,
1,
0,
1,
0,
2,
1,
1,
1,
0,
1,
0,
3,
0,
1,
2,
0,
0,
0,
0,
1,
0,
0,
1,
2,
0,
1,
0,
0,
0,
2,
0,
1,
0,
0,
0,
1,
0,
1,
2,
3,
2,
0,
1,
1,
0,
0,
0,
2,
1,
0,
0,
1,
0,
1,
0,
0,
1,
0,
0,
1,
1,
0,
0,
0,
1,
0,
0,
0,
0,
0,
1,
0,
1,
0,
0,
1,
0,
0,
2,
0,
0,
0,
0,
0,
0,
0,
0,
0,
0,
0,
1,
0,
0,
0,
0,
0,
0,
1,
0,
0,
0,
0,
1,
1,
0,
0,
0,
0,
0,
0,
0,
0,
0,
2,
2,
0,
0,
1,
0,
0,
0,
0,
0,
0,
0,
0,
0,
0,
0,
0,
0,
0,
0,
1,
0,
0,
0,
0,
0,
0,
0,
0,
0,
1,
0,
0,
1,
0,
0,
0,
0,
0,
0,
0,
0,
0,
0,
0,
0,
0,
0,
0,
0,
0,
0,
0,
0,
0,
0,
0,
1,
0,
0,
0,
0,
0,
0,
0,
0,
0,
0,
0,
0,
0,
0,
0,
0,
0,
0,
0,
0,
0,
0,
0,
0,
0,
0,
0,
0,
0,
0,
0,
0,
0,
0,
0,
0,
0,
0,
0,
0,
0,
0,
0,
0,
0,
0,
0,
0,
0,
0,
0,
0,
0,
0,
0,
0,
0,
0,
0,
0,
0,
0,
0,
0,
0,
0,
0,
0,
0,
0,
0,
0,
0,
0,
0,
0,
0,
0,
0,
0,
0,
0,
0,
0,
0,
0,
0,
0,
0,
0,
0,
0,
0,
0,
0,
0,
0,
0,
0,
0,
0,
0,
0,
0,
0,
0,
0,
0,
0,
0,
0,
0,
0,
0,
0,
0,
0,
0,
0,
0,
0,
0,
0,
0,
0,
0,
0,
0,
0,
0,
0,
0,
0,
0,
0,
0,
0,
0,
0,
0,
0,
0,
0,
0,
0,
0,
0,
0,
0,
0,
0,
0,
0,
0,
0,
0,
0,
0,
0,
0,
0,
0,
0,
0,
0,
0,
0,
0,
0,
0,
0,
0,
0,
0,
0,
0,
0,
0,
0,
0,
0,
0,
0,
0,
0,
0,
0,
0,
0,
0,
0,
0,
0,
0,
0,
0,
0,
0,
0,
0,
0,
0,
0,
0,
0,
0,
0,
0,
0,
0,
0,
0,
0,
0,
0,
0,
0,
0,
0,
0,
0,
0,
0,
0,
0,
0,
0,
0,
0,
0,
0,
0,
0,
0,
0,
0,
0,
0,
0,
0,
0,
0,
0,
0,
0,
0,
0,
0,
0,
0,
0,
0,
0,
0,
0,
0,
0,
0,
0,
0,
0,
0,
0,
0,
0,
0,
0,
0,
0,
0,
0,
0,
0,
0,
0,
0,
0,
0,
0,
0,
0,
0,
0,
0,
0,
0,
0,
0,
0,
0,
0,
0,
0,
0,
0,
0,
0,
0,
0,
0,
0,
0,
0,
0,
0,
0,
0,
0,
0,
0,
0,
0,
0,
0,
0,
0,
0,
0,
0,
0,
0,
0,
0,
0,
0,
0,
0,
0,
0,
0,
0,
0,
0,
0,
0,
0,
0,
0,
0,
0,
0,
0,
0,
0,
0,
0,
0,
0,
0,
0,
0,
0,
0,
0,
0,
0,
0,
0,
0,
0,
0,
0,
0,
0,
0,
0,
0,
0,
0,
0,
0,
0,
0,
0,
0,
0,
0,
0,
0,
0,
0,
0,
0,
0,
0,
0,
0,
0,
0,
0,
0,
0,
0,
0,
0,
0,
0,
0,
0,
0,
0,
0,
0,
0,
0,
0,
0,
0,
0,
0,
0,
0,
0,
0,
0,
0,
0,
0,
0,
0,
0,
0,
0,
0,
0,
0,
0,
0,
0,
0,
0,
0,
0,
0,
0,
0,
0,
0,
0,
0,
0,
0,
0,
0,
0,
0,
0,
0,
0,
0,
0,
0,
0,
0,
#ENDOFDATA   :