File: N132962/Standards/15 keV/Ir std.msa
#FORMAT      : EMSA/MAS Spectral Data File
#VERSION     : 1.0
#TITLE       : Ir standard for 'N132962' detector
#NPOINTS     : 4096
#NCOLUMNS    : 1
#XUNITS      : eV
#YUNITS      : counts
#DATATYPE    : Y
#SIGNALTYPE  : EDS
#XLABEL      : Energy (eV)
#YLABEL      : Counts
#XPERCHAN -eV: 9.99778
#OFFSET   -eV: 1.69135
#CHOFFSET    : 0
#DATE        : 27-Sep-2025
#TIME        : 20:49:00
#OWNER       : Unknown
#ELEVANGLE   : 35
#BEAMKV   -kV: 15
#LIVETIME  -s: 2159.71
#REALTIME  -s: 2404.54
#PROBECUR -nA: 1.21177
##WORKING -mm: 15
##D2STDCMP   : Ir,(Ir:100.0000)
##SIMILAR    : 1.0
#SPECTRUM    :
219,
233,
147,
852,
4554,
15709,
46136,
122020,
209213,
197487,
129551,
85500,
66527,
63332,
63936,
68398,
78364,
86535,
81670,
74339,
75206,
79348,
82973,
86902,
89887,
91791,
97080,
101919,
106410,
111656,
120603,
127720,
124645,
122815,
123383,
121910,
120271,
120716,
121372,
122959,
123002,
124035,
124762,
126122,
126365,
127354,
128046,
130984,
137961,
165356,
235616,
314972,
301455,
218050,
162331,
142577,
137483,
141486,
147644,
153891,
165810,
193713,
257521,
435508,
983782,
1998306,
2718536,
2541460,
2021079,
1402915,
694097,
244271,
102351,
91699,
117084,
134611,
119256,
88461,
67538,
60463,
59771,
61151,
63619,
64319,
67207,
73114,
77904,
76235,
70120,
64492,
60813,
57849,
57106,
56570,
57102,
57542,
57292,
56989,
56667,
56352,
55925,
55731,
56199,
57257,
57693,
57303,
55821,
55468,
55174,
55557,
54865,
55428,
55226,
55524,
55384,
55971,
56072,
56483,
56188,
55855,
55515,
55682,
55359,
55255,
55406,
55299,
55523,
55564,
55824,
55753,
57012,
58416,
59980,
60582,
60330,
58930,
57080,
55320,
54688,
53921,
53729,
52830,
52820,
53408,
52724,
51986,
51832,
51704,
51632,
51621,
51598,
51432,
51245,
51224,
50827,
50413,
50310,
50497,
49956,
49976,
49291,
49604,
49225,
48845,
48580,
48381,
48473,
48114,
47782,
47388,
47197,
47243,
46774,
46649,
46757,
46514,
46196,
45707,
45811,
45605,
45827,
45324,
44707,
44334,
44263,
44225,
43610,
43598,
43525,
43432,
43136,
42819,
42741,
42399,
42365,
41819,
41902,
41437,
41585,
41337,
40922,
40628,
40747,
40088,
40180,
39788,
39441,
39533,
39122,
39111,
39363,
39400,
39266,
39824,
39178,
38896,
37928,
37185,
37190,
36823,
36422,
36380,
36469,
36129,
35444,
35522,
35417,
34899,
34607,
34448,
34556,
34230,
34074,
34145,
33674,
33948,
33641,
33240,
32723,
32800,
32666,
32170,
32045,
32228,
31766,
31718,
31773,
31874,
31662,
31661,
31218,
31002,
30559,
30410,
29945,
29293,
29351,
29173,
28851,
28713,
28299,
28487,
28809,
28506,
29228,
30250,
31232,
32608,
32933,
32080,
30801,
28887,
27462,
26587,
26434,
25989,
26417,
25708,
25413,
25689,
25202,
24728,
24892,
24859,
24495,
24546,
24379,
23960,
23949,
24170,
23488,
23488,
23360,
23293,
23057,
23079,
22952,
23449,
23895,
26175,
31100,
41007,
57662,
81616,
105323,
121504,
120545,
103471,
77683,
53314,
36238,
26620,
22760,
21133,
20008,
19954,
19937,
19785,
19674,
19890,
19442,
19672,
19165,
18987,
18835,
18358,
18081,
17811,
17701,
17802,
17422,
17555,
17348,
17068,
17111,
16992,
16971,
16311,
16523,
16550,
16124,
15978,
15691,
15975,
15574,
15743,
16205,
15975,
16582,
17031,
17481,
18074,
19035,
21227,
24649,
28277,
31097,
31489,
30421,
28177,
26952,
27932,
29994,
32004,
32162,
29264,
24519,
20094,
16887,
14752,
13869,
13356,
13098,
12862,
12859,
12238,
11675,
11449,
11219,
10783,
10592,
10550,
10385,
10273,
9918,
10102,
9801,
9912,
9990,
9728,
9649,
9503,
9389,
9322,
9076,
9096,
9021,
8882,
8684,
8649,
8485,
8517,
8320,
8237,
8421,
7848,
8113,
8086,
7815,
7772,
7881,
7982,
8146,
8477,
8874,
9532,
9903,
9713,
9395,
8460,
7926,
7380,
7009,
6807,
6680,
6698,
6579,
6523,
6393,
6336,
6214,
6121,
5996,
5651,
5518,
5336,
5251,
5212,
5057,
4844,
4857,
4762,
4740,
4583,
4599,
4416,
4353,
4294,
4167,
4181,
4130,
3922,
4054,
3832,
3745,
3685,
3591,
3489,
3471,
3259,
3228,
3155,
3066,
3046,
2965,
2908,
2796,
2708,
2692,
2593,
2583,
2464,
2346,
2293,
2186,
2196,
2015,
1890,
1926,
1848,
1757,
1798,
1564,
1542,
1445,
1329,
1260,
1236,
1232,
1100,
980,
993,
805,
770,
703,
582,
461,
426,
321,
263,
229,
164,
114,
116,
74,
91,
81,
96,
68,
70,
72,
75,
64,
84,
64,
65,
75,
87,
88,
74,
68,
57,
60,
77,
71,
60,
70,
63,
51,
59,
55,
63,
47,
64,
60,
44,
60,
59,
51,
66,
34,
43,
55,
51,
42,
52,
34,
37,
42,
40,
44,
43,
39,
37,
40,
36,
39,
34,
36,
39,
28,
50,
49,
56,
52,
53,
45,
51,
44,
45,
39,
44,
35,
48,
56,
46,
34,
24,
45,
43,
48,
38,
40,
38,
35,
30,
32,
44,
36,
42,
55,
38,
30,
34,
34,
41,
31,
35,
31,
40,
23,
33,
33,
26,
34,
49,
37,
42,
43,
33,
29,
30,
28,
43,
45,
36,
37,
24,
19,
27,
34,
18,
20,
22,
21,
27,
24,
26,
27,
29,
27,
29,
24,
22,
20,
25,
24,
22,
36,
19,
18,
23,
17,
20,
21,
24,
20,
21,
20,
19,
23,
27,
22,
18,
25,
19,
18,
12,
24,
21,
25,
22,
22,
19,
23,
30,
16,
17,
17,
19,
19,
14,
10,
17,
17,
16,
10,
16,
20,
13,
19,
17,
12,
14,
13,
13,
11,
11,
7,
10,
12,
12,
8,
11,
12,
13,
12,
5,
6,
3,
13,
8,
14,
11,
11,
11,
4,
9,
7,
7,
8,
8,
14,
3,
12,
4,
12,
13,
12,
18,
8,
7,
9,
14,
10,
9,
9,
9,
6,
5,
5,
7,
11,
6,
11,
3,
6,
3,
12,
5,
8,
5,
10,
2,
4,
4,
6,
6,
4,
2,
1,
7,
6,
4,
4,
2,
3,
8,
9,
7,
2,
5,
10,
5,
3,
3,
5,
4,
4,
4,
4,
3,
2,
0,
4,
6,
4,
2,
2,
9,
2,
9,
5,
5,
2,
2,
1,
1,
4,
4,
5,
2,
3,
2,
3,
1,
5,
5,
3,
2,
5,
3,
5,
2,
2,
4,
2,
2,
2,
1,
0,
2,
2,
3,
1,
1,
1,
2,
2,
1,
4,
3,
3,
0,
2,
3,
2,
1,
3,
1,
1,
2,
3,
0,
3,
2,
2,
0,
1,
1,
2,
2,
1,
2,
3,
0,
0,
3,
0,
2,
1,
1,
1,
1,
1,
0,
2,
2,
4,
1,
1,
1,
0,
2,
0,
1,
0,
0,
2,
1,
1,
0,
1,
1,
0,
0,
1,
0,
0,
0,
0,
0,
0,
0,
0,
2,
0,
0,
1,
0,
0,
0,
1,
0,
0,
0,
0,
1,
1,
0,
0,
1,
0,
0,
0,
0,
0,
1,
0,
1,
0,
0,
0,
0,
0,
0,
0,
0,
0,
0,
0,
0,
0,
0,
0,
0,
0,
1,
0,
0,
0,
0,
1,
0,
0,
0,
0,
0,
0,
0,
0,
0,
0,
0,
0,
1,
0,
0,
0,
0,
0,
0,
0,
0,
0,
0,
0,
0,
0,
0,
0,
0,
0,
0,
0,
0,
0,
0,
0,
0,
0,
0,
1,
0,
0,
0,
0,
0,
0,
0,
0,
0,
0,
0,
0,
0,
0,
0,
0,
0,
0,
0,
0,
0,
0,
0,
0,
0,
0,
0,
0,
0,
0,
0,
0,
0,
0,
0,
0,
0,
0,
0,
0,
0,
0,
0,
0,
0,
0,
0,
0,
0,
0,
0,
0,
0,
0,
0,
0,
0,
0,
0,
0,
0,
0,
0,
0,
0,
0,
0,
0,
0,
0,
0,
0,
0,
0,
0,
0,
0,
0,
0,
0,
0,
0,
0,
0,
0,
0,
0,
0,
0,
0,
0,
0,
0,
0,
0,
0,
0,
0,
0,
0,
0,
0,
0,
0,
0,
0,
0,
0,
0,
0,
0,
0,
0,
0,
0,
0,
0,
0,
0,
0,
0,
0,
0,
0,
0,
0,
0,
0,
0,
0,
0,
0,
0,
0,
0,
0,
0,
0,
0,
0,
0,
0,
0,
0,
0,
0,
0,
0,
0,
0,
0,
0,
0,
0,
0,
0,
0,
0,
0,
0,
0,
0,
0,
0,
0,
0,
0,
0,
0,
0,
0,
0,
0,
0,
0,
0,
0,
0,
0,
0,
0,
0,
0,
0,
0,
0,
0,
0,
0,
0,
0,
0,
0,
0,
0,
0,
0,
0,
0,
0,
0,
0,
0,
0,
0,
0,
0,
0,
0,
0,
0,
0,
0,
0,
0,
0,
0,
0,
0,
0,
0,
0,
0,
0,
0,
0,
0,
0,
0,
0,
0,
0,
0,
0,
0,
0,
0,
0,
0,
0,
0,
0,
0,
0,
0,
0,
0,
0,
0,
0,
0,
0,
0,
0,
0,
0,
0,
0,
0,
0,
0,
0,
0,
0,
0,
0,
0,
0,
0,
0,
0,
0,
0,
0,
0,
0,
0,
0,
0,
0,
0,
0,
0,
0,
0,
0,
0,
0,
0,
0,
0,
0,
0,
0,
0,
0,
0,
0,
0,
0,
0,
0,
0,
0,
0,
0,
0,
0,
0,
0,
0,
0,
0,
0,
0,
0,
0,
0,
0,
0,
0,
0,
0,
0,
0,
0,
0,
0,
0,
0,
0,
0,
0,
0,
0,
0,
0,
0,
0,
0,
0,
0,
0,
0,
0,
0,
0,
0,
0,
0,
0,
0,
0,
0,
0,
0,
0,
0,
0,
0,
0,
0,
0,
0,
0,
0,
0,
0,
0,
0,
0,
0,
0,
0,
0,
0,
0,
0,
0,
0,
0,
0,
0,
0,
0,
0,
0,
0,
0,
0,
0,
0,
0,
#ENDOFDATA   :