File: N132962/Standards/15 keV/KBr std.msa
#FORMAT      : EMSA/MAS Spectral Data File
#VERSION     : 1.0
#TITLE       : KBr standard for 'N132962' detector
#NPOINTS     : 4096
#NCOLUMNS    : 1
#XUNITS      : eV
#YUNITS      : counts
#DATATYPE    : Y
#SIGNALTYPE  : EDS
#XLABEL      : Energy (eV)
#YLABEL      : Counts
#XPERCHAN -eV: 9.99778
#OFFSET   -eV: 1.69135
#CHOFFSET    : 0
#DATE        : 26-Sep-2025
#TIME        : 23:40:00
#OWNER       : Unknown
#ELEVANGLE   : 35
#BEAMKV   -kV: 15
#LIVETIME  -s: 1681.93
#REALTIME  -s: 1835.82
#PROBECUR -nA: 1.21571
##WORKING -mm: 15
##D2STDCMP   : KBr,(K:32.8551),(Br:67.1449)
##SIMILAR    : 2.1
#SPECTRUM    :
183,
208,
101,
275,
1116,
4225,
13220,
40994,
87232,
87417,
43501,
24053,
22604,
22863,
23699,
27248,
36817,
46746,
44455,
39394,
40578,
43792,
49052,
53860,
55946,
56395,
57165,
59353,
62308,
63363,
63768,
65112,
66184,
67769,
71087,
72475,
71809,
71628,
72939,
74877,
79043,
96024,
141576,
188323,
185585,
151542,
158922,
406227,
1261123,
2388718,
2567802,
1742109,
811887,
291261,
112719,
57569,
42238,
42118,
44616,
44366,
41109,
37270,
34178,
32317,
31640,
31949,
32031,
31930,
32516,
32586,
32701,
32794,
33310,
33144,
33105,
33275,
33655,
33871,
33674,
33480,
33523,
33193,
33104,
33110,
33091,
33336,
33827,
34119,
34353,
33622,
33034,
32788,
33040,
33245,
33522,
33258,
33098,
34419,
36178,
37908,
37543,
36097,
33874,
33658,
35022,
39589,
51692,
98679,
250026,
552332,
847378,
850734,
555747,
245242,
87674,
41741,
38578,
52036,
82736,
116458,
123255,
95725,
58827,
35082,
26038,
23411,
22897,
22933,
22656,
22920,
22465,
22390,
22547,
22133,
21906,
22112,
21728,
21906,
21672,
21437,
21441,
21423,
20820,
21069,
21078,
21007,
20900,
20669,
20443,
20519,
20341,
20242,
19915,
19981,
19576,
19860,
19856,
20177,
20845,
22188,
22778,
22501,
21388,
20179,
19150,
18499,
18361,
18298,
18441,
18307,
18047,
17921,
17660,
17176,
17151,
17123,
16935,
16786,
16971,
16759,
16885,
16864,
16668,
16187,
15970,
15908,
15949,
15680,
15551,
15556,
15124,
15211,
15179,
15019,
14740,
14661,
14875,
14434,
14569,
14434,
14222,
14070,
14267,
13802,
13792,
13666,
13659,
13415,
13452,
13480,
13730,
13974,
14518,
14661,
14560,
13825,
13489,
12826,
12677,
12649,
12614,
12727,
12313,
12129,
12199,
12019,
11939,
11763,
11330,
11443,
11483,
11417,
11486,
11305,
11223,
11131,
10877,
10926,
10519,
10639,
10557,
10523,
10446,
10184,
10068,
10217,
10276,
10314,
10128,
10112,
9971,
9845,
9726,
9668,
9296,
9419,
9257,
9170,
9142,
9024,
9018,
8917,
8959,
8880,
8903,
8706,
8551,
8456,
8462,
8419,
8162,
8302,
8214,
8103,
8081,
8192,
7860,
7805,
7824,
7758,
7577,
7623,
7544,
7435,
7443,
7418,
7257,
7305,
7313,
7054,
7105,
6884,
6902,
6804,
6958,
6621,
6679,
6606,
6634,
6494,
6539,
6431,
6439,
6233,
6277,
6020,
6199,
6116,
6011,
6007,
5822,
5935,
5765,
5789,
5806,
5700,
5620,
5596,
5554,
5563,
5436,
5338,
5448,
5231,
5253,
5199,
5146,
5213,
4950,
5010,
5020,
4885,
4818,
4658,
4767,
4730,
4640,
4631,
4589,
4524,
4375,
4481,
4448,
4412,
4367,
4299,
4263,
4216,
4055,
4139,
4109,
4014,
3926,
3805,
3849,
3793,
3744,
3729,
3665,
3668,
3666,
3653,
3540,
3468,
3471,
3373,
3445,
3453,
3287,
3278,
3117,
3207,
3149,
3055,
3040,
3015,
3005,
2922,
2918,
2892,
2804,
2826,
2725,
2754,
2765,
2669,
2600,
2536,
2629,
2600,
2804,
3129,
3776,
4856,
5997,
7418,
8175,
8216,
7509,
6323,
4826,
3641,
2772,
2414,
2145,
2064,
1954,
1886,
1907,
1844,
1772,
1817,
1864,
1727,
1662,
1679,
1615,
1542,
1589,
1579,
1497,
1558,
1542,
1477,
1400,
1425,
1458,
1381,
1330,
1265,
1257,
1277,
1261,
1214,
1183,
1155,
1106,
1195,
1286,
1425,
1534,
1678,
1828,
1761,
1610,
1489,
1289,
1106,
1000,
982,
843,
817,
769,
757,
731,
680,
649,
614,
631,
542,
586,
550,
538,
486,
475,
504,
451,
450,
404,
395,
385,
363,
324,
335,
306,
285,
264,
242,
205,
189,
187,
156,
148,
171,
127,
110,
83,
73,
51,
42,
43,
33,
23,
19,
24,
23,
19,
23,
27,
16,
20,
20,
17,
10,
23,
16,
15,
24,
20,
19,
12,
14,
21,
14,
16,
13,
14,
8,
13,
10,
9,
6,
19,
17,
7,
11,
10,
8,
7,
6,
10,
5,
6,
8,
6,
7,
7,
6,
12,
7,
6,
6,
3,
8,
11,
8,
2,
11,
6,
5,
11,
3,
10,
4,
7,
2,
3,
7,
2,
4,
5,
4,
8,
6,
7,
10,
6,
9,
9,
4,
9,
2,
10,
4,
3,
7,
4,
6,
5,
4,
2,
9,
2,
2,
5,
3,
7,
4,
5,
4,
3,
3,
3,
4,
6,
4,
6,
5,
3,
1,
4,
2,
3,
2,
2,
1,
3,
3,
3,
2,
2,
0,
1,
3,
5,
3,
2,
0,
4,
1,
3,
2,
3,
2,
0,
1,
1,
2,
3,
2,
2,
2,
4,
4,
2,
1,
3,
2,
2,
4,
0,
2,
3,
1,
1,
1,
2,
1,
1,
2,
2,
3,
2,
0,
2,
0,
2,
0,
2,
1,
0,
1,
1,
2,
0,
1,
0,
1,
0,
0,
2,
0,
2,
1,
2,
0,
2,
3,
1,
4,
0,
1,
0,
1,
2,
0,
0,
1,
0,
0,
0,
1,
1,
2,
1,
1,
0,
2,
1,
2,
2,
2,
0,
1,
0,
0,
0,
1,
1,
0,
0,
0,
0,
1,
1,
1,
1,
0,
0,
1,
1,
0,
1,
0,
1,
0,
0,
1,
1,
1,
0,
0,
0,
0,
1,
0,
1,
1,
1,
0,
0,
0,
1,
0,
0,
0,
0,
0,
1,
0,
0,
0,
0,
1,
0,
0,
0,
1,
1,
0,
0,
1,
0,
0,
0,
0,
1,
0,
0,
0,
0,
0,
0,
0,
0,
0,
0,
0,
0,
0,
0,
0,
0,
0,
0,
0,
0,
0,
0,
0,
0,
0,
0,
0,
0,
0,
0,
0,
0,
0,
0,
0,
0,
1,
0,
1,
0,
0,
0,
0,
0,
0,
0,
0,
0,
0,
0,
0,
0,
0,
0,
0,
0,
0,
1,
0,
0,
0,
0,
0,
0,
0,
1,
0,
0,
0,
0,
0,
0,
0,
1,
0,
0,
0,
0,
0,
0,
0,
0,
0,
0,
0,
0,
0,
0,
0,
0,
0,
0,
0,
0,
0,
0,
0,
0,
0,
0,
0,
0,
0,
0,
0,
0,
0,
0,
0,
0,
0,
0,
0,
0,
0,
0,
0,
0,
0,
0,
0,
0,
0,
0,
0,
0,
0,
0,
0,
0,
0,
0,
0,
0,
0,
0,
0,
0,
0,
0,
0,
0,
0,
0,
0,
0,
0,
0,
0,
0,
0,
0,
0,
0,
0,
0,
0,
0,
0,
0,
0,
0,
0,
0,
0,
0,
0,
0,
0,
0,
0,
0,
0,
0,
0,
0,
0,
0,
0,
0,
0,
0,
0,
0,
0,
0,
0,
0,
0,
0,
0,
0,
0,
0,
0,
0,
0,
0,
0,
0,
0,
0,
0,
0,
0,
0,
0,
0,
0,
0,
0,
0,
0,
0,
0,
0,
0,
0,
0,
0,
0,
0,
0,
0,
0,
0,
0,
0,
0,
0,
0,
0,
0,
0,
0,
0,
0,
0,
0,
0,
0,
0,
0,
0,
0,
0,
0,
0,
0,
0,
0,
0,
0,
0,
0,
0,
0,
0,
0,
0,
0,
0,
0,
0,
0,
0,
0,
0,
0,
0,
0,
0,
0,
0,
0,
0,
0,
0,
0,
0,
0,
0,
0,
0,
0,
0,
0,
0,
0,
0,
0,
0,
0,
0,
0,
0,
0,
0,
0,
0,
0,
0,
0,
0,
0,
0,
0,
0,
0,
0,
0,
0,
0,
0,
0,
0,
0,
0,
0,
0,
0,
0,
0,
0,
0,
0,
0,
0,
0,
0,
0,
0,
0,
0,
0,
0,
0,
0,
0,
0,
0,
0,
0,
0,
0,
0,
0,
0,
0,
0,
0,
0,
0,
0,
0,
0,
0,
0,
0,
0,
0,
0,
0,
0,
0,
0,
0,
0,
0,
0,
0,
0,
0,
0,
0,
0,
0,
0,
0,
0,
0,
0,
0,
0,
0,
0,
0,
0,
0,
0,
0,
0,
0,
0,
0,
0,
0,
0,
0,
0,
0,
0,
0,
0,
0,
0,
0,
0,
0,
0,
0,
0,
0,
0,
0,
0,
0,
0,
0,
0,
0,
0,
0,
0,
0,
0,
0,
0,
0,
0,
0,
0,
0,
0,
0,
0,
0,
0,
0,
0,
0,
0,
0,
0,
0,
0,
0,
0,
0,
0,
0,
0,
0,
0,
0,
0,
0,
0,
0,
0,
0,
0,
0,
0,
0,
0,
0,
0,
0,
0,
0,
0,
0,
0,
0,
0,
0,
0,
0,
0,
0,
0,
0,
0,
0,
0,
0,
0,
0,
0,
0,
0,
0,
0,
0,
0,
0,
0,
0,
0,
0,
0,
0,
0,
0,
0,
0,
0,
0,
0,
0,
0,
0,
0,
0,
0,
0,
0,
0,
0,
0,
0,
0,
0,
0,
0,
0,
0,
0,
0,
0,
0,
0,
0,
0,
0,
0,
0,
0,
0,
0,
0,
0,
0,
0,
0,
0,
0,
0,
0,
0,
0,
0,
0,
0,
0,
0,
0,
0,
0,
0,
0,
0,
0,
0,
0,
0,
0,
0,
0,
0,
0,
0,
0,
0,
0,
0,
0,
0,
0,
0,
0,
0,
0,
0,
0,
0,
0,
0,
0,
0,
0,
0,
0,
0,
0,
0,
0,
0,
#ENDOFDATA   :