File: N132962/Standards/15 keV/KCl std.msa
#FORMAT      : EMSA/MAS Spectral Data File
#VERSION     : 1.0
#TITLE       : KCl standard for 'N132962' detector
#NPOINTS     : 4096
#NCOLUMNS    : 1
#XUNITS      : eV
#YUNITS      : counts
#DATATYPE    : Y
#SIGNALTYPE  : EDS
#XLABEL      : Energy (eV)
#YLABEL      : Counts
#XPERCHAN -eV: 9.99778
#OFFSET   -eV: 1.69135
#CHOFFSET    : 0
#DATE        : 30-Sep-2025
#TIME        : 15:34:00
#OWNER       : Unknown
#ELEVANGLE   : 35
#BEAMKV   -kV: 15
#LIVETIME  -s: 1441.14
#REALTIME  -s: 1555.13
#PROBECUR -nA: 1.21543
##WORKING -mm: 15
##D2STDCMP   : KCl,(Cl:47.5531),(K:52.4469)
##SIMILAR    : 7.5
#SPECTRUM    :
136,
171,
69,
374,
5606,
29494,
52661,
62965,
114397,
117961,
50985,
17620,
14185,
13990,
14000,
19985,
39512,
62786,
50687,
27113,
21983,
24351,
28237,
29675,
29855,
31431,
33450,
37633,
49534,
62800,
57696,
43476,
38242,
38937,
40151,
41622,
42600,
41672,
41066,
41616,
41704,
41618,
42205,
42174,
42570,
42622,
42672,
43352,
46112,
50317,
52218,
53667,
55790,
53055,
45821,
41860,
42947,
48426,
51096,
48044,
43201,
39821,
36398,
34226,
32633,
32260,
32023,
32007,
31442,
31234,
31052,
31116,
30969,
30977,
30686,
30746,
31524,
31045,
30642,
30690,
30760,
33838,
43886,
66817,
136033,
376026,
912232,
1458246,
1416747,
827443,
307025,
104540,
91045,
133091,
153952,
118965,
66168,
32774,
21484,
18427,
18105,
18071,
18244,
19544,
22757,
29197,
44084,
100209,
283311,
649877,
1009493,
1012597,
658387,
279816,
88487,
33411,
29311,
46401,
83016,
123393,
132412,
99864,
54879,
26806,
15493,
12626,
12157,
12192,
12170,
12101,
12544,
12849,
12774,
12143,
11958,
11705,
11547,
11430,
11606,
11638,
11608,
11690,
11485,
11382,
11286,
11104,
11047,
10914,
11058,
10632,
10626,
10661,
10737,
10583,
10644,
10897,
10712,
10617,
10231,
10522,
10586,
10593,
10414,
10084,
9982,
9646,
9998,
9823,
9663,
9596,
9694,
9676,
10003,
10504,
11210,
11218,
11168,
10144,
9565,
9264,
8942,
9120,
8944,
8729,
8484,
8368,
8271,
8432,
8233,
8305,
8079,
8140,
8056,
8215,
8240,
8637,
9189,
9891,
10274,
9852,
8978,
8383,
7745,
7921,
7634,
7663,
7684,
7404,
7323,
7101,
7210,
7208,
7085,
7138,
7096,
6843,
6828,
6654,
6899,
7060,
7084,
7310,
7089,
6683,
6474,
6220,
6161,
6012,
5977,
5977,
6052,
6150,
6019,
5887,
5841,
5807,
5676,
5547,
5510,
5464,
5299,
5356,
5376,
5286,
5294,
5221,
5195,
5125,
5216,
5165,
4919,
5049,
4861,
4854,
4801,
4730,
4719,
4717,
4685,
4505,
4561,
4466,
4458,
4395,
4471,
4499,
4492,
4445,
4376,
4193,
4277,
4179,
4140,
4194,
4210,
3981,
4022,
3976,
3949,
3940,
3812,
3793,
3870,
3740,
3818,
3669,
3786,
3604,
3560,
3610,
3564,
3487,
3414,
3409,
3347,
3370,
3304,
3378,
3308,
3197,
3183,
3108,
3238,
3170,
3069,
3051,
3087,
2994,
3003,
2973,
2957,
2884,
2890,
2900,
2890,
2801,
2791,
2773,
2757,
2683,
2720,
2751,
2665,
2559,
2572,
2574,
2523,
2539,
2502,
2387,
2449,
2450,
2419,
2283,
2340,
2271,
2217,
2207,
2265,
2159,
2183,
2124,
2101,
2117,
2125,
1987,
2013,
1933,
1967,
1949,
1911,
1903,
1904,
1884,
1821,
1789,
1772,
1863,
1771,
1758,
1701,
1738,
1655,
1712,
1596,
1552,
1598,
1589,
1590,
1599,
1550,
1475,
1546,
1457,
1454,
1486,
1474,
1339,
1300,
1318,
1375,
1304,
1241,
1271,
1249,
1239,
1193,
1258,
1238,
1166,
1151,
1172,
1142,
1145,
1112,
1051,
1052,
988,
1043,
1034,
961,
1018,
962,
979,
921,
896,
883,
825,
841,
904,
829,
795,
822,
828,
802,
762,
701,
736,
732,
684,
657,
658,
649,
669,
642,
620,
591,
630,
565,
577,
564,
563,
493,
545,
496,
489,
470,
478,
485,
467,
458,
442,
390,
415,
391,
413,
421,
399,
340,
317,
382,
296,
298,
305,
272,
276,
260,
265,
255,
231,
277,
231,
222,
216,
209,
189,
167,
180,
188,
165,
146,
137,
154,
115,
119,
88,
114,
92,
89,
88,
76,
51,
49,
49,
41,
31,
22,
22,
19,
16,
15,
5,
6,
14,
9,
16,
12,
7,
10,
9,
7,
6,
4,
6,
6,
5,
10,
3,
13,
1,
6,
3,
5,
4,
7,
8,
3,
6,
10,
7,
4,
5,
4,
7,
5,
9,
6,
2,
3,
5,
5,
2,
5,
4,
0,
4,
5,
1,
5,
4,
4,
4,
3,
3,
0,
2,
2,
1,
1,
5,
1,
1,
2,
5,
2,
3,
1,
2,
1,
1,
0,
3,
8,
2,
2,
0,
1,
2,
1,
5,
2,
1,
2,
0,
1,
5,
0,
4,
1,
1,
0,
2,
1,
0,
0,
4,
0,
1,
2,
0,
0,
4,
2,
1,
2,
1,
0,
2,
1,
0,
0,
1,
0,
0,
1,
0,
1,
0,
0,
0,
0,
1,
0,
0,
0,
3,
1,
2,
0,
1,
0,
1,
2,
0,
1,
1,
0,
0,
0,
1,
1,
0,
1,
2,
0,
0,
3,
0,
0,
1,
0,
0,
0,
0,
1,
0,
1,
1,
0,
1,
1,
0,
1,
1,
1,
0,
0,
0,
0,
2,
1,
1,
0,
0,
0,
0,
1,
1,
0,
0,
2,
0,
1,
0,
0,
0,
0,
1,
0,
0,
0,
0,
0,
0,
0,
0,
1,
0,
0,
0,
2,
0,
1,
0,
0,
0,
0,
0,
0,
0,
0,
0,
0,
0,
0,
0,
0,
0,
0,
0,
0,
1,
0,
0,
0,
0,
0,
0,
0,
0,
0,
0,
0,
0,
1,
0,
0,
0,
0,
1,
0,
0,
0,
1,
0,
0,
0,
0,
0,
0,
0,
0,
0,
0,
0,
0,
1,
0,
0,
0,
0,
0,
0,
0,
0,
0,
0,
0,
0,
0,
0,
0,
0,
0,
0,
0,
0,
0,
0,
0,
0,
0,
0,
0,
0,
0,
0,
0,
0,
0,
0,
0,
0,
0,
0,
0,
0,
0,
0,
0,
0,
0,
0,
0,
0,
0,
0,
0,
0,
0,
0,
0,
0,
0,
0,
0,
0,
0,
0,
0,
0,
0,
0,
0,
0,
0,
0,
0,
0,
0,
0,
0,
0,
0,
0,
0,
0,
0,
0,
0,
0,
0,
0,
0,
0,
0,
0,
0,
0,
1,
0,
0,
0,
0,
0,
0,
0,
0,
0,
0,
0,
0,
0,
0,
0,
0,
0,
0,
0,
0,
0,
0,
0,
0,
0,
0,
0,
0,
0,
0,
0,
0,
0,
0,
0,
0,
0,
0,
0,
0,
0,
0,
0,
0,
0,
0,
0,
0,
0,
0,
0,
0,
0,
0,
0,
0,
0,
0,
0,
0,
0,
0,
0,
0,
0,
0,
0,
0,
0,
0,
0,
0,
0,
0,
0,
0,
0,
0,
0,
0,
0,
0,
0,
0,
0,
0,
0,
0,
0,
0,
0,
0,
0,
0,
0,
0,
0,
0,
0,
0,
0,
0,
0,
0,
0,
0,
0,
0,
0,
0,
0,
0,
0,
0,
0,
0,
0,
0,
0,
0,
0,
0,
0,
0,
0,
0,
0,
0,
0,
0,
0,
0,
0,
0,
0,
0,
0,
0,
0,
0,
0,
0,
0,
0,
0,
0,
0,
0,
0,
0,
0,
0,
0,
0,
0,
0,
0,
0,
0,
0,
0,
0,
0,
0,
0,
0,
0,
0,
0,
0,
0,
0,
0,
0,
0,
0,
0,
0,
0,
0,
0,
0,
0,
0,
0,
0,
0,
0,
0,
0,
0,
0,
0,
0,
0,
0,
0,
0,
0,
0,
0,
0,
0,
0,
0,
0,
0,
0,
0,
0,
0,
0,
0,
0,
0,
0,
0,
0,
0,
0,
0,
0,
0,
0,
0,
0,
0,
0,
0,
0,
0,
0,
0,
0,
0,
0,
0,
0,
0,
0,
0,
0,
0,
0,
0,
0,
0,
0,
0,
0,
0,
0,
0,
0,
0,
0,
0,
0,
0,
0,
0,
0,
0,
0,
0,
0,
0,
0,
0,
0,
0,
0,
0,
0,
0,
0,
0,
0,
0,
0,
0,
0,
0,
0,
0,
0,
0,
0,
0,
0,
0,
0,
0,
0,
0,
0,
0,
0,
0,
0,
0,
0,
0,
0,
0,
0,
0,
0,
0,
0,
0,
0,
0,
0,
0,
0,
0,
0,
0,
0,
0,
0,
0,
0,
0,
0,
0,
0,
0,
0,
0,
0,
0,
0,
0,
0,
0,
0,
0,
0,
0,
0,
0,
0,
0,
0,
0,
0,
0,
0,
0,
0,
0,
0,
0,
0,
0,
0,
0,
0,
0,
0,
0,
0,
0,
0,
0,
0,
0,
0,
0,
0,
0,
0,
0,
0,
0,
0,
0,
0,
0,
0,
0,
0,
0,
0,
0,
0,
0,
0,
0,
0,
0,
0,
0,
0,
0,
0,
0,
0,
0,
0,
0,
0,
0,
0,
0,
0,
0,
0,
0,
0,
0,
0,
0,
0,
0,
0,
0,
0,
0,
0,
0,
0,
0,
0,
0,
0,
0,
0,
0,
0,
0,
0,
0,
0,
0,
0,
0,
0,
0,
0,
0,
0,
0,
0,
0,
0,
0,
0,
0,
0,
0,
0,
0,
0,
0,
0,
0,
0,
0,
0,
0,
0,
0,
0,
0,
0,
0,
0,
0,
0,
0,
0,
0,
0,
0,
0,
0,
0,
0,
0,
0,
0,
0,
0,
0,
0,
0,
0,
0,
0,
0,
0,
0,
0,
0,
0,
0,
0,
0,
0,
0,
0,
0,
0,
0,
0,
0,
0,
0,
0,
0,
0,
0,
0,
0,
0,
0,
0,
0,
0,
0,
0,
0,
0,
#ENDOFDATA   :