File: N132962/Standards/15 keV/La std.msa
#FORMAT      : EMSA/MAS Spectral Data File
#VERSION     : 1.0
#TITLE       : La standard for 'N132962' detector
#NPOINTS     : 4096
#NCOLUMNS    : 1
#XUNITS      : eV
#YUNITS      : counts
#DATATYPE    : Y
#SIGNALTYPE  : EDS
#XLABEL      : Energy (eV)
#YLABEL      : Counts
#XPERCHAN -eV: 9.99778
#OFFSET   -eV: 1.69135
#CHOFFSET    : 0
#DATE        : 25-Sep-2025
#TIME        : 17:02:00
#OWNER       : Unknown
#ELEVANGLE   : 35
#BEAMKV   -kV: 15
#LIVETIME  -s: 1200.02
#REALTIME  -s: 1270.54
#PROBECUR -nA: 1.20429
##WORKING -mm: 15
##D2STDCMP   : La,(La:100.0000)
##SIMILAR    : 1.6
#SPECTRUM    :
123,
174,
199,
1827,
30190,
175874,
275917,
124210,
45600,
42551,
32755,
29041,
30682,
31296,
32448,
35276,
40215,
46289,
52812,
83375,
153765,
200322,
147634,
79533,
56779,
58916,
84414,
119835,
112975,
68633,
37641,
29367,
30732,
38648,
46237,
43069,
40438,
38449,
33114,
29246,
26705,
26089,
25922,
26497,
27183,
27350,
27810,
27653,
28305,
28479,
29140,
28949,
28995,
28831,
29264,
29880,
30626,
31790,
32994,
33185,
32408,
30609,
28817,
27865,
27371,
27608,
27358,
27260,
27606,
27745,
27514,
27348,
27329,
27505,
27419,
27305,
27088,
27266,
27169,
27171,
26882,
26934,
26534,
26534,
26464,
26203,
26226,
25975,
26019,
25737,
25445,
25386,
25530,
25247,
25356,
25912,
26347,
26782,
25930,
25200,
24285,
23883,
23691,
23332,
23184,
23209,
23041,
23026,
23010,
23418,
23390,
22816,
22396,
22176,
22080,
21680,
21452,
21179,
21020,
20903,
21140,
21288,
21268,
21306,
20894,
20424,
19686,
19659,
19601,
19376,
19295,
19267,
19372,
19653,
20581,
23750,
27277,
30078,
29401,
25742,
22008,
19535,
18413,
18119,
17819,
17855,
18143,
18712,
19990,
22632,
28399,
44837,
90459,
177513,
281061,
330330,
278592,
174127,
84367,
38379,
22624,
18843,
17898,
19421,
25768,
45032,
83159,
129832,
158165,
148427,
112087,
77254,
52884,
37858,
27972,
23128,
25277,
35499,
51228,
63785,
63318,
49897,
33343,
21565,
15683,
13441,
12891,
12993,
12972,
14026,
17187,
22683,
28528,
30861,
27972,
22163,
16263,
13408,
12504,
13467,
15219,
17123,
17722,
17104,
14683,
12720,
11760,
11218,
11282,
11089,
10794,
10328,
10269,
10305,
10168,
9627,
9549,
9324,
9236,
9074,
8975,
9163,
8945,
8908,
8788,
9054,
8721,
8808,
8595,
8624,
8508,
8524,
8552,
8643,
8634,
8453,
8277,
8373,
8251,
7997,
8165,
7977,
8061,
8021,
7785,
7813,
7973,
7900,
7890,
7797,
7710,
7588,
7602,
7580,
7327,
7422,
7340,
7418,
7068,
7156,
7091,
6995,
6998,
7077,
6926,
6941,
6760,
6771,
6932,
6625,
6642,
6710,
6629,
6620,
6471,
6500,
6469,
6212,
6296,
6358,
6339,
6153,
6125,
6113,
5928,
5976,
5940,
6010,
5948,
5773,
5768,
5650,
5728,
5636,
5761,
5568,
5489,
5666,
5557,
5414,
5295,
5314,
5312,
5260,
5318,
5210,
5216,
5124,
5143,
5146,
5177,
4881,
4925,
4792,
4931,
4771,
4711,
4753,
4696,
4694,
4600,
4659,
4528,
4516,
4462,
4596,
4429,
4300,
4246,
4348,
4207,
4197,
4228,
4119,
4049,
4224,
4042,
4192,
3973,
3841,
3893,
3884,
3801,
3689,
3720,
3683,
3681,
3630,
3601,
3566,
3583,
3459,
3473,
3520,
3409,
3288,
3315,
3231,
3298,
3309,
3246,
3117,
3177,
3072,
3029,
2960,
3004,
2920,
3051,
2843,
2894,
2762,
2796,
2737,
2748,
2676,
2607,
2643,
2666,
2607,
2594,
2543,
2538,
2456,
2400,
2415,
2399,
2328,
2305,
2289,
2280,
2184,
2185,
2209,
2168,
2134,
2097,
2034,
2051,
2072,
1957,
1909,
1963,
1930,
1841,
1864,
1782,
1817,
1809,
1722,
1680,
1716,
1667,
1681,
1672,
1604,
1699,
1583,
1541,
1495,
1459,
1440,
1462,
1378,
1380,
1331,
1252,
1260,
1307,
1255,
1235,
1242,
1210,
1147,
1183,
1109,
1116,
1083,
1046,
1092,
1071,
995,
1018,
947,
933,
957,
915,
873,
919,
786,
824,
802,
787,
743,
782,
737,
708,
741,
652,
650,
634,
618,
601,
575,
573,
550,
553,
540,
525,
462,
467,
461,
456,
437,
400,
384,
385,
359,
294,
333,
304,
319,
262,
278,
246,
248,
201,
194,
198,
167,
160,
163,
150,
122,
123,
96,
67,
69,
57,
40,
31,
24,
15,
14,
9,
16,
10,
14,
11,
11,
9,
11,
9,
8,
10,
6,
7,
8,
6,
11,
12,
11,
13,
10,
3,
11,
7,
5,
6,
12,
9,
5,
9,
9,
11,
5,
7,
5,
7,
5,
4,
5,
6,
3,
5,
9,
9,
6,
5,
9,
5,
6,
5,
4,
5,
8,
6,
9,
3,
6,
6,
10,
7,
10,
6,
7,
4,
8,
7,
10,
13,
5,
4,
11,
9,
7,
10,
6,
4,
8,
3,
6,
9,
2,
10,
6,
4,
3,
7,
12,
5,
8,
7,
6,
3,
4,
4,
4,
8,
4,
5,
4,
9,
4,
6,
3,
5,
4,
2,
6,
3,
6,
3,
2,
5,
1,
2,
4,
2,
2,
3,
1,
4,
0,
2,
4,
1,
2,
3,
2,
1,
3,
5,
5,
3,
4,
4,
4,
2,
5,
1,
4,
1,
2,
0,
1,
2,
3,
3,
4,
3,
1,
2,
1,
1,
1,
0,
1,
0,
1,
1,
2,
1,
1,
1,
1,
0,
1,
0,
2,
0,
3,
1,
0,
3,
3,
1,
0,
2,
0,
0,
0,
0,
1,
0,
1,
0,
0,
1,
0,
1,
0,
4,
1,
2,
1,
0,
0,
0,
2,
0,
0,
2,
1,
0,
0,
0,
0,
0,
0,
0,
1,
1,
0,
0,
3,
0,
1,
1,
1,
1,
0,
0,
0,
1,
1,
1,
0,
0,
0,
1,
1,
0,
1,
1,
0,
1,
1,
1,
0,
0,
0,
1,
0,
0,
0,
0,
2,
0,
2,
0,
0,
0,
0,
0,
0,
0,
0,
1,
0,
1,
0,
0,
0,
0,
2,
0,
0,
0,
0,
0,
0,
0,
0,
0,
0,
0,
0,
1,
0,
0,
0,
0,
1,
0,
0,
0,
0,
0,
0,
0,
1,
0,
0,
0,
0,
0,
0,
1,
0,
0,
0,
0,
0,
0,
1,
1,
0,
0,
0,
0,
0,
0,
1,
0,
1,
0,
0,
0,
0,
0,
2,
2,
0,
0,
0,
0,
1,
0,
0,
0,
0,
0,
0,
1,
0,
0,
0,
0,
0,
0,
0,
0,
0,
1,
0,
0,
0,
0,
0,
0,
0,
0,
0,
1,
0,
0,
0,
0,
0,
0,
0,
0,
0,
0,
0,
1,
0,
0,
0,
0,
0,
0,
0,
0,
0,
0,
0,
0,
0,
0,
0,
0,
0,
0,
0,
0,
0,
0,
0,
0,
0,
0,
0,
0,
0,
0,
0,
0,
0,
0,
0,
0,
0,
0,
0,
0,
0,
0,
0,
0,
0,
0,
0,
0,
0,
0,
0,
0,
0,
0,
0,
0,
0,
0,
0,
0,
0,
0,
0,
0,
0,
0,
0,
0,
0,
0,
0,
0,
0,
0,
0,
0,
0,
0,
0,
0,
0,
0,
0,
0,
0,
0,
0,
0,
0,
0,
0,
0,
0,
0,
0,
0,
0,
0,
0,
0,
0,
0,
0,
0,
0,
0,
0,
0,
0,
0,
0,
0,
0,
0,
0,
0,
0,
0,
0,
0,
0,
0,
0,
0,
0,
0,
0,
0,
0,
0,
0,
0,
0,
0,
0,
0,
0,
0,
0,
0,
0,
0,
0,
0,
0,
0,
0,
0,
0,
0,
0,
0,
0,
0,
0,
0,
0,
0,
0,
0,
0,
0,
0,
0,
0,
0,
0,
0,
0,
0,
0,
0,
0,
0,
0,
0,
0,
0,
0,
0,
0,
0,
0,
0,
0,
0,
0,
0,
0,
0,
0,
0,
0,
0,
0,
0,
0,
0,
0,
0,
0,
0,
0,
0,
0,
0,
0,
0,
0,
0,
0,
0,
0,
0,
0,
0,
0,
0,
0,
0,
0,
0,
0,
0,
0,
0,
0,
0,
0,
0,
0,
0,
0,
0,
0,
0,
0,
0,
0,
0,
0,
0,
0,
0,
0,
0,
0,
0,
0,
0,
0,
0,
0,
0,
0,
0,
0,
0,
0,
0,
0,
0,
0,
0,
0,
0,
0,
0,
0,
0,
0,
0,
0,
0,
0,
0,
0,
0,
0,
0,
0,
0,
0,
0,
0,
0,
0,
0,
0,
0,
0,
0,
0,
0,
0,
0,
0,
0,
0,
0,
0,
0,
0,
0,
0,
0,
0,
0,
0,
0,
0,
0,
0,
0,
0,
0,
0,
0,
0,
0,
0,
0,
0,
0,
0,
0,
0,
0,
0,
0,
0,
0,
0,
0,
0,
0,
0,
0,
0,
0,
0,
0,
0,
0,
0,
0,
0,
0,
0,
0,
0,
0,
0,
0,
0,
0,
0,
0,
0,
0,
0,
0,
0,
0,
0,
0,
0,
0,
0,
0,
0,
0,
0,
0,
0,
0,
0,
0,
0,
0,
0,
0,
0,
0,
0,
0,
0,
0,
0,
0,
0,
0,
0,
0,
0,
0,
0,
0,
0,
0,
0,
0,
0,
0,
0,
0,
0,
0,
0,
0,
0,
0,
0,
0,
0,
0,
0,
0,
0,
0,
0,
0,
0,
0,
0,
0,
0,
0,
0,
0,
0,
0,
0,
0,
0,
0,
0,
0,
0,
0,
0,
0,
0,
0,
0,
0,
0,
0,
0,
0,
0,
0,
0,
0,
0,
0,
0,
0,
0,
0,
0,
0,
0,
0,
0,
0,
0,
0,
0,
0,
0,
0,
0,
0,
0,
0,
0,
0,
0,
0,
0,
0,
0,
0,
0,
0,
0,
0,
0,
0,
0,
0,
0,
0,
0,
0,
0,
0,
0,
#ENDOFDATA   :