File: N132962/Standards/15 keV/LaB6 std.msa
#FORMAT      : EMSA/MAS Spectral Data File
#VERSION     : 1.0
#TITLE       : LaB6 standard for 'N132962' detector
#NPOINTS     : 4096
#NCOLUMNS    : 1
#XUNITS      : eV
#YUNITS      : counts
#DATATYPE    : Y
#SIGNALTYPE  : EDS
#XLABEL      : Energy (eV)
#YLABEL      : Counts
#XPERCHAN -eV: 9.99778
#OFFSET   -eV: 1.69135
#CHOFFSET    : 0
#DATE        : 27-Sep-2025
#TIME        : 19:46:00
#OWNER       : Unknown
#ELEVANGLE   : 35
#BEAMKV   -kV: 15
#LIVETIME  -s: 1677.89
#REALTIME  -s: 1776.41
#PROBECUR -nA: 1.21113
##WORKING -mm: 15
##D2STDCMP   : LaB6,(B:31.8307),(La:68.1693)
##SIMILAR    : 1.6
#SPECTRUM    :
158,
210,
242,
2539,
41048,
242103,
379201,
175525,
82283,
82870,
53439,
39123,
39478,
40413,
42837,
48530,
58099,
69992,
77666,
115001,
212028,
271834,
196506,
106812,
78326,
82582,
117738,
166040,
156931,
96808,
57436,
48544,
48318,
58014,
68172,
62303,
57559,
53756,
46868,
40789,
37363,
36380,
36563,
37249,
37809,
38373,
38550,
38925,
39496,
39702,
40716,
40644,
40690,
40528,
40905,
42067,
42638,
44681,
46266,
46376,
45192,
42705,
40192,
38882,
38648,
38431,
38655,
38527,
38337,
38378,
38484,
37988,
38394,
38535,
38311,
38231,
38182,
38007,
38197,
37905,
37674,
37541,
37377,
37204,
36611,
36300,
36095,
36355,
35957,
35918,
35803,
35245,
35217,
35450,
35185,
36036,
37225,
37299,
35853,
34791,
33509,
33180,
33202,
32210,
32277,
31997,
31784,
31606,
31601,
32332,
32230,
31788,
31097,
30765,
30566,
30550,
29742,
29379,
29343,
28850,
28772,
28844,
28858,
28546,
27912,
27699,
27375,
27416,
27181,
26843,
26730,
26976,
26579,
27019,
28619,
32551,
38048,
42397,
41124,
35991,
30274,
27016,
25613,
25127,
25007,
24854,
25326,
25517,
26937,
30360,
38119,
60797,
124389,
247671,
393220,
460284,
389862,
241951,
116681,
53374,
31186,
25797,
24895,
26680,
35923,
63041,
116199,
181742,
220697,
206423,
156496,
106374,
73553,
52190,
38409,
32353,
34868,
49020,
71564,
88418,
87959,
69709,
46254,
30051,
21729,
18705,
17941,
17806,
17981,
19663,
24065,
31680,
39794,
42929,
38764,
30754,
22619,
18518,
17467,
18808,
21460,
24096,
24985,
23354,
20362,
17737,
16308,
15686,
15770,
15530,
15283,
14972,
14996,
14935,
14921,
14448,
13419,
13114,
12860,
12795,
12594,
12658,
12388,
12365,
12392,
12343,
12260,
12326,
11970,
12274,
12030,
12001,
11877,
12082,
11859,
11985,
11806,
11619,
11407,
11493,
11067,
11096,
11194,
10996,
10908,
11068,
10874,
11073,
10938,
11034,
10700,
10637,
10419,
10432,
10527,
10250,
10093,
10102,
10121,
9846,
9854,
9759,
9835,
9760,
9640,
9819,
9739,
9696,
9400,
9407,
9292,
9241,
9263,
9027,
9113,
9011,
8888,
8909,
8893,
8653,
8655,
8819,
8593,
8516,
8450,
8288,
8429,
8321,
8277,
8165,
8250,
8086,
8006,
8084,
7928,
8005,
7664,
7730,
7516,
7636,
7545,
7437,
7178,
7305,
7243,
7232,
7331,
6945,
6990,
7178,
7057,
6891,
6899,
6984,
6779,
6627,
6591,
6730,
6637,
6444,
6570,
6416,
6456,
6388,
6382,
6251,
6208,
6063,
6022,
6092,
6037,
5844,
5879,
5745,
5627,
5824,
5668,
5571,
5316,
5469,
5350,
5375,
5373,
5143,
5240,
5174,
5121,
5012,
5031,
4965,
5178,
4878,
4903,
4873,
4726,
4687,
4687,
4633,
4595,
4509,
4449,
4489,
4344,
4269,
4279,
4151,
4173,
4122,
4131,
4102,
3811,
3973,
3862,
3833,
3867,
3788,
3612,
3689,
3670,
3626,
3644,
3446,
3528,
3472,
3392,
3348,
3304,
3246,
3273,
3151,
3092,
3150,
3181,
3157,
3074,
2917,
2964,
2919,
2842,
2824,
2832,
2770,
2745,
2643,
2663,
2509,
2491,
2456,
2524,
2430,
2342,
2453,
2271,
2326,
2323,
2206,
2149,
2146,
2204,
2066,
2089,
2039,
2010,
1942,
1925,
1857,
1824,
1843,
1768,
1776,
1703,
1657,
1718,
1650,
1613,
1593,
1564,
1546,
1509,
1539,
1403,
1392,
1306,
1369,
1312,
1264,
1215,
1184,
1121,
1174,
1141,
1103,
1079,
1053,
1095,
1031,
996,
1047,
936,
908,
874,
853,
862,
803,
745,
810,
723,
725,
639,
696,
658,
653,
577,
589,
546,
520,
519,
520,
481,
430,
430,
384,
387,
361,
348,
286,
321,
300,
302,
233,
210,
200,
172,
174,
140,
122,
91,
75,
67,
40,
36,
27,
22,
20,
20,
15,
16,
10,
21,
14,
18,
8,
14,
16,
13,
11,
13,
16,
18,
20,
16,
7,
14,
11,
17,
16,
14,
15,
13,
11,
12,
9,
14,
13,
8,
15,
6,
9,
10,
9,
8,
8,
13,
8,
9,
12,
11,
10,
8,
8,
11,
12,
4,
13,
10,
6,
13,
14,
5,
6,
9,
13,
10,
11,
13,
6,
9,
9,
13,
7,
10,
6,
6,
13,
17,
6,
15,
8,
7,
9,
4,
14,
11,
10,
9,
7,
8,
6,
8,
5,
16,
7,
5,
6,
8,
9,
5,
3,
13,
5,
6,
3,
2,
6,
6,
6,
4,
6,
11,
4,
8,
2,
3,
5,
9,
5,
4,
8,
5,
5,
2,
3,
5,
9,
7,
2,
6,
3,
2,
7,
2,
4,
0,
4,
4,
3,
5,
6,
2,
8,
5,
4,
3,
4,
3,
1,
4,
6,
0,
4,
3,
0,
3,
2,
1,
2,
3,
2,
2,
1,
3,
4,
1,
1,
2,
2,
0,
0,
1,
1,
3,
1,
2,
2,
1,
1,
0,
1,
1,
2,
2,
0,
1,
2,
2,
1,
2,
0,
2,
3,
0,
1,
1,
2,
3,
2,
1,
0,
0,
1,
1,
0,
0,
1,
0,
2,
1,
1,
1,
3,
1,
0,
2,
4,
4,
0,
2,
0,
0,
1,
0,
1,
2,
0,
1,
3,
0,
1,
1,
1,
0,
0,
2,
0,
0,
0,
3,
0,
0,
0,
0,
2,
2,
1,
0,
0,
0,
0,
1,
0,
2,
0,
0,
1,
0,
0,
0,
0,
0,
1,
0,
1,
1,
1,
0,
0,
0,
0,
1,
0,
0,
0,
0,
2,
0,
0,
0,
0,
0,
0,
0,
0,
0,
0,
0,
0,
0,
0,
0,
0,
1,
0,
0,
0,
0,
0,
1,
0,
0,
0,
0,
0,
0,
2,
0,
0,
0,
0,
0,
0,
0,
0,
0,
0,
0,
0,
0,
0,
0,
3,
0,
0,
0,
0,
0,
0,
1,
0,
0,
0,
0,
0,
0,
0,
0,
0,
1,
0,
0,
0,
0,
0,
0,
0,
0,
0,
1,
0,
0,
0,
0,
0,
0,
0,
0,
0,
0,
0,
0,
0,
0,
0,
0,
0,
0,
0,
0,
0,
0,
0,
0,
0,
0,
0,
0,
0,
0,
0,
0,
0,
0,
0,
0,
0,
0,
0,
0,
0,
0,
0,
0,
0,
0,
0,
0,
0,
0,
0,
0,
0,
0,
0,
0,
1,
0,
0,
0,
0,
0,
0,
0,
0,
0,
0,
0,
0,
0,
0,
0,
0,
0,
0,
0,
0,
1,
0,
0,
0,
0,
0,
0,
0,
0,
0,
0,
0,
0,
0,
0,
0,
0,
0,
0,
0,
0,
0,
0,
0,
0,
0,
0,
0,
0,
0,
0,
0,
0,
0,
0,
0,
0,
0,
0,
0,
0,
0,
0,
0,
0,
0,
0,
0,
0,
0,
0,
0,
0,
0,
0,
0,
0,
0,
0,
0,
0,
0,
0,
0,
0,
0,
0,
0,
0,
0,
0,
0,
0,
0,
0,
0,
0,
0,
0,
0,
0,
0,
0,
0,
0,
0,
0,
0,
0,
0,
0,
0,
0,
0,
0,
0,
0,
0,
0,
0,
0,
0,
0,
0,
1,
0,
0,
0,
0,
0,
0,
0,
0,
0,
0,
0,
0,
0,
0,
0,
0,
0,
0,
0,
0,
0,
0,
0,
0,
0,
0,
0,
0,
0,
0,
0,
0,
0,
0,
0,
0,
0,
0,
0,
0,
0,
0,
0,
0,
0,
0,
0,
0,
0,
0,
0,
0,
0,
0,
0,
0,
0,
0,
0,
0,
0,
0,
0,
0,
0,
0,
0,
0,
0,
0,
0,
0,
0,
0,
0,
0,
0,
0,
0,
0,
0,
0,
0,
0,
0,
0,
0,
0,
0,
0,
0,
0,
0,
0,
0,
0,
0,
0,
0,
0,
0,
0,
0,
0,
0,
0,
0,
0,
0,
0,
0,
0,
0,
0,
0,
0,
0,
0,
0,
0,
0,
0,
0,
0,
0,
0,
0,
0,
0,
0,
0,
0,
0,
0,
0,
0,
0,
0,
0,
0,
0,
0,
0,
0,
0,
0,
0,
0,
0,
0,
0,
0,
0,
0,
0,
0,
0,
0,
0,
0,
0,
0,
0,
0,
0,
0,
0,
0,
0,
0,
0,
0,
0,
0,
0,
0,
0,
0,
0,
0,
0,
0,
0,
0,
0,
0,
0,
0,
0,
0,
0,
0,
0,
0,
0,
0,
0,
0,
0,
0,
0,
0,
0,
0,
0,
0,
0,
0,
0,
0,
0,
0,
0,
0,
0,
0,
0,
0,
0,
0,
0,
0,
0,
0,
0,
0,
0,
0,
0,
0,
0,
0,
0,
0,
0,
0,
0,
0,
0,
0,
0,
0,
0,
0,
0,
0,
0,
0,
0,
0,
0,
0,
0,
0,
0,
0,
0,
0,
0,
0,
0,
0,
0,
0,
0,
0,
0,
0,
0,
0,
0,
0,
0,
0,
0,
0,
0,
0,
0,
0,
0,
0,
0,
0,
0,
0,
0,
0,
0,
0,
0,
0,
0,
0,
0,
0,
0,
0,
0,
0,
0,
0,
0,
0,
0,
0,
0,
0,
0,
0,
0,
0,
0,
0,
0,
0,
0,
0,
0,
0,
0,
0,
0,
0,
0,
0,
0,
0,
0,
0,
0,
0,
0,
0,
0,
0,
0,
#ENDOFDATA   :