File: N132962/Standards/15 keV/LaF3 std.msa
#FORMAT      : EMSA/MAS Spectral Data File
#VERSION     : 1.0
#TITLE       : LaF3 standard for 'N132962' detector
#NPOINTS     : 4096
#NCOLUMNS    : 1
#XUNITS      : eV
#YUNITS      : counts
#DATATYPE    : Y
#SIGNALTYPE  : EDS
#XLABEL      : Energy (eV)
#YLABEL      : Counts
#XPERCHAN -eV: 9.99778
#OFFSET   -eV: 1.69135
#CHOFFSET    : 0
#DATE        : 26-Sep-2025
#TIME        : 18:13:00
#OWNER       : Unknown
#ELEVANGLE   : 35
#BEAMKV   -kV: 15
#LIVETIME  -s: 1194.07
#REALTIME  -s: 1293.46
#PROBECUR -nA: 1.21605
##WORKING -mm: 15
##D2STDCMP   : LaF3,(F:29.0939),(La:70.9061)
##SIMILAR    : 16.8
#SPECTRUM    :
123,
115,
102,
309,
1870,
9271,
25756,
49750,
78884,
89510,
68643,
57419,
56493,
54480,
55410,
59423,
66921,
75442,
88954,
146145,
346655,
847470,
1452773,
1182394,
399973,
86992,
63678,
91547,
93731,
60712,
34028,
27018,
28247,
35829,
42873,
40649,
38208,
36948,
32123,
28589,
27419,
26586,
27389,
28415,
29896,
30605,
29181,
28456,
28506,
29385,
29735,
30724,
31268,
32395,
31830,
31531,
31819,
33458,
35081,
35577,
35193,
33514,
30848,
29459,
28896,
28997,
28683,
28915,
28644,
28642,
28891,
29061,
28658,
28630,
29226,
28888,
28969,
29141,
28700,
28880,
28887,
28570,
28569,
28420,
28040,
28169,
28018,
28434,
28006,
27844,
27445,
27320,
27234,
27426,
27269,
28112,
28848,
29281,
29312,
29270,
28341,
27445,
26439,
26132,
26018,
26283,
26063,
25686,
25347,
25534,
25539,
25048,
24877,
24161,
24005,
23548,
23666,
23214,
23666,
23097,
23259,
23577,
23829,
23852,
23408,
22680,
22106,
21687,
21463,
21252,
21522,
21432,
21423,
21989,
23039,
25876,
29990,
32957,
32246,
28390,
24209,
21635,
20437,
20183,
20110,
20138,
20172,
20931,
22737,
25283,
30761,
47801,
96150,
190367,
301592,
354935,
301766,
187714,
90822,
41166,
24573,
20548,
19797,
21282,
28583,
48848,
89726,
140402,
170969,
160887,
122181,
84030,
57236,
41080,
30799,
25856,
28234,
39649,
56882,
70759,
70255,
55494,
37368,
24021,
17151,
14698,
14126,
14313,
14528,
16141,
19278,
25453,
31349,
34195,
31073,
24090,
18324,
14985,
14000,
15020,
17099,
19055,
19884,
18839,
16202,
14137,
12919,
12601,
12467,
12394,
12473,
12702,
12986,
13423,
13113,
12359,
11337,
10654,
10252,
10109,
10403,
10281,
10100,
10049,
9943,
10108,
9945,
9813,
9593,
9782,
9702,
9501,
9603,
9756,
9651,
9804,
9634,
9604,
9327,
9189,
9113,
9136,
8969,
8847,
8905,
8876,
8918,
8876,
8855,
8944,
8861,
8673,
8593,
8666,
8610,
8348,
8520,
8364,
8306,
8081,
8224,
7917,
7753,
7859,
7951,
7785,
7836,
7732,
7796,
7575,
7486,
7361,
7444,
7254,
7539,
7234,
7355,
7219,
7098,
7102,
7131,
7045,
6907,
6807,
6810,
6804,
6769,
6853,
6730,
6704,
6731,
6586,
6479,
6493,
6404,
6314,
6308,
6099,
6221,
6187,
6281,
6080,
6037,
5912,
5929,
5898,
5903,
5782,
5873,
5848,
5734,
5754,
5630,
5599,
5447,
5443,
5400,
5335,
5412,
5264,
5311,
5272,
5445,
5296,
5291,
5067,
5085,
4956,
4989,
4851,
4746,
4827,
4786,
4863,
4649,
4631,
4661,
4665,
4546,
4496,
4338,
4409,
4353,
4243,
4360,
4300,
4242,
4179,
4074,
4036,
4133,
4043,
3969,
3920,
3860,
3791,
3827,
3823,
3669,
3767,
3763,
3844,
3569,
3612,
3562,
3368,
3504,
3514,
3388,
3358,
3295,
3209,
3262,
3184,
3208,
3147,
3070,
3008,
3016,
3032,
3090,
2835,
2915,
2793,
2802,
2748,
2750,
2629,
2607,
2641,
2696,
2548,
2593,
2619,
2605,
2431,
2398,
2326,
2408,
2417,
2348,
2164,
2286,
2263,
2234,
2175,
2109,
2080,
2042,
1989,
1977,
1965,
1913,
1985,
1894,
1924,
1833,
1806,
1759,
1776,
1689,
1718,
1681,
1616,
1552,
1529,
1549,
1518,
1518,
1523,
1490,
1395,
1447,
1344,
1390,
1306,
1322,
1272,
1246,
1266,
1219,
1182,
1194,
1109,
1176,
1071,
1084,
987,
1000,
967,
939,
965,
902,
934,
824,
872,
865,
764,
809,
792,
748,
724,
728,
712,
719,
663,
658,
608,
627,
611,
542,
520,
530,
461,
476,
457,
438,
456,
395,
421,
383,
363,
340,
341,
288,
303,
280,
247,
234,
224,
200,
190,
165,
155,
118,
107,
91,
78,
62,
31,
40,
39,
20,
20,
21,
12,
23,
13,
18,
18,
23,
13,
12,
13,
13,
10,
5,
10,
13,
14,
15,
7,
20,
11,
16,
9,
13,
12,
9,
10,
15,
6,
10,
13,
6,
12,
15,
11,
8,
6,
13,
8,
9,
7,
9,
12,
2,
1,
6,
7,
13,
5,
6,
8,
6,
10,
6,
10,
6,
10,
6,
5,
9,
12,
10,
10,
11,
8,
7,
5,
5,
6,
9,
8,
13,
8,
11,
4,
7,
17,
9,
9,
9,
8,
11,
7,
10,
8,
4,
7,
8,
4,
8,
10,
6,
9,
1,
7,
6,
7,
8,
3,
5,
10,
12,
4,
7,
8,
5,
5,
1,
8,
1,
6,
6,
10,
3,
0,
5,
4,
4,
4,
1,
4,
2,
2,
3,
7,
1,
2,
2,
4,
0,
4,
4,
4,
3,
3,
3,
0,
0,
1,
3,
5,
1,
4,
1,
3,
1,
4,
3,
3,
1,
1,
2,
1,
2,
3,
3,
2,
1,
5,
0,
2,
1,
6,
3,
4,
3,
1,
0,
1,
1,
1,
2,
1,
0,
3,
0,
4,
1,
0,
0,
0,
2,
1,
0,
2,
1,
2,
1,
1,
1,
1,
0,
0,
2,
0,
1,
3,
1,
2,
1,
1,
1,
0,
1,
0,
1,
1,
1,
3,
4,
0,
0,
1,
2,
0,
0,
0,
3,
1,
0,
0,
0,
2,
1,
1,
1,
1,
0,
0,
0,
1,
1,
2,
0,
1,
0,
0,
1,
3,
0,
1,
1,
1,
1,
1,
0,
0,
0,
0,
0,
0,
0,
2,
0,
0,
1,
2,
0,
0,
0,
1,
0,
0,
1,
0,
0,
1,
0,
0,
0,
0,
1,
0,
0,
0,
0,
1,
1,
0,
1,
0,
1,
0,
0,
0,
0,
0,
1,
0,
0,
0,
1,
0,
0,
0,
0,
1,
0,
0,
0,
1,
0,
0,
0,
0,
0,
0,
0,
0,
0,
0,
0,
0,
0,
0,
0,
0,
0,
0,
0,
0,
0,
0,
0,
0,
0,
0,
0,
0,
0,
0,
0,
0,
0,
0,
0,
0,
0,
0,
0,
0,
0,
0,
1,
0,
0,
0,
0,
0,
0,
0,
0,
0,
0,
0,
0,
0,
0,
0,
0,
1,
0,
0,
0,
0,
0,
0,
0,
0,
0,
0,
0,
1,
0,
0,
0,
0,
0,
0,
0,
0,
0,
0,
0,
0,
0,
0,
0,
0,
0,
0,
0,
0,
0,
0,
0,
0,
0,
0,
1,
0,
0,
0,
0,
0,
0,
0,
0,
0,
0,
0,
0,
0,
0,
0,
0,
0,
0,
0,
0,
0,
0,
0,
0,
0,
0,
0,
0,
0,
0,
0,
0,
0,
0,
0,
0,
0,
0,
0,
0,
0,
0,
0,
0,
0,
0,
0,
0,
0,
0,
0,
0,
0,
0,
0,
0,
0,
0,
0,
0,
0,
0,
0,
0,
0,
0,
0,
0,
0,
0,
0,
0,
0,
0,
0,
0,
0,
0,
0,
0,
0,
0,
0,
0,
0,
0,
0,
0,
0,
0,
0,
0,
0,
0,
0,
0,
0,
0,
0,
0,
0,
0,
0,
0,
0,
0,
0,
0,
0,
0,
0,
0,
0,
0,
0,
0,
0,
0,
0,
0,
0,
0,
0,
0,
0,
0,
0,
0,
0,
0,
0,
0,
0,
0,
0,
0,
0,
0,
0,
0,
0,
0,
0,
0,
0,
0,
0,
0,
0,
0,
0,
0,
0,
0,
0,
0,
0,
0,
0,
0,
0,
0,
0,
0,
0,
0,
0,
0,
0,
0,
0,
0,
0,
0,
0,
0,
0,
0,
0,
0,
0,
0,
0,
0,
0,
0,
0,
0,
0,
0,
0,
0,
0,
0,
0,
0,
0,
0,
0,
0,
0,
0,
0,
0,
0,
0,
0,
0,
0,
0,
0,
0,
0,
0,
0,
0,
0,
0,
0,
0,
0,
0,
0,
0,
0,
0,
0,
0,
0,
0,
0,
0,
0,
0,
0,
0,
0,
0,
0,
0,
0,
0,
0,
0,
0,
0,
0,
0,
0,
0,
0,
0,
0,
0,
0,
0,
0,
0,
0,
0,
0,
0,
0,
0,
0,
0,
0,
0,
0,
0,
0,
0,
0,
0,
0,
0,
0,
0,
0,
0,
0,
0,
0,
0,
0,
0,
0,
0,
0,
0,
0,
0,
0,
0,
0,
0,
0,
0,
0,
0,
0,
0,
0,
0,
0,
0,
0,
0,
0,
0,
0,
0,
0,
0,
0,
0,
0,
0,
0,
0,
0,
0,
0,
0,
0,
0,
0,
0,
0,
0,
0,
0,
1,
0,
0,
0,
0,
0,
0,
0,
0,
0,
0,
0,
0,
0,
0,
0,
0,
0,
0,
0,
0,
0,
0,
0,
0,
0,
0,
0,
0,
0,
0,
0,
0,
0,
0,
0,
0,
0,
0,
0,
0,
0,
0,
0,
0,
0,
0,
0,
0,
0,
0,
0,
0,
0,
0,
0,
0,
0,
0,
0,
0,
0,
0,
0,
0,
0,
0,
0,
0,
0,
0,
0,
0,
0,
0,
0,
0,
0,
0,
0,
0,
0,
0,
0,
0,
0,
0,
0,
0,
0,
0,
0,
0,
0,
0,
0,
0,
0,
0,
0,
0,
0,
0,
0,
0,
0,
0,
0,
0,
0,
0,
0,
0,
0,
0,
0,
0,
0,
0,
0,
0,
0,
1,
0,
0,
0,
0,
0,
0,
0,
0,
#ENDOFDATA   :