File: N132962/Standards/15 keV/LaP5O14 std.msa
#FORMAT      : EMSA/MAS Spectral Data File
#VERSION     : 1.0
#TITLE       : LaP5O14 standard for 'N132962' detector
#NPOINTS     : 4096
#NCOLUMNS    : 1
#XUNITS      : eV
#YUNITS      : counts
#DATATYPE    : Y
#SIGNALTYPE  : EDS
#XLABEL      : Energy (eV)
#YLABEL      : Counts
#XPERCHAN -eV: 9.99778
#OFFSET   -eV: 1.69135
#CHOFFSET    : 0
#DATE        : 17-Mar-2025
#TIME        : 17:16:00
#OWNER       : Unknown
#ELEVANGLE   : 35
#BEAMKV   -kV: 15
#LIVETIME  -s: 1917.72
#REALTIME  -s: 2024.55
#PROBECUR -nA: 1.02589
##WORKING -mm: 15
##D2STDCMP   : LaP5O14,(O:43.2606),(P:29.9113),(La:26.8281)
##SIMILAR    : 5.1
#SPECTRUM    :
171,
217,
80,
274,
1136,
3886,
11180,
33097,
99529,
138745,
75914,
37960,
42529,
52373,
73310,
227762,
863241,
1663449,
1218285,
329550,
70006,
54363,
44755,
33903,
30466,
32425,
41989,
60118,
65352,
49217,
34674,
30516,
32145,
39249,
45314,
44048,
41420,
39648,
36874,
34171,
33113,
32868,
33138,
33463,
33921,
34887,
34662,
35204,
35650,
36384,
36866,
36404,
36065,
35725,
36415,
36674,
38184,
40452,
41967,
42352,
41203,
40660,
45160,
68235,
145762,
387772,
872185,
1213081,
954390,
435318,
158420,
93271,
70619,
45557,
29457,
24045,
22913,
22979,
22474,
22143,
22462,
22394,
23358,
24168,
25105,
24811,
23427,
22058,
21638,
21454,
21279,
21017,
20510,
20613,
20570,
20860,
21489,
21395,
20919,
20317,
19887,
19572,
19249,
19314,
19401,
19042,
18763,
18887,
18486,
18922,
18711,
18494,
18283,
18082,
17755,
17695,
17701,
17298,
17351,
17252,
16908,
16923,
16998,
16842,
16587,
16419,
16191,
16185,
16040,
15741,
15692,
15934,
16022,
16409,
16969,
17883,
19530,
20303,
20025,
18254,
16451,
15441,
14479,
14410,
14312,
13990,
14084,
14140,
14532,
15669,
18054,
24921,
44937,
84123,
131923,
155266,
133786,
85131,
44107,
22433,
15067,
13362,
12833,
13665,
16626,
24708,
41842,
63408,
76456,
71830,
56239,
40230,
28703,
21918,
17368,
15265,
15836,
20495,
27198,
33249,
33203,
27136,
19773,
14200,
11420,
10503,
10100,
10126,
10262,
10684,
11984,
14701,
17445,
18394,
17021,
14180,
11575,
9878,
9583,
9954,
11025,
11846,
12130,
11725,
10439,
9315,
8981,
8632,
8750,
8625,
8496,
8278,
8287,
8105,
8116,
7707,
7637,
7503,
7349,
7477,
7449,
7478,
7432,
7312,
7317,
7153,
6900,
6879,
6789,
6817,
6856,
6768,
6718,
6799,
6606,
6618,
6659,
6466,
6490,
6412,
6329,
6226,
6165,
6286,
6167,
6088,
6173,
6196,
6087,
6129,
5936,
5949,
5795,
5686,
5701,
5552,
5616,
5562,
5463,
5546,
5314,
5396,
5407,
5304,
5294,
5273,
5094,
5115,
5004,
4987,
4971,
5019,
4924,
4852,
4835,
4783,
4744,
4708,
4672,
4651,
4609,
4622,
4579,
4436,
4499,
4435,
4470,
4322,
4175,
4254,
4185,
4226,
4211,
4233,
4214,
4140,
4129,
4062,
3991,
3919,
3859,
3910,
3793,
3835,
3772,
3816,
3579,
3718,
3545,
3631,
3614,
3581,
3510,
3411,
3505,
3411,
3360,
3385,
3277,
3234,
3278,
3322,
3206,
3144,
3290,
3084,
3158,
2993,
3117,
3027,
2953,
2935,
3031,
2816,
2874,
2855,
2797,
2746,
2784,
2736,
2744,
2653,
2738,
2651,
2579,
2542,
2558,
2538,
2416,
2530,
2519,
2289,
2359,
2280,
2311,
2295,
2241,
2225,
2196,
2213,
2211,
2172,
2093,
2028,
2059,
2006,
2037,
1942,
2003,
1840,
1924,
1827,
1808,
1773,
1811,
1735,
1804,
1813,
1661,
1716,
1662,
1684,
1651,
1642,
1604,
1592,
1471,
1571,
1516,
1525,
1475,
1437,
1428,
1396,
1439,
1351,
1370,
1306,
1287,
1326,
1265,
1245,
1267,
1198,
1177,
1132,
1175,
1152,
1116,
1129,
1061,
1112,
1063,
1036,
1010,
1072,
957,
1003,
948,
974,
875,
953,
890,
862,
911,
848,
862,
791,
775,
739,
776,
786,
724,
704,
732,
691,
698,
597,
639,
635,
586,
606,
614,
590,
588,
602,
529,
516,
492,
527,
501,
473,
496,
475,
463,
439,
433,
414,
388,
381,
389,
386,
360,
338,
333,
331,
283,
318,
260,
292,
265,
238,
242,
250,
238,
224,
175,
203,
208,
186,
162,
162,
118,
138,
127,
120,
115,
119,
110,
94,
81,
59,
54,
55,
54,
37,
39,
26,
15,
10,
10,
13,
5,
6,
8,
2,
3,
2,
6,
3,
6,
6,
4,
3,
2,
5,
2,
4,
4,
0,
4,
1,
5,
6,
3,
2,
4,
1,
1,
4,
5,
3,
1,
1,
4,
4,
1,
2,
1,
1,
1,
1,
3,
1,
5,
1,
3,
3,
4,
1,
3,
2,
3,
3,
1,
2,
2,
3,
0,
3,
1,
2,
3,
0,
2,
2,
3,
1,
2,
5,
2,
1,
3,
2,
2,
2,
1,
1,
1,
1,
1,
4,
0,
3,
2,
1,
1,
1,
3,
2,
0,
1,
2,
1,
2,
3,
3,
2,
1,
0,
1,
2,
2,
3,
1,
3,
3,
1,
1,
2,
0,
1,
1,
2,
1,
3,
1,
2,
2,
1,
1,
0,
2,
0,
0,
1,
3,
2,
0,
0,
0,
0,
0,
1,
1,
0,
1,
0,
0,
0,
0,
0,
0,
0,
0,
0,
1,
0,
0,
1,
0,
0,
1,
0,
1,
0,
1,
0,
0,
0,
2,
0,
1,
2,
1,
0,
1,
0,
0,
1,
0,
0,
3,
1,
2,
1,
0,
0,
0,
0,
0,
0,
0,
0,
1,
0,
2,
2,
0,
0,
0,
0,
0,
0,
0,
0,
2,
0,
0,
0,
1,
0,
0,
0,
1,
0,
1,
0,
0,
1,
0,
0,
1,
0,
0,
0,
0,
0,
1,
0,
0,
0,
0,
0,
0,
0,
0,
0,
0,
0,
0,
0,
0,
0,
0,
0,
0,
0,
0,
0,
0,
1,
1,
0,
1,
0,
0,
0,
0,
0,
0,
0,
0,
0,
0,
0,
0,
0,
0,
0,
0,
0,
0,
0,
0,
0,
0,
0,
0,
0,
0,
0,
0,
0,
0,
0,
0,
0,
0,
0,
0,
0,
0,
0,
0,
0,
0,
0,
0,
0,
0,
0,
0,
0,
0,
0,
0,
0,
0,
0,
0,
0,
0,
0,
0,
0,
0,
0,
0,
0,
0,
0,
0,
0,
0,
0,
0,
0,
0,
0,
0,
0,
0,
0,
0,
0,
0,
0,
0,
0,
0,
0,
0,
0,
0,
0,
0,
0,
0,
0,
0,
0,
0,
0,
0,
0,
0,
0,
0,
0,
0,
0,
0,
0,
0,
0,
0,
0,
0,
0,
0,
0,
0,
0,
0,
0,
0,
0,
0,
0,
0,
0,
0,
0,
0,
0,
0,
0,
0,
0,
0,
0,
0,
0,
0,
0,
0,
0,
0,
0,
0,
0,
0,
0,
0,
0,
0,
0,
0,
0,
0,
0,
0,
0,
0,
0,
0,
0,
0,
0,
0,
0,
0,
0,
0,
0,
0,
0,
0,
0,
0,
0,
0,
0,
0,
0,
0,
0,
0,
0,
0,
0,
0,
0,
0,
0,
0,
0,
0,
0,
0,
0,
0,
0,
0,
0,
0,
0,
0,
0,
0,
0,
0,
0,
0,
0,
0,
0,
0,
0,
0,
0,
0,
0,
0,
0,
0,
0,
0,
0,
0,
0,
0,
0,
0,
0,
0,
0,
0,
0,
0,
0,
0,
0,
0,
0,
0,
0,
0,
0,
0,
0,
0,
0,
0,
0,
0,
0,
0,
0,
0,
0,
0,
0,
0,
0,
0,
0,
0,
0,
0,
0,
0,
0,
0,
0,
0,
0,
0,
0,
0,
0,
0,
0,
0,
0,
0,
0,
0,
0,
0,
0,
0,
0,
0,
0,
0,
0,
0,
0,
0,
0,
0,
0,
0,
0,
0,
0,
0,
0,
0,
0,
0,
0,
0,
0,
0,
0,
0,
0,
0,
0,
0,
0,
0,
0,
0,
0,
0,
0,
0,
0,
0,
0,
0,
0,
0,
0,
0,
0,
0,
0,
0,
0,
0,
0,
0,
0,
0,
0,
0,
0,
0,
0,
0,
0,
0,
0,
0,
0,
0,
0,
0,
0,
0,
0,
0,
0,
0,
0,
0,
0,
0,
0,
0,
0,
0,
0,
0,
0,
0,
0,
0,
0,
0,
0,
0,
0,
0,
0,
0,
0,
0,
0,
0,
0,
0,
0,
0,
0,
0,
0,
0,
0,
0,
0,
0,
0,
0,
0,
0,
0,
0,
0,
0,
0,
0,
0,
0,
0,
0,
0,
0,
0,
0,
0,
0,
0,
0,
0,
0,
0,
0,
0,
0,
0,
0,
0,
0,
0,
0,
0,
0,
0,
0,
0,
0,
0,
0,
0,
0,
0,
0,
0,
0,
0,
0,
0,
0,
0,
0,
0,
0,
0,
0,
0,
0,
0,
0,
0,
0,
0,
0,
0,
0,
0,
0,
0,
0,
0,
0,
0,
0,
0,
0,
0,
0,
0,
0,
0,
0,
0,
0,
0,
0,
0,
0,
0,
0,
0,
0,
0,
0,
0,
0,
0,
0,
0,
0,
0,
0,
0,
0,
0,
0,
0,
0,
0,
0,
0,
0,
0,
0,
0,
0,
0,
0,
0,
0,
0,
0,
0,
0,
0,
0,
0,
0,
0,
0,
0,
0,
0,
0,
0,
0,
0,
0,
0,
0,
0,
0,
0,
0,
0,
0,
0,
0,
0,
0,
0,
0,
0,
0,
0,
0,
0,
0,
0,
0,
0,
0,
0,
0,
0,
0,
0,
0,
0,
0,
0,
0,
0,
0,
0,
0,
0,
0,
0,
0,
0,
0,
0,
0,
0,
0,
0,
0,
0,
0,
0,
0,
0,
0,
0,
0,
0,
0,
0,
0,
0,
0,
0,
0,
0,
0,
0,
0,
0,
0,
0,
0,
0,
0,
0,
0,
0,
#ENDOFDATA   :