File: N132962/Standards/15 keV/Lu std.msa
#FORMAT      : EMSA/MAS Spectral Data File
#VERSION     : 1.0
#TITLE       : Lu standard for 'N132962' detector
#NPOINTS     : 4096
#NCOLUMNS    : 1
#XUNITS      : eV
#YUNITS      : counts
#DATATYPE    : Y
#SIGNALTYPE  : EDS
#XLABEL      : Energy (eV)
#YLABEL      : Counts
#XPERCHAN -eV: 9.99778
#OFFSET   -eV: 1.69135
#CHOFFSET    : 0
#DATE        : 25-Sep-2025
#TIME        : 17:20:00
#OWNER       : Unknown
#ELEVANGLE   : 35
#BEAMKV   -kV: 15
#LIVETIME  -s: 1439.9
#REALTIME  -s: 1580.02
#PROBECUR -nA: 1.20749
##WORKING -mm: 15
##D2STDCMP   : Lu,(Lu:100.0000)
##SIMILAR    : 21.7
#SPECTRUM    :
153,
171,
80,
261,
1685,
7915,
20626,
38136,
73061,
89891,
60180,
43685,
44603,
47509,
54817,
95662,
246632,
430107,
324756,
117266,
63672,
98876,
160568,
148520,
83907,
57154,
55665,
58376,
61615,
63901,
65986,
68483,
67624,
67351,
67949,
68167,
69842,
71389,
77996,
105964,
166514,
202392,
161889,
107139,
85519,
79543,
77858,
79024,
85602,
111521,
240146,
716651,
1554483,
1910482,
1374939,
672624,
264500,
115381,
81376,
75287,
78000,
74713,
58534,
43810,
37488,
37172,
38955,
40914,
44109,
44839,
42934,
39178,
36616,
35047,
35249,
36458,
38737,
40278,
38742,
36215,
35068,
34761,
35143,
34368,
34182,
33783,
34977,
35696,
35345,
34338,
33713,
33668,
33918,
34117,
34223,
34170,
33771,
34045,
33892,
34142,
34598,
34172,
33945,
34596,
35648,
36667,
37375,
36632,
35062,
34173,
33379,
32878,
32757,
32304,
32374,
32358,
32051,
32331,
31973,
31994,
31811,
32110,
32775,
32977,
32376,
31767,
30786,
30814,
30801,
30444,
29922,
30257,
30145,
30173,
30129,
29974,
29547,
29384,
29377,
29289,
29203,
28691,
28756,
28466,
28328,
28284,
28141,
28478,
28590,
29023,
29240,
28980,
28721,
28272,
27694,
27489,
27244,
26952,
26319,
26304,
26076,
26067,
26077,
25847,
25967,
25404,
25473,
25531,
25554,
24962,
24977,
24777,
24370,
24590,
23922,
23976,
23959,
23927,
23700,
23840,
23105,
23296,
23278,
23142,
22789,
22629,
22475,
22570,
22313,
22048,
21953,
21999,
21871,
21588,
21440,
21491,
21290,
21157,
20929,
20782,
20434,
20610,
20290,
20095,
20202,
20036,
19829,
19802,
19611,
19642,
19682,
19595,
19627,
19839,
19878,
19256,
18929,
18587,
18467,
18506,
18598,
18736,
19903,
21505,
22759,
23498,
22602,
20894,
19231,
18416,
17432,
17169,
17098,
16936,
16893,
16561,
16477,
16519,
16195,
16403,
16498,
15857,
15670,
16016,
15687,
15831,
15874,
16069,
17028,
19266,
25396,
39322,
63620,
96627,
126679,
138959,
124627,
92688,
58674,
35228,
22668,
17152,
15640,
15117,
14396,
13980,
13953,
14038,
14383,
14712,
15187,
15280,
15106,
14456,
13729,
12919,
12679,
12701,
12401,
12275,
12228,
12417,
12528,
13180,
14526,
17280,
22128,
29363,
39046,
48056,
52242,
49452,
41746,
32457,
25053,
20070,
18238,
17336,
19184,
23353,
28164,
30766,
30561,
26578,
21261,
16554,
13211,
11511,
10878,
10099,
10074,
9839,
9463,
9277,
9178,
8873,
8750,
8709,
8725,
8684,
8747,
8923,
8666,
8501,
8201,
8267,
8408,
8261,
8236,
8111,
8116,
8008,
8096,
8532,
9179,
10482,
12033,
13260,
13619,
12947,
11545,
9930,
8700,
7909,
7536,
7417,
7737,
7925,
8235,
8343,
8203,
7940,
7481,
7148,
6709,
6491,
6338,
6221,
6100,
6250,
6179,
6182,
6106,
5972,
5784,
5668,
5651,
5395,
5513,
5260,
5138,
5261,
5176,
5084,
5197,
5038,
5069,
4915,
4934,
4757,
4777,
4759,
4719,
4622,
4667,
4495,
4543,
4442,
4315,
4375,
4195,
4306,
4209,
4108,
4130,
4050,
4047,
3927,
3934,
3856,
3710,
3807,
3801,
3639,
3665,
3616,
3495,
3427,
3436,
3414,
3390,
3332,
3365,
3089,
3152,
3089,
3038,
3072,
3023,
3059,
2842,
2846,
2741,
2742,
2656,
2751,
2623,
2541,
2563,
2467,
2432,
2374,
2364,
2389,
2377,
2372,
2248,
2152,
2113,
2074,
2021,
1965,
1962,
1984,
1950,
1815,
1763,
1791,
1742,
1773,
1668,
1581,
1644,
1525,
1540,
1440,
1486,
1402,
1324,
1361,
1307,
1231,
1228,
1199,
1232,
1087,
1057,
1066,
1038,
1016,
947,
920,
943,
922,
848,
835,
761,
712,
723,
655,
652,
622,
579,
555,
518,
497,
487,
433,
414,
355,
376,
325,
280,
244,
220,
178,
164,
129,
126,
66,
72,
49,
49,
46,
37,
21,
47,
53,
43,
37,
46,
39,
34,
29,
33,
20,
31,
29,
29,
26,
20,
19,
25,
22,
22,
29,
30,
18,
30,
35,
22,
27,
19,
22,
18,
23,
21,
20,
30,
20,
16,
23,
29,
35,
24,
24,
24,
20,
24,
14,
25,
23,
14,
18,
8,
17,
23,
15,
15,
14,
20,
16,
23,
26,
15,
21,
26,
16,
14,
16,
22,
15,
26,
20,
15,
14,
22,
16,
18,
13,
19,
14,
20,
19,
26,
17,
26,
16,
22,
20,
22,
21,
15,
23,
21,
22,
11,
13,
11,
13,
10,
13,
14,
15,
12,
16,
6,
13,
10,
9,
16,
6,
9,
12,
10,
9,
12,
10,
11,
10,
19,
11,
12,
5,
9,
17,
8,
11,
7,
11,
9,
9,
9,
11,
7,
15,
7,
9,
8,
12,
11,
10,
10,
5,
5,
9,
4,
3,
6,
7,
6,
8,
7,
3,
6,
5,
7,
8,
6,
3,
6,
8,
6,
6,
7,
4,
9,
3,
7,
5,
7,
2,
6,
8,
4,
4,
3,
7,
11,
8,
7,
7,
6,
4,
5,
4,
3,
4,
7,
0,
3,
4,
7,
9,
5,
4,
2,
5,
7,
6,
4,
5,
5,
4,
4,
4,
3,
1,
1,
4,
6,
2,
1,
4,
5,
2,
1,
1,
5,
5,
6,
4,
0,
2,
4,
6,
6,
5,
2,
0,
0,
4,
2,
1,
0,
2,
2,
1,
3,
2,
0,
3,
1,
3,
1,
1,
2,
2,
5,
1,
1,
2,
2,
2,
1,
1,
1,
0,
1,
2,
0,
3,
0,
1,
0,
1,
0,
1,
0,
3,
1,
1,
1,
0,
0,
2,
2,
2,
0,
1,
0,
1,
2,
0,
0,
0,
0,
0,
0,
1,
3,
2,
0,
0,
0,
0,
0,
0,
1,
1,
0,
1,
0,
0,
0,
0,
0,
0,
0,
0,
0,
0,
1,
2,
0,
0,
0,
0,
0,
0,
1,
0,
2,
0,
0,
0,
0,
0,
1,
1,
1,
0,
0,
1,
0,
1,
0,
0,
1,
0,
0,
0,
0,
0,
0,
1,
0,
1,
0,
0,
0,
0,
0,
0,
0,
0,
0,
0,
0,
0,
0,
0,
0,
0,
0,
0,
0,
0,
0,
0,
0,
0,
0,
0,
0,
0,
0,
1,
1,
0,
0,
0,
0,
0,
0,
0,
0,
0,
0,
0,
0,
0,
0,
0,
0,
0,
0,
0,
0,
0,
0,
0,
0,
0,
0,
0,
0,
1,
0,
0,
0,
0,
0,
0,
0,
0,
0,
0,
0,
0,
0,
0,
0,
0,
0,
0,
0,
0,
0,
0,
0,
0,
0,
0,
0,
0,
0,
0,
0,
0,
0,
0,
0,
0,
0,
0,
0,
0,
0,
0,
0,
0,
0,
0,
0,
0,
0,
0,
0,
0,
0,
0,
0,
0,
0,
0,
0,
0,
0,
0,
0,
0,
0,
0,
0,
0,
0,
0,
0,
0,
0,
0,
0,
0,
0,
0,
0,
0,
0,
0,
0,
0,
0,
0,
0,
0,
0,
0,
0,
0,
0,
0,
0,
0,
0,
0,
0,
0,
0,
0,
0,
0,
0,
0,
0,
0,
0,
0,
0,
0,
0,
0,
0,
0,
0,
0,
0,
0,
0,
0,
0,
0,
0,
0,
0,
0,
0,
0,
0,
0,
0,
0,
0,
0,
0,
0,
0,
0,
1,
0,
0,
0,
0,
0,
0,
0,
0,
0,
0,
0,
0,
0,
0,
0,
0,
0,
0,
0,
0,
0,
0,
0,
0,
0,
0,
0,
0,
0,
0,
0,
0,
0,
0,
0,
0,
0,
0,
0,
0,
0,
0,
0,
0,
0,
0,
0,
0,
0,
0,
0,
0,
0,
0,
0,
0,
0,
0,
0,
0,
0,
0,
0,
0,
0,
0,
0,
0,
0,
0,
0,
0,
0,
0,
0,
0,
0,
0,
0,
0,
0,
0,
0,
0,
0,
0,
0,
0,
0,
0,
0,
0,
0,
0,
0,
0,
0,
0,
0,
0,
0,
0,
0,
0,
0,
0,
0,
0,
0,
0,
0,
0,
0,
0,
0,
0,
0,
0,
0,
0,
0,
0,
0,
0,
0,
0,
0,
0,
0,
0,
0,
0,
0,
0,
0,
0,
0,
0,
0,
0,
0,
0,
0,
0,
0,
0,
0,
0,
0,
0,
0,
0,
0,
0,
0,
0,
0,
0,
0,
0,
0,
0,
0,
0,
0,
0,
0,
0,
0,
0,
0,
0,
0,
0,
0,
0,
0,
0,
0,
0,
0,
0,
0,
0,
0,
0,
0,
0,
0,
0,
0,
0,
0,
0,
0,
0,
0,
0,
0,
0,
0,
0,
0,
0,
0,
0,
0,
0,
0,
0,
0,
0,
0,
0,
0,
0,
0,
0,
0,
0,
0,
0,
0,
0,
0,
0,
0,
0,
0,
0,
0,
0,
0,
0,
0,
0,
0,
0,
0,
0,
0,
0,
0,
0,
0,
0,
0,
0,
0,
0,
0,
0,
0,
0,
0,
0,
0,
0,
0,
0,
0,
0,
0,
0,
0,
0,
0,
0,
0,
0,
0,
0,
0,
0,
0,
0,
0,
0,
0,
0,
0,
0,
0,
0,
0,
0,
0,
0,
0,
0,
0,
0,
0,
0,
0,
0,
0,
0,
0,
0,
0,
0,
0,
0,
0,
0,
0,
0,
0,
0,
0,
0,
0,
0,
0,
0,
0,
#ENDOFDATA   :