File: N132962/Standards/15 keV/LuF3 std.msa
#FORMAT      : EMSA/MAS Spectral Data File
#VERSION     : 1.0
#TITLE       : LuF3 standard for 'N132962' detector
#NPOINTS     : 4096
#NCOLUMNS    : 1
#XUNITS      : eV
#YUNITS      : counts
#DATATYPE    : Y
#SIGNALTYPE  : EDS
#XLABEL      : Energy (eV)
#YLABEL      : Counts
#XPERCHAN -eV: 9.99778
#OFFSET   -eV: 1.69135
#CHOFFSET    : 0
#DATE        : 26-Sep-2025
#TIME        : 16:08:00
#OWNER       : Unknown
#ELEVANGLE   : 35
#BEAMKV   -kV: 15
#LIVETIME  -s: 1437.79
#REALTIME  -s: 1561.64
#PROBECUR -nA: 1.22066
##WORKING -mm: 15
##D2STDCMP   : LuF3,(F:24.5709),(Lu:75.4291)
##SIMILAR    : 14.8
#SPECTRUM    :
153,
161,
71,
270,
1614,
7737,
20277,
35826,
64904,
79472,
55533,
41088,
40860,
41465,
43108,
48386,
60631,
74025,
71364,
72192,
132276,
387670,
785165,
691044,
255484,
69628,
45139,
45731,
48197,
48988,
49388,
50176,
50856,
51572,
52884,
53576,
54827,
56608,
62409,
84615,
132539,
160559,
128092,
84993,
67140,
62951,
62646,
64147,
69466,
90335,
195235,
584226,
1271593,
1566087,
1128176,
548662,
203009,
72500,
46661,
49521,
59059,
60907,
49388,
36569,
31717,
31145,
31739,
33579,
36250,
37390,
35065,
32730,
31111,
30298,
30933,
31460,
31536,
30444,
28991,
28861,
28581,
28811,
29376,
28983,
28871,
28538,
28806,
28903,
28942,
28469,
28557,
28466,
28853,
29204,
29165,
29342,
29002,
28961,
29770,
30368,
30360,
29770,
29337,
29444,
30280,
31342,
31353,
30647,
29568,
29094,
28745,
28496,
28364,
27974,
27908,
27875,
27772,
27556,
27476,
27307,
27528,
27106,
27223,
26811,
27194,
26653,
26612,
26725,
26625,
26499,
26240,
26084,
26109,
25879,
26122,
25773,
25620,
25540,
25302,
25003,
25007,
25192,
24808,
24897,
24859,
24605,
24430,
24462,
24023,
24097,
24092,
23592,
23841,
23477,
23453,
23432,
23116,
22941,
22910,
22881,
22752,
22656,
22494,
22329,
22106,
21948,
22009,
22059,
21834,
21534,
21600,
21265,
21451,
21274,
21153,
20957,
20893,
20858,
21026,
21055,
21384,
20801,
20687,
20021,
19850,
19766,
19557,
19436,
19328,
19313,
19137,
19221,
18782,
18823,
18920,
18832,
18823,
18811,
18695,
18444,
18060,
17907,
17829,
17419,
17766,
17494,
17288,
17282,
17266,
17112,
17381,
18066,
18875,
19336,
19064,
17968,
17435,
16504,
16291,
16194,
16028,
16436,
17251,
18401,
19532,
20159,
19482,
18148,
16763,
15871,
15158,
15037,
14945,
15025,
15001,
14834,
14508,
14548,
14278,
14198,
14139,
14061,
13719,
13905,
13670,
13698,
13927,
14074,
14855,
16663,
21930,
34098,
54649,
83576,
109812,
119316,
106471,
79750,
50989,
30378,
19289,
15063,
13745,
12947,
12409,
12241,
11936,
11652,
11436,
11365,
11300,
11346,
11134,
11168,
11075,
11073,
10814,
11048,
10927,
10711,
10602,
10551,
10944,
11439,
12654,
15027,
18983,
25198,
33376,
40812,
44693,
42547,
35380,
27514,
21390,
17170,
15350,
15130,
16732,
20007,
24225,
26679,
26112,
23013,
18253,
14049,
11181,
9710,
8882,
8553,
8170,
7978,
7849,
7722,
7651,
7649,
7594,
7654,
7459,
7292,
7368,
7124,
7111,
7025,
7188,
7222,
7100,
7219,
7060,
7107,
6774,
6820,
6966,
7236,
7989,
9201,
10309,
11453,
11563,
11205,
9835,
8411,
7388,
6767,
6564,
6395,
6438,
6805,
7107,
7193,
7096,
6817,
6555,
6077,
5683,
5487,
5337,
5249,
5466,
5304,
5330,
5144,
5032,
5135,
4894,
4848,
4850,
4617,
4593,
4633,
4433,
4447,
4426,
4321,
4361,
4311,
4307,
4275,
4201,
4109,
4026,
4127,
4052,
3857,
3929,
3870,
3814,
3884,
3668,
3615,
3654,
3561,
3515,
3606,
3467,
3422,
3468,
3278,
3312,
3288,
3287,
3067,
3136,
3092,
3065,
3123,
2924,
2888,
2860,
2728,
2651,
2821,
2717,
2691,
2638,
2624,
2528,
2567,
2501,
2374,
2293,
2383,
2287,
2315,
2263,
2177,
2022,
2157,
2040,
2165,
2041,
1958,
1916,
1890,
1843,
1820,
1736,
1643,
1695,
1738,
1597,
1586,
1578,
1540,
1516,
1534,
1430,
1365,
1403,
1329,
1300,
1250,
1237,
1105,
1222,
1126,
1141,
1100,
1032,
1020,
966,
960,
942,
843,
865,
760,
726,
755,
717,
681,
619,
635,
603,
590,
543,
499,
478,
443,
428,
361,
353,
343,
293,
256,
274,
219,
221,
198,
192,
155,
152,
115,
99,
96,
83,
57,
60,
42,
37,
32,
31,
29,
30,
28,
30,
16,
33,
28,
28,
29,
23,
25,
21,
24,
26,
17,
13,
16,
21,
24,
25,
11,
18,
21,
18,
26,
29,
15,
17,
18,
17,
15,
15,
13,
19,
16,
13,
10,
9,
21,
9,
12,
24,
17,
15,
24,
20,
18,
15,
14,
16,
16,
15,
11,
11,
11,
10,
15,
10,
11,
11,
17,
15,
16,
17,
11,
19,
20,
20,
13,
13,
18,
13,
13,
10,
11,
12,
9,
14,
21,
14,
15,
14,
18,
13,
14,
12,
11,
24,
14,
14,
12,
15,
16,
11,
18,
5,
10,
7,
9,
9,
10,
9,
6,
15,
10,
12,
8,
4,
9,
7,
9,
13,
13,
6,
9,
8,
7,
12,
9,
1,
10,
9,
9,
11,
10,
4,
9,
9,
6,
4,
4,
5,
9,
14,
4,
5,
6,
6,
8,
8,
5,
8,
7,
6,
7,
7,
3,
9,
10,
7,
3,
10,
2,
8,
4,
6,
3,
9,
5,
2,
8,
4,
4,
2,
4,
4,
4,
8,
5,
4,
2,
6,
3,
4,
4,
3,
2,
3,
4,
3,
5,
1,
5,
5,
3,
4,
5,
3,
6,
5,
3,
2,
2,
4,
4,
5,
2,
8,
2,
3,
3,
4,
1,
1,
1,
2,
3,
2,
6,
3,
1,
5,
3,
0,
3,
4,
3,
3,
0,
0,
2,
1,
2,
1,
1,
3,
3,
2,
1,
1,
0,
3,
2,
2,
1,
1,
3,
0,
2,
1,
2,
0,
1,
1,
1,
2,
3,
1,
0,
1,
1,
1,
0,
0,
0,
2,
3,
2,
2,
3,
2,
0,
3,
1,
1,
1,
0,
1,
1,
1,
0,
1,
3,
0,
0,
0,
0,
0,
1,
1,
0,
0,
0,
0,
1,
0,
0,
1,
2,
0,
0,
0,
0,
1,
0,
0,
0,
2,
1,
0,
1,
1,
0,
0,
0,
0,
0,
1,
0,
1,
0,
0,
0,
0,
0,
0,
0,
0,
0,
0,
0,
0,
1,
1,
0,
0,
0,
2,
0,
0,
0,
0,
0,
0,
0,
0,
0,
0,
0,
0,
0,
0,
0,
0,
0,
0,
0,
0,
0,
1,
0,
0,
0,
0,
0,
1,
0,
0,
0,
0,
0,
0,
0,
0,
0,
0,
0,
0,
0,
0,
0,
0,
0,
0,
0,
0,
0,
0,
0,
0,
0,
0,
0,
0,
0,
0,
0,
1,
0,
0,
0,
0,
0,
0,
0,
0,
0,
0,
0,
0,
0,
0,
0,
0,
0,
0,
0,
0,
0,
0,
0,
0,
0,
0,
0,
0,
0,
0,
0,
0,
0,
0,
0,
0,
0,
0,
0,
0,
0,
0,
0,
0,
0,
0,
0,
0,
0,
0,
0,
0,
0,
0,
0,
0,
0,
0,
0,
0,
0,
0,
0,
0,
0,
0,
0,
0,
0,
0,
0,
0,
0,
0,
0,
0,
0,
0,
0,
0,
0,
0,
0,
0,
0,
0,
0,
0,
0,
0,
0,
0,
0,
0,
0,
0,
0,
0,
0,
0,
0,
0,
0,
0,
0,
0,
0,
0,
0,
0,
0,
0,
0,
0,
0,
0,
0,
0,
0,
0,
0,
0,
0,
0,
0,
0,
0,
0,
0,
0,
0,
0,
0,
0,
0,
0,
0,
0,
0,
0,
0,
0,
0,
0,
0,
0,
0,
0,
0,
0,
0,
0,
0,
0,
0,
0,
0,
0,
0,
0,
0,
0,
0,
0,
0,
0,
0,
0,
0,
0,
0,
0,
0,
0,
0,
0,
0,
0,
0,
0,
0,
0,
0,
0,
0,
0,
0,
0,
0,
0,
0,
0,
0,
0,
0,
0,
0,
0,
0,
0,
0,
0,
0,
0,
0,
0,
0,
0,
0,
0,
0,
0,
0,
0,
0,
0,
0,
0,
0,
0,
0,
0,
0,
0,
0,
0,
0,
0,
0,
0,
0,
0,
0,
0,
0,
0,
0,
0,
0,
0,
0,
0,
0,
0,
0,
0,
0,
0,
0,
0,
0,
0,
0,
0,
0,
0,
0,
0,
0,
0,
0,
0,
0,
0,
0,
0,
0,
0,
0,
0,
0,
0,
0,
0,
0,
0,
0,
0,
0,
0,
0,
0,
0,
0,
0,
0,
0,
0,
0,
0,
0,
0,
0,
0,
0,
0,
0,
0,
0,
0,
0,
0,
0,
0,
0,
0,
0,
0,
0,
0,
0,
0,
0,
0,
0,
0,
0,
0,
0,
0,
0,
0,
0,
0,
0,
0,
0,
0,
0,
0,
0,
0,
0,
0,
0,
0,
0,
0,
0,
0,
0,
0,
0,
0,
0,
0,
0,
0,
0,
0,
0,
0,
0,
0,
0,
0,
0,
0,
0,
0,
0,
0,
0,
0,
0,
0,
0,
0,
0,
0,
0,
0,
0,
0,
0,
0,
0,
0,
0,
0,
0,
0,
0,
0,
0,
0,
0,
0,
0,
0,
0,
0,
0,
0,
0,
0,
0,
0,
0,
0,
0,
0,
0,
0,
0,
0,
0,
0,
0,
0,
0,
0,
0,
0,
0,
0,
0,
0,
0,
0,
0,
0,
0,
0,
0,
0,
0,
0,
0,
0,
0,
0,
0,
0,
0,
0,
0,
0,
0,
0,
0,
0,
0,
0,
0,
0,
0,
0,
0,
0,
0,
0,
0,
0,
0,
0,
0,
0,
0,
0,
0,
0,
0,
0,
0,
0,
0,
0,
0,
0,
0,
0,
0,
0,
0,
0,
0,
#ENDOFDATA   :