File: N132962/Standards/15 keV/LuP5O14 std.msa
#FORMAT      : EMSA/MAS Spectral Data File
#VERSION     : 1.0
#TITLE       : LuP5O14 standard for 'N132962' detector
#NPOINTS     : 4096
#NCOLUMNS    : 1
#XUNITS      : eV
#YUNITS      : counts
#DATATYPE    : Y
#SIGNALTYPE  : EDS
#XLABEL      : Energy (eV)
#YLABEL      : Counts
#XPERCHAN -eV: 9.99778
#OFFSET   -eV: 1.69135
#CHOFFSET    : 0
#DATE        : 17-Mar-2025
#TIME        : 15:48:00
#OWNER       : Unknown
#ELEVANGLE   : 35
#BEAMKV   -kV: 15
#LIVETIME  -s: 1199.08
#REALTIME  -s: 1270.2
#PROBECUR -nA: 1.0242
##WORKING -mm: 15
##D2STDCMP   : LuP5O14,(O:40.4437),(P:27.9637),(Lu:31.5926)
##SIMILAR    : 1.7
#SPECTRUM    :
117,
145,
71,
209,
839,
2755,
7631,
23227,
71473,
98894,
51971,
22581,
24716,
29809,
38270,
108117,
394506,
756686,
554687,
152229,
27977,
16791,
17766,
19943,
20648,
20731,
21033,
22382,
23770,
24453,
24757,
24815,
25893,
27026,
27788,
28702,
28755,
29055,
30759,
37361,
52155,
61143,
51536,
37676,
32183,
31406,
31255,
31485,
32929,
39789,
69834,
183736,
388912,
486095,
368811,
196125,
83014,
38407,
29670,
31486,
35054,
36409,
34863,
42377,
83073,
214764,
474403,
658662,
520910,
242940,
91319,
55042,
41135,
27415,
18135,
15383,
14758,
14638,
14420,
14294,
14492,
14503,
14744,
15445,
15504,
15561,
14803,
14395,
14028,
13914,
13848,
13822,
13994,
13711,
13652,
13713,
13762,
13493,
13600,
13541,
13423,
13175,
13212,
13224,
13332,
13280,
13190,
13353,
13115,
12765,
12840,
12874,
12689,
12395,
12459,
12367,
12102,
12218,
12701,
12548,
12732,
12650,
12280,
11999,
11680,
11624,
11442,
11497,
11432,
11404,
11236,
11169,
11147,
11505,
11266,
11158,
11102,
10767,
10764,
10477,
10497,
10390,
10349,
10339,
10230,
10366,
9872,
9818,
9938,
9730,
9535,
9706,
9685,
9525,
9436,
9367,
9315,
9257,
8987,
9076,
9188,
8851,
8931,
8799,
8770,
8718,
8653,
8560,
8381,
8602,
8349,
8237,
8320,
8205,
8111,
8063,
8083,
7878,
8031,
7981,
7911,
7731,
7839,
7692,
7569,
7571,
7282,
7469,
7347,
7167,
7291,
7057,
7180,
7056,
7017,
6928,
6977,
7053,
6915,
6809,
6728,
6570,
6713,
6598,
6417,
6452,
6396,
6348,
6241,
6345,
6394,
6403,
6323,
6424,
6415,
6294,
6118,
5902,
5842,
5911,
5878,
6015,
6119,
6387,
6535,
6704,
6696,
6250,
5995,
5678,
5477,
5286,
5291,
5314,
5330,
5221,
5147,
4974,
5112,
5055,
4980,
5093,
4931,
4941,
4931,
4858,
4883,
4891,
5150,
5588,
6909,
9790,
14977,
22207,
28664,
31245,
27972,
21288,
14194,
8970,
6157,
5192,
4737,
4576,
4340,
4224,
4137,
4105,
4018,
4031,
3895,
4053,
3855,
3869,
3883,
3804,
3824,
3637,
3738,
3670,
3575,
3664,
3716,
4003,
4198,
4612,
5635,
7119,
9247,
10937,
12061,
11478,
9854,
7797,
6302,
5265,
4779,
4548,
4877,
5919,
6948,
7440,
7500,
6509,
5319,
4385,
3548,
3220,
3075,
2930,
2824,
2642,
2687,
2684,
2714,
2636,
2667,
2557,
2503,
2524,
2592,
2531,
2459,
2451,
2415,
2440,
2409,
2471,
2436,
2344,
2376,
2406,
2322,
2589,
2604,
2816,
3119,
3476,
3546,
3460,
2897,
2607,
2312,
2221,
2159,
2088,
2112,
2202,
2297,
2289,
2182,
2223,
2084,
1985,
1922,
1748,
1835,
1846,
1722,
1790,
1817,
1689,
1710,
1665,
1581,
1551,
1607,
1559,
1563,
1538,
1484,
1427,
1460,
1424,
1484,
1455,
1424,
1382,
1388,
1368,
1317,
1340,
1330,
1325,
1283,
1258,
1172,
1230,
1219,
1140,
1229,
1208,
1195,
1101,
1092,
1112,
1087,
1009,
1048,
1011,
1042,
1019,
983,
1020,
943,
916,
900,
923,
919,
901,
922,
823,
851,
871,
799,
823,
816,
807,
754,
770,
737,
779,
705,
713,
727,
703,
664,
675,
676,
588,
607,
588,
584,
596,
579,
597,
564,
520,
568,
502,
499,
544,
504,
484,
444,
466,
436,
397,
428,
437,
412,
390,
410,
395,
372,
379,
375,
336,
327,
288,
312,
329,
307,
278,
282,
262,
256,
253,
244,
227,
245,
204,
201,
188,
181,
163,
175,
163,
139,
172,
152,
128,
136,
100,
112,
111,
96,
103,
65,
89,
58,
68,
49,
46,
42,
28,
25,
24,
16,
12,
9,
7,
3,
6,
4,
1,
3,
7,
1,
3,
3,
6,
1,
2,
3,
7,
7,
5,
3,
1,
1,
1,
3,
2,
2,
2,
4,
1,
1,
4,
2,
1,
2,
3,
7,
0,
0,
2,
1,
4,
3,
2,
4,
1,
4,
2,
3,
1,
6,
1,
1,
1,
0,
0,
3,
2,
2,
2,
1,
4,
1,
1,
4,
3,
1,
1,
1,
3,
3,
2,
3,
1,
0,
1,
1,
3,
3,
1,
0,
3,
1,
0,
2,
3,
0,
1,
2,
2,
2,
1,
0,
1,
0,
2,
0,
1,
0,
1,
0,
3,
0,
1,
1,
2,
2,
1,
2,
1,
1,
1,
1,
3,
2,
2,
1,
0,
1,
0,
2,
1,
0,
0,
0,
1,
1,
2,
0,
0,
1,
1,
0,
4,
3,
2,
0,
1,
1,
1,
1,
0,
1,
1,
0,
0,
1,
0,
1,
1,
1,
1,
0,
0,
0,
0,
1,
1,
0,
0,
0,
0,
2,
1,
0,
1,
0,
0,
0,
0,
1,
1,
1,
2,
0,
1,
0,
1,
0,
0,
0,
0,
1,
0,
1,
1,
1,
0,
1,
0,
0,
0,
1,
2,
1,
0,
0,
0,
1,
0,
0,
1,
0,
0,
0,
1,
0,
0,
0,
0,
0,
1,
0,
1,
0,
0,
0,
0,
1,
1,
0,
1,
0,
1,
0,
0,
0,
0,
0,
0,
1,
0,
0,
0,
0,
0,
0,
2,
1,
0,
0,
0,
0,
1,
0,
1,
0,
0,
0,
0,
0,
0,
0,
0,
0,
0,
0,
0,
0,
0,
0,
0,
0,
0,
1,
0,
0,
0,
0,
0,
0,
0,
0,
0,
0,
0,
0,
0,
1,
0,
0,
0,
0,
0,
0,
0,
0,
0,
0,
0,
0,
0,
0,
0,
0,
0,
0,
0,
0,
0,
0,
0,
0,
0,
0,
1,
0,
0,
2,
0,
0,
0,
0,
0,
1,
0,
0,
0,
0,
0,
0,
0,
0,
0,
0,
0,
0,
0,
0,
0,
1,
0,
0,
0,
1,
0,
0,
0,
0,
0,
0,
0,
0,
0,
0,
0,
0,
0,
0,
0,
0,
0,
0,
0,
0,
0,
0,
0,
0,
0,
0,
0,
0,
0,
0,
0,
0,
0,
0,
0,
0,
0,
0,
0,
0,
0,
0,
0,
0,
0,
0,
0,
0,
0,
0,
0,
0,
0,
0,
0,
0,
0,
0,
0,
0,
0,
0,
0,
0,
0,
0,
0,
0,
0,
0,
0,
0,
0,
0,
0,
0,
0,
0,
0,
0,
0,
0,
0,
0,
0,
0,
0,
0,
0,
0,
0,
0,
0,
0,
0,
0,
0,
0,
0,
0,
0,
0,
0,
0,
0,
0,
0,
0,
0,
0,
0,
0,
0,
0,
0,
0,
0,
0,
0,
0,
0,
0,
0,
0,
0,
0,
0,
0,
0,
0,
0,
0,
0,
0,
0,
0,
0,
0,
0,
0,
0,
0,
0,
0,
0,
0,
0,
0,
0,
0,
0,
0,
0,
0,
0,
0,
0,
0,
0,
0,
0,
0,
0,
0,
0,
0,
0,
0,
0,
0,
0,
0,
0,
0,
0,
0,
0,
0,
0,
0,
0,
0,
0,
0,
0,
0,
0,
0,
0,
0,
0,
0,
0,
0,
0,
0,
0,
0,
0,
0,
0,
0,
0,
0,
0,
0,
0,
0,
0,
0,
0,
0,
0,
0,
0,
0,
0,
0,
0,
0,
0,
0,
0,
0,
0,
0,
0,
0,
0,
0,
0,
0,
0,
0,
0,
0,
0,
0,
0,
0,
0,
0,
0,
0,
0,
0,
0,
0,
0,
0,
0,
0,
0,
0,
0,
0,
0,
0,
0,
0,
0,
0,
0,
0,
0,
0,
0,
0,
0,
0,
0,
0,
0,
0,
0,
0,
0,
0,
0,
0,
0,
0,
0,
0,
0,
0,
0,
0,
0,
0,
0,
0,
0,
0,
0,
0,
0,
0,
0,
0,
0,
0,
0,
0,
0,
0,
0,
0,
0,
0,
0,
0,
0,
0,
0,
0,
0,
0,
0,
0,
0,
0,
0,
0,
0,
0,
0,
0,
0,
0,
0,
0,
0,
0,
0,
0,
0,
0,
0,
0,
0,
0,
0,
0,
0,
0,
0,
0,
0,
0,
0,
0,
0,
0,
0,
0,
0,
0,
0,
0,
0,
0,
0,
0,
0,
0,
0,
0,
0,
0,
0,
0,
0,
0,
0,
0,
0,
0,
0,
0,
0,
0,
0,
0,
0,
0,
0,
0,
0,
0,
0,
0,
0,
0,
0,
0,
0,
0,
0,
0,
0,
0,
0,
0,
0,
0,
0,
0,
0,
0,
0,
0,
0,
0,
0,
0,
0,
0,
0,
0,
0,
0,
0,
0,
0,
0,
0,
0,
0,
0,
0,
0,
0,
0,
0,
0,
0,
0,
0,
0,
0,
0,
0,
0,
0,
0,
0,
0,
0,
0,
0,
0,
0,
0,
0,
0,
0,
0,
0,
0,
0,
0,
0,
0,
0,
0,
0,
0,
0,
0,
0,
0,
0,
0,
0,
0,
0,
0,
0,
0,
0,
0,
0,
0,
0,
0,
0,
0,
0,
0,
0,
0,
0,
0,
0,
0,
0,
0,
0,
0,
0,
0,
0,
0,
0,
0,
0,
0,
0,
0,
0,
0,
0,
0,
0,
0,
0,
0,
0,
0,
0,
0,
0,
0,
0,
0,
0,
0,
0,
0,
0,
0,
0,
#ENDOFDATA   :