File: N132962/Standards/15 keV/MgO std.msa
#FORMAT      : EMSA/MAS Spectral Data File
#VERSION     : 1.0
#TITLE       : MgO standard for 'N132962' detector
#NPOINTS     : 4096
#NCOLUMNS    : 1
#XUNITS      : eV
#YUNITS      : counts
#DATATYPE    : Y
#SIGNALTYPE  : EDS
#XLABEL      : Energy (eV)
#YLABEL      : Counts
#XPERCHAN -eV: 9.99778
#OFFSET   -eV: 1.69135
#CHOFFSET    : 0
#DATE        : 27-Sep-2025
#TIME        : 16:08:00
#OWNER       : Unknown
#ELEVANGLE   : 35
#BEAMKV   -kV: 15
#LIVETIME  -s: 1439.45
#REALTIME  -s: 1562.67
#PROBECUR -nA: 1.21
##WORKING -mm: 15
##D2STDCMP   : MgO,(O:39.6958),(Mg:60.3042)
##SIMILAR    : 1.3
#SPECTRUM    :
164,
161,
55,
113,
579,
2349,
5885,
14239,
30770,
39555,
27123,
22505,
26487,
34759,
64866,
234984,
889088,
1699609,
1245288,
332451,
44457,
16971,
17278,
18798,
20033,
20849,
22474,
24219,
25369,
27131,
29563,
31899,
33616,
36546,
41296,
45304,
49222,
57855,
86104,
262338,
1103869,
2804743,
3372610,
1872768,
506158,
84866,
21640,
14126,
13485,
13818,
14096,
14387,
14415,
14404,
14639,
15335,
16813,
20517,
27130,
30027,
26607,
19432,
15427,
14055,
13666,
13750,
13662,
13501,
13751,
13807,
14009,
13687,
13785,
13826,
14017,
14016,
13825,
13787,
13918,
13962,
14294,
15668,
20218,
25016,
25635,
20516,
15622,
13134,
12784,
12400,
12287,
11983,
12076,
11731,
11700,
11494,
11715,
11344,
11542,
11255,
11056,
11141,
10932,
10788,
10765,
10495,
10534,
10327,
10282,
10215,
10242,
10113,
10107,
9724,
9850,
9536,
9524,
9422,
9416,
9315,
9418,
9646,
10044,
10149,
9913,
9200,
8854,
8725,
8604,
8361,
8299,
8131,
8139,
8217,
8108,
7937,
7827,
7805,
7664,
7656,
7559,
7642,
7294,
7323,
7218,
7248,
7186,
6997,
6858,
7021,
6904,
6864,
6831,
6723,
6603,
6628,
6588,
6424,
6422,
6263,
6222,
6305,
6135,
6154,
6097,
5971,
5995,
5914,
5819,
5740,
5623,
5697,
5573,
5592,
5496,
5490,
5333,
5369,
5344,
5229,
5152,
5305,
4995,
5145,
4916,
5046,
5007,
4953,
5015,
4882,
4844,
4720,
4729,
4744,
4654,
4555,
4553,
4517,
4438,
4420,
4338,
4361,
4212,
4274,
4145,
4161,
4078,
4028,
3978,
4042,
3894,
4092,
3946,
4020,
3991,
3922,
3744,
3734,
3697,
3559,
3566,
3653,
3520,
3432,
3534,
3358,
3473,
3323,
3428,
3304,
3342,
3295,
3190,
3185,
3198,
3112,
3134,
3169,
3148,
3025,
2996,
2942,
2884,
2874,
2918,
2838,
2793,
2995,
2836,
2813,
2794,
2780,
2686,
2667,
2636,
2624,
2602,
2566,
2588,
2457,
2386,
2432,
2390,
2456,
2555,
2417,
2412,
2455,
2398,
2364,
2378,
2319,
2204,
2179,
2256,
2101,
2194,
2129,
2020,
2029,
2087,
2139,
2029,
1990,
2025,
2039,
2011,
1978,
2028,
2013,
1934,
1866,
1858,
1778,
1779,
1753,
1757,
1699,
1750,
1772,
1789,
1651,
1649,
1722,
1682,
1585,
1579,
1680,
1548,
1555,
1554,
1532,
1545,
1467,
1505,
1500,
1442,
1425,
1431,
1457,
1415,
1434,
1323,
1369,
1313,
1300,
1325,
1295,
1255,
1320,
1264,
1248,
1209,
1247,
1189,
1196,
1157,
1142,
1099,
1112,
1125,
1112,
1079,
1074,
1107,
1072,
1047,
1056,
996,
1008,
1004,
1025,
960,
952,
980,
926,
916,
877,
926,
936,
879,
856,
871,
885,
848,
883,
847,
836,
788,
753,
788,
776,
804,
760,
746,
706,
719,
716,
682,
649,
687,
660,
649,
640,
675,
641,
625,
633,
586,
646,
565,
625,
572,
571,
560,
544,
527,
535,
493,
531,
479,
528,
536,
493,
457,
436,
436,
466,
458,
428,
416,
397,
399,
402,
377,
406,
375,
387,
325,
344,
346,
400,
369,
317,
331,
334,
331,
341,
364,
297,
282,
292,
265,
301,
279,
238,
287,
265,
251,
240,
225,
245,
216,
221,
230,
208,
229,
197,
206,
195,
196,
183,
210,
163,
150,
171,
162,
173,
131,
149,
132,
154,
125,
116,
120,
110,
104,
96,
133,
102,
94,
101,
103,
84,
87,
90,
73,
67,
73,
64,
74,
71,
62,
54,
45,
42,
34,
44,
46,
36,
32,
29,
24,
29,
17,
16,
11,
10,
9,
8,
4,
3,
3,
2,
1,
2,
0,
1,
1,
1,
1,
2,
1,
4,
1,
0,
0,
1,
3,
1,
1,
1,
2,
0,
1,
0,
1,
2,
0,
0,
0,
0,
0,
1,
1,
1,
1,
1,
0,
0,
0,
0,
0,
0,
0,
0,
0,
0,
0,
0,
1,
0,
0,
0,
1,
0,
0,
0,
1,
1,
1,
0,
0,
1,
0,
0,
1,
0,
0,
0,
0,
1,
0,
0,
0,
0,
0,
0,
0,
0,
2,
1,
0,
1,
1,
0,
0,
0,
0,
0,
1,
0,
0,
0,
0,
1,
1,
0,
0,
0,
0,
2,
0,
0,
1,
0,
0,
0,
0,
1,
1,
0,
1,
0,
0,
0,
1,
0,
0,
0,
1,
0,
0,
0,
0,
0,
0,
0,
0,
0,
0,
0,
0,
0,
0,
1,
1,
0,
0,
0,
0,
0,
0,
0,
0,
0,
0,
0,
1,
0,
0,
0,
0,
0,
0,
0,
1,
0,
0,
0,
0,
0,
0,
0,
0,
0,
0,
0,
0,
0,
0,
0,
0,
0,
0,
0,
0,
0,
0,
0,
0,
0,
0,
0,
0,
0,
0,
0,
0,
0,
0,
0,
0,
0,
0,
0,
0,
0,
1,
2,
0,
0,
0,
0,
0,
0,
0,
0,
0,
0,
0,
0,
1,
0,
0,
0,
1,
0,
0,
0,
0,
0,
0,
0,
0,
0,
0,
0,
0,
0,
0,
0,
0,
0,
0,
0,
0,
0,
0,
0,
0,
0,
0,
0,
0,
0,
0,
0,
0,
0,
0,
0,
0,
0,
0,
0,
0,
0,
0,
0,
0,
0,
0,
0,
0,
0,
0,
0,
0,
0,
0,
0,
0,
0,
0,
0,
0,
0,
0,
0,
0,
0,
0,
0,
0,
0,
0,
0,
0,
0,
0,
0,
0,
0,
0,
0,
0,
0,
0,
0,
0,
0,
0,
0,
0,
0,
0,
0,
0,
0,
0,
0,
0,
0,
0,
0,
0,
0,
0,
0,
0,
0,
0,
0,
0,
0,
0,
0,
0,
0,
0,
0,
0,
0,
0,
0,
0,
0,
0,
0,
0,
0,
0,
0,
0,
0,
0,
0,
0,
0,
0,
0,
0,
0,
0,
0,
0,
0,
0,
0,
0,
0,
0,
0,
0,
0,
0,
0,
0,
0,
0,
0,
0,
0,
0,
0,
0,
0,
0,
0,
0,
0,
0,
0,
0,
0,
0,
0,
0,
0,
0,
0,
0,
0,
0,
0,
0,
0,
0,
0,
0,
0,
0,
0,
0,
0,
0,
0,
0,
0,
0,
0,
0,
0,
0,
0,
0,
0,
0,
0,
0,
0,
0,
0,
0,
0,
0,
0,
0,
0,
0,
0,
0,
0,
0,
0,
0,
0,
0,
0,
0,
0,
0,
0,
0,
0,
0,
0,
0,
0,
0,
0,
0,
0,
0,
0,
0,
0,
0,
0,
0,
0,
0,
0,
0,
0,
0,
0,
0,
0,
0,
0,
0,
0,
0,
0,
0,
0,
0,
0,
0,
0,
0,
0,
0,
0,
0,
0,
0,
0,
0,
0,
0,
0,
0,
0,
0,
0,
0,
0,
0,
0,
0,
0,
0,
0,
0,
0,
0,
0,
0,
0,
0,
0,
0,
0,
0,
0,
0,
0,
0,
0,
0,
0,
0,
0,
0,
0,
0,
0,
0,
0,
0,
0,
0,
0,
0,
0,
0,
0,
0,
0,
0,
0,
0,
0,
0,
0,
0,
0,
0,
0,
0,
0,
0,
0,
0,
0,
0,
0,
0,
0,
0,
0,
0,
0,
0,
0,
0,
0,
0,
0,
0,
0,
0,
0,
0,
0,
0,
0,
0,
0,
0,
0,
0,
0,
0,
0,
0,
0,
0,
0,
0,
0,
0,
0,
0,
0,
0,
0,
0,
0,
0,
0,
0,
0,
0,
0,
0,
0,
0,
0,
0,
0,
0,
0,
0,
0,
0,
0,
0,
0,
0,
0,
0,
0,
0,
0,
0,
0,
0,
0,
0,
0,
0,
0,
0,
0,
0,
0,
0,
0,
0,
0,
0,
0,
0,
0,
0,
0,
0,
0,
0,
0,
0,
0,
0,
0,
0,
0,
0,
0,
0,
0,
0,
0,
0,
0,
0,
0,
0,
0,
0,
0,
0,
0,
0,
0,
0,
0,
0,
0,
0,
0,
0,
0,
0,
0,
0,
0,
0,
0,
0,
0,
0,
0,
0,
0,
0,
0,
0,
0,
0,
0,
0,
0,
0,
0,
0,
0,
0,
0,
0,
0,
0,
0,
0,
0,
0,
0,
0,
0,
0,
0,
0,
0,
0,
0,
0,
0,
0,
0,
0,
0,
0,
0,
0,
0,
0,
0,
0,
0,
0,
0,
0,
0,
0,
0,
0,
0,
0,
0,
0,
0,
0,
0,
0,
0,
0,
0,
0,
0,
0,
0,
0,
0,
0,
0,
0,
0,
0,
0,
0,
0,
0,
0,
0,
0,
0,
0,
0,
0,
0,
0,
0,
0,
0,
0,
0,
0,
0,
0,
0,
0,
0,
0,
0,
0,
0,
0,
0,
0,
0,
0,
0,
0,
0,
0,
0,
0,
0,
0,
0,
0,
0,
0,
0,
0,
0,
0,
0,
0,
0,
0,
0,
0,
0,
0,
0,
0,
0,
0,
0,
0,
0,
0,
0,
0,
0,
0,
0,
0,
0,
0,
0,
0,
0,
0,
0,
0,
0,
0,
0,
0,
0,
0,
0,
0,
0,
0,
0,
0,
0,
0,
0,
0,
#ENDOFDATA   :