File: N132962/Standards/15 keV/Mn std.msa
#FORMAT      : EMSA/MAS Spectral Data File
#VERSION     : 1.0
#TITLE       : Mn standard for 'N132962' detector
#NPOINTS     : 4096
#NCOLUMNS    : 1
#XUNITS      : eV
#YUNITS      : counts
#DATATYPE    : Y
#SIGNALTYPE  : EDS
#XLABEL      : Energy (eV)
#YLABEL      : Counts
#XPERCHAN -eV: 9.99778
#OFFSET   -eV: 1.69135
#CHOFFSET    : 0
#DATE        : 30-Sep-2025
#TIME        : 17:14:00
#OWNER       : Unknown
#ELEVANGLE   : 35
#BEAMKV   -kV: 15
#LIVETIME  -s: 1200.72
#REALTIME  -s: 1285.91
#PROBECUR -nA: 1.23069
##WORKING -mm: 15
##D2STDCMP   : Mn,(Mn:100.0000)
##SIMILAR    : 7.4
#SPECTRUM    :
123,
146,
44,
155,
935,
3711,
10479,
25864,
57522,
73176,
51213,
40676,
44824,
49577,
56389,
76757,
147822,
313320,
465181,
458624,
564739,
716195,
440656,
131944,
37342,
19321,
15810,
15813,
17137,
18479,
20114,
21733,
21374,
21712,
22252,
22656,
23375,
24437,
25104,
25796,
26916,
28949,
32184,
33927,
32409,
30970,
30286,
30332,
29887,
29620,
29727,
29956,
29670,
29855,
30327,
30346,
31437,
32684,
33955,
34047,
33206,
31087,
29083,
28190,
27793,
27694,
28135,
27995,
28236,
27623,
27299,
27027,
27094,
27274,
26758,
26895,
27076,
27067,
26506,
26203,
25661,
25793,
25338,
25070,
24946,
25029,
25262,
25366,
25175,
24461,
23977,
23699,
23334,
23204,
23118,
22985,
22805,
22437,
22631,
22179,
22030,
21828,
21707,
21315,
21230,
21131,
20842,
20565,
20467,
20187,
20214,
19578,
19679,
19756,
19307,
19207,
18758,
18820,
18287,
18437,
18443,
18451,
18557,
18558,
18278,
17491,
17587,
17159,
17060,
16638,
16803,
16667,
16594,
16508,
16529,
16661,
16966,
17880,
18612,
17914,
16897,
16073,
15435,
15011,
14907,
14805,
14689,
14638,
14688,
14823,
14878,
15016,
14500,
14089,
13849,
13791,
13647,
13386,
13924,
13389,
13310,
13094,
13106,
12808,
12970,
12828,
12660,
12545,
12596,
12212,
12088,
12098,
12182,
11734,
11746,
11536,
11476,
11478,
11303,
11122,
11212,
11127,
11072,
11062,
11372,
11398,
11547,
11772,
12309,
12999,
15231,
23576,
52697,
133945,
295795,
513764,
675413,
667377,
497807,
280473,
122707,
46084,
18917,
11694,
10336,
9967,
9725,
9774,
10246,
10558,
11592,
14256,
20490,
34307,
56970,
82091,
95737,
88833,
65879,
40225,
21214,
11701,
8303,
7069,
6779,
6712,
6421,
6638,
6437,
6446,
6452,
6348,
6587,
6439,
6428,
6591,
6474,
6442,
6382,
6353,
6221,
6068,
6123,
6068,
5938,
5930,
6095,
6028,
5950,
5934,
5822,
5759,
5645,
5568,
5681,
5580,
5406,
5427,
5432,
5473,
5290,
5299,
5347,
5274,
5272,
5302,
5269,
5365,
5315,
5208,
5218,
5059,
5084,
4832,
4852,
4664,
4750,
4749,
4673,
4772,
4739,
4510,
4599,
4506,
4554,
4555,
4481,
4374,
4441,
4504,
4233,
4250,
4243,
4251,
4259,
4273,
4145,
3997,
4018,
3853,
4084,
3949,
3882,
3843,
3801,
3804,
3693,
3623,
3743,
3735,
3761,
3701,
3593,
3574,
3506,
3599,
3520,
3459,
3360,
3421,
3290,
3337,
3350,
3383,
3185,
3216,
3261,
3298,
3207,
3066,
3121,
2941,
2960,
2936,
3006,
3005,
2803,
2880,
2882,
2788,
2782,
2780,
2814,
2722,
2628,
2718,
2626,
2563,
2706,
2688,
2713,
2737,
2621,
2486,
2602,
2533,
2450,
2329,
2302,
2344,
2278,
2188,
2239,
2180,
2166,
2177,
2129,
2058,
2098,
2048,
2062,
2012,
2003,
1996,
1943,
2028,
1948,
1950,
1842,
1860,
1757,
1771,
1759,
1691,
1671,
1697,
1745,
1627,
1720,
1837,
1866,
1964,
2094,
2102,
2021,
1883,
1751,
1596,
1483,
1448,
1374,
1427,
1286,
1331,
1351,
1316,
1258,
1241,
1245,
1234,
1269,
1333,
1247,
1201,
1264,
1156,
1143,
1095,
1056,
1027,
1062,
1038,
1009,
934,
947,
901,
869,
931,
839,
859,
840,
802,
858,
791,
797,
811,
774,
724,
721,
695,
671,
680,
660,
644,
627,
596,
601,
615,
573,
594,
525,
547,
562,
469,
470,
457,
449,
457,
460,
410,
410,
391,
402,
405,
345,
367,
344,
298,
324,
297,
307,
270,
293,
254,
283,
267,
218,
221,
216,
229,
186,
192,
175,
161,
157,
153,
119,
124,
135,
110,
95,
82,
86,
69,
70,
78,
54,
45,
35,
26,
23,
16,
16,
9,
15,
8,
15,
12,
7,
14,
5,
8,
9,
11,
11,
9,
11,
6,
17,
12,
11,
6,
3,
7,
9,
9,
4,
10,
7,
8,
2,
8,
6,
1,
10,
5,
8,
11,
8,
6,
7,
8,
6,
7,
6,
3,
6,
7,
8,
8,
6,
4,
3,
4,
9,
6,
6,
3,
4,
2,
6,
5,
5,
11,
5,
6,
7,
8,
5,
8,
9,
10,
6,
7,
10,
6,
3,
8,
4,
7,
8,
6,
7,
2,
3,
5,
8,
6,
6,
3,
7,
7,
13,
2,
3,
8,
5,
6,
6,
5,
7,
8,
3,
2,
3,
8,
5,
3,
3,
8,
4,
6,
5,
3,
6,
5,
6,
2,
1,
3,
4,
4,
1,
1,
10,
6,
6,
3,
2,
4,
4,
1,
1,
3,
1,
3,
1,
3,
6,
3,
7,
3,
3,
2,
5,
0,
1,
1,
3,
0,
1,
3,
5,
2,
1,
3,
1,
1,
1,
0,
1,
3,
1,
1,
1,
3,
0,
3,
1,
0,
0,
1,
2,
1,
0,
2,
0,
1,
0,
0,
1,
2,
0,
0,
1,
0,
1,
0,
3,
0,
2,
2,
0,
0,
0,
0,
0,
0,
2,
1,
0,
0,
1,
1,
0,
1,
0,
0,
0,
0,
1,
1,
0,
0,
1,
0,
0,
0,
0,
0,
1,
0,
0,
0,
1,
0,
0,
2,
0,
0,
0,
1,
1,
0,
0,
2,
0,
0,
0,
0,
0,
0,
0,
0,
0,
0,
0,
1,
0,
0,
1,
1,
0,
0,
0,
0,
0,
0,
0,
1,
1,
0,
0,
0,
0,
0,
0,
0,
0,
0,
0,
1,
0,
0,
0,
0,
0,
0,
0,
0,
0,
1,
0,
0,
0,
0,
0,
0,
0,
0,
0,
0,
0,
0,
0,
0,
0,
0,
0,
0,
0,
0,
0,
0,
1,
0,
0,
0,
0,
0,
0,
0,
0,
0,
0,
0,
0,
0,
0,
0,
0,
0,
0,
1,
0,
0,
1,
0,
1,
0,
0,
0,
0,
0,
0,
0,
0,
0,
0,
0,
0,
0,
0,
0,
0,
0,
0,
0,
0,
0,
0,
0,
0,
0,
0,
0,
0,
0,
0,
0,
0,
0,
0,
0,
0,
0,
0,
0,
0,
0,
0,
0,
0,
0,
0,
0,
0,
1,
0,
0,
0,
0,
0,
0,
0,
0,
0,
0,
0,
0,
0,
0,
0,
0,
0,
0,
0,
0,
0,
0,
0,
0,
0,
0,
0,
0,
0,
0,
0,
0,
0,
0,
0,
0,
0,
0,
0,
0,
0,
0,
0,
0,
0,
0,
0,
0,
0,
0,
0,
0,
0,
0,
0,
0,
0,
0,
0,
0,
0,
0,
0,
0,
0,
0,
0,
0,
0,
0,
0,
0,
0,
0,
0,
0,
0,
0,
0,
0,
0,
1,
0,
0,
0,
0,
0,
0,
0,
0,
0,
0,
0,
0,
0,
0,
0,
0,
0,
0,
0,
0,
0,
0,
0,
0,
0,
0,
0,
0,
0,
0,
0,
0,
0,
0,
0,
0,
0,
0,
0,
0,
0,
0,
0,
0,
0,
0,
0,
0,
0,
0,
0,
0,
0,
0,
0,
0,
0,
0,
0,
0,
0,
0,
0,
0,
0,
0,
0,
0,
0,
0,
0,
0,
0,
0,
0,
0,
0,
0,
0,
0,
0,
0,
0,
0,
0,
0,
0,
0,
0,
0,
0,
0,
0,
0,
0,
0,
0,
0,
0,
0,
0,
0,
1,
0,
0,
0,
0,
0,
0,
0,
0,
0,
0,
0,
0,
0,
0,
0,
0,
0,
0,
0,
0,
0,
0,
0,
0,
0,
0,
0,
0,
0,
0,
0,
0,
0,
0,
0,
0,
0,
0,
0,
0,
0,
0,
0,
0,
0,
0,
0,
0,
0,
0,
0,
0,
0,
0,
0,
0,
0,
0,
0,
0,
0,
0,
0,
0,
0,
0,
0,
0,
0,
0,
0,
0,
0,
0,
0,
0,
0,
0,
0,
0,
0,
0,
0,
0,
0,
0,
0,
0,
0,
0,
0,
0,
0,
0,
0,
0,
0,
0,
0,
0,
0,
0,
0,
0,
0,
0,
0,
0,
0,
0,
0,
0,
0,
0,
0,
0,
0,
0,
0,
0,
0,
0,
0,
0,
0,
0,
0,
0,
0,
0,
0,
0,
0,
0,
0,
0,
0,
0,
0,
0,
0,
0,
0,
0,
0,
0,
0,
0,
0,
0,
0,
0,
0,
0,
0,
0,
0,
0,
0,
0,
0,
0,
0,
0,
0,
0,
0,
0,
0,
0,
0,
0,
0,
0,
0,
0,
0,
0,
0,
0,
0,
0,
0,
0,
0,
0,
0,
0,
0,
0,
0,
0,
0,
0,
0,
0,
0,
0,
0,
0,
0,
0,
0,
0,
0,
0,
0,
0,
0,
0,
0,
0,
0,
0,
0,
0,
0,
0,
0,
0,
0,
0,
0,
0,
0,
0,
0,
0,
0,
0,
0,
0,
0,
0,
0,
0,
0,
0,
0,
0,
0,
0,
0,
0,
0,
0,
0,
0,
0,
0,
0,
0,
0,
0,
0,
0,
0,
0,
0,
0,
0,
0,
0,
0,
0,
0,
0,
0,
0,
0,
0,
0,
0,
0,
0,
0,
0,
0,
0,
0,
0,
0,
0,
0,
0,
0,
0,
0,
0,
0,
0,
0,
0,
0,
0,
0,
0,
0,
0,
0,
0,
0,
0,
#ENDOFDATA   :