File: N132962/Standards/15 keV/Mo std.msa
#FORMAT      : EMSA/MAS Spectral Data File
#VERSION     : 1.0
#TITLE       : Mo standard for 'N132962' detector
#NPOINTS     : 4096
#NCOLUMNS    : 1
#XUNITS      : eV
#YUNITS      : counts
#DATATYPE    : Y
#SIGNALTYPE  : EDS
#XLABEL      : Energy (eV)
#YLABEL      : Counts
#XPERCHAN -eV: 9.99778
#OFFSET   -eV: 1.69135
#CHOFFSET    : 0
#DATE        : 26-Sep-2025
#TIME        : 14:32:00
#OWNER       : Unknown
#ELEVANGLE   : 35
#BEAMKV   -kV: 15
#LIVETIME  -s: 2162.79
#REALTIME  -s: 2376.99
#PROBECUR -nA: 1.22024
##WORKING -mm: 15
##D2STDCMP   : Mo,(Mo:100.0000)
##SIMILAR    : 1.1
#SPECTRUM    :
235,
255,
268,
2108,
26419,
185727,
441039,
353853,
169761,
102045,
59719,
42870,
42763,
41640,
38065,
43668,
64622,
103919,
124582,
94315,
64103,
68001,
74689,
70724,
66782,
64944,
65656,
68595,
73481,
75810,
75894,
77883,
79903,
81634,
84452,
85883,
87978,
88512,
89163,
90129,
90897,
91594,
93053,
93081,
94863,
95277,
95716,
97330,
98751,
100565,
100445,
99645,
98437,
97490,
97774,
98444,
101176,
106468,
109519,
108809,
104460,
98658,
92545,
91349,
97731,
119338,
161868,
197310,
183843,
149916,
138818,
149152,
178018,
286679,
691813,
1656985,
2709581,
2734188,
1921841,
1438643,
1289265,
968419,
594323,
367483,
237721,
153423,
105998,
84797,
70989,
56732,
46333,
43122,
45400,
51699,
57691,
56093,
48607,
42030,
39079,
38031,
37808,
38316,
38230,
38179,
38267,
38213,
38290,
37703,
38755,
38778,
38950,
38739,
38564,
38781,
38665,
38443,
38691,
38422,
38029,
38353,
38304,
38408,
38603,
38433,
38089,
38679,
37765,
37852,
37766,
37288,
37352,
37400,
37243,
37161,
37267,
36867,
36725,
36807,
36641,
36349,
36320,
36272,
36128,
35972,
35738,
35723,
35679,
35713,
35539,
35581,
36385,
37359,
38473,
39450,
39621,
39057,
38354,
38170,
36935,
35653,
35095,
34032,
33600,
33082,
32804,
32312,
31970,
31750,
31322,
31523,
30715,
30657,
30590,
30470,
30390,
30345,
29961,
29936,
29923,
29848,
29928,
29517,
29644,
28881,
28551,
28515,
28272,
28007,
28010,
27577,
27610,
27431,
27269,
27087,
27269,
26841,
26832,
26333,
26332,
26606,
26022,
25643,
25581,
25356,
24872,
24997,
24992,
24804,
24693,
24582,
24879,
25571,
25808,
26449,
25924,
25336,
24547,
23628,
23146,
22688,
22963,
22509,
22594,
22120,
21776,
22112,
22115,
21707,
21525,
21454,
21387,
21196,
21067,
20962,
20927,
20888,
20570,
20498,
20358,
20267,
19907,
19789,
19579,
19493,
19297,
19368,
19173,
19373,
19292,
19269,
18921,
18801,
18094,
18362,
17838,
17902,
17781,
17790,
17243,
17269,
17235,
17154,
17065,
16717,
16935,
16637,
16249,
16405,
16516,
16345,
16126,
16103,
15917,
15825,
15491,
15531,
15288,
15531,
15250,
15016,
14735,
14836,
14805,
14550,
14637,
14207,
14344,
13880,
14062,
14086,
13780,
13649,
13710,
13549,
13371,
13311,
13155,
13064,
12945,
12981,
12787,
12716,
12720,
12273,
12313,
12197,
12175,
12303,
12122,
11815,
11792,
11649,
11526,
11583,
11465,
11390,
11195,
11192,
11154,
11053,
10810,
10874,
10838,
10743,
10649,
10439,
10422,
10390,
10208,
10041,
10122,
9971,
9853,
9767,
9657,
9553,
9555,
9408,
9283,
9371,
9204,
9002,
9098,
8951,
8813,
8947,
8671,
8735,
8558,
8442,
8245,
8323,
8192,
8091,
8045,
8077,
7936,
7757,
7685,
7584,
7609,
7510,
7282,
7344,
7109,
7207,
7112,
6943,
6951,
6730,
6688,
6774,
6652,
6621,
6618,
6523,
6362,
6182,
6291,
6055,
5918,
6026,
6000,
5914,
5748,
5670,
5574,
5639,
5433,
5552,
5363,
5094,
5261,
5241,
5041,
5043,
4928,
5063,
4905,
4874,
4676,
4709,
4530,
4560,
4502,
4473,
4360,
4218,
4358,
4069,
4082,
4129,
4004,
4037,
3843,
3915,
3718,
3683,
3553,
3579,
3640,
3518,
3424,
3473,
3251,
3273,
3248,
3216,
3063,
3115,
3076,
3019,
2897,
2890,
2801,
2693,
2795,
2621,
2590,
2630,
2468,
2420,
2424,
2413,
2303,
2236,
2246,
2182,
2152,
2037,
2026,
1982,
1925,
1815,
1823,
1773,
1676,
1638,
1661,
1627,
1536,
1572,
1572,
1498,
1468,
1312,
1322,
1301,
1225,
1227,
1187,
1096,
1106,
1087,
1015,
962,
945,
892,
893,
855,
788,
798,
746,
723,
645,
611,
559,
561,
466,
489,
436,
396,
394,
334,
297,
258,
220,
160,
139,
98,
84,
77,
55,
46,
30,
35,
40,
56,
41,
33,
34,
22,
34,
22,
25,
15,
34,
18,
27,
26,
28,
29,
27,
15,
21,
15,
23,
28,
23,
19,
17,
25,
17,
22,
16,
21,
17,
20,
27,
19,
28,
22,
16,
19,
14,
12,
11,
21,
16,
14,
14,
14,
11,
16,
12,
14,
14,
9,
14,
13,
11,
12,
15,
9,
18,
18,
18,
14,
15,
13,
18,
21,
13,
11,
20,
7,
16,
12,
8,
10,
15,
8,
12,
12,
7,
10,
10,
8,
6,
13,
6,
15,
10,
14,
11,
14,
12,
5,
9,
6,
7,
11,
12,
9,
7,
4,
11,
9,
5,
3,
5,
8,
8,
10,
6,
6,
10,
8,
5,
9,
5,
5,
2,
5,
9,
4,
1,
11,
4,
5,
7,
8,
4,
6,
7,
2,
8,
4,
5,
4,
6,
6,
5,
4,
4,
3,
3,
1,
4,
5,
3,
5,
6,
5,
5,
6,
5,
2,
4,
5,
3,
5,
3,
6,
4,
4,
3,
2,
2,
2,
3,
0,
4,
4,
7,
7,
8,
7,
4,
0,
3,
3,
3,
1,
1,
2,
3,
4,
4,
2,
1,
1,
1,
3,
1,
0,
3,
3,
1,
5,
5,
1,
1,
1,
2,
4,
2,
0,
1,
0,
2,
1,
3,
1,
1,
0,
1,
0,
0,
4,
4,
1,
0,
0,
1,
3,
4,
0,
1,
3,
2,
0,
1,
1,
3,
1,
4,
1,
0,
2,
0,
2,
2,
2,
3,
0,
1,
0,
1,
1,
0,
1,
0,
3,
1,
1,
0,
3,
1,
0,
1,
0,
1,
2,
1,
1,
1,
3,
0,
0,
1,
1,
2,
1,
1,
1,
2,
0,
1,
1,
0,
0,
0,
1,
2,
1,
0,
0,
0,
2,
0,
0,
0,
0,
0,
1,
1,
0,
2,
1,
0,
0,
1,
0,
1,
0,
0,
0,
1,
1,
1,
0,
2,
2,
0,
1,
0,
0,
0,
0,
0,
1,
0,
0,
0,
0,
0,
0,
1,
0,
0,
0,
0,
0,
0,
0,
0,
1,
1,
0,
0,
1,
0,
0,
0,
0,
0,
0,
0,
0,
0,
0,
0,
0,
0,
0,
2,
1,
0,
0,
0,
1,
0,
0,
1,
0,
0,
0,
1,
0,
1,
0,
0,
0,
0,
0,
1,
0,
0,
0,
0,
1,
0,
0,
0,
0,
0,
0,
0,
0,
0,
0,
0,
0,
0,
0,
1,
0,
0,
0,
0,
0,
0,
1,
0,
0,
0,
0,
0,
0,
0,
0,
0,
0,
0,
0,
0,
0,
0,
0,
0,
0,
0,
0,
0,
0,
0,
0,
0,
0,
0,
0,
0,
0,
1,
0,
0,
0,
0,
0,
0,
0,
0,
0,
0,
0,
0,
0,
0,
0,
0,
0,
0,
0,
0,
0,
0,
0,
0,
0,
0,
0,
0,
0,
0,
0,
0,
0,
0,
0,
0,
0,
0,
0,
0,
0,
0,
0,
0,
0,
0,
0,
0,
0,
0,
0,
0,
0,
0,
0,
0,
0,
0,
0,
0,
0,
0,
0,
0,
0,
0,
0,
0,
0,
0,
0,
0,
0,
0,
0,
0,
0,
0,
0,
0,
0,
0,
0,
0,
0,
0,
0,
0,
0,
0,
0,
0,
0,
0,
0,
0,
0,
0,
0,
0,
0,
0,
0,
0,
0,
0,
0,
0,
0,
0,
0,
0,
0,
0,
0,
0,
0,
0,
0,
0,
0,
0,
0,
0,
0,
0,
0,
0,
0,
0,
0,
0,
0,
0,
0,
0,
0,
0,
0,
0,
0,
0,
0,
0,
0,
0,
0,
0,
0,
0,
0,
0,
0,
0,
0,
0,
0,
0,
0,
0,
0,
0,
0,
0,
0,
0,
0,
0,
0,
0,
0,
0,
0,
0,
0,
0,
0,
0,
0,
0,
0,
0,
0,
0,
0,
0,
0,
0,
0,
0,
0,
0,
0,
0,
0,
0,
0,
0,
0,
0,
0,
0,
0,
0,
0,
0,
0,
0,
0,
0,
0,
0,
0,
0,
0,
0,
0,
0,
0,
0,
0,
0,
0,
0,
0,
0,
0,
0,
0,
0,
0,
0,
0,
0,
0,
0,
0,
0,
0,
0,
0,
0,
0,
0,
0,
0,
0,
0,
0,
0,
0,
0,
0,
0,
0,
0,
0,
0,
0,
0,
0,
0,
0,
0,
0,
0,
0,
0,
0,
0,
0,
0,
0,
0,
0,
0,
0,
0,
0,
0,
0,
0,
0,
0,
0,
0,
0,
0,
0,
0,
0,
0,
0,
0,
0,
0,
0,
0,
0,
0,
0,
0,
0,
0,
0,
0,
0,
0,
0,
0,
0,
0,
0,
0,
0,
0,
0,
0,
0,
0,
0,
0,
0,
0,
0,
0,
0,
0,
0,
0,
0,
0,
0,
0,
0,
0,
0,
0,
0,
0,
0,
0,
0,
0,
0,
0,
0,
0,
0,
0,
0,
0,
0,
0,
0,
0,
0,
0,
0,
0,
0,
0,
0,
0,
0,
0,
0,
0,
0,
0,
0,
0,
0,
0,
0,
0,
0,
0,
0,
0,
0,
0,
0,
0,
0,
0,
0,
0,
0,
0,
0,
0,
0,
0,
0,
0,
0,
0,
0,
0,
0,
0,
0,
0,
0,
0,
0,
0,
0,
0,
0,
0,
0,
0,
0,
0,
0,
0,
0,
0,
0,
0,
0,
0,
0,
0,
0,
0,
0,
0,
0,
#ENDOFDATA   :