File: N132962/Standards/15 keV/Molybdenite std.msa
#FORMAT      : EMSA/MAS Spectral Data File
#VERSION     : 1.0
#TITLE       : 'Molybdenite' standard for 'N132962' detector
#NPOINTS     : 4096
#NCOLUMNS    : 1
#XUNITS      : eV
#YUNITS      : counts
#DATATYPE    : Y
#SIGNALTYPE  : EDS
#XLABEL      : Energy (eV)
#YLABEL      : Counts
#XPERCHAN -eV: 9.99778
#OFFSET   -eV: 1.69135
#CHOFFSET    : 0
#DATE        : 28-Sep-2025
#TIME        : 20:33:00
#OWNER       : Unknown
#ELEVANGLE   : 35
#BEAMKV   -kV: 15
#LIVETIME  -s: 1680.31
#REALTIME  -s: 1839.165
#PROBECUR -nA: 1.21285
##WORKING -mm: 15
##D2STDCMP   : 'Molybdenite',(S:40.0575),(Mo:59.9425)
##SIMILAR    : 1.4
#SPECTRUM    :
172,
190,
204,
2066,
13172,
31281,
41021,
57852,
124476,
151471,
71689,
25755,
21035,
21524,
22426,
26686,
37163,
61238,
93005,
89801,
57190,
46120,
48079,
49004,
49453,
47260,
47898,
50230,
52770,
54346,
55240,
55725,
56664,
58016,
59029,
60004,
60713,
61347,
61883,
62820,
63039,
63932,
64253,
65186,
65131,
65800,
65926,
66112,
66686,
68129,
68380,
66840,
65551,
65061,
64279,
64821,
66052,
69709,
72850,
70972,
67367,
63457,
59986,
58649,
61327,
71633,
90466,
105911,
101848,
85912,
81787,
93665,
125582,
223018,
558272,
1450695,
2684854,
3070883,
2194411,
1199667,
746505,
538343,
386439,
260391,
153799,
85116,
53798,
42512,
36707,
30873,
26467,
25165,
26268,
29287,
32043,
31397,
28766,
25391,
24014,
23612,
23136,
23219,
23346,
23405,
23377,
23690,
23453,
23561,
23870,
23387,
23771,
23472,
23421,
23252,
23285,
23385,
23078,
23165,
23155,
23226,
22890,
23048,
22983,
22677,
22774,
22390,
22378,
22449,
22523,
22056,
22178,
22164,
22036,
21868,
21873,
21715,
21503,
21575,
21192,
21305,
20978,
20830,
21085,
21308,
21233,
21165,
20632,
20707,
21000,
20808,
21448,
23035,
25218,
27089,
27545,
26608,
24746,
23310,
22310,
21267,
20237,
19758,
19130,
18779,
18544,
18406,
18322,
17924,
18134,
17671,
17810,
17624,
17480,
17314,
17074,
17024,
16693,
16964,
16830,
16675,
16763,
16678,
16601,
16304,
16277,
15797,
16010,
15735,
15883,
15791,
15549,
15332,
15322,
14889,
14981,
14865,
15069,
14759,
14869,
14558,
14537,
14429,
14363,
14147,
14028,
14136,
13837,
13754,
13722,
13735,
13647,
13883,
14127,
14364,
14126,
13638,
13220,
13005,
12811,
12510,
12730,
12568,
12306,
12225,
12081,
12265,
11935,
11942,
11795,
11703,
11718,
11620,
11584,
11483,
11597,
11336,
11487,
11128,
11031,
10794,
10958,
10718,
10766,
10453,
10728,
10610,
10431,
10510,
10368,
10405,
10170,
10191,
9918,
9802,
9899,
9632,
9685,
9444,
9423,
9285,
9281,
9252,
9033,
9153,
9120,
8995,
8916,
8817,
8907,
8681,
8761,
8669,
8370,
8448,
8455,
8388,
8147,
8227,
8180,
8150,
8042,
7852,
7969,
7771,
7638,
7767,
7520,
7655,
7596,
7478,
7452,
7449,
7228,
7086,
7126,
7171,
7173,
7050,
7025,
6738,
6910,
6729,
6619,
6521,
6635,
6620,
6373,
6418,
6206,
6274,
6209,
6200,
6057,
6019,
6062,
5885,
6042,
5835,
5817,
5783,
5703,
5646,
5777,
5617,
5604,
5602,
5437,
5421,
5288,
5345,
5089,
5288,
5153,
5274,
5089,
5009,
4754,
4854,
4791,
4843,
4846,
4707,
4785,
4620,
4584,
4600,
4412,
4444,
4457,
4409,
4174,
4357,
4301,
4183,
4167,
4233,
4157,
4055,
3941,
4040,
3694,
3789,
3784,
3815,
3722,
3731,
3651,
3710,
3499,
3404,
3346,
3443,
3402,
3398,
3300,
3359,
3328,
3300,
3103,
3182,
3012,
3141,
2908,
2979,
3031,
2883,
2862,
2841,
2759,
2777,
2757,
2623,
2656,
2510,
2652,
2575,
2558,
2436,
2504,
2438,
2386,
2376,
2396,
2263,
2286,
2254,
2216,
2138,
2219,
2105,
2142,
1930,
1918,
1893,
1838,
1897,
1820,
1910,
1733,
1833,
1768,
1755,
1667,
1604,
1647,
1705,
1566,
1464,
1524,
1503,
1454,
1444,
1413,
1390,
1363,
1298,
1281,
1338,
1232,
1236,
1168,
1156,
1133,
1137,
1105,
1069,
1047,
1075,
1030,
986,
936,
944,
899,
902,
893,
857,
835,
833,
796,
750,
738,
727,
676,
696,
627,
637,
593,
600,
569,
552,
541,
488,
459,
489,
441,
487,
444,
423,
368,
391,
371,
333,
308,
298,
271,
277,
228,
234,
221,
202,
158,
140,
163,
103,
123,
99,
74,
60,
44,
41,
44,
22,
28,
18,
21,
13,
17,
14,
18,
14,
13,
7,
18,
11,
15,
16,
11,
15,
17,
13,
13,
13,
14,
9,
8,
8,
13,
7,
10,
12,
9,
11,
14,
8,
11,
9,
8,
10,
9,
7,
8,
9,
13,
8,
4,
2,
8,
5,
5,
11,
4,
4,
6,
3,
9,
5,
9,
8,
7,
3,
7,
4,
3,
3,
6,
4,
8,
5,
5,
5,
4,
4,
5,
2,
6,
6,
2,
6,
5,
4,
6,
6,
3,
1,
4,
6,
1,
6,
2,
3,
5,
5,
2,
3,
4,
0,
2,
5,
4,
3,
3,
4,
3,
7,
4,
5,
3,
3,
3,
5,
4,
1,
3,
3,
3,
2,
0,
4,
6,
0,
5,
2,
0,
4,
3,
4,
4,
2,
1,
3,
3,
4,
1,
2,
2,
3,
2,
5,
2,
2,
0,
1,
2,
0,
4,
2,
1,
1,
2,
0,
1,
0,
1,
2,
0,
2,
1,
2,
0,
1,
1,
0,
1,
1,
0,
1,
0,
2,
1,
2,
0,
2,
1,
0,
1,
1,
1,
3,
2,
1,
1,
0,
1,
1,
1,
1,
0,
0,
0,
1,
2,
0,
0,
1,
0,
0,
0,
0,
0,
0,
0,
3,
0,
1,
1,
1,
0,
1,
0,
0,
0,
1,
0,
0,
1,
0,
0,
1,
1,
1,
0,
1,
0,
0,
0,
1,
0,
0,
0,
0,
1,
0,
2,
0,
0,
1,
1,
0,
0,
1,
0,
0,
1,
1,
1,
0,
0,
0,
0,
1,
0,
0,
0,
0,
0,
0,
1,
0,
0,
0,
0,
0,
0,
0,
0,
0,
0,
0,
1,
0,
0,
0,
0,
0,
0,
0,
0,
0,
0,
0,
0,
0,
0,
0,
0,
0,
0,
0,
0,
0,
0,
0,
0,
0,
0,
0,
0,
0,
0,
0,
0,
0,
0,
0,
0,
0,
0,
0,
0,
0,
0,
0,
0,
1,
0,
0,
0,
0,
0,
0,
0,
0,
0,
0,
0,
0,
0,
0,
0,
0,
0,
1,
0,
0,
0,
0,
0,
0,
0,
0,
0,
0,
0,
1,
0,
0,
0,
0,
0,
1,
0,
0,
0,
0,
0,
0,
0,
0,
0,
1,
0,
0,
0,
0,
0,
0,
0,
0,
0,
0,
0,
0,
0,
0,
0,
0,
0,
0,
0,
0,
0,
0,
0,
0,
0,
0,
0,
0,
0,
0,
0,
0,
0,
0,
0,
0,
0,
0,
0,
0,
0,
0,
0,
0,
0,
0,
0,
0,
0,
0,
0,
0,
0,
0,
0,
0,
0,
0,
0,
0,
0,
0,
0,
0,
0,
0,
0,
0,
0,
0,
0,
0,
0,
0,
0,
0,
0,
0,
0,
0,
0,
0,
0,
0,
0,
0,
0,
0,
0,
0,
0,
0,
0,
0,
0,
0,
0,
0,
0,
0,
0,
0,
0,
0,
0,
0,
0,
0,
0,
0,
0,
0,
0,
0,
0,
0,
0,
0,
0,
0,
0,
0,
0,
0,
0,
0,
0,
0,
0,
0,
0,
0,
0,
0,
0,
0,
0,
0,
0,
0,
0,
0,
0,
0,
0,
0,
0,
0,
0,
0,
0,
0,
0,
0,
0,
0,
0,
0,
0,
0,
0,
0,
0,
0,
0,
0,
0,
0,
0,
0,
0,
0,
0,
0,
0,
0,
0,
0,
0,
0,
0,
0,
0,
0,
0,
0,
0,
0,
0,
0,
0,
0,
0,
0,
0,
0,
0,
0,
0,
0,
0,
0,
0,
0,
0,
0,
0,
0,
0,
0,
0,
0,
0,
0,
0,
0,
0,
0,
0,
0,
0,
0,
0,
0,
0,
0,
0,
0,
0,
0,
0,
0,
0,
0,
0,
0,
0,
0,
0,
0,
0,
0,
0,
0,
0,
0,
0,
0,
0,
0,
0,
0,
0,
0,
0,
0,
0,
0,
0,
0,
0,
0,
0,
0,
0,
0,
0,
0,
0,
0,
0,
0,
0,
0,
0,
0,
0,
0,
0,
0,
0,
0,
0,
0,
0,
0,
0,
0,
0,
0,
0,
0,
0,
0,
0,
0,
0,
0,
0,
0,
0,
0,
0,
0,
0,
0,
0,
0,
0,
0,
0,
0,
0,
0,
0,
0,
0,
0,
0,
0,
0,
0,
0,
0,
0,
0,
0,
0,
0,
0,
0,
0,
0,
0,
0,
0,
0,
0,
0,
0,
0,
0,
0,
0,
0,
0,
0,
0,
0,
0,
0,
0,
0,
0,
0,
0,
0,
0,
0,
0,
0,
0,
0,
0,
0,
0,
0,
0,
0,
0,
0,
0,
0,
0,
0,
0,
0,
0,
0,
0,
0,
0,
0,
0,
0,
0,
0,
0,
0,
0,
0,
0,
0,
0,
0,
0,
0,
0,
0,
0,
0,
0,
0,
0,
0,
0,
0,
0,
0,
0,
0,
0,
0,
0,
0,
0,
0,
0,
0,
0,
0,
0,
0,
0,
0,
0,
0,
0,
0,
0,
0,
0,
0,
0,
0,
0,
0,
0,
0,
0,
0,
0,
0,
0,
0,
0,
0,
0,
0,
0,
0,
0,
0,
0,
0,
0,
0,
0,
0,
0,
0,
0,
0,
0,
0,
0,
0,
0,
0,
0,
0,
0,
0,
0,
0,
0,
0,
0,
0,
0,
0,
0,
0,
0,
0,
0,
0,
0,
0,
0,
0,
0,
0,
0,
0,
0,
0,
0,
0,
0,
0,
0,
0,
0,
0,
0,
#ENDOFDATA   :