File: N132962/Standards/15 keV/NaF std.msa
#FORMAT      : EMSA/MAS Spectral Data File
#VERSION     : 1.0
#TITLE       : NaF standard for 'N132962' detector
#NPOINTS     : 4096
#NCOLUMNS    : 1
#XUNITS      : eV
#YUNITS      : counts
#DATATYPE    : Y
#SIGNALTYPE  : EDS
#XLABEL      : Energy (eV)
#YLABEL      : Counts
#XPERCHAN -eV: 9.99778
#OFFSET   -eV: 1.69135
#CHOFFSET    : 0
#DATE        : 21-Mar-2025
#TIME        : 14:21:00
#OWNER       : Unknown
#ELEVANGLE   : 35
#BEAMKV   -kV: 15
#LIVETIME  -s: 958.809
#REALTIME  -s: 1032.42
#PROBECUR -nA: 1.03702
##WORKING -mm: 15
##D2STDCMP   : NaF,(F:45.2470),(Na:54.7530)
##SIMILAR    : 1.3
#SPECTRUM    :
105,
104,
54,
122,
616,
2141,
5304,
11017,
22824,
28831,
20745,
16579,
17686,
19979,
22250,
25589,
30114,
35672,
42372,
66150,
202557,
799512,
1766549,
1566158,
523717,
74371,
15326,
13024,
14973,
18070,
23228,
36845,
110514,
462862,
1153781,
1290686,
613828,
131744,
19344,
7940,
7095,
7499,
8511,
10089,
12630,
14118,
12092,
9729,
8712,
8691,
9034,
9007,
8958,
9426,
9956,
11778,
15853,
18505,
16661,
12826,
10402,
9493,
8578,
8271,
8291,
8202,
8468,
9003,
9985,
11221,
10973,
9478,
8520,
7973,
7778,
7972,
7731,
7908,
7733,
7660,
7634,
7680,
7439,
7367,
7219,
7401,
7412,
7145,
7182,
6920,
6945,
6913,
6914,
6775,
6680,
6665,
6545,
6470,
6408,
6336,
6398,
6180,
6140,
6158,
6051,
6011,
5845,
5973,
5755,
5722,
5604,
5694,
5485,
5438,
5561,
5546,
5204,
5418,
5215,
5280,
5195,
5044,
5265,
5202,
4904,
4886,
4773,
4924,
4781,
4735,
4642,
4702,
4564,
4403,
4486,
4433,
4502,
4356,
4276,
4335,
4273,
4171,
4165,
4051,
4167,
3964,
4013,
3855,
3874,
3863,
3841,
3737,
3831,
3734,
3792,
3613,
3603,
3485,
3612,
3507,
3481,
3401,
3404,
3515,
3433,
3356,
3301,
3276,
3178,
3277,
3174,
3144,
3214,
3094,
3046,
2904,
2956,
2955,
2950,
2976,
2910,
2836,
2838,
2859,
2716,
2715,
2797,
2660,
2659,
2685,
2647,
2444,
2637,
2468,
2479,
2452,
2606,
2438,
2418,
2392,
2429,
2274,
2276,
2375,
2295,
2343,
2259,
2214,
2259,
2198,
2258,
2127,
2140,
2207,
2183,
2093,
1998,
2060,
2028,
2017,
1951,
2009,
1940,
2011,
1942,
1869,
1910,
1923,
1827,
1873,
1852,
1772,
1786,
1772,
1772,
1699,
1738,
1705,
1699,
1648,
1593,
1606,
1668,
1655,
1655,
1641,
1578,
1572,
1546,
1547,
1513,
1503,
1493,
1474,
1425,
1400,
1417,
1403,
1379,
1346,
1360,
1319,
1369,
1325,
1355,
1359,
1407,
1370,
1363,
1354,
1295,
1255,
1177,
1268,
1244,
1200,
1209,
1165,
1163,
1188,
1159,
1113,
1066,
1065,
1097,
1109,
1074,
1123,
1081,
1103,
1040,
1097,
1043,
1037,
987,
989,
942,
969,
933,
943,
947,
911,
902,
913,
894,
905,
902,
883,
876,
874,
808,
797,
854,
831,
799,
779,
794,
756,
749,
759,
736,
764,
794,
728,
700,
688,
690,
724,
769,
715,
682,
682,
684,
639,
637,
588,
639,
593,
618,
587,
618,
601,
597,
595,
572,
593,
592,
525,
584,
522,
557,
548,
518,
552,
524,
514,
497,
490,
543,
491,
450,
485,
476,
482,
497,
480,
461,
412,
439,
427,
453,
412,
398,
421,
355,
416,
425,
382,
396,
369,
395,
356,
406,
355,
373,
368,
354,
360,
331,
330,
299,
314,
291,
315,
301,
304,
282,
294,
244,
271,
288,
271,
262,
263,
246,
262,
245,
241,
236,
225,
257,
236,
224,
204,
229,
205,
249,
218,
203,
203,
194,
185,
195,
182,
173,
178,
194,
184,
182,
174,
169,
158,
165,
187,
150,
135,
144,
138,
139,
135,
154,
116,
132,
105,
99,
112,
102,
106,
125,
100,
93,
100,
99,
95,
86,
84,
92,
95,
69,
71,
72,
71,
72,
73,
58,
58,
75,
61,
53,
48,
65,
66,
42,
56,
42,
53,
43,
35,
37,
35,
35,
34,
27,
33,
23,
18,
26,
20,
25,
19,
16,
11,
14,
10,
13,
9,
8,
8,
4,
3,
1,
1,
0,
1,
1,
2,
1,
1,
0,
0,
0,
0,
0,
0,
1,
0,
1,
1,
0,
1,
0,
0,
1,
0,
0,
0,
0,
0,
0,
0,
0,
0,
0,
0,
0,
0,
1,
0,
0,
0,
0,
0,
0,
2,
0,
0,
0,
0,
0,
0,
0,
0,
0,
1,
1,
0,
0,
0,
0,
0,
0,
0,
0,
0,
0,
0,
0,
0,
0,
0,
0,
1,
0,
0,
0,
0,
0,
0,
0,
0,
1,
0,
0,
1,
1,
0,
0,
0,
0,
0,
2,
0,
0,
0,
0,
0,
0,
0,
0,
1,
0,
0,
0,
0,
0,
0,
0,
0,
0,
0,
1,
1,
0,
0,
0,
0,
0,
0,
0,
0,
0,
0,
0,
0,
0,
0,
0,
0,
0,
0,
0,
0,
0,
0,
0,
0,
0,
0,
1,
0,
0,
0,
0,
0,
0,
0,
0,
0,
0,
0,
0,
0,
1,
0,
0,
0,
0,
0,
0,
0,
0,
0,
0,
0,
0,
0,
0,
0,
0,
0,
0,
0,
0,
0,
0,
0,
0,
0,
0,
0,
0,
0,
0,
0,
0,
0,
0,
0,
0,
0,
0,
0,
0,
0,
0,
0,
0,
0,
0,
0,
0,
0,
0,
0,
0,
0,
0,
0,
0,
0,
1,
0,
0,
0,
0,
0,
0,
0,
0,
0,
0,
0,
0,
0,
0,
0,
0,
0,
0,
0,
0,
0,
0,
0,
0,
0,
0,
0,
0,
0,
0,
0,
0,
0,
0,
0,
0,
0,
0,
0,
0,
0,
0,
0,
0,
0,
0,
0,
0,
0,
0,
0,
0,
0,
0,
0,
0,
0,
1,
0,
0,
0,
0,
0,
0,
0,
0,
0,
0,
0,
0,
0,
0,
0,
0,
0,
0,
0,
0,
0,
0,
0,
0,
0,
0,
0,
0,
0,
0,
0,
0,
0,
0,
0,
0,
0,
0,
0,
0,
0,
0,
0,
0,
0,
0,
0,
0,
0,
0,
0,
0,
0,
0,
0,
0,
0,
0,
0,
0,
0,
0,
0,
0,
0,
0,
0,
0,
0,
0,
0,
0,
0,
0,
0,
0,
0,
0,
0,
0,
0,
0,
0,
0,
0,
0,
0,
0,
0,
0,
0,
0,
0,
0,
0,
0,
0,
0,
0,
0,
0,
0,
0,
0,
0,
0,
0,
0,
0,
0,
0,
0,
0,
0,
0,
0,
0,
0,
0,
0,
0,
0,
0,
0,
0,
0,
0,
0,
0,
0,
0,
0,
0,
0,
0,
0,
0,
0,
0,
0,
0,
0,
0,
0,
0,
0,
0,
0,
0,
0,
0,
0,
0,
0,
0,
0,
0,
0,
0,
0,
0,
0,
0,
0,
0,
0,
0,
0,
0,
0,
0,
0,
0,
0,
0,
0,
0,
0,
0,
0,
0,
0,
0,
0,
0,
0,
0,
0,
0,
0,
0,
0,
0,
0,
0,
0,
0,
0,
0,
0,
0,
0,
0,
0,
0,
0,
0,
0,
0,
0,
0,
0,
0,
0,
0,
0,
0,
0,
0,
0,
0,
0,
0,
0,
0,
0,
0,
0,
0,
0,
0,
0,
0,
0,
0,
0,
0,
0,
0,
0,
0,
0,
0,
0,
0,
0,
0,
0,
0,
0,
0,
0,
0,
0,
0,
0,
0,
0,
0,
0,
0,
0,
0,
0,
0,
0,
0,
0,
0,
0,
0,
0,
0,
0,
0,
0,
0,
0,
0,
0,
0,
0,
0,
0,
0,
0,
0,
0,
0,
0,
0,
0,
0,
0,
0,
0,
0,
0,
0,
0,
0,
0,
0,
0,
0,
0,
0,
0,
0,
0,
0,
0,
0,
0,
0,
0,
0,
0,
0,
0,
0,
0,
0,
0,
0,
0,
0,
0,
0,
0,
0,
0,
0,
0,
0,
0,
0,
0,
0,
0,
0,
0,
0,
0,
0,
0,
0,
0,
0,
0,
0,
0,
0,
0,
0,
0,
0,
0,
0,
0,
0,
0,
0,
0,
0,
0,
0,
0,
0,
0,
0,
0,
0,
0,
0,
0,
0,
0,
0,
0,
0,
0,
0,
0,
0,
0,
0,
0,
0,
0,
0,
0,
0,
0,
0,
0,
0,
0,
0,
0,
0,
0,
0,
0,
0,
0,
0,
0,
0,
0,
0,
0,
0,
0,
0,
0,
0,
0,
0,
0,
0,
0,
0,
0,
0,
0,
0,
0,
0,
0,
0,
0,
0,
0,
0,
0,
0,
0,
0,
0,
0,
0,
0,
0,
0,
0,
0,
0,
0,
0,
0,
0,
0,
0,
0,
0,
0,
0,
0,
0,
0,
0,
0,
0,
0,
0,
0,
0,
0,
0,
0,
0,
0,
0,
0,
0,
0,
0,
0,
0,
0,
0,
0,
0,
0,
0,
0,
0,
0,
0,
0,
0,
0,
0,
0,
0,
0,
0,
0,
0,
0,
0,
0,
0,
0,
0,
0,
0,
0,
0,
0,
0,
0,
0,
0,
0,
0,
0,
0,
0,
0,
0,
0,
0,
0,
0,
0,
0,
0,
0,
0,
0,
0,
0,
0,
0,
0,
0,
0,
0,
0,
0,
0,
0,
0,
0,
0,
0,
0,
0,
0,
0,
0,
0,
0,
0,
0,
0,
0,
0,
0,
0,
0,
0,
0,
0,
0,
0,
0,
0,
0,
0,
0,
0,
0,
0,
0,
0,
0,
0,
0,
0,
0,
0,
0,
0,
0,
0,
0,
0,
0,
0,
0,
0,
0,
0,
0,
#ENDOFDATA   :