File: N132962/Standards/15 keV/Nb std.msa
#FORMAT      : EMSA/MAS Spectral Data File
#VERSION     : 1.0
#TITLE       : Nb standard for 'N132962' detector
#NPOINTS     : 4096
#NCOLUMNS    : 1
#XUNITS      : eV
#YUNITS      : counts
#DATATYPE    : Y
#SIGNALTYPE  : EDS
#XLABEL      : Energy (eV)
#YLABEL      : Counts
#XPERCHAN -eV: 9.99778
#OFFSET   -eV: 1.69135
#CHOFFSET    : 0
#DATE        : 26-Sep-2025
#TIME        : 13:49:00
#OWNER       : Unknown
#ELEVANGLE   : 35
#BEAMKV   -kV: 15
#LIVETIME  -s: 1681.3
#REALTIME  -s: 1849.17
#PROBECUR -nA: 1.2198
##WORKING -mm: 15
##D2STDCMP   : Nb,(Nb:100.0000)
##SIMILAR    : 1.3
#SPECTRUM    :
164,
198,
221,
2833,
32652,
130983,
165031,
93123,
65133,
63060,
44142,
32638,
34696,
57945,
82087,
70997,
85707,
124813,
98931,
54487,
43353,
43529,
46734,
50188,
51700,
51199,
53017,
56020,
59415,
61523,
63292,
65135,
66444,
67573,
69289,
70974,
70847,
71447,
72242,
72927,
73705,
74965,
75296,
77256,
77151,
78282,
79056,
79452,
80606,
82926,
83461,
81713,
80284,
79085,
79613,
79999,
82242,
87303,
90039,
90708,
92353,
102193,
128955,
159540,
158525,
131632,
119811,
128264,
161673,
288921,
722043,
1615518,
2361737,
2159502,
1530791,
1213649,
948164,
598798,
349186,
209694,
123418,
78799,
59783,
48022,
39038,
34502,
34392,
38159,
44048,
45586,
41087,
34963,
31489,
30174,
30379,
30315,
30152,
30502,
30354,
30879,
30878,
30931,
30780,
30587,
30950,
30845,
30956,
31266,
31111,
31224,
31042,
31252,
31171,
30925,
30896,
30836,
30723,
30809,
30824,
30924,
31033,
31128,
31267,
31028,
30882,
30215,
30551,
30388,
29923,
29697,
29598,
29914,
29733,
29580,
29387,
29582,
29443,
29184,
28791,
28788,
29180,
29000,
29786,
31571,
32588,
33127,
32582,
32460,
31686,
30344,
29597,
28570,
28110,
27392,
26913,
26644,
26716,
25926,
25901,
25769,
25482,
25902,
25230,
25501,
25503,
25216,
24713,
24500,
24505,
24372,
24111,
23898,
24128,
23756,
23753,
23587,
23463,
23137,
23193,
23472,
23421,
23197,
22628,
22931,
22196,
22092,
22099,
21945,
21656,
21571,
21658,
21436,
21286,
21076,
20749,
20869,
20977,
20494,
20505,
20162,
20303,
20156,
19750,
19787,
19327,
19802,
19444,
19450,
19238,
19267,
19308,
19722,
20045,
20110,
20200,
19282,
18791,
18279,
18063,
17985,
17719,
17217,
17403,
17399,
17299,
17032,
16788,
16880,
16399,
16565,
16366,
16255,
16521,
16094,
16311,
16202,
16062,
15826,
15792,
15546,
15302,
15439,
15041,
15007,
14846,
14890,
14958,
14938,
14821,
14837,
14715,
14591,
14313,
14124,
13763,
13663,
13779,
13568,
13472,
13292,
13405,
13210,
13133,
13059,
12868,
12905,
12772,
13028,
12558,
12699,
12544,
12431,
12279,
12000,
11949,
12140,
11782,
11613,
11637,
11743,
11661,
11453,
11267,
11203,
11357,
10895,
11038,
10894,
10903,
10673,
10432,
10471,
10510,
10384,
10338,
10372,
10210,
10215,
10119,
10021,
9819,
9724,
9746,
9771,
9460,
9407,
9520,
9064,
9374,
9137,
8874,
9212,
8962,
9014,
8841,
8717,
8721,
8535,
8300,
8625,
8330,
8244,
8065,
8135,
8229,
8002,
7968,
7944,
7712,
7682,
7825,
7676,
7652,
7640,
7406,
7382,
7383,
7309,
7150,
7072,
7102,
6980,
6909,
6906,
6790,
6607,
6660,
6601,
6430,
6510,
6474,
6231,
6356,
6221,
6084,
6182,
6068,
5942,
5861,
6053,
5874,
5764,
5686,
5582,
5548,
5623,
5420,
5310,
5300,
5285,
5181,
5057,
5107,
5007,
5071,
4781,
5034,
4898,
4783,
4838,
4656,
4649,
4648,
4417,
4528,
4515,
4370,
4324,
4178,
4122,
4149,
4032,
3905,
4048,
3936,
3869,
3738,
3786,
3744,
3559,
3562,
3513,
3550,
3476,
3481,
3434,
3389,
3261,
3291,
3244,
3175,
3120,
2988,
3113,
2971,
2939,
2888,
2891,
2759,
2847,
2734,
2714,
2625,
2655,
2474,
2509,
2535,
2423,
2339,
2356,
2340,
2293,
2175,
2247,
2137,
2112,
2046,
2068,
2047,
1943,
1883,
1804,
1908,
1763,
1786,
1697,
1669,
1636,
1650,
1564,
1538,
1555,
1445,
1449,
1427,
1403,
1391,
1301,
1320,
1287,
1186,
1168,
1170,
1128,
1124,
1054,
976,
1004,
919,
973,
920,
849,
798,
802,
739,
730,
723,
708,
630,
660,
597,
590,
552,
555,
543,
471,
427,
417,
397,
352,
303,
311,
251,
281,
217,
175,
131,
106,
115,
52,
67,
47,
40,
36,
21,
34,
27,
23,
16,
22,
28,
16,
22,
16,
24,
31,
22,
15,
19,
25,
22,
18,
13,
16,
17,
15,
13,
20,
27,
14,
13,
22,
13,
19,
15,
12,
12,
15,
20,
12,
18,
15,
15,
18,
8,
15,
13,
4,
11,
15,
9,
9,
11,
12,
7,
10,
11,
4,
20,
14,
11,
11,
9,
9,
21,
8,
11,
8,
8,
16,
12,
12,
14,
11,
11,
8,
5,
11,
9,
8,
5,
6,
8,
8,
5,
10,
10,
8,
2,
3,
6,
4,
6,
7,
10,
6,
9,
8,
6,
5,
3,
6,
7,
7,
1,
19,
9,
6,
6,
7,
7,
4,
9,
8,
3,
5,
8,
3,
3,
3,
3,
3,
7,
9,
4,
9,
3,
3,
3,
8,
5,
2,
6,
5,
3,
5,
5,
5,
2,
5,
1,
6,
3,
3,
1,
7,
5,
4,
3,
3,
4,
5,
1,
0,
1,
1,
3,
3,
2,
1,
1,
3,
4,
3,
3,
2,
3,
5,
1,
3,
1,
3,
4,
3,
4,
3,
3,
1,
2,
2,
2,
3,
2,
1,
0,
3,
4,
4,
5,
2,
0,
4,
1,
2,
1,
1,
0,
4,
3,
0,
3,
2,
3,
3,
0,
0,
4,
1,
3,
1,
2,
1,
1,
2,
2,
3,
1,
1,
0,
0,
1,
1,
1,
0,
0,
0,
3,
3,
0,
0,
3,
3,
3,
1,
1,
2,
4,
1,
0,
0,
0,
2,
0,
1,
0,
2,
0,
3,
2,
0,
2,
1,
0,
1,
0,
0,
0,
2,
1,
0,
0,
0,
2,
0,
2,
0,
0,
2,
0,
0,
0,
0,
0,
1,
0,
0,
0,
0,
2,
0,
2,
0,
0,
1,
1,
1,
0,
1,
0,
0,
0,
1,
0,
0,
0,
0,
1,
0,
0,
0,
1,
0,
0,
3,
1,
1,
0,
1,
0,
0,
0,
0,
0,
0,
0,
1,
2,
1,
1,
0,
0,
0,
0,
0,
0,
1,
0,
0,
0,
1,
1,
0,
0,
2,
2,
0,
0,
0,
0,
0,
1,
0,
0,
0,
0,
0,
0,
0,
0,
0,
0,
0,
0,
0,
0,
0,
0,
0,
0,
0,
0,
0,
0,
1,
0,
0,
0,
0,
0,
0,
0,
0,
0,
0,
0,
0,
0,
0,
0,
0,
0,
0,
0,
0,
1,
0,
0,
0,
0,
0,
0,
0,
0,
0,
0,
0,
0,
0,
0,
0,
0,
0,
0,
0,
0,
0,
0,
0,
0,
0,
0,
0,
0,
0,
0,
0,
0,
0,
0,
0,
0,
0,
0,
0,
0,
0,
0,
0,
0,
0,
0,
0,
0,
0,
0,
0,
0,
0,
0,
0,
0,
0,
0,
0,
0,
0,
0,
0,
0,
0,
0,
0,
0,
0,
0,
0,
0,
0,
0,
0,
0,
0,
0,
0,
0,
0,
0,
0,
0,
0,
0,
0,
0,
0,
0,
0,
0,
0,
0,
0,
0,
0,
0,
0,
0,
0,
0,
0,
0,
0,
0,
0,
0,
0,
0,
0,
0,
0,
0,
0,
0,
0,
0,
0,
0,
0,
0,
0,
0,
0,
0,
0,
0,
0,
0,
0,
0,
0,
0,
0,
0,
0,
0,
0,
0,
0,
0,
0,
0,
0,
0,
0,
0,
0,
0,
0,
0,
0,
0,
0,
0,
0,
0,
0,
0,
0,
0,
0,
0,
0,
0,
0,
0,
0,
0,
0,
0,
0,
0,
0,
0,
0,
0,
0,
0,
0,
0,
0,
0,
0,
0,
0,
0,
0,
0,
1,
0,
0,
0,
0,
0,
0,
0,
0,
0,
0,
0,
0,
0,
0,
0,
0,
0,
0,
0,
0,
0,
0,
0,
0,
0,
0,
0,
0,
0,
0,
0,
0,
0,
0,
0,
0,
0,
0,
0,
0,
0,
0,
0,
0,
0,
0,
0,
0,
0,
0,
0,
0,
0,
0,
0,
0,
0,
0,
0,
0,
0,
0,
0,
0,
0,
0,
0,
0,
0,
0,
0,
0,
0,
0,
0,
0,
0,
0,
0,
0,
0,
0,
0,
0,
0,
0,
0,
0,
0,
0,
0,
0,
0,
0,
0,
0,
0,
0,
0,
0,
0,
0,
0,
0,
0,
0,
0,
0,
0,
0,
0,
0,
0,
0,
0,
0,
0,
0,
0,
0,
0,
0,
0,
0,
0,
0,
0,
0,
0,
0,
0,
0,
0,
0,
0,
0,
0,
0,
0,
0,
0,
0,
0,
0,
0,
0,
0,
0,
0,
0,
0,
0,
0,
0,
0,
0,
0,
0,
0,
0,
0,
0,
0,
0,
0,
0,
0,
0,
0,
0,
0,
0,
0,
0,
0,
0,
0,
0,
0,
0,
0,
0,
0,
0,
0,
0,
0,
0,
0,
0,
0,
0,
0,
0,
0,
0,
0,
0,
0,
0,
0,
0,
0,
0,
0,
0,
0,
0,
0,
0,
0,
0,
0,
0,
0,
0,
0,
0,
0,
0,
0,
0,
0,
0,
0,
0,
0,
0,
0,
0,
0,
0,
0,
0,
0,
0,
0,
0,
0,
0,
0,
0,
0,
0,
0,
0,
0,
0,
0,
0,
0,
0,
0,
0,
0,
0,
0,
0,
0,
0,
0,
0,
0,
0,
0,
0,
0,
0,
0,
0,
0,
0,
0,
0,
0,
0,
0,
0,
0,
0,
0,
0,
0,
0,
0,
0,
0,
0,
0,
0,
#ENDOFDATA   :