File: N132962/Standards/15 keV/NdF3 std.msa
#FORMAT      : EMSA/MAS Spectral Data File
#VERSION     : 1.0
#TITLE       : NdF3 standard for 'N132962' detector
#NPOINTS     : 4096
#NCOLUMNS    : 1
#XUNITS      : eV
#YUNITS      : counts
#DATATYPE    : Y
#SIGNALTYPE  : EDS
#XLABEL      : Energy (eV)
#YLABEL      : Counts
#XPERCHAN -eV: 9.99778
#OFFSET   -eV: 1.69135
#CHOFFSET    : 0
#DATE        : 26-Sep-2025
#TIME        : 16:50:00
#OWNER       : Unknown
#ELEVANGLE   : 35
#BEAMKV   -kV: 15
#LIVETIME  -s: 1196.88
#REALTIME  -s: 1286.98
#PROBECUR -nA: 1.21578
##WORKING -mm: 15
##D2STDCMP   : NdF3,(F:28.3224),(Nd:71.6776)
##SIMILAR    : 4.3
#SPECTRUM    :
113,
141,
67,
240,
1257,
5729,
17623,
40668,
77099,
92165,
67356,
52066,
50625,
51573,
53000,
57806,
72121,
88467,
86038,
89798,
185153,
583556,
1198136,
1060523,
434941,
174524,
95036,
53359,
42884,
43166,
52635,
85995,
138117,
151525,
100033,
48609,
30186,
29518,
36541,
44655,
42517,
36981,
37545,
37143,
34126,
31255,
28967,
28068,
30861,
35833,
36186,
32361,
28556,
27685,
27647,
27754,
29221,
30508,
31134,
31018,
30220,
28879,
27327,
26116,
26371,
25980,
26517,
26760,
26569,
26574,
26367,
26617,
26604,
27193,
26737,
26851,
26751,
26799,
26594,
26556,
27009,
26566,
26321,
26513,
26396,
26288,
26256,
26358,
26236,
25940,
25332,
25564,
25735,
25391,
25432,
25125,
24964,
25017,
24943,
24627,
24623,
24719,
24536,
24266,
24083,
23783,
23652,
23633,
23352,
23232,
23065,
22914,
22870,
23217,
23010,
23584,
23732,
23380,
22515,
22098,
22073,
21838,
21485,
21649,
21249,
21363,
20942,
20934,
20426,
20530,
20712,
20857,
20740,
20626,
20218,
20028,
19690,
19614,
19397,
19254,
18906,
18566,
18596,
18749,
18551,
18853,
18463,
18363,
18307,
18345,
18239,
19309,
21724,
24713,
26909,
27154,
24316,
20842,
18283,
17487,
17103,
16976,
16649,
16457,
16498,
16681,
16776,
17247,
18392,
22200,
34786,
68127,
132475,
214616,
266252,
248266,
173550,
94514,
45567,
24882,
18813,
16705,
16249,
15485,
15470,
16299,
19667,
29868,
52877,
87254,
118974,
127073,
108479,
78942,
55000,
40346,
30301,
23716,
20077,
20503,
26675,
37316,
49395,
54319,
48816,
36286,
24523,
16656,
13230,
11820,
12037,
12929,
13813,
14597,
14546,
14190,
14385,
16419,
20841,
24421,
26182,
23623,
19190,
14605,
12245,
11118,
11448,
12712,
14359,
15113,
15026,
13944,
12198,
10895,
10528,
10320,
10290,
10018,
9702,
9328,
8940,
8831,
8412,
8460,
8400,
8401,
8429,
8540,
8529,
8658,
8397,
8376,
8058,
7914,
8013,
7808,
7892,
7927,
7371,
7541,
7645,
7501,
7552,
7331,
7537,
7358,
7303,
7452,
7129,
7306,
7198,
7157,
7015,
7116,
7083,
6981,
6941,
6857,
6932,
6615,
6742,
6664,
6633,
6508,
6440,
6513,
6512,
6382,
6356,
6412,
6231,
6228,
6113,
6085,
6167,
6078,
5928,
5921,
5897,
5987,
5656,
5803,
5856,
5796,
5743,
5606,
5567,
5566,
5396,
5433,
5448,
5432,
5254,
5421,
5297,
5152,
5195,
5150,
5114,
5165,
5019,
4894,
5123,
4955,
4865,
4802,
4819,
4839,
4717,
4648,
4602,
4601,
4582,
4540,
4425,
4408,
4308,
4429,
4372,
4216,
4274,
4273,
4227,
4237,
4186,
4096,
4076,
4071,
4062,
4046,
3920,
3818,
3838,
3876,
3693,
3644,
3718,
3655,
3528,
3478,
3542,
3395,
3534,
3405,
3492,
3414,
3324,
3354,
3372,
3093,
3234,
3069,
3042,
2976,
3015,
3102,
3009,
2899,
2930,
2989,
2849,
2788,
2883,
2804,
2753,
2644,
2703,
2644,
2584,
2503,
2551,
2477,
2464,
2423,
2499,
2336,
2348,
2339,
2244,
2215,
2175,
2147,
2183,
2149,
2073,
2039,
1983,
2014,
1940,
1917,
1964,
1804,
1865,
1824,
1875,
1769,
1757,
1779,
1615,
1725,
1616,
1621,
1528,
1566,
1630,
1538,
1466,
1429,
1507,
1378,
1438,
1366,
1398,
1230,
1289,
1242,
1228,
1269,
1245,
1189,
1189,
1109,
1159,
1089,
1074,
965,
981,
1048,
944,
924,
880,
892,
913,
849,
865,
763,
828,
772,
777,
748,
706,
716,
695,
679,
621,
630,
671,
583,
550,
577,
530,
525,
494,
465,
466,
450,
446,
384,
415,
386,
357,
330,
298,
271,
260,
234,
235,
215,
217,
214,
162,
151,
134,
99,
102,
91,
53,
41,
50,
34,
28,
20,
15,
17,
21,
13,
14,
13,
21,
17,
13,
16,
16,
9,
9,
17,
10,
9,
11,
12,
10,
10,
6,
12,
10,
10,
9,
11,
10,
12,
3,
10,
12,
8,
13,
7,
10,
6,
3,
14,
11,
15,
4,
11,
9,
6,
13,
9,
5,
7,
8,
6,
12,
5,
10,
7,
8,
8,
3,
4,
9,
7,
7,
7,
7,
14,
15,
5,
10,
13,
13,
12,
9,
6,
6,
9,
7,
10,
4,
11,
11,
9,
5,
10,
13,
5,
11,
12,
7,
6,
6,
8,
7,
8,
3,
8,
4,
4,
7,
2,
12,
7,
6,
6,
5,
6,
5,
4,
5,
2,
2,
1,
7,
5,
4,
7,
4,
7,
6,
3,
3,
4,
1,
4,
8,
6,
2,
7,
4,
2,
4,
2,
5,
5,
3,
2,
8,
1,
1,
3,
2,
5,
3,
7,
2,
2,
0,
1,
4,
2,
5,
4,
4,
2,
1,
1,
2,
2,
0,
2,
2,
2,
3,
3,
0,
4,
0,
1,
3,
2,
0,
4,
2,
2,
1,
2,
1,
1,
0,
4,
1,
1,
2,
0,
1,
1,
0,
2,
0,
1,
2,
0,
3,
1,
0,
5,
2,
0,
1,
0,
1,
1,
1,
0,
0,
1,
0,
1,
3,
1,
1,
0,
1,
0,
1,
0,
1,
0,
0,
0,
0,
2,
0,
2,
1,
2,
1,
0,
0,
1,
1,
0,
0,
1,
1,
1,
1,
1,
0,
0,
0,
0,
2,
0,
1,
1,
2,
0,
0,
1,
0,
2,
0,
0,
3,
0,
0,
0,
0,
0,
0,
0,
0,
0,
0,
0,
1,
0,
0,
0,
0,
1,
0,
0,
1,
0,
0,
0,
0,
0,
2,
0,
0,
0,
0,
0,
0,
0,
0,
0,
0,
0,
0,
0,
1,
0,
1,
1,
1,
0,
0,
0,
0,
0,
0,
0,
0,
0,
0,
0,
0,
0,
0,
0,
0,
1,
0,
1,
0,
0,
0,
0,
0,
0,
0,
1,
0,
0,
0,
0,
0,
0,
0,
0,
1,
0,
0,
0,
0,
0,
1,
1,
0,
0,
1,
0,
0,
0,
0,
0,
0,
0,
0,
0,
0,
0,
1,
0,
0,
0,
1,
0,
0,
0,
0,
0,
0,
0,
0,
0,
0,
0,
0,
0,
0,
0,
0,
0,
0,
0,
0,
0,
0,
0,
0,
0,
1,
0,
0,
0,
0,
0,
0,
0,
0,
0,
0,
0,
0,
0,
0,
0,
0,
0,
0,
0,
0,
0,
0,
0,
0,
0,
1,
0,
0,
0,
0,
0,
0,
0,
0,
0,
0,
0,
0,
0,
0,
0,
0,
0,
0,
0,
0,
0,
0,
0,
0,
0,
0,
0,
0,
0,
0,
0,
0,
0,
0,
0,
0,
0,
0,
0,
0,
0,
0,
0,
0,
0,
0,
0,
0,
0,
0,
0,
0,
0,
0,
0,
0,
0,
0,
0,
0,
0,
0,
0,
0,
0,
0,
0,
0,
0,
0,
0,
0,
0,
0,
0,
0,
0,
0,
0,
0,
0,
0,
0,
0,
0,
0,
0,
0,
0,
0,
0,
0,
0,
0,
0,
0,
0,
0,
0,
0,
0,
0,
0,
0,
0,
0,
0,
0,
0,
0,
0,
0,
0,
0,
0,
0,
0,
0,
0,
0,
0,
0,
0,
0,
0,
0,
0,
0,
0,
0,
0,
0,
0,
0,
0,
0,
0,
0,
0,
0,
0,
0,
0,
0,
0,
0,
0,
0,
0,
0,
0,
0,
0,
0,
0,
0,
0,
0,
0,
0,
0,
0,
0,
0,
0,
0,
0,
0,
0,
0,
0,
0,
0,
0,
0,
0,
0,
0,
0,
0,
0,
0,
0,
0,
0,
0,
0,
0,
0,
0,
0,
0,
0,
0,
0,
0,
0,
0,
0,
0,
0,
0,
0,
0,
0,
0,
0,
0,
0,
0,
0,
0,
0,
0,
0,
0,
0,
0,
0,
0,
0,
0,
0,
0,
0,
0,
0,
0,
0,
0,
0,
0,
0,
0,
0,
0,
0,
0,
0,
0,
0,
0,
0,
0,
0,
0,
0,
0,
0,
0,
0,
0,
0,
0,
0,
0,
0,
0,
0,
0,
0,
0,
0,
0,
0,
0,
0,
0,
0,
0,
0,
0,
0,
0,
0,
0,
0,
0,
0,
0,
0,
0,
0,
0,
0,
0,
0,
0,
0,
0,
0,
0,
0,
0,
0,
0,
0,
0,
0,
0,
0,
0,
0,
0,
0,
0,
0,
0,
0,
0,
0,
0,
0,
0,
0,
0,
0,
0,
0,
0,
0,
0,
0,
0,
0,
0,
0,
0,
0,
0,
0,
0,
0,
0,
0,
0,
0,
0,
0,
0,
0,
0,
0,
0,
0,
0,
0,
0,
0,
0,
0,
0,
0,
0,
0,
0,
0,
0,
0,
0,
0,
0,
0,
0,
0,
0,
0,
0,
0,
0,
0,
0,
0,
0,
0,
0,
0,
0,
0,
0,
0,
0,
0,
0,
0,
0,
0,
0,
0,
0,
0,
0,
0,
0,
0,
0,
0,
0,
0,
0,
0,
0,
0,
0,
0,
0,
0,
0,
0,
0,
0,
0,
0,
0,
0,
0,
0,
0,
0,
0,
0,
0,
0,
0,
0,
0,
0,
0,
0,
0,
0,
0,
0,
0,
0,
0,
0,
0,
0,
0,
0,
0,
0,
0,
0,
0,
0,
0,
0,
0,
0,
0,
0,
#ENDOFDATA   :