File: N132962/Standards/15 keV/NdP5O14 std.msa
#FORMAT      : EMSA/MAS Spectral Data File
#VERSION     : 1.0
#TITLE       : NdP5O14 standard for 'N132962' detector
#NPOINTS     : 4096
#NCOLUMNS    : 1
#XUNITS      : eV
#YUNITS      : counts
#DATATYPE    : Y
#SIGNALTYPE  : EDS
#XLABEL      : Energy (eV)
#YLABEL      : Counts
#XPERCHAN -eV: 9.99778
#OFFSET   -eV: 1.69135
#CHOFFSET    : 0
#DATE        : 17-Mar-2025
#TIME        : 16:49:00
#OWNER       : Unknown
#ELEVANGLE   : 35
#BEAMKV   -kV: 15
#LIVETIME  -s: 1438.26
#REALTIME  -s: 1517.13
#PROBECUR -nA: 1.02671
##WORKING -mm: 15
##D2STDCMP   : NdP5O14,(O:42.8192),(P:29.6061),(Nd:27.5746)
##SIMILAR    : 1.2
#SPECTRUM    :
144,
141,
64,
247,
987,
3053,
8371,
25402,
75652,
105471,
57755,
27530,
28479,
35252,
53104,
166730,
624590,
1206042,
881179,
234640,
37220,
19611,
22431,
32767,
49229,
56097,
42494,
30547,
27579,
28418,
32263,
48299,
76860,
89811,
66864,
38552,
27800,
26410,
30547,
35391,
33769,
30761,
31557,
30979,
29186,
27411,
26398,
25891,
25981,
26579,
26980,
26863,
26593,
26583,
26126,
26426,
27714,
29333,
30667,
30645,
30698,
29849,
32659,
49628,
105212,
279376,
623053,
867202,
683510,
312538,
114253,
67687,
51548,
33404,
21819,
17940,
17067,
17063,
16994,
16796,
16783,
16908,
17204,
18241,
18691,
18398,
17680,
16814,
16210,
16222,
15996,
16013,
15903,
15944,
15377,
15533,
15306,
15313,
15275,
14971,
15193,
14920,
14979,
14831,
14580,
14199,
14273,
14248,
14123,
14116,
14135,
13878,
13791,
13750,
13520,
13541,
13869,
13647,
13419,
12880,
12859,
13042,
12833,
12695,
12527,
12383,
12311,
12073,
11974,
12216,
11764,
12048,
12133,
12453,
12600,
12229,
11672,
11553,
11083,
10985,
10905,
10901,
10813,
10801,
10723,
10531,
10678,
10282,
10406,
10361,
10281,
10729,
11231,
12272,
13249,
12991,
12103,
10807,
10157,
9716,
9622,
9583,
9260,
9361,
9142,
9223,
9096,
9354,
9799,
11061,
15219,
26319,
48142,
76301,
94372,
88487,
63235,
35804,
18687,
11180,
9199,
8669,
8178,
8174,
8079,
8212,
9452,
12818,
20589,
32333,
43462,
46293,
40145,
29865,
21377,
16055,
12799,
10215,
9305,
9137,
11276,
15077,
19361,
21083,
19077,
15259,
10841,
8354,
6971,
6484,
6336,
6484,
6474,
6571,
6657,
6643,
6871,
7970,
9223,
11086,
11249,
10524,
8688,
7268,
6186,
5812,
6083,
6373,
7036,
7315,
7226,
6717,
6153,
5591,
5332,
5383,
5283,
5313,
5268,
5039,
4985,
4928,
4812,
4788,
4768,
4677,
4619,
4693,
4573,
4590,
4584,
4569,
4427,
4444,
4344,
4310,
4282,
4382,
4288,
4251,
4155,
4137,
4129,
4094,
4089,
4018,
3823,
3908,
3924,
3896,
3831,
3800,
3730,
3713,
3790,
3762,
3667,
3600,
3711,
3594,
3505,
3546,
3464,
3387,
3463,
3287,
3330,
3345,
3371,
3261,
3331,
3116,
3210,
3139,
3108,
3181,
3119,
3124,
3019,
3058,
2952,
3019,
2941,
2828,
2777,
2872,
2804,
2819,
2714,
2802,
2666,
2676,
2766,
2775,
2588,
2589,
2595,
2525,
2567,
2457,
2482,
2409,
2500,
2403,
2419,
2390,
2430,
2342,
2395,
2335,
2235,
2264,
2266,
2253,
2222,
2198,
2175,
2085,
2094,
2071,
2012,
2123,
2064,
2009,
1939,
1958,
2019,
1966,
1849,
1878,
1814,
1845,
1823,
1812,
1753,
1737,
1754,
1720,
1769,
1710,
1685,
1606,
1628,
1646,
1569,
1500,
1535,
1570,
1507,
1489,
1458,
1457,
1485,
1387,
1434,
1381,
1370,
1401,
1340,
1357,
1273,
1334,
1263,
1282,
1221,
1227,
1196,
1207,
1152,
1131,
1135,
1172,
1088,
1072,
1096,
1077,
1085,
1023,
997,
1013,
1065,
1005,
915,
1000,
871,
947,
906,
860,
937,
855,
836,
853,
818,
820,
814,
764,
769,
742,
772,
754,
708,
690,
735,
690,
662,
642,
643,
643,
586,
613,
621,
571,
570,
561,
563,
578,
517,
503,
488,
529,
502,
447,
472,
460,
465,
429,
424,
407,
379,
445,
405,
338,
360,
379,
353,
333,
343,
300,
276,
334,
276,
274,
277,
267,
257,
256,
243,
206,
233,
198,
206,
201,
179,
192,
169,
156,
174,
162,
154,
141,
134,
133,
110,
127,
110,
95,
83,
80,
76,
74,
50,
57,
52,
54,
36,
46,
25,
18,
18,
8,
9,
11,
5,
3,
3,
2,
3,
4,
5,
9,
7,
1,
2,
4,
5,
2,
4,
1,
5,
8,
3,
1,
2,
1,
0,
2,
2,
3,
2,
3,
6,
1,
0,
2,
1,
4,
1,
3,
2,
3,
3,
0,
1,
0,
3,
1,
1,
1,
0,
1,
1,
3,
3,
1,
0,
1,
3,
3,
1,
1,
1,
0,
3,
3,
1,
1,
0,
2,
3,
2,
1,
1,
2,
4,
1,
1,
4,
1,
3,
1,
3,
0,
1,
0,
3,
2,
1,
2,
0,
1,
1,
1,
1,
0,
0,
2,
1,
0,
1,
2,
1,
2,
3,
0,
0,
1,
3,
0,
2,
0,
1,
0,
1,
0,
1,
0,
1,
1,
0,
0,
1,
0,
2,
3,
1,
0,
2,
1,
1,
2,
1,
1,
0,
0,
0,
1,
0,
2,
0,
1,
0,
0,
0,
0,
1,
0,
0,
0,
1,
0,
1,
1,
0,
0,
0,
0,
0,
0,
0,
0,
0,
0,
1,
0,
0,
0,
0,
0,
0,
0,
1,
0,
0,
0,
0,
2,
0,
0,
1,
0,
0,
0,
0,
0,
0,
0,
0,
0,
0,
0,
0,
0,
0,
0,
0,
0,
0,
0,
0,
0,
1,
0,
0,
1,
0,
0,
0,
1,
1,
0,
0,
0,
0,
0,
0,
0,
0,
0,
0,
0,
0,
0,
0,
0,
0,
0,
0,
0,
0,
0,
0,
0,
0,
0,
0,
0,
0,
0,
0,
0,
1,
0,
1,
0,
0,
0,
0,
0,
0,
0,
0,
1,
0,
0,
0,
0,
0,
0,
0,
0,
0,
0,
0,
0,
0,
0,
0,
0,
0,
0,
0,
0,
0,
0,
0,
0,
0,
0,
0,
0,
0,
0,
0,
0,
0,
0,
0,
0,
0,
0,
0,
0,
0,
0,
0,
0,
0,
0,
1,
0,
0,
0,
0,
0,
0,
0,
0,
0,
0,
0,
0,
0,
0,
0,
0,
0,
0,
0,
0,
0,
0,
0,
0,
0,
0,
0,
0,
0,
0,
0,
1,
0,
0,
0,
0,
0,
0,
0,
0,
0,
0,
0,
0,
0,
0,
0,
0,
0,
0,
0,
0,
0,
0,
0,
0,
0,
0,
0,
0,
0,
0,
0,
0,
0,
0,
0,
0,
0,
0,
0,
0,
0,
0,
0,
0,
0,
0,
0,
0,
0,
0,
0,
0,
0,
0,
0,
0,
0,
0,
0,
0,
0,
0,
0,
0,
0,
0,
0,
0,
0,
0,
0,
0,
0,
0,
0,
0,
0,
0,
0,
0,
0,
0,
0,
0,
0,
0,
0,
0,
0,
0,
0,
0,
0,
0,
0,
0,
0,
0,
0,
0,
0,
0,
0,
0,
0,
0,
0,
0,
0,
0,
0,
0,
0,
0,
0,
0,
0,
0,
0,
0,
0,
0,
0,
0,
0,
0,
0,
0,
0,
0,
0,
0,
0,
0,
0,
0,
0,
0,
0,
0,
0,
0,
0,
0,
0,
0,
0,
0,
0,
0,
0,
0,
0,
0,
0,
0,
0,
0,
0,
0,
0,
0,
0,
0,
0,
0,
0,
0,
0,
0,
0,
0,
0,
0,
0,
0,
0,
0,
0,
0,
0,
0,
0,
0,
0,
0,
0,
0,
0,
0,
0,
0,
0,
0,
0,
0,
0,
0,
0,
0,
1,
0,
0,
0,
0,
0,
0,
0,
0,
0,
0,
0,
0,
0,
0,
0,
0,
0,
0,
0,
0,
0,
0,
0,
0,
0,
0,
0,
0,
0,
0,
0,
0,
0,
0,
0,
0,
0,
0,
0,
0,
0,
0,
0,
0,
0,
0,
0,
0,
0,
0,
0,
0,
0,
0,
0,
0,
0,
0,
0,
0,
0,
0,
0,
0,
0,
0,
0,
0,
0,
0,
0,
0,
0,
0,
0,
0,
0,
0,
0,
0,
0,
0,
0,
0,
0,
0,
0,
0,
0,
0,
0,
0,
0,
0,
0,
0,
0,
0,
0,
0,
0,
0,
0,
0,
0,
0,
0,
0,
0,
0,
0,
0,
0,
0,
0,
0,
0,
0,
0,
0,
0,
0,
0,
0,
0,
0,
0,
0,
0,
0,
0,
0,
0,
0,
0,
0,
0,
0,
0,
0,
0,
0,
0,
0,
0,
0,
0,
0,
0,
0,
0,
0,
0,
0,
0,
0,
0,
0,
0,
0,
0,
0,
0,
0,
0,
0,
0,
0,
0,
0,
0,
0,
0,
0,
0,
0,
0,
0,
0,
0,
0,
0,
0,
0,
0,
0,
0,
0,
0,
0,
0,
0,
0,
0,
0,
0,
0,
0,
0,
0,
0,
0,
0,
0,
0,
0,
0,
0,
0,
0,
0,
0,
0,
0,
0,
0,
0,
0,
0,
0,
0,
0,
0,
0,
0,
0,
0,
0,
0,
0,
0,
0,
0,
0,
0,
0,
0,
0,
0,
0,
0,
0,
0,
0,
0,
0,
0,
0,
0,
0,
0,
0,
0,
0,
0,
0,
0,
0,
0,
0,
0,
0,
0,
0,
0,
0,
0,
0,
0,
0,
0,
0,
0,
0,
0,
0,
0,
0,
0,
0,
0,
0,
0,
0,
0,
0,
0,
0,
0,
0,
0,
0,
0,
0,
0,
0,
0,
0,
0,
0,
0,
0,
0,
0,
0,
0,
0,
0,
0,
0,
0,
0,
0,
0,
0,
0,
0,
0,
0,
0,
0,
0,
0,
0,
0,
0,
0,
0,
0,
0,
0,
0,
0,
0,
#ENDOFDATA   :