File: N132962/Standards/15 keV/Ni std.msa
#FORMAT      : EMSA/MAS Spectral Data File
#VERSION     : 1.0
#TITLE       : Ni standard for 'N132962' detector
#NPOINTS     : 4096
#NCOLUMNS    : 1
#XUNITS      : eV
#YUNITS      : counts
#DATATYPE    : Y
#SIGNALTYPE  : EDS
#XLABEL      : Energy (eV)
#YLABEL      : Counts
#XPERCHAN -eV: 9.99778
#OFFSET   -eV: 1.69135
#CHOFFSET    : 0
#DATE        : 26-Sep-2025
#TIME        : 22:59:00
#OWNER       : Unknown
#ELEVANGLE   : 35
#BEAMKV   -kV: 15
#LIVETIME  -s: 2161.41
#REALTIME  -s: 2328.68
#PROBECUR -nA: 1.21516
##WORKING -mm: 15
##D2STDCMP   : Ni,(Ni:100.0000)
##SIMILAR    : 1.1
#SPECTRUM    :
207,
244,
113,
246,
1355,
5361,
14392,
31298,
62006,
78762,
62512,
56485,
62138,
67076,
72724,
83448,
100277,
118202,
117603,
113166,
121652,
138098,
181552,
332032,
621205,
736798,
766865,
1594829,
2742918,
2155253,
748325,
158385,
56744,
38116,
33307,
32320,
33480,
34494,
35839,
36906,
38428,
39830,
40871,
41584,
42129,
43701,
44716,
45498,
46893,
48389,
49307,
50067,
50764,
51517,
52786,
54158,
57880,
60627,
61227,
58311,
56202,
53202,
49753,
48344,
47970,
47975,
48655,
48634,
48822,
47981,
49181,
48849,
49015,
47993,
48538,
48154,
48283,
48760,
48376,
47677,
47809,
47241,
47259,
47184,
46476,
46604,
46800,
46075,
46416,
45626,
45122,
45133,
44747,
44731,
44234,
43844,
43804,
43338,
42883,
42677,
42190,
42087,
41654,
41463,
41242,
40780,
40483,
40338,
40003,
39794,
39750,
39419,
38442,
38711,
38109,
37542,
37303,
37308,
36919,
36577,
36538,
36179,
35984,
35803,
35590,
35071,
34667,
34501,
33897,
33661,
33814,
33226,
33267,
33101,
32612,
31904,
32135,
31681,
31630,
31560,
30910,
30877,
30373,
30549,
29933,
30061,
29463,
29412,
29075,
29083,
28797,
28608,
28306,
27849,
27789,
27718,
27310,
27181,
26790,
26709,
26399,
26143,
25988,
25796,
25752,
25778,
25335,
25297,
24947,
24550,
24547,
24310,
24112,
23940,
23901,
23500,
23601,
23091,
23257,
23330,
23452,
23259,
22896,
22696,
22155,
21876,
22054,
22040,
21759,
22177,
22365,
22496,
22086,
21873,
21854,
22481,
22983,
22943,
21951,
21040,
20069,
19421,
19074,
18948,
19148,
18656,
18640,
18277,
18274,
18462,
18920,
19783,
20741,
21447,
20874,
20195,
19073,
18246,
17120,
17141,
16919,
16508,
16488,
16123,
16076,
16149,
15981,
15706,
15875,
15722,
15206,
15463,
15417,
15775,
15454,
15815,
15868,
15596,
15655,
15858,
16004,
16413,
18915,
26521,
51335,
114742,
236686,
413632,
576544,
642142,
567693,
399092,
225690,
106462,
45984,
22563,
15182,
13705,
13196,
12956,
12705,
12629,
12430,
12269,
12579,
12439,
12947,
12961,
13623,
14602,
17449,
24644,
38245,
58202,
80056,
92285,
88769,
71696,
49282,
29935,
18354,
12744,
10025,
9093,
9024,
8913,
8724,
8728,
8663,
8597,
8645,
8686,
8704,
8581,
8496,
8556,
8399,
8266,
8431,
8298,
8213,
8177,
8205,
8195,
8087,
8027,
7835,
7841,
7613,
7605,
7496,
7484,
7328,
7323,
7270,
7238,
7217,
7089,
7153,
6997,
7062,
6920,
6915,
6813,
6928,
6850,
6656,
6641,
6398,
6563,
6445,
6217,
6350,
6266,
6158,
6231,
6155,
5966,
5942,
5923,
5933,
5850,
5801,
5725,
5656,
5569,
5537,
5469,
5571,
5431,
5285,
5337,
5162,
5209,
5000,
5209,
5075,
4952,
4918,
4869,
4914,
4861,
4665,
4742,
4635,
4670,
4513,
4491,
4488,
4244,
4438,
4381,
4289,
4224,
3997,
4007,
4114,
4036,
3860,
3871,
3909,
3874,
3846,
3603,
3662,
3712,
3555,
3563,
3531,
3488,
3373,
3366,
3273,
3244,
3213,
3218,
3072,
3237,
3001,
2908,
3002,
2924,
2916,
2891,
2762,
2775,
2785,
2738,
2690,
2630,
2567,
2512,
2561,
2594,
2448,
2345,
2318,
2404,
2316,
2195,
2219,
2142,
2236,
2101,
2049,
2055,
2003,
2023,
1928,
1852,
1843,
1777,
1798,
1770,
1739,
1677,
1657,
1593,
1596,
1574,
1455,
1511,
1451,
1451,
1441,
1391,
1319,
1319,
1295,
1260,
1279,
1221,
1185,
1168,
1075,
1066,
1065,
1062,
1022,
976,
987,
914,
879,
839,
894,
825,
816,
793,
745,
766,
702,
661,
653,
664,
609,
599,
568,
529,
526,
507,
461,
434,
407,
407,
384,
347,
323,
316,
274,
293,
269,
250,
239,
263,
242,
265,
296,
305,
316,
258,
209,
171,
116,
99,
58,
33,
26,
30,
25,
26,
22,
25,
23,
15,
35,
30,
28,
26,
40,
35,
36,
57,
52,
65,
69,
67,
61,
62,
38,
36,
19,
24,
18,
12,
17,
15,
16,
16,
20,
14,
12,
14,
13,
14,
10,
13,
12,
16,
20,
16,
17,
11,
10,
14,
17,
15,
18,
12,
14,
13,
8,
8,
18,
15,
17,
14,
15,
8,
17,
10,
16,
17,
14,
12,
17,
8,
12,
10,
14,
11,
19,
13,
14,
13,
15,
14,
12,
6,
13,
14,
13,
16,
18,
8,
11,
13,
10,
12,
8,
13,
13,
13,
12,
8,
4,
15,
12,
7,
9,
12,
11,
16,
9,
10,
4,
11,
9,
9,
8,
5,
4,
7,
9,
4,
10,
4,
10,
8,
8,
8,
10,
6,
8,
2,
11,
6,
12,
5,
5,
6,
5,
4,
6,
11,
7,
11,
5,
9,
7,
7,
8,
9,
9,
7,
3,
7,
9,
1,
11,
4,
4,
7,
4,
8,
4,
3,
5,
3,
1,
7,
5,
6,
3,
4,
2,
4,
5,
3,
4,
3,
2,
1,
4,
3,
2,
2,
5,
3,
4,
1,
5,
8,
4,
3,
1,
2,
4,
0,
1,
2,
1,
4,
3,
2,
3,
1,
3,
1,
2,
0,
1,
7,
2,
4,
3,
1,
2,
2,
3,
2,
1,
3,
1,
2,
2,
0,
1,
1,
2,
4,
1,
0,
2,
2,
2,
2,
2,
1,
0,
3,
4,
0,
1,
0,
0,
1,
1,
0,
0,
0,
0,
0,
1,
0,
2,
0,
0,
0,
0,
1,
1,
2,
0,
0,
0,
1,
0,
1,
0,
2,
0,
0,
0,
0,
0,
0,
0,
0,
0,
0,
0,
0,
0,
0,
0,
0,
0,
1,
0,
0,
1,
0,
1,
0,
0,
0,
0,
0,
0,
0,
0,
0,
0,
0,
0,
0,
0,
0,
0,
0,
1,
0,
0,
1,
0,
0,
0,
0,
0,
1,
0,
1,
0,
0,
0,
0,
0,
0,
0,
0,
0,
0,
0,
0,
0,
0,
0,
0,
0,
1,
0,
0,
0,
0,
0,
0,
0,
0,
0,
0,
0,
0,
0,
1,
0,
0,
0,
0,
0,
0,
0,
0,
1,
0,
0,
0,
0,
0,
0,
0,
0,
0,
0,
0,
0,
0,
0,
0,
0,
0,
0,
0,
0,
0,
0,
0,
0,
0,
0,
0,
0,
0,
0,
0,
0,
0,
0,
0,
0,
0,
0,
0,
0,
0,
0,
0,
1,
0,
0,
0,
0,
0,
0,
0,
0,
0,
0,
0,
0,
0,
0,
0,
0,
0,
0,
0,
0,
0,
0,
0,
0,
0,
0,
0,
0,
0,
0,
0,
0,
0,
0,
0,
0,
0,
0,
0,
0,
0,
0,
0,
0,
0,
0,
0,
0,
0,
0,
0,
0,
0,
0,
0,
0,
0,
0,
0,
0,
0,
0,
0,
0,
0,
0,
0,
0,
0,
0,
0,
0,
0,
0,
0,
0,
0,
0,
0,
0,
0,
0,
0,
0,
0,
0,
0,
0,
0,
0,
0,
0,
0,
0,
0,
0,
0,
0,
0,
0,
0,
0,
0,
0,
0,
0,
0,
0,
0,
0,
0,
0,
0,
0,
0,
0,
0,
0,
0,
0,
0,
0,
0,
0,
0,
0,
0,
0,
0,
0,
0,
0,
0,
0,
0,
0,
0,
0,
0,
0,
0,
0,
0,
0,
0,
0,
0,
0,
0,
0,
0,
0,
0,
0,
0,
0,
0,
0,
0,
0,
0,
0,
0,
0,
0,
0,
0,
0,
0,
0,
0,
0,
0,
0,
0,
0,
0,
0,
0,
0,
0,
0,
0,
0,
0,
0,
0,
0,
0,
0,
0,
0,
0,
0,
0,
0,
0,
0,
0,
0,
0,
0,
0,
0,
0,
0,
0,
0,
0,
0,
0,
0,
0,
0,
0,
0,
0,
0,
0,
0,
0,
0,
0,
0,
0,
0,
0,
0,
0,
0,
0,
0,
0,
0,
0,
0,
0,
0,
0,
0,
0,
0,
0,
0,
0,
0,
0,
0,
0,
0,
0,
0,
0,
0,
0,
0,
0,
0,
0,
0,
0,
0,
0,
0,
0,
0,
0,
0,
0,
0,
0,
0,
0,
0,
0,
0,
0,
0,
0,
0,
0,
0,
0,
0,
0,
0,
0,
0,
0,
0,
0,
0,
0,
0,
0,
0,
0,
0,
0,
0,
0,
0,
0,
0,
0,
0,
0,
0,
0,
0,
0,
0,
0,
0,
0,
0,
0,
0,
0,
0,
0,
0,
0,
0,
0,
0,
0,
0,
0,
0,
0,
0,
0,
0,
0,
0,
0,
0,
0,
0,
0,
0,
0,
0,
0,
0,
0,
0,
0,
0,
0,
0,
0,
0,
0,
0,
0,
0,
0,
0,
0,
0,
0,
0,
0,
0,
0,
0,
0,
0,
0,
0,
0,
0,
0,
0,
0,
0,
0,
0,
0,
0,
0,
0,
0,
0,
0,
0,
0,
0,
0,
0,
0,
0,
0,
0,
0,
0,
0,
0,
0,
0,
0,
0,
0,
0,
0,
0,
0,
0,
0,
0,
0,
0,
0,
0,
0,
0,
0,
0,
0,
0,
0,
0,
0,
0,
0,
0,
0,
0,
0,
0,
0,
0,
0,
0,
0,
0,
0,
0,
0,
0,
0,
0,
0,
0,
0,
0,
0,
0,
0,
0,
0,
0,
0,
0,
0,
0,
0,
#ENDOFDATA   :