File: N132962/Standards/15 keV/NIST K227 std.msa
#FORMAT      : EMSA/MAS Spectral Data File
#VERSION     : 1.0
#TITLE       : 'NIST K227' standard for 'N132962' detector
#NPOINTS     : 4096
#NCOLUMNS    : 1
#XUNITS      : eV
#YUNITS      : counts
#DATATYPE    : Y
#SIGNALTYPE  : EDS
#XLABEL      : Energy (eV)
#YLABEL      : Counts
#XPERCHAN -eV: 9.99778
#OFFSET   -eV: 1.69135
#CHOFFSET    : 0
#DATE        : 26-Sep-2025
#TIME        : 18:47:00
#OWNER       : Unknown
#ELEVANGLE   : 35
#BEAMKV   -kV: 15
#LIVETIME  -s: 2155.28
#REALTIME  -s: 2340.224
#PROBECUR -nA: 1.21628
##WORKING -mm: 15
##D2STDCMP   : 'NIST K227',(O:16.3855),(Si:9.3493),(Pb:74.2652)
##SIMILAR    : 1.0
#SPECTRUM    :
204,
243,
128,
526,
2781,
10892,
29820,
62375,
115144,
138170,
97617,
70576,
64350,
63124,
72125,
135678,
367558,
643896,
479422,
175841,
93710,
79054,
75532,
84575,
81118,
70141,
67989,
69707,
73545,
74439,
74487,
74476,
76621,
77709,
78461,
79840,
80453,
81851,
83034,
83791,
85601,
86501,
87175,
88062,
89547,
89960,
90594,
91995,
92755,
95468,
95414,
95316,
94198,
93686,
98067,
135156,
303248,
658586,
871608,
664350,
368803,
237027,
167553,
111736,
84981,
78078,
75637,
73422,
72908,
74308,
77801,
84385,
94276,
103294,
121640,
190700,
427447,
912233,
1335515,
1284210,
1022431,
925747,
787856,
466460,
198101,
88427,
71067,
85722,
102242,
98870,
76636,
56904,
47702,
45425,
45496,
46299,
47928,
48453,
49146,
49105,
50823,
55123,
59212,
60095,
57650,
53078,
48552,
45828,
44245,
42651,
41897,
41872,
41843,
41765,
42045,
42425,
42823,
42739,
42657,
41962,
41096,
40970,
40534,
40997,
41460,
41038,
40882,
40351,
39546,
39472,
39159,
39177,
38574,
38594,
39028,
39763,
39413,
39357,
39226,
38986,
38746,
38218,
37519,
37274,
36822,
36905,
37300,
36972,
36528,
36213,
36590,
36063,
35871,
35860,
36178,
36482,
36480,
36522,
36400,
36208,
36240,
35548,
35265,
34506,
34462,
34445,
33834,
33552,
33254,
33513,
32796,
33059,
32782,
32841,
32162,
32374,
31891,
32416,
32652,
33165,
33632,
33345,
32443,
31645,
31204,
30407,
30346,
30244,
29885,
30189,
29650,
29641,
29449,
29415,
29013,
28906,
28886,
28915,
28763,
28431,
28276,
27914,
27624,
27459,
27479,
27131,
26952,
27096,
26579,
27023,
27547,
28717,
30490,
31060,
30947,
29103,
27292,
26166,
25371,
25138,
25000,
24696,
24596,
24306,
24149,
24436,
24242,
23893,
24016,
23364,
23220,
23130,
23303,
23728,
23329,
23319,
23114,
22777,
22546,
22174,
22043,
21655,
21467,
21515,
21111,
21464,
21450,
21437,
21384,
21322,
21075,
20813,
20375,
20167,
20103,
19827,
19715,
19520,
19573,
19198,
19378,
19155,
19027,
18559,
18484,
18279,
18429,
18507,
18227,
18131,
17742,
17849,
17549,
17633,
17607,
17200,
17287,
17101,
16687,
16926,
16708,
16557,
16445,
16231,
16483,
16083,
16124,
15902,
15813,
15849,
15571,
15568,
15371,
15081,
15367,
15098,
14852,
15023,
14697,
14584,
14414,
14588,
14636,
14638,
14424,
14800,
14502,
14535,
14421,
13917,
13856,
13373,
13176,
13258,
12892,
12901,
12735,
12831,
12526,
12732,
12379,
12263,
12099,
12317,
12095,
11885,
11935,
11615,
11675,
11454,
11465,
11325,
11389,
11306,
11096,
11087,
11032,
10934,
10918,
10622,
10353,
10641,
10365,
10582,
10643,
11234,
12085,
13720,
16061,
18906,
21979,
23186,
22837,
20192,
16707,
13935,
11537,
10015,
9381,
8992,
8695,
8828,
8617,
8700,
8287,
8296,
8223,
8191,
8057,
7992,
7865,
7770,
7796,
7832,
7490,
7441,
7515,
7377,
7233,
7159,
6977,
6942,
6872,
6928,
6782,
6748,
6598,
6494,
6297,
6404,
6242,
6216,
6173,
6104,
6084,
5957,
5862,
5690,
5640,
5647,
5634,
5387,
5624,
5439,
5400,
5286,
5374,
5289,
5047,
5001,
4989,
4845,
4699,
4782,
4734,
4818,
5162,
5518,
5922,
6409,
6474,
6293,
6016,
5252,
4756,
4393,
4129,
3930,
3726,
3762,
3673,
3687,
3605,
3610,
3511,
3369,
3312,
3117,
2971,
3062,
2827,
2846,
2882,
2770,
2520,
2570,
2540,
2524,
2531,
2433,
2319,
2314,
2226,
2194,
2174,
2115,
2124,
2055,
2021,
1936,
1895,
1772,
1776,
1784,
1695,
1589,
1635,
1547,
1428,
1457,
1369,
1315,
1320,
1250,
1252,
1153,
1144,
1177,
1033,
960,
1004,
887,
875,
774,
755,
726,
684,
677,
597,
507,
492,
445,
407,
328,
309,
260,
238,
161,
148,
106,
71,
51,
45,
48,
25,
31,
34,
41,
43,
34,
27,
27,
39,
41,
36,
35,
32,
28,
42,
27,
39,
33,
30,
22,
34,
20,
28,
24,
30,
22,
25,
18,
29,
19,
21,
19,
14,
27,
18,
24,
18,
21,
18,
20,
14,
16,
12,
18,
26,
17,
16,
15,
14,
23,
16,
10,
10,
13,
25,
9,
23,
20,
21,
26,
20,
19,
15,
15,
23,
9,
21,
25,
9,
14,
20,
12,
13,
12,
19,
9,
17,
16,
21,
17,
7,
14,
12,
12,
12,
11,
14,
9,
15,
17,
10,
13,
10,
8,
20,
13,
11,
11,
11,
10,
11,
8,
5,
11,
12,
11,
8,
13,
7,
11,
9,
18,
10,
4,
13,
10,
18,
12,
10,
8,
7,
11,
6,
10,
8,
10,
15,
6,
14,
6,
10,
2,
8,
5,
10,
4,
8,
7,
9,
3,
6,
9,
11,
7,
9,
2,
2,
5,
11,
6,
10,
3,
6,
10,
8,
7,
5,
3,
5,
2,
7,
9,
5,
7,
6,
9,
7,
6,
12,
6,
4,
4,
3,
8,
2,
0,
4,
7,
5,
3,
7,
7,
2,
1,
3,
3,
3,
3,
6,
1,
3,
4,
2,
0,
1,
4,
3,
4,
8,
6,
2,
4,
2,
3,
2,
2,
1,
2,
5,
2,
2,
4,
7,
5,
2,
3,
3,
2,
1,
0,
0,
3,
3,
4,
2,
0,
3,
1,
2,
5,
1,
3,
3,
2,
3,
2,
1,
4,
2,
1,
0,
2,
2,
0,
3,
1,
0,
1,
1,
2,
2,
0,
0,
4,
0,
2,
1,
2,
2,
1,
0,
0,
0,
1,
2,
0,
0,
3,
0,
0,
1,
1,
0,
4,
1,
0,
3,
1,
1,
0,
1,
1,
0,
1,
0,
0,
0,
1,
1,
1,
1,
0,
1,
1,
1,
0,
1,
1,
0,
0,
2,
1,
3,
0,
1,
0,
0,
0,
2,
1,
2,
0,
0,
0,
0,
1,
0,
2,
0,
0,
1,
0,
0,
1,
0,
0,
1,
2,
0,
0,
0,
1,
1,
0,
0,
0,
0,
1,
0,
1,
1,
1,
0,
0,
0,
1,
1,
0,
0,
0,
0,
1,
0,
0,
0,
0,
0,
0,
0,
0,
0,
0,
0,
0,
0,
0,
0,
0,
0,
0,
0,
1,
0,
0,
0,
0,
0,
0,
0,
1,
1,
1,
0,
0,
0,
0,
0,
0,
0,
0,
0,
0,
0,
0,
0,
0,
0,
0,
0,
0,
0,
0,
0,
0,
0,
0,
1,
0,
0,
0,
0,
0,
0,
0,
0,
0,
0,
0,
0,
0,
0,
0,
0,
0,
0,
1,
0,
0,
0,
0,
0,
0,
0,
0,
0,
0,
0,
0,
0,
0,
0,
0,
0,
0,
0,
0,
0,
0,
0,
0,
0,
0,
0,
0,
0,
0,
0,
0,
0,
0,
0,
0,
0,
0,
0,
0,
0,
0,
0,
0,
0,
0,
0,
0,
0,
0,
0,
0,
0,
0,
0,
0,
0,
0,
0,
0,
0,
0,
0,
0,
0,
0,
0,
0,
0,
0,
0,
0,
0,
0,
0,
0,
0,
0,
0,
0,
0,
0,
0,
0,
0,
0,
0,
0,
0,
0,
0,
0,
0,
0,
0,
0,
0,
0,
0,
0,
0,
0,
0,
0,
0,
0,
0,
0,
0,
0,
0,
0,
0,
0,
0,
0,
0,
0,
0,
0,
0,
0,
0,
0,
0,
0,
0,
0,
0,
0,
0,
0,
0,
0,
0,
0,
0,
0,
0,
0,
0,
0,
0,
0,
0,
0,
0,
0,
0,
0,
0,
0,
0,
0,
0,
0,
0,
0,
0,
0,
0,
0,
0,
0,
0,
0,
0,
0,
0,
0,
0,
0,
0,
0,
0,
0,
0,
0,
0,
0,
0,
0,
0,
0,
0,
0,
0,
0,
0,
0,
0,
0,
0,
0,
0,
0,
0,
0,
0,
0,
0,
0,
0,
0,
0,
0,
0,
0,
0,
0,
0,
0,
0,
0,
0,
0,
0,
0,
0,
0,
0,
0,
0,
0,
0,
0,
0,
0,
0,
0,
0,
0,
0,
0,
0,
0,
0,
0,
0,
0,
0,
0,
0,
0,
0,
0,
0,
0,
0,
0,
0,
0,
0,
0,
0,
0,
0,
0,
0,
0,
0,
0,
0,
0,
0,
0,
0,
0,
0,
0,
0,
0,
0,
0,
0,
0,
0,
0,
0,
0,
0,
0,
0,
0,
0,
0,
0,
0,
0,
0,
0,
0,
0,
0,
0,
0,
0,
0,
0,
0,
0,
0,
0,
0,
0,
0,
0,
0,
0,
0,
0,
0,
0,
0,
0,
0,
0,
0,
0,
0,
0,
0,
0,
0,
0,
0,
0,
0,
0,
0,
0,
0,
0,
0,
0,
0,
0,
0,
0,
0,
0,
0,
0,
0,
0,
0,
0,
0,
0,
0,
0,
0,
0,
0,
0,
0,
0,
0,
0,
0,
0,
0,
0,
0,
0,
0,
0,
0,
0,
0,
0,
0,
0,
0,
0,
0,
0,
0,
0,
0,
0,
0,
0,
0,
0,
0,
0,
0,
0,
0,
0,
0,
0,
0,
0,
0,
0,
0,
0,
0,
0,
0,
0,
0,
0,
0,
0,
0,
0,
0,
0,
0,
0,
0,
0,
0,
0,
0,
0,
0,
0,
0,
0,
0,
0,
0,
0,
0,
0,
0,
0,
0,
0,
0,
0,
0,
#ENDOFDATA   :