File: N132962/Standards/15 keV/PbO std.msa
#FORMAT      : EMSA/MAS Spectral Data File
#VERSION     : 1.0
#TITLE       : PbO standard for 'N132962' detector
#NPOINTS     : 4096
#NCOLUMNS    : 1
#XUNITS      : eV
#YUNITS      : counts
#DATATYPE    : Y
#SIGNALTYPE  : EDS
#XLABEL      : Energy (eV)
#YLABEL      : Counts
#XPERCHAN -eV: 9.99778
#OFFSET   -eV: 1.69135
#CHOFFSET    : 0
#DATE        : 25-Sep-2025
#TIME        : 17:58:00
#OWNER       : Unknown
#ELEVANGLE   : 35
#BEAMKV   -kV: 15
#LIVETIME  -s: 1446.4
#REALTIME  -s: 1591.31
#PROBECUR -nA: 1.20838
##WORKING -mm: 15
##D2STDCMP   : PbO,(O:7.1680),(Pb:92.8320)
##SIMILAR    : 17.9
#SPECTRUM    :
150,
181,
110,
563,
3724,
15097,
36585,
72195,
143108,
168422,
97257,
55272,
52001,
51731,
51635,
77459,
179246,
300012,
229502,
102035,
75723,
82753,
102803,
101564,
71644,
53566,
50740,
53204,
56711,
58477,
60163,
62496,
61726,
60155,
59967,
60983,
61173,
62608,
63264,
64287,
65944,
71669,
82073,
88139,
83786,
76064,
72523,
71150,
71593,
72246,
72139,
71776,
70295,
70450,
70739,
71562,
74188,
79362,
88897,
107294,
136372,
149558,
124552,
90004,
73067,
68292,
67092,
66142,
65925,
65817,
68234,
75058,
84036,
93166,
112371,
182800,
413613,
868197,
1254937,
1198497,
948368,
856879,
728803,
432898,
182991,
82379,
71603,
89870,
102539,
91344,
66135,
47690,
39356,
37828,
37704,
38115,
38872,
39569,
39923,
40163,
42375,
45421,
48750,
48846,
47091,
42848,
39528,
37113,
36120,
34535,
33733,
33793,
33978,
34141,
34364,
34242,
33956,
34884,
34504,
34141,
33263,
33351,
33325,
33552,
33542,
33851,
33488,
33055,
32686,
32197,
31924,
31916,
32218,
31597,
31901,
31476,
31919,
31803,
31722,
31690,
31477,
31168,
31666,
31208,
31298,
31624,
31332,
31140,
32308,
32902,
34030,
33640,
32537,
31218,
30654,
31280,
31368,
31516,
31539,
31546,
31233,
31265,
30613,
30475,
30225,
29691,
29476,
29073,
28828,
28697,
28514,
28182,
28001,
27855,
28094,
27548,
27612,
27400,
27338,
27187,
27199,
26956,
27025,
26729,
26870,
26443,
26168,
26195,
26094,
26025,
25597,
25522,
25606,
25377,
25284,
25011,
25233,
24709,
24591,
24593,
24823,
24202,
23920,
24398,
23823,
23691,
23714,
23516,
23506,
23402,
23261,
23326,
23800,
23567,
23400,
23148,
22941,
22651,
22218,
21909,
21852,
21870,
21793,
21299,
21623,
21204,
21293,
20828,
20873,
20846,
20822,
20835,
20626,
20291,
20011,
20154,
19853,
19661,
19629,
19530,
19305,
19284,
19320,
19222,
18904,
18805,
19112,
19298,
18939,
18901,
18905,
18369,
18248,
17835,
17661,
17862,
17336,
17505,
17102,
17187,
16866,
17028,
16702,
16983,
16608,
16786,
16647,
16900,
16713,
16569,
16346,
16177,
15803,
15522,
15599,
15546,
15357,
15474,
15216,
15428,
14960,
14913,
14667,
14634,
14536,
14466,
14607,
14345,
14177,
14108,
13896,
13954,
13805,
13820,
13651,
13485,
13455,
13425,
13046,
13058,
12937,
12948,
12747,
13040,
13106,
13061,
12945,
12623,
12456,
12240,
12163,
11806,
11918,
11786,
11728,
11402,
11444,
11372,
11218,
11411,
10978,
11119,
10977,
10670,
10665,
11070,
10796,
10546,
10520,
10465,
10233,
10165,
10122,
9959,
9880,
9856,
9836,
9626,
9703,
9701,
9351,
9452,
9400,
9377,
9769,
10132,
10827,
12245,
14500,
16960,
19859,
21038,
20479,
18325,
14990,
12430,
10226,
8917,
8496,
7959,
7891,
7679,
7642,
7608,
7531,
7306,
7483,
7323,
7140,
7066,
7180,
7053,
6981,
6791,
6781,
6690,
6682,
6587,
6405,
6197,
6263,
6206,
6165,
6088,
5989,
5928,
5869,
5810,
5838,
5662,
5677,
5556,
5395,
5336,
5399,
5158,
5450,
5185,
5047,
4992,
4966,
4936,
4942,
4873,
4782,
4762,
4596,
4496,
4425,
4395,
4343,
4298,
4149,
4154,
4156,
4342,
4543,
4865,
5279,
5535,
5724,
5670,
5185,
4772,
4207,
3783,
3621,
3518,
3445,
3305,
3317,
3301,
3260,
3132,
3038,
2984,
2772,
2705,
2542,
2550,
2538,
2452,
2511,
2379,
2309,
2234,
2177,
2145,
2140,
2120,
1985,
2039,
1995,
1922,
1825,
1792,
1755,
1685,
1743,
1685,
1555,
1567,
1452,
1447,
1394,
1416,
1372,
1267,
1310,
1177,
1222,
1164,
1113,
1069,
950,
1001,
961,
890,
853,
806,
810,
674,
694,
652,
634,
588,
546,
524,
455,
444,
448,
370,
308,
290,
252,
255,
214,
165,
131,
111,
103,
69,
66,
44,
36,
41,
42,
38,
44,
31,
34,
31,
32,
30,
41,
36,
31,
18,
31,
27,
30,
29,
29,
30,
23,
32,
19,
27,
23,
31,
33,
30,
21,
22,
34,
28,
23,
32,
22,
30,
20,
21,
18,
25,
23,
14,
18,
19,
19,
12,
21,
17,
13,
11,
21,
18,
13,
23,
20,
25,
20,
23,
25,
21,
24,
28,
32,
17,
21,
23,
17,
31,
20,
23,
23,
18,
17,
10,
16,
23,
16,
15,
16,
15,
18,
15,
25,
20,
23,
15,
16,
13,
14,
15,
14,
11,
13,
11,
9,
11,
12,
16,
16,
20,
12,
8,
13,
10,
15,
14,
16,
7,
7,
14,
9,
9,
12,
8,
13,
12,
9,
11,
12,
12,
11,
7,
11,
11,
7,
11,
8,
8,
4,
16,
7,
6,
8,
5,
4,
5,
8,
6,
2,
8,
6,
6,
11,
7,
4,
7,
7,
8,
10,
4,
3,
10,
7,
5,
6,
10,
8,
5,
7,
4,
5,
6,
10,
6,
0,
2,
7,
7,
9,
6,
7,
4,
7,
2,
4,
2,
4,
5,
7,
3,
2,
4,
8,
2,
1,
2,
6,
3,
5,
1,
1,
0,
6,
3,
5,
6,
1,
1,
4,
7,
4,
2,
4,
2,
2,
2,
5,
0,
4,
1,
5,
4,
4,
3,
3,
2,
4,
4,
4,
3,
2,
3,
1,
1,
4,
2,
1,
4,
1,
2,
4,
1,
3,
3,
2,
3,
0,
0,
4,
1,
0,
1,
2,
2,
0,
2,
2,
3,
4,
1,
1,
3,
0,
1,
0,
0,
0,
5,
1,
0,
2,
3,
1,
0,
1,
3,
2,
1,
3,
2,
0,
0,
1,
0,
0,
0,
0,
2,
1,
3,
2,
2,
2,
1,
0,
0,
0,
0,
1,
0,
2,
0,
0,
0,
0,
3,
1,
0,
0,
1,
1,
0,
0,
0,
0,
1,
0,
2,
3,
0,
1,
1,
1,
1,
1,
0,
1,
1,
1,
0,
1,
0,
1,
3,
3,
2,
0,
1,
1,
1,
0,
0,
1,
1,
0,
0,
0,
0,
0,
1,
1,
0,
0,
0,
0,
1,
0,
0,
1,
1,
2,
0,
0,
0,
0,
0,
0,
0,
1,
1,
0,
0,
1,
0,
0,
0,
0,
0,
1,
0,
0,
1,
1,
0,
0,
0,
0,
0,
0,
0,
1,
1,
0,
0,
0,
0,
0,
0,
0,
0,
0,
0,
0,
0,
0,
1,
0,
0,
0,
0,
0,
0,
0,
0,
0,
0,
0,
0,
0,
0,
0,
0,
0,
0,
1,
0,
0,
0,
0,
0,
0,
1,
0,
0,
0,
0,
0,
0,
0,
0,
0,
0,
0,
0,
1,
0,
0,
1,
0,
0,
0,
0,
0,
0,
0,
0,
0,
0,
0,
0,
0,
0,
0,
0,
0,
0,
0,
0,
0,
0,
0,
0,
0,
0,
0,
0,
0,
0,
0,
0,
0,
0,
0,
0,
0,
0,
0,
0,
0,
0,
0,
0,
0,
0,
0,
0,
0,
0,
0,
0,
0,
0,
0,
0,
0,
0,
0,
0,
0,
0,
0,
0,
0,
0,
0,
0,
0,
0,
0,
0,
0,
0,
0,
0,
0,
0,
0,
0,
0,
0,
0,
0,
0,
0,
0,
0,
0,
0,
0,
0,
0,
0,
0,
0,
0,
0,
0,
0,
0,
0,
0,
0,
0,
0,
0,
0,
0,
0,
0,
0,
0,
0,
0,
0,
0,
0,
0,
0,
0,
0,
0,
0,
0,
0,
0,
0,
0,
0,
0,
0,
0,
0,
0,
0,
0,
0,
0,
0,
0,
0,
0,
0,
0,
0,
0,
0,
0,
0,
0,
0,
0,
0,
0,
0,
0,
0,
0,
0,
0,
0,
0,
0,
0,
0,
0,
0,
0,
0,
0,
0,
0,
0,
0,
0,
0,
0,
0,
0,
0,
0,
0,
0,
0,
0,
0,
0,
0,
0,
0,
0,
0,
0,
0,
0,
0,
0,
0,
0,
0,
0,
0,
0,
0,
0,
0,
0,
0,
0,
0,
0,
0,
0,
0,
0,
0,
0,
0,
0,
0,
0,
0,
0,
0,
0,
0,
0,
0,
0,
0,
0,
0,
0,
0,
0,
0,
0,
0,
0,
0,
0,
0,
0,
0,
0,
0,
0,
0,
0,
0,
0,
0,
0,
0,
0,
0,
0,
0,
0,
0,
0,
0,
0,
0,
0,
0,
0,
0,
0,
0,
0,
0,
0,
0,
0,
0,
0,
0,
0,
0,
0,
0,
0,
0,
0,
0,
0,
0,
0,
0,
0,
0,
0,
0,
0,
0,
0,
0,
0,
0,
0,
0,
0,
0,
0,
0,
0,
0,
0,
0,
0,
0,
0,
0,
0,
0,
0,
0,
0,
0,
0,
0,
0,
0,
0,
0,
0,
0,
0,
0,
0,
0,
0,
0,
0,
0,
0,
0,
0,
0,
0,
0,
0,
0,
0,
0,
0,
0,
0,
0,
0,
0,
0,
0,
0,
0,
0,
0,
0,
0,
0,
0,
0,
0,
0,
0,
0,
0,
0,
0,
0,
0,
0,
0,
0,
0,
0,
0,
0,
0,
0,
0,
0,
0,
0,
0,
0,
0,
0,
0,
0,
0,
0,
0,
0,
0,
0,
0,
0,
0,
0,
0,
0,
0,
0,
0,
0,
0,
0,
0,
0,
0,
0,
0,
0,
0,
0,
0,
0,
0,
0,
0,
0,
#ENDOFDATA   :