File: N132962/Standards/15 keV/Pd std.msa
#FORMAT      : EMSA/MAS Spectral Data File
#VERSION     : 1.0
#TITLE       : Pd standard for 'N132962' detector
#NPOINTS     : 4096
#NCOLUMNS    : 1
#XUNITS      : eV
#YUNITS      : counts
#DATATYPE    : Y
#SIGNALTYPE  : EDS
#XLABEL      : Energy (eV)
#YLABEL      : Counts
#XPERCHAN -eV: 9.99778
#OFFSET   -eV: 1.69135
#CHOFFSET    : 0
#DATE        : 26-Sep-2025
#TIME        : 14:11:00
#OWNER       : Unknown
#ELEVANGLE   : 35
#BEAMKV   -kV: 15
#LIVETIME  -s: 1921.74
#REALTIME  -s: 2109.21
#PROBECUR -nA: 1.21991
##WORKING -mm: 15
##D2STDCMP   : Pd,(Pd:100.0000)
##SIMILAR    : 1.1
#SPECTRUM    :
196,
226,
149,
1120,
6705,
26240,
67331,
160088,
423139,
654887,
432856,
178192,
87077,
51415,
40447,
41315,
46599,
56040,
53093,
43074,
39145,
39775,
41471,
45259,
46690,
46704,
47440,
50078,
53887,
55574,
56432,
58823,
60562,
63772,
67862,
78787,
96029,
96637,
81944,
74149,
76388,
82576,
84430,
80900,
78706,
78502,
78727,
80433,
82353,
83969,
83590,
82183,
81311,
80713,
81506,
82197,
84576,
89177,
92564,
91287,
87164,
81643,
77013,
73454,
72629,
72860,
72781,
72774,
73135,
73227,
73916,
75349,
79093,
82053,
81075,
79203,
77877,
75588,
72396,
71085,
73838,
84499,
108524,
135754,
137900,
113098,
89823,
85333,
95029,
105979,
121853,
184680,
431294,
1038437,
1781728,
1952181,
1359315,
722136,
572160,
759971,
849608,
680561,
437171,
280131,
212480,
201894,
196056,
158109,
110040,
84141,
85603,
88696,
76499,
56873,
43243,
38288,
40492,
46236,
51761,
51611,
44906,
38020,
34500,
32977,
32535,
32623,
32576,
32387,
32520,
32255,
32963,
32802,
32861,
32732,
32641,
32716,
32673,
32325,
32481,
32365,
32357,
32072,
31898,
32283,
31970,
32070,
31639,
31577,
31670,
31525,
31480,
31279,
31211,
31311,
30955,
30736,
30959,
30644,
30636,
30216,
30483,
30132,
30353,
29962,
29724,
29697,
29671,
29229,
29333,
29326,
29112,
29025,
28295,
28564,
28618,
28452,
28245,
28235,
28161,
28692,
28086,
28175,
27778,
27939,
27334,
27500,
27374,
27842,
28327,
28899,
28719,
27998,
27655,
27676,
27646,
27730,
27352,
26771,
25857,
25733,
25652,
25183,
24917,
24595,
24203,
24168,
24085,
24168,
23531,
23743,
23935,
24214,
24736,
25179,
24731,
24145,
23253,
22535,
22399,
22403,
21813,
21745,
21752,
21491,
21248,
21277,
21153,
20924,
20797,
20431,
20496,
20352,
20324,
20212,
20382,
20195,
19927,
19715,
19538,
19623,
18965,
19050,
18893,
18912,
18835,
18741,
18667,
18881,
18569,
18587,
18516,
18165,
18139,
17685,
17700,
17521,
17350,
17153,
17137,
16957,
16856,
16731,
16564,
16399,
16445,
16133,
16403,
16220,
15882,
15893,
15769,
15527,
15618,
15758,
15443,
15056,
15152,
14907,
14841,
14892,
14553,
14754,
14269,
14385,
14280,
14194,
14102,
14142,
13826,
13859,
13617,
13400,
13327,
13505,
13033,
13204,
13074,
12804,
12767,
12649,
12844,
12529,
12418,
12322,
12258,
12264,
12085,
11975,
11789,
11654,
11533,
11616,
11366,
11410,
11289,
11114,
10874,
11271,
10965,
10987,
10884,
10932,
10612,
10543,
10586,
10649,
10367,
10396,
10288,
10312,
10293,
10274,
10176,
9981,
10075,
9815,
9743,
9457,
9286,
9310,
9071,
8966,
8843,
8907,
8730,
8698,
8786,
8573,
8433,
8431,
8229,
8377,
8169,
8062,
8056,
8222,
7988,
7935,
7736,
7528,
7613,
7380,
7374,
7514,
7129,
7110,
7149,
7139,
6931,
6806,
6811,
6665,
6732,
6781,
6540,
6450,
6501,
6224,
6215,
6131,
6194,
6051,
6040,
5889,
5759,
5870,
5659,
5629,
5544,
5454,
5614,
5317,
5292,
5260,
5438,
5162,
5051,
5100,
4977,
4888,
4799,
4789,
4693,
4619,
4582,
4511,
4399,
4398,
4451,
4349,
4133,
4041,
4075,
4017,
4019,
3945,
3843,
3771,
3747,
3658,
3713,
3605,
3584,
3424,
3359,
3305,
3269,
3166,
3250,
3132,
3089,
3002,
3011,
2957,
2833,
2774,
2755,
2719,
2703,
2640,
2680,
2537,
2482,
2416,
2421,
2341,
2337,
2240,
2230,
2158,
2067,
2088,
2042,
1931,
1928,
1784,
1798,
1829,
1724,
1690,
1718,
1588,
1543,
1501,
1436,
1391,
1397,
1421,
1307,
1347,
1280,
1210,
1154,
1138,
1086,
1077,
1020,
1005,
999,
883,
912,
801,
791,
745,
707,
637,
664,
602,
542,
477,
489,
471,
360,
356,
317,
285,
197,
207,
157,
126,
89,
79,
54,
57,
43,
39,
36,
41,
39,
37,
37,
36,
28,
30,
41,
18,
33,
43,
29,
39,
22,
32,
25,
27,
21,
22,
31,
35,
20,
28,
23,
27,
31,
34,
19,
22,
19,
23,
23,
19,
15,
20,
17,
23,
21,
23,
31,
20,
21,
23,
24,
19,
17,
13,
15,
20,
25,
13,
13,
20,
14,
23,
21,
26,
23,
27,
21,
18,
18,
30,
16,
18,
23,
17,
23,
17,
16,
7,
16,
12,
20,
15,
11,
16,
19,
13,
12,
14,
10,
10,
12,
14,
14,
10,
5,
12,
9,
11,
0,
15,
18,
9,
8,
10,
9,
5,
9,
7,
6,
7,
7,
5,
10,
8,
5,
5,
12,
4,
7,
5,
4,
5,
7,
5,
10,
7,
9,
6,
4,
10,
9,
4,
9,
8,
3,
6,
5,
4,
6,
10,
4,
7,
4,
9,
4,
6,
8,
5,
5,
3,
6,
5,
2,
3,
8,
7,
10,
4,
1,
4,
4,
7,
2,
6,
0,
5,
3,
8,
4,
4,
4,
3,
5,
3,
5,
2,
2,
2,
3,
2,
4,
3,
3,
5,
6,
1,
3,
5,
3,
1,
3,
3,
2,
1,
1,
3,
3,
4,
4,
2,
5,
6,
4,
3,
1,
2,
2,
2,
2,
6,
2,
5,
2,
3,
1,
4,
1,
1,
1,
2,
1,
5,
1,
1,
1,
0,
3,
2,
1,
4,
2,
3,
3,
1,
1,
3,
0,
1,
0,
3,
1,
4,
0,
3,
1,
1,
4,
1,
0,
1,
1,
0,
1,
0,
0,
1,
1,
2,
0,
0,
1,
1,
0,
2,
2,
0,
1,
0,
3,
0,
1,
0,
1,
1,
1,
0,
0,
0,
1,
1,
1,
1,
2,
0,
0,
1,
0,
1,
2,
0,
0,
1,
0,
1,
0,
0,
0,
0,
0,
0,
0,
0,
0,
1,
0,
1,
0,
0,
1,
1,
1,
2,
0,
1,
0,
0,
0,
1,
0,
0,
1,
0,
0,
2,
1,
0,
1,
0,
1,
1,
1,
0,
0,
0,
1,
0,
0,
1,
0,
0,
1,
1,
2,
0,
2,
0,
0,
1,
0,
0,
0,
0,
0,
0,
1,
1,
0,
0,
0,
0,
0,
0,
0,
0,
0,
0,
1,
0,
0,
0,
0,
0,
0,
0,
0,
0,
0,
0,
0,
0,
0,
1,
0,
0,
1,
0,
1,
0,
0,
0,
0,
0,
0,
0,
0,
1,
0,
0,
0,
0,
0,
0,
0,
0,
0,
0,
0,
0,
0,
0,
0,
0,
0,
1,
0,
0,
0,
0,
1,
0,
0,
0,
0,
0,
0,
0,
0,
0,
0,
0,
0,
0,
0,
0,
1,
0,
1,
0,
0,
0,
0,
0,
0,
0,
0,
0,
0,
1,
0,
0,
0,
0,
0,
0,
0,
0,
0,
0,
0,
0,
0,
0,
0,
0,
0,
0,
0,
0,
0,
0,
0,
0,
0,
0,
0,
0,
0,
0,
0,
0,
0,
0,
0,
0,
0,
0,
0,
0,
0,
0,
0,
0,
0,
0,
0,
0,
0,
0,
0,
0,
0,
0,
0,
0,
0,
0,
0,
0,
0,
0,
0,
0,
0,
0,
0,
0,
0,
0,
0,
0,
0,
0,
0,
0,
0,
0,
0,
0,
0,
0,
0,
0,
0,
0,
0,
0,
0,
0,
0,
0,
0,
0,
0,
0,
0,
0,
0,
0,
0,
0,
0,
0,
0,
0,
0,
0,
0,
0,
0,
0,
0,
0,
0,
0,
0,
0,
0,
0,
0,
0,
0,
0,
0,
0,
0,
0,
0,
0,
0,
0,
0,
0,
0,
0,
0,
0,
0,
0,
0,
0,
0,
0,
0,
0,
0,
0,
0,
0,
0,
0,
0,
0,
0,
0,
0,
0,
0,
0,
0,
0,
0,
0,
0,
0,
0,
0,
0,
0,
0,
0,
0,
0,
0,
0,
0,
0,
0,
0,
0,
0,
0,
0,
0,
0,
0,
0,
0,
0,
0,
0,
0,
0,
0,
0,
0,
0,
0,
0,
0,
0,
0,
0,
0,
0,
0,
0,
0,
0,
0,
0,
0,
0,
0,
0,
0,
0,
0,
0,
0,
0,
0,
0,
0,
0,
0,
0,
0,
0,
0,
0,
0,
0,
0,
0,
0,
0,
0,
0,
0,
0,
0,
0,
0,
0,
0,
0,
0,
0,
0,
0,
0,
0,
0,
0,
0,
0,
0,
0,
0,
0,
0,
0,
0,
0,
0,
0,
0,
0,
0,
0,
0,
0,
0,
0,
0,
0,
0,
0,
0,
0,
0,
0,
0,
0,
0,
0,
0,
0,
0,
0,
0,
0,
0,
0,
0,
0,
0,
0,
0,
0,
0,
0,
0,
0,
0,
0,
0,
0,
0,
0,
0,
0,
0,
0,
0,
0,
0,
0,
0,
0,
0,
0,
0,
0,
0,
0,
0,
0,
0,
0,
0,
0,
0,
0,
0,
0,
0,
0,
0,
0,
0,
0,
0,
0,
0,
0,
0,
0,
0,
0,
0,
0,
0,
0,
0,
0,
0,
0,
0,
0,
0,
0,
0,
0,
0,
0,
0,
0,
0,
0,
0,
0,
0,
0,
0,
0,
0,
0,
0,
0,
0,
0,
0,
0,
0,
0,
0,
0,
0,
0,
0,
0,
0,
0,
0,
0,
0,
0,
0,
0,
0,
0,
0,
0,
0,
0,
0,
0,
0,
0,
0,
0,
0,
0,
0,
0,
#ENDOFDATA   :