File: N132962/Standards/15 keV/PrF3 std.msa
#FORMAT      : EMSA/MAS Spectral Data File
#VERSION     : 1.0
#TITLE       : PrF3 standard for 'N132962' detector
#NPOINTS     : 4096
#NCOLUMNS    : 1
#XUNITS      : eV
#YUNITS      : counts
#DATATYPE    : Y
#SIGNALTYPE  : EDS
#XLABEL      : Energy (eV)
#YLABEL      : Counts
#XPERCHAN -eV: 9.99778
#OFFSET   -eV: 1.69135
#CHOFFSET    : 0
#DATE        : 26-Sep-2025
#TIME        : 15:47:00
#OWNER       : Unknown
#ELEVANGLE   : 35
#BEAMKV   -kV: 15
#LIVETIME  -s: 1196.72
#REALTIME  -s: 1289.93
#PROBECUR -nA: 1.22066
##WORKING -mm: 15
##D2STDCMP   : PrF3,(F:28.7996),(Pr:71.2004)
##SIMILAR    : 3.3
#SPECTRUM    :
123,
132,
83,
273,
1383,
6580,
20674,
48502,
98326,
118933,
77832,
54482,
55185,
55631,
54182,
59045,
79979,
104746,
96863,
93184,
192499,
619691,
1282374,
1154838,
450322,
113347,
46434,
39416,
45359,
67374,
109895,
136785,
104796,
54848,
32330,
29427,
34389,
43242,
44213,
39150,
38215,
37176,
33418,
30456,
29988,
29250,
28736,
27927,
27989,
28445,
28986,
28611,
28115,
28502,
28933,
29897,
31896,
35824,
38422,
37119,
33845,
31059,
29051,
27789,
27656,
27405,
27846,
27595,
27557,
27811,
27967,
27924,
27809,
28277,
28515,
28852,
28865,
29395,
28951,
28270,
27824,
27607,
27496,
27316,
27581,
27141,
27493,
27859,
27494,
27140,
26943,
26459,
26609,
26349,
26408,
26180,
25947,
26528,
27375,
28487,
28395,
27196,
25841,
25780,
25975,
26016,
26130,
25686,
25519,
25762,
25773,
25220,
24468,
23707,
23248,
23369,
23213,
22665,
22509,
22452,
22300,
22102,
22154,
22507,
22302,
22293,
22149,
21569,
21270,
21236,
20906,
20840,
20682,
20218,
20278,
19973,
20174,
19882,
19540,
19715,
19433,
19583,
18941,
19191,
19177,
20157,
22084,
25218,
28436,
29038,
26228,
22485,
19935,
18697,
18230,
17937,
17613,
17401,
17597,
17678,
18061,
18723,
21094,
29340,
51900,
104694,
190906,
270775,
288651,
228353,
136073,
65336,
31767,
20401,
17304,
16607,
16584,
16781,
19337,
27159,
47958,
83070,
121833,
140730,
127261,
95137,
65239,
46171,
34289,
26442,
22219,
22328,
28284,
40111,
53161,
59018,
53150,
39440,
26094,
17735,
13825,
12603,
12272,
12314,
12420,
12808,
13270,
14679,
18243,
23256,
27837,
28987,
25861,
20391,
16178,
13394,
12401,
12968,
14387,
16125,
16763,
16234,
14157,
12311,
11150,
10706,
10645,
10727,
10497,
9869,
9828,
9454,
9086,
9294,
9120,
9313,
9129,
8945,
8864,
8804,
8879,
8570,
8717,
8705,
8634,
8686,
8485,
8314,
8802,
8673,
8449,
8308,
8121,
7999,
7993,
8022,
8004,
7900,
7904,
7762,
7826,
7899,
7753,
7913,
7480,
7493,
7364,
7392,
7416,
7312,
7263,
7182,
7191,
7139,
7005,
7190,
7114,
7021,
6853,
6960,
6827,
6752,
6666,
6702,
6777,
6572,
6546,
6659,
6361,
6319,
6412,
6365,
6242,
6145,
6055,
6175,
5993,
6021,
5845,
5795,
5838,
6005,
5954,
5898,
5653,
5721,
5657,
5603,
5574,
5460,
5492,
5568,
5286,
5426,
5396,
5313,
5193,
5166,
5223,
5087,
5015,
5032,
4881,
4961,
4912,
5011,
4862,
4926,
4784,
4833,
4750,
4602,
4619,
4662,
4674,
4533,
4669,
4513,
4322,
4473,
4450,
4249,
4198,
4199,
4000,
4122,
4174,
4029,
4015,
4030,
4044,
3941,
3882,
3839,
3764,
3770,
3661,
3598,
3636,
3681,
3662,
3501,
3517,
3519,
3262,
3328,
3324,
3507,
3266,
3321,
3257,
3120,
3068,
2971,
3026,
3151,
3007,
3020,
2871,
2866,
2829,
2877,
2736,
2768,
2671,
2701,
2723,
2680,
2679,
2631,
2527,
2482,
2486,
2406,
2423,
2359,
2363,
2366,
2249,
2253,
2217,
2188,
2079,
2113,
2137,
2059,
2052,
1991,
1943,
1963,
1950,
1927,
1801,
1824,
1832,
1793,
1772,
1704,
1663,
1676,
1657,
1580,
1557,
1575,
1492,
1566,
1502,
1537,
1390,
1417,
1426,
1370,
1298,
1338,
1316,
1286,
1204,
1202,
1229,
1168,
1208,
1165,
1145,
1155,
1082,
1063,
1009,
978,
1023,
913,
962,
977,
956,
850,
886,
836,
780,
788,
753,
738,
708,
737,
687,
681,
643,
637,
576,
569,
570,
535,
527,
493,
510,
465,
451,
446,
433,
420,
359,
362,
359,
328,
336,
275,
268,
293,
219,
226,
205,
184,
183,
146,
136,
142,
110,
94,
53,
61,
50,
35,
31,
23,
22,
18,
16,
16,
16,
13,
16,
11,
14,
7,
9,
16,
11,
8,
8,
20,
15,
11,
9,
9,
12,
12,
10,
5,
11,
17,
7,
15,
15,
9,
12,
12,
12,
7,
7,
13,
7,
7,
6,
6,
9,
11,
9,
10,
7,
13,
9,
8,
8,
8,
7,
3,
10,
9,
4,
4,
9,
9,
5,
5,
8,
8,
13,
14,
10,
4,
10,
7,
12,
8,
8,
9,
4,
10,
13,
7,
15,
6,
8,
9,
4,
8,
4,
7,
6,
7,
3,
5,
7,
8,
12,
1,
9,
7,
8,
8,
4,
11,
11,
3,
9,
5,
5,
5,
7,
1,
7,
3,
5,
4,
4,
4,
3,
4,
6,
3,
2,
3,
8,
5,
1,
1,
4,
6,
2,
3,
4,
5,
2,
6,
5,
2,
2,
2,
4,
4,
4,
5,
4,
3,
4,
0,
5,
3,
1,
3,
1,
1,
6,
0,
2,
1,
5,
2,
4,
5,
5,
1,
3,
2,
1,
1,
1,
2,
1,
1,
2,
1,
2,
1,
2,
0,
3,
1,
0,
2,
2,
2,
1,
2,
1,
1,
0,
2,
1,
1,
0,
1,
1,
2,
1,
2,
0,
2,
1,
3,
1,
1,
0,
0,
1,
1,
2,
2,
0,
2,
3,
1,
0,
1,
1,
1,
1,
0,
1,
1,
1,
0,
0,
1,
0,
0,
0,
1,
0,
2,
1,
0,
0,
0,
0,
0,
0,
0,
1,
1,
0,
0,
0,
2,
1,
1,
0,
0,
0,
0,
0,
1,
0,
0,
0,
0,
1,
0,
0,
0,
0,
1,
1,
1,
0,
0,
0,
1,
0,
1,
1,
0,
0,
0,
1,
0,
1,
0,
0,
1,
0,
0,
0,
0,
0,
0,
0,
0,
1,
0,
0,
0,
0,
0,
0,
0,
0,
0,
0,
0,
0,
0,
0,
0,
1,
0,
0,
0,
0,
0,
0,
0,
0,
0,
0,
1,
0,
0,
0,
0,
0,
0,
0,
0,
0,
0,
0,
1,
0,
0,
0,
0,
0,
2,
0,
0,
0,
0,
0,
0,
0,
0,
0,
0,
0,
0,
1,
0,
0,
0,
0,
0,
0,
0,
0,
0,
0,
0,
0,
0,
0,
0,
0,
1,
0,
0,
0,
0,
0,
0,
0,
0,
0,
0,
0,
0,
0,
0,
0,
0,
0,
0,
0,
0,
1,
0,
0,
0,
0,
0,
1,
0,
0,
0,
0,
0,
0,
0,
0,
0,
0,
0,
0,
0,
0,
0,
0,
0,
0,
0,
0,
0,
0,
0,
0,
0,
0,
0,
0,
0,
0,
0,
0,
0,
0,
0,
0,
0,
0,
0,
0,
0,
0,
0,
0,
0,
0,
0,
0,
0,
0,
0,
0,
0,
0,
0,
0,
0,
0,
0,
0,
0,
0,
0,
0,
0,
0,
0,
0,
0,
0,
0,
0,
0,
0,
0,
0,
0,
0,
0,
0,
0,
0,
0,
0,
0,
0,
0,
0,
0,
0,
0,
0,
0,
0,
0,
0,
0,
0,
0,
0,
0,
0,
0,
0,
0,
0,
0,
0,
0,
0,
0,
0,
0,
0,
0,
0,
0,
0,
0,
0,
0,
0,
0,
0,
0,
0,
0,
0,
0,
0,
0,
0,
0,
0,
0,
0,
0,
0,
0,
0,
0,
0,
0,
0,
0,
0,
0,
0,
0,
0,
0,
0,
0,
0,
0,
0,
0,
0,
0,
0,
0,
0,
0,
0,
0,
0,
0,
0,
0,
0,
0,
0,
0,
0,
0,
0,
0,
0,
0,
0,
0,
0,
0,
0,
0,
0,
0,
0,
0,
0,
0,
0,
0,
0,
0,
0,
0,
0,
0,
0,
0,
0,
0,
0,
0,
0,
0,
0,
0,
0,
0,
0,
0,
0,
0,
0,
0,
0,
0,
0,
0,
0,
0,
0,
0,
0,
0,
0,
0,
0,
0,
0,
0,
0,
0,
0,
0,
0,
0,
0,
0,
0,
0,
0,
0,
0,
0,
0,
0,
0,
0,
0,
0,
0,
0,
0,
0,
0,
0,
0,
0,
0,
0,
0,
0,
0,
0,
0,
0,
0,
0,
0,
0,
0,
0,
0,
0,
0,
0,
0,
0,
0,
0,
0,
0,
0,
0,
0,
0,
0,
0,
0,
0,
0,
0,
0,
0,
0,
0,
0,
0,
0,
0,
0,
0,
0,
0,
0,
0,
0,
0,
0,
0,
0,
0,
0,
0,
0,
0,
0,
0,
0,
0,
0,
0,
0,
0,
0,
0,
0,
0,
0,
0,
0,
0,
0,
0,
0,
0,
0,
0,
0,
0,
0,
0,
0,
0,
0,
0,
0,
0,
0,
0,
0,
0,
0,
0,
0,
0,
0,
0,
0,
0,
0,
0,
0,
0,
0,
0,
0,
0,
0,
0,
0,
0,
0,
0,
0,
0,
0,
0,
0,
0,
0,
0,
0,
0,
0,
0,
0,
0,
0,
0,
0,
0,
0,
0,
0,
0,
0,
0,
0,
0,
0,
0,
0,
0,
0,
0,
0,
0,
0,
0,
0,
0,
0,
0,
0,
0,
0,
0,
0,
0,
0,
0,
0,
0,
0,
0,
0,
0,
0,
0,
0,
0,
0,
0,
0,
0,
0,
0,
0,
0,
0,
0,
0,
0,
0,
0,
0,
0,
0,
0,
0,
0,
0,
0,
0,
0,
0,
0,
0,
0,
0,
0,
0,
0,
0,
0,
0,
0,
0,
0,
0,
0,
0,
0,
#ENDOFDATA   :