File: N132962/Standards/15 keV/PrP5O14 std.msa
#FORMAT      : EMSA/MAS Spectral Data File
#VERSION     : 1.0
#TITLE       : PrP5O14 standard for 'N132962' detector
#NPOINTS     : 4096
#NCOLUMNS    : 1
#XUNITS      : eV
#YUNITS      : counts
#DATATYPE    : Y
#SIGNALTYPE  : EDS
#XLABEL      : Energy (eV)
#YLABEL      : Counts
#XPERCHAN -eV: 9.99778
#OFFSET   -eV: 1.69135
#CHOFFSET    : 0
#DATE        : 17-Mar-2025
#TIME        : 16:57:00
#OWNER       : Unknown
#ELEVANGLE   : 35
#BEAMKV   -kV: 15
#LIVETIME  -s: 1198.62
#REALTIME  -s: 1264.92
#PROBECUR -nA: 1.02671
##WORKING -mm: 15
##D2STDCMP   : PrP5O14,(O:43.0939),(P:29.7961),(Pr:27.1100)
##SIMILAR    : 5.4
#SPECTRUM    :
113,
124,
53,
180,
776,
2529,
6772,
21006,
61724,
85651,
47710,
23464,
26760,
32879,
45246,
140414,
529946,
1022389,
745555,
198782,
31110,
18517,
26921,
40077,
41270,
28495,
21959,
21315,
23729,
31075,
48779,
62634,
53123,
33485,
24085,
23027,
24242,
27872,
28214,
26089,
26133,
25640,
24107,
22490,
21831,
21401,
21551,
21280,
22233,
22693,
22849,
22324,
22007,
21918,
22127,
22403,
23500,
25194,
26315,
26217,
25422,
25183,
27922,
42033,
88874,
235484,
528927,
735309,
578243,
264913,
96011,
57136,
43298,
28085,
18195,
14780,
14319,
14168,
14266,
13855,
14160,
14024,
14310,
15289,
15608,
15532,
14836,
14015,
13553,
13637,
13313,
13237,
13034,
13155,
12936,
12955,
12834,
12726,
12772,
12720,
12246,
12368,
12304,
12300,
12056,
11940,
12049,
11947,
12180,
12349,
11943,
11935,
11491,
11344,
11215,
11137,
11051,
10845,
10933,
10860,
10800,
10607,
10768,
10818,
10653,
10519,
10170,
10188,
10269,
10026,
9991,
10019,
10070,
10203,
10020,
9898,
9823,
9519,
9416,
9257,
9202,
9056,
9125,
8852,
8943,
9153,
9642,
10543,
11334,
11684,
10703,
9753,
8910,
8376,
8218,
8042,
8280,
8058,
8151,
8234,
8067,
8527,
9114,
11290,
17356,
32015,
56318,
79112,
84450,
67920,
41304,
21313,
11708,
8362,
7397,
7204,
7240,
7266,
7944,
10234,
15796,
25561,
36348,
41693,
38013,
29409,
20832,
15438,
12298,
9651,
8397,
8229,
9976,
13496,
17112,
18745,
17426,
13452,
9485,
7250,
6239,
5689,
5672,
5593,
5454,
5506,
5687,
6119,
7329,
8571,
9837,
10281,
9454,
7907,
6393,
5736,
5336,
5590,
6062,
6308,
6492,
6194,
5862,
5235,
4953,
4897,
4714,
4814,
4628,
4433,
4383,
4392,
4256,
4413,
4326,
4232,
4289,
4132,
4071,
4135,
4022,
4046,
4014,
3900,
3757,
3872,
3833,
3915,
3793,
3930,
3887,
3853,
3633,
3741,
3561,
3549,
3518,
3605,
3546,
3547,
3414,
3492,
3421,
3383,
3396,
3201,
3319,
3267,
3258,
3086,
3161,
3135,
3089,
3186,
3090,
3062,
3103,
3057,
3104,
2981,
2895,
2874,
2930,
2915,
2925,
2843,
2796,
2857,
2787,
2752,
2618,
2611,
2669,
2608,
2631,
2507,
2555,
2546,
2543,
2546,
2488,
2487,
2449,
2403,
2457,
2375,
2355,
2348,
2310,
2272,
2342,
2248,
2201,
2204,
2177,
2123,
2191,
2190,
2086,
2052,
2104,
2058,
2048,
2042,
1950,
2042,
1921,
1885,
1922,
1885,
1837,
1888,
1870,
1863,
1803,
1765,
1777,
1781,
1818,
1712,
1784,
1711,
1737,
1607,
1623,
1603,
1581,
1682,
1586,
1584,
1583,
1607,
1511,
1575,
1428,
1430,
1461,
1452,
1474,
1379,
1430,
1418,
1329,
1360,
1269,
1309,
1280,
1283,
1222,
1291,
1262,
1190,
1152,
1171,
1206,
1182,
1136,
1177,
1132,
1151,
1140,
1062,
1052,
1047,
930,
1031,
986,
949,
991,
1031,
916,
976,
931,
892,
894,
857,
924,
863,
842,
892,
850,
819,
775,
774,
727,
810,
819,
729,
722,
713,
743,
702,
705,
654,
643,
665,
657,
595,
578,
598,
571,
610,
547,
579,
541,
564,
541,
492,
545,
468,
519,
483,
479,
414,
432,
444,
395,
417,
400,
423,
423,
413,
378,
360,
427,
380,
361,
336,
316,
306,
284,
315,
285,
245,
283,
272,
266,
246,
245,
232,
229,
234,
212,
195,
193,
192,
181,
174,
176,
164,
154,
169,
134,
136,
165,
144,
129,
115,
118,
112,
100,
89,
97,
92,
90,
73,
62,
73,
50,
50,
48,
39,
44,
28,
16,
22,
15,
21,
13,
6,
2,
3,
4,
3,
2,
4,
3,
1,
2,
3,
3,
3,
6,
2,
1,
3,
6,
3,
2,
2,
3,
5,
3,
2,
2,
1,
1,
2,
5,
1,
1,
0,
2,
4,
2,
2,
1,
1,
1,
1,
2,
2,
4,
1,
1,
2,
3,
2,
1,
1,
0,
0,
0,
1,
0,
1,
1,
1,
2,
0,
1,
1,
1,
2,
5,
0,
1,
0,
3,
3,
4,
2,
1,
3,
1,
1,
1,
3,
0,
0,
3,
0,
0,
0,
3,
0,
0,
1,
2,
0,
0,
0,
2,
1,
1,
1,
0,
1,
1,
1,
0,
0,
1,
0,
1,
0,
2,
0,
1,
0,
2,
2,
0,
2,
0,
1,
0,
0,
0,
0,
2,
0,
0,
0,
0,
1,
2,
1,
0,
0,
0,
1,
0,
0,
0,
0,
0,
0,
0,
0,
1,
0,
0,
0,
0,
1,
0,
0,
0,
1,
2,
1,
0,
1,
1,
0,
0,
0,
1,
0,
1,
0,
0,
0,
1,
0,
0,
0,
1,
0,
0,
0,
0,
1,
0,
0,
0,
0,
0,
1,
0,
0,
0,
1,
0,
0,
1,
0,
0,
0,
0,
0,
0,
0,
0,
0,
1,
0,
0,
0,
0,
0,
0,
0,
0,
0,
0,
0,
1,
0,
0,
0,
0,
0,
0,
0,
1,
0,
0,
0,
0,
0,
0,
0,
0,
0,
0,
0,
0,
0,
0,
0,
0,
0,
1,
0,
0,
0,
0,
1,
0,
0,
0,
1,
0,
0,
0,
0,
0,
0,
0,
0,
0,
1,
0,
0,
0,
0,
1,
0,
0,
0,
0,
0,
0,
0,
0,
0,
0,
0,
0,
0,
0,
0,
0,
0,
0,
0,
0,
0,
0,
0,
1,
0,
0,
0,
0,
0,
0,
0,
0,
1,
0,
0,
0,
0,
0,
0,
0,
0,
1,
0,
0,
0,
0,
0,
0,
2,
0,
0,
0,
0,
0,
0,
0,
0,
0,
0,
0,
0,
0,
0,
0,
0,
0,
0,
0,
0,
0,
0,
0,
0,
0,
0,
0,
0,
0,
0,
0,
0,
0,
0,
0,
1,
0,
0,
1,
0,
0,
0,
0,
0,
0,
0,
0,
0,
0,
0,
0,
0,
0,
0,
0,
0,
0,
0,
0,
0,
0,
0,
0,
0,
0,
0,
0,
0,
0,
0,
0,
0,
0,
0,
0,
0,
0,
0,
0,
0,
0,
0,
0,
0,
0,
0,
0,
0,
0,
0,
0,
0,
0,
0,
0,
0,
0,
0,
0,
0,
0,
0,
0,
0,
0,
0,
0,
0,
0,
0,
0,
0,
0,
0,
0,
0,
0,
0,
0,
0,
0,
0,
0,
0,
0,
0,
0,
0,
0,
0,
0,
0,
0,
0,
0,
0,
0,
0,
0,
0,
0,
0,
0,
0,
0,
0,
0,
0,
0,
0,
0,
0,
0,
0,
0,
0,
0,
0,
0,
0,
0,
0,
0,
0,
0,
0,
0,
0,
0,
0,
0,
0,
0,
0,
0,
0,
0,
0,
0,
0,
0,
0,
0,
0,
0,
0,
0,
0,
0,
0,
0,
0,
0,
0,
0,
0,
0,
0,
0,
0,
0,
0,
0,
0,
0,
0,
0,
0,
0,
0,
0,
0,
0,
0,
0,
0,
0,
0,
0,
0,
0,
0,
0,
0,
0,
0,
0,
0,
0,
0,
0,
0,
0,
0,
0,
0,
0,
0,
0,
0,
0,
0,
0,
0,
0,
0,
0,
0,
0,
0,
0,
0,
0,
0,
0,
0,
0,
0,
0,
0,
0,
0,
0,
0,
0,
0,
0,
0,
0,
0,
0,
0,
0,
0,
0,
0,
0,
0,
0,
0,
0,
0,
0,
0,
0,
0,
0,
0,
0,
0,
0,
0,
0,
0,
0,
0,
0,
0,
0,
0,
0,
0,
0,
0,
0,
0,
0,
0,
0,
0,
0,
0,
0,
0,
0,
0,
0,
0,
0,
0,
0,
0,
0,
0,
0,
0,
0,
0,
0,
0,
0,
0,
0,
0,
0,
0,
0,
0,
0,
0,
0,
0,
0,
0,
0,
0,
0,
0,
0,
0,
0,
0,
0,
0,
0,
0,
0,
0,
0,
0,
0,
0,
0,
0,
0,
0,
0,
0,
0,
0,
0,
0,
0,
0,
0,
0,
0,
0,
0,
0,
0,
0,
0,
0,
0,
0,
0,
0,
0,
0,
0,
0,
0,
0,
0,
0,
0,
0,
0,
0,
0,
0,
0,
0,
0,
0,
0,
0,
0,
0,
0,
0,
0,
0,
0,
0,
0,
0,
0,
0,
0,
0,
0,
0,
0,
0,
0,
0,
0,
0,
0,
0,
0,
0,
0,
0,
0,
0,
0,
0,
0,
0,
0,
0,
0,
0,
0,
0,
0,
0,
0,
0,
0,
0,
0,
0,
0,
0,
0,
0,
0,
0,
0,
0,
0,
0,
0,
0,
0,
0,
0,
0,
0,
0,
0,
0,
0,
0,
0,
0,
0,
0,
0,
0,
0,
0,
0,
0,
0,
0,
0,
0,
0,
0,
0,
0,
0,
0,
0,
0,
0,
0,
0,
0,
0,
0,
0,
0,
0,
0,
0,
0,
0,
0,
0,
0,
0,
0,
0,
0,
0,
0,
0,
0,
0,
0,
0,
0,
0,
0,
0,
0,
0,
0,
0,
0,
0,
0,
0,
0,
0,
0,
0,
0,
0,
0,
0,
0,
0,
0,
0,
0,
0,
0,
0,
0,
0,
0,
#ENDOFDATA   :