File: N132962/Standards/15 keV/Pt std.msa
#FORMAT      : EMSA/MAS Spectral Data File
#VERSION     : 1.0
#TITLE       : Pt standard for 'N132962' detector
#NPOINTS     : 4096
#NCOLUMNS    : 1
#XUNITS      : eV
#YUNITS      : counts
#DATATYPE    : Y
#SIGNALTYPE  : EDS
#XLABEL      : Energy (eV)
#YLABEL      : Counts
#XPERCHAN -eV: 9.99778
#OFFSET   -eV: 1.69135
#CHOFFSET    : 0
#DATE        : 27-Sep-2025
#TIME        : 20:38:00
#OWNER       : Unknown
#ELEVANGLE   : 35
#BEAMKV   -kV: 15
#LIVETIME  -s: 2159.64
#REALTIME  -s: 2402
#PROBECUR -nA: 1.21175
##WORKING -mm: 15
##D2STDCMP   : Pt,(Pt:100.0000)
##SIMILAR    : 1.1
#SPECTRUM    :
239,
242,
165,
880,
4988,
17807,
42553,
89191,
161975,
192300,
153616,
106324,
91616,
92776,
75738,
69079,
76562,
86486,
81133,
73927,
74532,
77582,
81770,
85668,
87314,
88528,
92743,
98973,
104194,
108971,
116457,
124158,
121960,
119692,
120982,
119941,
117168,
117223,
117256,
118033,
119232,
120004,
120567,
122543,
122700,
123809,
124549,
125796,
127967,
130644,
137984,
166049,
235365,
299538,
275040,
201189,
158349,
147133,
144124,
142287,
138672,
135582,
139635,
164193,
214371,
329019,
696654,
1542849,
2442968,
2561123,
2137687,
1690114,
1059416,
448146,
157128,
92016,
104391,
132409,
136206,
109020,
78451,
62911,
59312,
59632,
61600,
63094,
64864,
67929,
73106,
78150,
77727,
71518,
65104,
60444,
58270,
56647,
55873,
56583,
56535,
57009,
57028,
56964,
56778,
55566,
54919,
55751,
56149,
56791,
56807,
56899,
56075,
55051,
54791,
54436,
54955,
55095,
54844,
54878,
54978,
55220,
55331,
54724,
55453,
55179,
55140,
54793,
54522,
54302,
55070,
54196,
54265,
54542,
54591,
54817,
55352,
56031,
57870,
58474,
58336,
58459,
57335,
56020,
54776,
53613,
53425,
52734,
51947,
52044,
51743,
51498,
51316,
50909,
50733,
50654,
50420,
50734,
49860,
50217,
49620,
49867,
49617,
49049,
48923,
48631,
48479,
48574,
48792,
48033,
47377,
47404,
47643,
47325,
46830,
46466,
46523,
45926,
46062,
45684,
45935,
45451,
45215,
44884,
44920,
44806,
44291,
44130,
44028,
43450,
43635,
43457,
43401,
43005,
42710,
42116,
42471,
42267,
41934,
41562,
41405,
40858,
41030,
40492,
40632,
40460,
39917,
39777,
39790,
39592,
39506,
39085,
38945,
39317,
39554,
39346,
39232,
38697,
37908,
37783,
37002,
37027,
36244,
36458,
36362,
36108,
35949,
34923,
35560,
34725,
35185,
34782,
34307,
33991,
34372,
33979,
33982,
33588,
33368,
33007,
33080,
32819,
32781,
32216,
31954,
32016,
31784,
31693,
31695,
31802,
31402,
31529,
31154,
30877,
30653,
30419,
30045,
29563,
29442,
29314,
29282,
28661,
28624,
28657,
28365,
28542,
27878,
28175,
27860,
27809,
27906,
27566,
27502,
27762,
28350,
28463,
30209,
30550,
30013,
29205,
27746,
26565,
25979,
25459,
25239,
24928,
24754,
24694,
24404,
24403,
24046,
24112,
23666,
23866,
23458,
23130,
23115,
22824,
22803,
22462,
22327,
22550,
22268,
21958,
21938,
21932,
21447,
21298,
21728,
22493,
24717,
29244,
37903,
51632,
70825,
89111,
101071,
98097,
83261,
63759,
44582,
31490,
24199,
21007,
19662,
19143,
19011,
18684,
18312,
18373,
18122,
18366,
18164,
17894,
17720,
17394,
17227,
17222,
16666,
16888,
16420,
16414,
16199,
16019,
16029,
15663,
15581,
15725,
15356,
15417,
15176,
15062,
14850,
14991,
14865,
14537,
14588,
14328,
14194,
14461,
14629,
14710,
15037,
15144,
14831,
15104,
15878,
16992,
19213,
21682,
23444,
24470,
24699,
24877,
25033,
26409,
27265,
26796,
24643,
21146,
17378,
14755,
13304,
12280,
11988,
11894,
12051,
11518,
11503,
10774,
10358,
9895,
9729,
9683,
9311,
9245,
9034,
8992,
8951,
9107,
8670,
8660,
8423,
8352,
8505,
8269,
8268,
8115,
7910,
7916,
7684,
7745,
7633,
7463,
7394,
7442,
7318,
7279,
7205,
7033,
7038,
7042,
6878,
6590,
6733,
6413,
6330,
6462,
6555,
6802,
7020,
7285,
7467,
7599,
7471,
6891,
6351,
5940,
5695,
5298,
5350,
5294,
5136,
5165,
5100,
5018,
4738,
4658,
4615,
4442,
4285,
4140,
4081,
4094,
3898,
3791,
3638,
3695,
3580,
3587,
3540,
3305,
3265,
3203,
3162,
3144,
2978,
2899,
2851,
2693,
2630,
2613,
2511,
2502,
2363,
2288,
2168,
2203,
2022,
2004,
1934,
1772,
1744,
1684,
1505,
1524,
1497,
1398,
1381,
1223,
1147,
1142,
1049,
900,
860,
744,
707,
568,
549,
416,
350,
295,
211,
175,
157,
99,
101,
81,
84,
74,
98,
72,
81,
79,
83,
86,
55,
69,
76,
75,
70,
67,
64,
72,
74,
67,
55,
68,
56,
60,
64,
53,
62,
59,
56,
58,
56,
63,
51,
51,
40,
51,
45,
55,
51,
42,
52,
36,
47,
45,
50,
46,
56,
52,
51,
38,
48,
35,
40,
32,
36,
37,
42,
49,
55,
52,
62,
48,
54,
47,
41,
38,
47,
57,
30,
37,
41,
46,
52,
39,
39,
44,
38,
35,
35,
37,
36,
24,
46,
28,
33,
29,
40,
39,
40,
45,
22,
40,
27,
33,
31,
37,
21,
29,
30,
29,
35,
26,
26,
27,
31,
30,
24,
25,
26,
33,
24,
24,
24,
31,
33,
28,
23,
23,
25,
28,
24,
27,
29,
24,
26,
30,
24,
13,
18,
15,
21,
26,
14,
25,
24,
32,
12,
24,
16,
15,
23,
23,
21,
21,
16,
22,
22,
19,
15,
22,
22,
14,
11,
16,
16,
14,
17,
16,
16,
15,
18,
13,
20,
8,
20,
16,
21,
17,
12,
14,
17,
16,
17,
19,
20,
18,
14,
10,
24,
11,
14,
18,
14,
20,
15,
13,
10,
9,
12,
18,
18,
11,
6,
13,
6,
14,
18,
5,
14,
9,
6,
5,
4,
9,
7,
8,
7,
8,
7,
6,
7,
5,
10,
12,
13,
8,
15,
10,
7,
9,
7,
8,
9,
9,
5,
6,
12,
10,
14,
5,
7,
3,
4,
9,
3,
7,
14,
3,
5,
7,
3,
6,
5,
8,
6,
6,
8,
2,
7,
6,
4,
3,
3,
2,
5,
7,
2,
3,
6,
5,
4,
1,
3,
4,
4,
6,
3,
1,
2,
1,
2,
4,
4,
1,
4,
6,
3,
7,
3,
2,
1,
3,
2,
1,
3,
7,
1,
0,
4,
4,
2,
4,
4,
3,
0,
4,
2,
0,
2,
2,
2,
0,
4,
2,
0,
2,
1,
1,
4,
3,
2,
3,
2,
4,
1,
1,
0,
2,
4,
0,
0,
2,
3,
2,
0,
4,
2,
2,
1,
2,
2,
2,
2,
0,
4,
1,
1,
7,
3,
3,
2,
4,
2,
0,
0,
1,
2,
2,
3,
1,
0,
3,
0,
0,
2,
1,
0,
0,
2,
0,
1,
2,
0,
0,
0,
0,
2,
0,
1,
0,
1,
0,
0,
2,
0,
1,
1,
1,
0,
0,
1,
0,
0,
1,
0,
0,
0,
2,
0,
1,
2,
0,
1,
0,
0,
1,
0,
0,
0,
0,
0,
0,
0,
0,
0,
0,
1,
1,
0,
0,
0,
0,
0,
0,
0,
0,
0,
0,
0,
1,
0,
0,
0,
0,
0,
1,
0,
0,
0,
0,
0,
0,
0,
0,
0,
0,
0,
0,
0,
0,
0,
0,
0,
0,
0,
0,
0,
0,
0,
0,
0,
0,
0,
0,
0,
0,
0,
0,
0,
0,
0,
0,
0,
0,
0,
0,
0,
0,
0,
0,
0,
0,
0,
0,
0,
0,
0,
0,
0,
0,
0,
0,
0,
0,
0,
0,
0,
0,
0,
0,
0,
0,
0,
0,
0,
0,
0,
0,
0,
0,
0,
0,
0,
0,
0,
0,
0,
0,
0,
0,
0,
0,
0,
0,
0,
0,
0,
0,
0,
0,
0,
0,
0,
0,
0,
0,
0,
0,
0,
0,
0,
0,
0,
0,
0,
0,
0,
0,
0,
0,
0,
0,
0,
0,
0,
0,
0,
0,
0,
0,
0,
0,
0,
0,
0,
0,
0,
0,
0,
0,
0,
0,
0,
0,
0,
0,
0,
0,
0,
0,
0,
0,
0,
0,
0,
0,
0,
0,
0,
0,
0,
0,
0,
0,
0,
0,
0,
0,
0,
0,
0,
0,
0,
0,
0,
0,
0,
0,
0,
0,
0,
0,
0,
0,
0,
0,
0,
0,
0,
0,
0,
0,
0,
0,
0,
0,
0,
0,
0,
0,
0,
0,
0,
0,
0,
0,
0,
0,
0,
0,
0,
0,
0,
0,
0,
0,
0,
0,
0,
0,
0,
0,
0,
0,
0,
0,
0,
0,
0,
0,
0,
0,
0,
0,
0,
0,
0,
0,
0,
0,
0,
0,
0,
0,
0,
0,
0,
0,
0,
0,
0,
0,
0,
0,
0,
0,
0,
0,
0,
0,
0,
0,
0,
0,
0,
0,
0,
0,
0,
0,
0,
0,
0,
0,
0,
0,
0,
0,
0,
0,
0,
0,
0,
0,
0,
0,
0,
0,
0,
0,
0,
0,
0,
0,
0,
0,
0,
0,
0,
0,
0,
0,
0,
0,
0,
0,
0,
0,
0,
0,
0,
0,
0,
0,
0,
0,
0,
0,
0,
0,
0,
0,
0,
0,
0,
0,
0,
0,
0,
0,
0,
0,
0,
0,
0,
0,
0,
0,
0,
0,
0,
0,
0,
0,
0,
0,
0,
0,
0,
0,
0,
0,
0,
0,
0,
0,
0,
0,
0,
0,
0,
0,
0,
0,
0,
0,
0,
0,
0,
0,
0,
0,
0,
0,
0,
0,
0,
0,
0,
0,
0,
0,
0,
0,
0,
0,
0,
0,
0,
0,
0,
0,
0,
0,
0,
0,
0,
0,
0,
0,
0,
0,
0,
0,
0,
0,
0,
0,
0,
0,
0,
0,
0,
0,
0,
0,
0,
0,
0,
0,
0,
0,
0,
0,
0,
0,
0,
0,
0,
0,
0,
0,
0,
0,
0,
0,
0,
0,
0,
0,
0,
0,
#ENDOFDATA   :