File: N132962/Standards/15 keV/RbI std.msa
#FORMAT      : EMSA/MAS Spectral Data File
#VERSION     : 1.0
#TITLE       : RbI standard for 'N132962' detector
#NPOINTS     : 4096
#NCOLUMNS    : 1
#XUNITS      : eV
#YUNITS      : counts
#DATATYPE    : Y
#SIGNALTYPE  : EDS
#XLABEL      : Energy (eV)
#YLABEL      : Counts
#XPERCHAN -eV: 9.99778
#OFFSET   -eV: 1.69135
#CHOFFSET    : 0
#DATE        : 29-Sep-2025
#TIME        : 10:41:00
#OWNER       : Unknown
#ELEVANGLE   : 35
#BEAMKV   -kV: 15
#LIVETIME  -s: 2160.8
#REALTIME  -s: 2342.47
#PROBECUR -nA: 1.22416
##WORKING -mm: 15
##D2STDCMP   : RbI,(Rb:40.2443),(I:59.7557)
##SIMILAR    : 5.6
#SPECTRUM    :
216,
272,
121,
508,
2893,
10950,
27201,
60528,
133738,
162148,
93317,
54393,
52850,
59640,
86261,
163511,
253713,
241367,
151669,
101384,
100946,
93947,
73821,
64259,
61129,
60889,
68960,
83239,
90081,
86941,
86586,
84753,
77592,
72577,
72305,
70290,
67684,
67338,
68401,
70070,
71465,
72837,
74796,
76503,
78026,
79744,
81518,
89726,
108816,
136315,
141934,
129218,
115093,
122848,
254121,
693314,
1286707,
1444806,
1130432,
718178,
376814,
189970,
108334,
71332,
59222,
56897,
57504,
59277,
60588,
60152,
58135,
58115,
60473,
62582,
61360,
58694,
56964,
56533,
56354,
56238,
56326,
57545,
58451,
58477,
57876,
57308,
57170,
57480,
56792,
56228,
55194,
55535,
55805,
55449,
54715,
54078,
54136,
53669,
53877,
53578,
52924,
52936,
52767,
52514,
51766,
52039,
52156,
51815,
51568,
51855,
52682,
52608,
52647,
54797,
60475,
69109,
75259,
72730,
64150,
54893,
51002,
49450,
48940,
50042,
52916,
57808,
64813,
81010,
141127,
300520,
545403,
725168,
669026,
434783,
211790,
96707,
63225,
71278,
118501,
214710,
323160,
370843,
326856,
236507,
162879,
112787,
82285,
72597,
85245,
115075,
138925,
133844,
101577,
68681,
48142,
40373,
39727,
43273,
53544,
66517,
73435,
68345,
54696,
42719,
36441,
35657,
38779,
44207,
48283,
48129,
43749,
38544,
35031,
32947,
31504,
30567,
29736,
29288,
28969,
28449,
28957,
28870,
28781,
28541,
28410,
28427,
28658,
28662,
29268,
28908,
28037,
28173,
27860,
27230,
26951,
27064,
27029,
27200,
27272,
26823,
26432,
26430,
26009,
25708,
25412,
25326,
25429,
25035,
24950,
25007,
25039,
25154,
25043,
25171,
24808,
24685,
24327,
23913,
23423,
23512,
23319,
23012,
23153,
22702,
22473,
22496,
22375,
22194,
22068,
22039,
22080,
21574,
21320,
21347,
21354,
21060,
20812,
21134,
20784,
20831,
20410,
20195,
20592,
20093,
19944,
19648,
19794,
19852,
19806,
19621,
19724,
19202,
19009,
18794,
18548,
18511,
18236,
18414,
18293,
18248,
17869,
17960,
18161,
18010,
17788,
17612,
17678,
17728,
17588,
17676,
17751,
16980,
16667,
16655,
16529,
16293,
16133,
16034,
16088,
15946,
15616,
15684,
15476,
15364,
15289,
15646,
15261,
15130,
15107,
15062,
14862,
14349,
14502,
14093,
14119,
13931,
13859,
13847,
14007,
13729,
13446,
13352,
13388,
13146,
12985,
12988,
12835,
12718,
12597,
12680,
12186,
12482,
12087,
12167,
12058,
11846,
11952,
11795,
11857,
11790,
11583,
11464,
11382,
11397,
11160,
11016,
10985,
11123,
10833,
10700,
10483,
10439,
10290,
10282,
10338,
10363,
10045,
10085,
9839,
9732,
9732,
9710,
9534,
9499,
9247,
9272,
9152,
9144,
9077,
8839,
8889,
8816,
8754,
8701,
8717,
8378,
8185,
8379,
8153,
8137,
8069,
7927,
8061,
7993,
7731,
7740,
7460,
7632,
7338,
7398,
7222,
7227,
7123,
7046,
6936,
6800,
6796,
6753,
6630,
6474,
6509,
6397,
6406,
6244,
6177,
6085,
6025,
6006,
5890,
5762,
5798,
5719,
5704,
5523,
5478,
5469,
5350,
5282,
5187,
5051,
5210,
5048,
4965,
4937,
4917,
4752,
4669,
4506,
4493,
4444,
4379,
4258,
4253,
4138,
4165,
4126,
3981,
3861,
3913,
3811,
3748,
3641,
3765,
3612,
3555,
3460,
3493,
3401,
3394,
3279,
3290,
3253,
3098,
3089,
2995,
2843,
2879,
2785,
2763,
2650,
2740,
2691,
2554,
2590,
2483,
2366,
2327,
2247,
2306,
2223,
2141,
2209,
2121,
2050,
2033,
1886,
1878,
1892,
1784,
1771,
1643,
1609,
1589,
1553,
1661,
1555,
1447,
1345,
1352,
1250,
1238,
1194,
1149,
1154,
1134,
1009,
961,
976,
913,
916,
845,
799,
782,
689,
722,
601,
591,
549,
453,
415,
449,
378,
370,
313,
260,
241,
191,
132,
131,
101,
77,
60,
48,
39,
41,
41,
35,
37,
46,
26,
31,
28,
40,
38,
39,
32,
30,
27,
33,
26,
32,
34,
24,
25,
21,
25,
32,
28,
20,
15,
34,
26,
30,
22,
19,
26,
27,
20,
26,
17,
21,
27,
18,
26,
31,
25,
26,
16,
15,
25,
20,
25,
21,
13,
20,
20,
10,
21,
19,
16,
13,
19,
27,
26,
25,
21,
19,
14,
19,
22,
16,
19,
17,
21,
21,
13,
14,
19,
29,
19,
20,
18,
10,
17,
18,
12,
17,
15,
11,
9,
7,
9,
18,
13,
16,
17,
8,
12,
17,
12,
12,
15,
14,
10,
8,
17,
11,
9,
11,
10,
13,
4,
17,
7,
13,
10,
7,
10,
7,
10,
6,
10,
8,
8,
10,
7,
10,
6,
6,
8,
9,
6,
5,
12,
11,
6,
11,
4,
7,
8,
8,
4,
11,
6,
7,
7,
1,
6,
3,
3,
8,
2,
6,
5,
2,
10,
4,
8,
5,
2,
7,
6,
5,
2,
3,
3,
8,
6,
2,
2,
4,
1,
5,
2,
2,
4,
4,
5,
5,
4,
2,
4,
4,
5,
3,
1,
4,
1,
4,
3,
2,
1,
1,
3,
2,
4,
4,
5,
2,
4,
2,
2,
3,
5,
3,
2,
2,
0,
2,
2,
5,
0,
5,
1,
1,
1,
1,
3,
2,
3,
2,
0,
0,
1,
2,
1,
1,
3,
2,
2,
4,
3,
2,
1,
3,
1,
2,
0,
1,
1,
1,
1,
0,
2,
1,
0,
1,
3,
0,
1,
3,
2,
1,
0,
0,
0,
2,
0,
1,
1,
1,
1,
0,
0,
0,
0,
3,
0,
1,
1,
1,
1,
2,
1,
0,
0,
1,
0,
0,
0,
1,
0,
0,
0,
0,
0,
1,
2,
2,
1,
0,
1,
1,
0,
0,
1,
1,
0,
0,
0,
2,
1,
1,
0,
0,
1,
2,
0,
0,
1,
1,
0,
0,
0,
0,
0,
0,
0,
0,
1,
2,
1,
0,
1,
3,
1,
1,
2,
0,
1,
0,
1,
0,
0,
0,
0,
0,
0,
0,
0,
0,
0,
0,
0,
1,
0,
0,
1,
0,
0,
0,
0,
0,
0,
0,
0,
0,
0,
0,
0,
0,
0,
0,
0,
0,
1,
0,
0,
0,
0,
0,
0,
0,
1,
0,
0,
0,
0,
0,
0,
0,
0,
0,
0,
0,
0,
0,
1,
0,
0,
0,
0,
0,
1,
0,
0,
0,
0,
0,
0,
0,
0,
0,
0,
0,
0,
0,
0,
0,
0,
0,
0,
0,
0,
0,
0,
0,
0,
0,
0,
0,
0,
0,
0,
0,
0,
0,
0,
0,
0,
0,
0,
0,
1,
0,
0,
0,
0,
0,
0,
0,
0,
0,
0,
0,
0,
1,
0,
0,
0,
0,
0,
0,
0,
0,
0,
0,
0,
0,
0,
0,
0,
0,
0,
0,
0,
0,
0,
0,
0,
0,
0,
0,
0,
0,
0,
0,
0,
0,
0,
0,
0,
0,
0,
0,
0,
0,
0,
0,
0,
0,
0,
0,
0,
0,
0,
0,
0,
0,
0,
0,
0,
0,
0,
0,
0,
0,
0,
0,
0,
0,
0,
0,
0,
0,
0,
0,
0,
0,
0,
0,
0,
0,
0,
0,
0,
0,
0,
0,
0,
0,
0,
0,
0,
0,
0,
0,
0,
0,
0,
0,
0,
0,
0,
0,
0,
0,
0,
0,
0,
0,
0,
0,
0,
0,
0,
0,
0,
0,
0,
0,
0,
0,
0,
0,
0,
0,
0,
0,
0,
0,
0,
0,
0,
0,
0,
0,
0,
0,
0,
0,
0,
0,
0,
0,
0,
0,
0,
0,
0,
0,
0,
0,
0,
0,
0,
0,
0,
0,
0,
0,
0,
0,
0,
0,
0,
0,
0,
0,
0,
0,
0,
0,
0,
0,
0,
0,
0,
0,
0,
0,
0,
0,
0,
0,
0,
0,
0,
0,
0,
0,
0,
0,
0,
0,
0,
0,
0,
0,
0,
0,
0,
0,
0,
0,
0,
0,
0,
0,
0,
0,
0,
0,
0,
0,
0,
0,
0,
0,
0,
0,
0,
0,
0,
0,
0,
0,
0,
0,
0,
0,
0,
0,
0,
0,
0,
0,
0,
0,
0,
0,
0,
0,
0,
0,
0,
0,
0,
0,
0,
0,
0,
0,
0,
0,
0,
0,
0,
0,
0,
0,
0,
0,
0,
0,
0,
0,
0,
0,
0,
0,
0,
0,
0,
0,
0,
0,
0,
0,
0,
0,
0,
0,
0,
0,
0,
0,
0,
0,
0,
0,
0,
0,
0,
0,
0,
0,
0,
0,
0,
0,
0,
0,
0,
0,
0,
0,
0,
0,
0,
0,
0,
0,
0,
0,
0,
0,
0,
0,
0,
0,
0,
0,
0,
0,
0,
0,
0,
0,
0,
0,
0,
0,
0,
0,
0,
0,
0,
0,
0,
0,
0,
0,
0,
0,
0,
0,
0,
0,
0,
0,
0,
0,
0,
0,
0,
0,
0,
0,
0,
0,
0,
0,
0,
0,
0,
0,
0,
0,
0,
0,
0,
0,
0,
0,
0,
0,
0,
0,
0,
0,
0,
0,
0,
0,
0,
0,
0,
0,
0,
0,
0,
0,
0,
0,
0,
0,
0,
0,
0,
0,
0,
0,
0,
0,
0,
0,
0,
0,
0,
0,
0,
0,
0,
0,
0,
0,
0,
0,
0,
0,
0,
0,
0,
0,
0,
#ENDOFDATA   :