File: N132962/Standards/15 keV/Re std.msa
#FORMAT      : EMSA/MAS Spectral Data File
#VERSION     : 1.0
#TITLE       : Re standard for 'N132962' detector
#NPOINTS     : 4096
#NCOLUMNS    : 1
#XUNITS      : eV
#YUNITS      : counts
#DATATYPE    : Y
#SIGNALTYPE  : EDS
#XLABEL      : Energy (eV)
#YLABEL      : Counts
#XPERCHAN -eV: 9.99778
#OFFSET   -eV: 1.69135
#CHOFFSET    : 0
#DATE        : 27-Sep-2025
#TIME        : 20:58:00
#OWNER       : Unknown
#ELEVANGLE   : 35
#BEAMKV   -kV: 15
#LIVETIME  -s: 1440.12
#REALTIME  -s: 1603.98
#PROBECUR -nA: 1.21182
##WORKING -mm: 15
##D2STDCMP   : Re,(Re:100.0000)
##SIMILAR    : 1.1
#SPECTRUM    :
157,
156,
162,
867,
3926,
14135,
32357,
58502,
94707,
103457,
64843,
46032,
45672,
44811,
44770,
48261,
55232,
62755,
59485,
54132,
54127,
56396,
59770,
63523,
66164,
67760,
69423,
73099,
76835,
80208,
86132,
91244,
89338,
88116,
88659,
87151,
86056,
86241,
86786,
87220,
87690,
88325,
88694,
89230,
92174,
103707,
143475,
211253,
234970,
183012,
128026,
103667,
95214,
92221,
93101,
99026,
120125,
178249,
302436,
586860,
1187039,
1814268,
1862522,
1442741,
932812,
444910,
154176,
64659,
58545,
73716,
85140,
75639,
56613,
44664,
40626,
41251,
41754,
43339,
45669,
48650,
51458,
49968,
46212,
42625,
40397,
39030,
38313,
38602,
38607,
38332,
38373,
37789,
37749,
37969,
38097,
38603,
39149,
38538,
38565,
37755,
37881,
37734,
37495,
37575,
37960,
38157,
37871,
38267,
38389,
38697,
38796,
38506,
38155,
37949,
38412,
37744,
37786,
38186,
38063,
38747,
39361,
39913,
40926,
41524,
41657,
41031,
39669,
38629,
37432,
37405,
36686,
36682,
36760,
36841,
36387,
36086,
35984,
35828,
35871,
35833,
35394,
35393,
35087,
35511,
35047,
34941,
34953,
34723,
34468,
34274,
34178,
34058,
33972,
33786,
33772,
33404,
33184,
33338,
33061,
33066,
33035,
32679,
32801,
32387,
32377,
32219,
31903,
31777,
31981,
31693,
31110,
31002,
30958,
30966,
30824,
30527,
30229,
30093,
29962,
29961,
29812,
29697,
29694,
29594,
29588,
29457,
29067,
29017,
28836,
28198,
28542,
28358,
27969,
28152,
28022,
27547,
27577,
27072,
27229,
26629,
26749,
26779,
26402,
26386,
26195,
25827,
26248,
25558,
25740,
25486,
25568,
25648,
26145,
25927,
25585,
25390,
24783,
24600,
24265,
23823,
23828,
23857,
23838,
23306,
23798,
23224,
22965,
22963,
22936,
22803,
22769,
22440,
22198,
22026,
22232,
21964,
21815,
21569,
21538,
21445,
21259,
20893,
20901,
20819,
20793,
20538,
20640,
20886,
20958,
21387,
21920,
22913,
23820,
24572,
24285,
22786,
21334,
20109,
19437,
19188,
18832,
18346,
18687,
18396,
18291,
18256,
18208,
18254,
18031,
17954,
17635,
17571,
17299,
17422,
17460,
17082,
16867,
17263,
16824,
16936,
17116,
18068,
20410,
25990,
37758,
56503,
81415,
103838,
114987,
107253,
85026,
58993,
37610,
24979,
18348,
16196,
15413,
14937,
15017,
14878,
14867,
14683,
14528,
14477,
14175,
13898,
13761,
13615,
13210,
13095,
13323,
12977,
13062,
12889,
12857,
12703,
12633,
12757,
12615,
12451,
12355,
12175,
12520,
12277,
12541,
12744,
13670,
14526,
15889,
18390,
21603,
26921,
31682,
34250,
33988,
29928,
25149,
21244,
19946,
21182,
23881,
27227,
28277,
26856,
23555,
19105,
15481,
12934,
11388,
10864,
10563,
10326,
9950,
9506,
9205,
9051,
8803,
8543,
8477,
8367,
8397,
8175,
8073,
8236,
8104,
8013,
7876,
7979,
7753,
7701,
7702,
7522,
7463,
7438,
7424,
7403,
7325,
7210,
7260,
7123,
7031,
6843,
6877,
7005,
7185,
7562,
8264,
9040,
9889,
10313,
9758,
8992,
8262,
7344,
6873,
6578,
6316,
6262,
6412,
6465,
6320,
6409,
6177,
5926,
5858,
5483,
5372,
5207,
5171,
5023,
4983,
4853,
4756,
4872,
4746,
4697,
4586,
4540,
4451,
4314,
4354,
4257,
4125,
4047,
4141,
3939,
3968,
3788,
3741,
3809,
3672,
3630,
3531,
3501,
3515,
3355,
3336,
3279,
3257,
3186,
3191,
3118,
3028,
3083,
2966,
2884,
2694,
2775,
2772,
2692,
2659,
2521,
2490,
2506,
2423,
2380,
2299,
2297,
2215,
2154,
2063,
2029,
2008,
2043,
1919,
1878,
1817,
1700,
1739,
1684,
1651,
1594,
1538,
1455,
1398,
1355,
1319,
1288,
1274,
1237,
1105,
1137,
987,
988,
941,
878,
836,
839,
792,
678,
654,
593,
561,
511,
447,
363,
340,
251,
223,
170,
125,
94,
89,
74,
59,
62,
64,
61,
47,
61,
55,
54,
42,
40,
49,
54,
52,
57,
52,
29,
36,
47,
39,
43,
35,
42,
39,
36,
41,
37,
33,
30,
46,
44,
30,
42,
33,
36,
33,
24,
29,
36,
36,
25,
21,
26,
23,
28,
36,
33,
28,
25,
28,
29,
24,
27,
23,
31,
25,
32,
33,
30,
38,
34,
38,
36,
34,
38,
36,
31,
32,
19,
25,
34,
43,
34,
46,
36,
44,
35,
32,
33,
34,
29,
17,
28,
25,
23,
25,
29,
23,
25,
30,
23,
18,
15,
20,
31,
23,
28,
29,
18,
22,
23,
25,
21,
26,
22,
15,
18,
17,
23,
23,
26,
31,
18,
23,
19,
21,
14,
26,
22,
27,
25,
20,
19,
18,
15,
20,
26,
28,
23,
29,
20,
10,
17,
7,
15,
16,
13,
15,
14,
17,
9,
10,
12,
15,
15,
15,
15,
17,
12,
9,
11,
17,
10,
14,
10,
18,
12,
16,
16,
11,
14,
7,
13,
10,
7,
10,
7,
5,
16,
17,
7,
17,
9,
9,
7,
15,
5,
11,
16,
13,
9,
10,
9,
10,
9,
6,
7,
7,
11,
8,
7,
4,
3,
5,
10,
2,
4,
11,
8,
7,
9,
8,
5,
7,
3,
8,
4,
3,
7,
6,
10,
4,
6,
3,
3,
2,
5,
4,
6,
4,
4,
5,
3,
4,
4,
6,
5,
8,
5,
5,
3,
6,
6,
6,
2,
4,
2,
5,
4,
5,
7,
3,
1,
2,
1,
5,
7,
7,
4,
2,
5,
4,
4,
2,
2,
3,
3,
4,
8,
1,
4,
0,
4,
4,
2,
3,
3,
2,
0,
1,
3,
4,
1,
3,
1,
0,
0,
1,
2,
1,
2,
2,
2,
1,
2,
2,
1,
4,
4,
0,
1,
0,
0,
3,
1,
0,
0,
2,
1,
4,
0,
1,
3,
2,
1,
2,
0,
1,
1,
0,
1,
0,
1,
1,
1,
0,
2,
0,
0,
2,
1,
0,
2,
2,
0,
1,
0,
1,
2,
0,
0,
0,
2,
0,
1,
0,
1,
0,
0,
1,
2,
0,
0,
0,
0,
0,
0,
0,
0,
0,
1,
0,
2,
0,
0,
0,
0,
1,
0,
1,
1,
0,
0,
0,
0,
2,
0,
0,
0,
1,
0,
0,
1,
0,
1,
0,
0,
0,
0,
1,
0,
1,
1,
0,
0,
0,
0,
0,
2,
0,
1,
0,
1,
0,
2,
0,
0,
0,
0,
0,
0,
0,
0,
0,
0,
0,
0,
0,
0,
0,
1,
0,
0,
0,
0,
0,
0,
0,
0,
0,
0,
0,
0,
0,
0,
0,
0,
0,
0,
1,
0,
0,
0,
0,
0,
0,
0,
0,
0,
0,
0,
0,
0,
0,
0,
0,
0,
0,
0,
0,
0,
0,
0,
1,
0,
0,
0,
0,
0,
0,
0,
0,
0,
0,
0,
0,
0,
0,
0,
1,
0,
0,
0,
0,
0,
0,
0,
0,
0,
0,
0,
0,
0,
0,
0,
0,
0,
0,
0,
0,
0,
0,
0,
0,
0,
0,
0,
0,
0,
0,
0,
0,
0,
0,
0,
0,
0,
0,
0,
0,
0,
0,
0,
0,
0,
0,
0,
0,
0,
0,
0,
0,
0,
0,
0,
0,
0,
0,
0,
0,
0,
0,
0,
0,
0,
0,
0,
0,
0,
0,
0,
0,
0,
0,
0,
0,
0,
0,
0,
0,
0,
0,
0,
0,
0,
0,
0,
0,
0,
0,
0,
0,
0,
0,
0,
0,
0,
0,
0,
0,
0,
0,
0,
0,
0,
0,
0,
0,
0,
0,
0,
0,
0,
0,
0,
0,
0,
0,
0,
0,
0,
0,
0,
0,
0,
0,
0,
1,
0,
0,
0,
0,
0,
0,
0,
0,
0,
0,
0,
0,
0,
0,
0,
0,
0,
0,
0,
0,
0,
0,
0,
0,
0,
0,
0,
0,
0,
0,
0,
0,
0,
0,
0,
0,
0,
0,
0,
0,
0,
0,
0,
0,
0,
0,
0,
0,
0,
0,
0,
0,
0,
0,
0,
0,
0,
0,
0,
0,
0,
0,
0,
0,
0,
0,
0,
0,
0,
0,
0,
0,
0,
0,
0,
0,
0,
0,
0,
0,
0,
0,
0,
0,
0,
0,
0,
0,
0,
0,
0,
0,
0,
0,
0,
0,
0,
0,
0,
0,
0,
0,
0,
0,
0,
0,
0,
0,
0,
0,
0,
0,
0,
0,
0,
0,
0,
0,
0,
0,
0,
0,
0,
0,
0,
0,
0,
0,
0,
0,
0,
0,
0,
0,
0,
0,
0,
0,
0,
0,
0,
0,
0,
0,
0,
0,
0,
0,
0,
0,
0,
0,
0,
0,
0,
0,
0,
0,
0,
0,
0,
0,
0,
0,
0,
0,
0,
0,
0,
0,
0,
0,
0,
0,
0,
0,
0,
0,
0,
0,
0,
0,
0,
0,
0,
0,
0,
0,
0,
0,
0,
0,
0,
0,
0,
0,
0,
0,
0,
0,
0,
0,
0,
0,
0,
0,
0,
0,
0,
0,
0,
0,
0,
0,
0,
0,
0,
0,
0,
0,
0,
0,
0,
0,
0,
0,
0,
0,
0,
0,
0,
0,
0,
0,
0,
0,
0,
0,
0,
0,
0,
0,
0,
0,
0,
0,
0,
0,
0,
0,
0,
0,
0,
0,
0,
0,
0,
0,
0,
0,
0,
0,
0,
0,
0,
#ENDOFDATA   :