File: N132962/Standards/15 keV/Rh std.msa
#FORMAT      : EMSA/MAS Spectral Data File
#VERSION     : 1.0
#TITLE       : Rh standard for 'N132962' detector
#NPOINTS     : 4096
#NCOLUMNS    : 1
#XUNITS      : eV
#YUNITS      : counts
#DATATYPE    : Y
#SIGNALTYPE  : EDS
#XLABEL      : Energy (eV)
#YLABEL      : Counts
#XPERCHAN -eV: 9.99778
#OFFSET   -eV: 1.69135
#CHOFFSET    : 0
#DATE        : 25-Sep-2025
#TIME        : 20:39:00
#OWNER       : Unknown
#ELEVANGLE   : 35
#BEAMKV   -kV: 15
#LIVETIME  -s: 1920.85
#REALTIME  -s: 2108.85
#PROBECUR -nA: 1.20931
##WORKING -mm: 15
##D2STDCMP   : Rh,(Rh:100.0000)
##SIMILAR    : 1.3
#SPECTRUM    :
231,
193,
170,
1119,
6766,
28464,
99348,
345701,
699869,
561741,
225748,
88941,
49461,
41286,
39124,
39331,
45492,
49007,
42263,
36557,
35933,
38331,
40461,
42438,
43926,
45659,
47914,
51905,
56514,
60065,
70041,
90059,
98089,
83943,
72401,
75142,
81851,
82118,
77844,
75845,
75166,
77186,
77700,
78607,
78226,
78851,
80287,
80292,
81214,
82300,
83153,
84033,
83265,
82087,
81824,
82453,
84009,
87960,
91120,
90643,
87327,
83375,
78535,
77634,
82770,
94878,
103909,
103851,
100067,
92829,
82797,
76641,
73389,
71144,
71928,
73622,
78474,
91784,
119678,
144051,
138176,
109431,
91334,
94798,
106426,
121075,
163033,
341282,
862045,
1670921,
2083264,
1629141,
930516,
701647,
840061,
859904,
640133,
400550,
264688,
209630,
186800,
154888,
112492,
86561,
81957,
79748,
66713,
50516,
40242,
38071,
41558,
47479,
51547,
49138,
42253,
36344,
33428,
32883,
32415,
32928,
32677,
33020,
33033,
33006,
33122,
32905,
32813,
32738,
32851,
32616,
32766,
32971,
32571,
32636,
32701,
32573,
32268,
32552,
32077,
32228,
32062,
32140,
32220,
31807,
31893,
32050,
32085,
31916,
32370,
33271,
33312,
33178,
32379,
31370,
30634,
30594,
30585,
30311,
30228,
30436,
30126,
30081,
29936,
29915,
29878,
29546,
29587,
29189,
29147,
29227,
28997,
28841,
28747,
28815,
28286,
28192,
28285,
28273,
28991,
29740,
29851,
29798,
29029,
28720,
28783,
28777,
28434,
27576,
27292,
26882,
26719,
26475,
26304,
25796,
25667,
25719,
25153,
25047,
24961,
24427,
24404,
24176,
24137,
23779,
23937,
23386,
23388,
23020,
23061,
23161,
23087,
23103,
23369,
23403,
23254,
22440,
22237,
21879,
21911,
21732,
21468,
21368,
21186,
21022,
20939,
20862,
20604,
20495,
20428,
20414,
20068,
20059,
19595,
19823,
19721,
19503,
19290,
19064,
19238,
19035,
19064,
18616,
18834,
18438,
18546,
18538,
18583,
18609,
18275,
18317,
17894,
17796,
17565,
17253,
17196,
17270,
16865,
16703,
16888,
16793,
16601,
16352,
16266,
16197,
15945,
16257,
15998,
16157,
15769,
15929,
15577,
15544,
15385,
15102,
14885,
14724,
14788,
14831,
14696,
14375,
14395,
14217,
14048,
14207,
14078,
13859,
13860,
13613,
13587,
13542,
13359,
13080,
13070,
13022,
13104,
12818,
12981,
12517,
12461,
12681,
12335,
12477,
12484,
12652,
12837,
12821,
12937,
12859,
12261,
11684,
11394,
11528,
11385,
11344,
11487,
10854,
11104,
10836,
10827,
10634,
10622,
10441,
10508,
10204,
10289,
10193,
10177,
10069,
9971,
9855,
9774,
9636,
9411,
9408,
9441,
9284,
9167,
9238,
9092,
9056,
8810,
8693,
8995,
8527,
8654,
8692,
8469,
8433,
8216,
8252,
8100,
8021,
7856,
7958,
7726,
7911,
8022,
7705,
7671,
7601,
7545,
7515,
7214,
7357,
7394,
7254,
7058,
6976,
6756,
6731,
6685,
6549,
6539,
6364,
6402,
6426,
6299,
6151,
6069,
5960,
5886,
5992,
5707,
5778,
5621,
5642,
5517,
5548,
5448,
5373,
5272,
5200,
5240,
5123,
5002,
4977,
4900,
4846,
4921,
4673,
4573,
4603,
4469,
4501,
4335,
4425,
4339,
4312,
4052,
4287,
3977,
3947,
4059,
3828,
3828,
3866,
3849,
3808,
3675,
3570,
3602,
3547,
3482,
3363,
3405,
3215,
3121,
3048,
3074,
2941,
2946,
2918,
2882,
2839,
2781,
2770,
2704,
2622,
2574,
2466,
2505,
2425,
2455,
2356,
2284,
2249,
2176,
2180,
2112,
2038,
1959,
1972,
1920,
1854,
1884,
1720,
1752,
1652,
1652,
1679,
1601,
1531,
1567,
1465,
1383,
1358,
1363,
1328,
1298,
1272,
1156,
1195,
1136,
1125,
1071,
1025,
953,
946,
919,
817,
846,
756,
787,
704,
692,
648,
589,
569,
535,
471,
454,
423,
380,
310,
288,
233,
219,
174,
154,
120,
99,
68,
47,
46,
39,
41,
44,
42,
35,
33,
46,
25,
34,
31,
34,
35,
38,
29,
26,
23,
26,
34,
26,
25,
20,
31,
31,
25,
28,
21,
21,
28,
24,
22,
21,
22,
25,
26,
25,
18,
15,
28,
20,
21,
22,
18,
16,
18,
17,
20,
21,
17,
13,
19,
12,
9,
18,
17,
22,
17,
7,
14,
18,
14,
21,
25,
22,
19,
18,
17,
20,
17,
15,
16,
18,
13,
13,
12,
21,
11,
19,
16,
17,
15,
9,
12,
14,
11,
3,
8,
11,
12,
13,
10,
13,
10,
7,
13,
8,
6,
10,
7,
11,
6,
12,
6,
4,
10,
6,
10,
8,
7,
7,
2,
4,
6,
9,
10,
12,
12,
7,
4,
9,
14,
2,
9,
9,
6,
10,
4,
2,
4,
3,
2,
7,
5,
5,
8,
5,
2,
9,
1,
11,
5,
6,
7,
2,
3,
7,
10,
8,
4,
7,
2,
7,
4,
3,
0,
6,
5,
2,
4,
7,
8,
5,
5,
5,
1,
4,
6,
7,
0,
3,
1,
5,
3,
3,
3,
3,
4,
7,
1,
5,
5,
2,
3,
1,
2,
1,
1,
2,
2,
2,
3,
1,
0,
1,
2,
3,
3,
0,
1,
1,
2,
1,
1,
2,
6,
4,
1,
1,
4,
3,
0,
3,
2,
3,
2,
0,
2,
2,
2,
5,
3,
2,
2,
2,
0,
2,
0,
2,
1,
2,
2,
3,
1,
2,
1,
1,
1,
4,
0,
2,
2,
3,
0,
3,
1,
0,
1,
1,
1,
0,
1,
0,
2,
1,
2,
1,
3,
0,
3,
1,
0,
2,
1,
2,
1,
2,
2,
1,
0,
0,
0,
0,
0,
0,
1,
1,
0,
2,
1,
0,
0,
0,
0,
1,
0,
1,
2,
2,
1,
1,
1,
0,
1,
0,
2,
1,
1,
1,
0,
1,
0,
0,
0,
1,
0,
0,
0,
0,
3,
0,
1,
1,
0,
0,
1,
1,
0,
0,
0,
0,
0,
0,
1,
0,
0,
0,
0,
0,
0,
0,
0,
0,
0,
0,
0,
0,
0,
0,
2,
0,
1,
0,
0,
1,
1,
0,
1,
0,
0,
0,
0,
1,
0,
1,
1,
0,
0,
0,
0,
0,
0,
0,
0,
0,
0,
1,
0,
0,
0,
0,
0,
0,
0,
0,
0,
0,
0,
0,
1,
0,
0,
0,
0,
0,
0,
0,
0,
0,
0,
0,
1,
0,
0,
0,
0,
1,
0,
0,
0,
0,
0,
0,
0,
0,
0,
0,
0,
0,
0,
0,
0,
0,
0,
0,
0,
0,
0,
0,
0,
0,
0,
0,
0,
0,
0,
0,
0,
0,
0,
0,
0,
0,
0,
0,
0,
0,
0,
0,
0,
0,
0,
0,
0,
0,
0,
0,
0,
0,
0,
0,
0,
0,
0,
0,
0,
0,
0,
0,
0,
0,
0,
0,
0,
0,
1,
0,
0,
0,
0,
0,
0,
0,
0,
0,
0,
0,
0,
0,
0,
0,
0,
0,
0,
0,
0,
0,
0,
0,
0,
0,
0,
0,
0,
0,
0,
0,
0,
0,
0,
0,
0,
0,
0,
0,
0,
0,
0,
0,
0,
0,
0,
0,
0,
0,
0,
0,
0,
0,
0,
0,
0,
0,
0,
0,
0,
0,
0,
0,
0,
0,
0,
0,
0,
0,
0,
0,
0,
0,
0,
0,
0,
0,
0,
0,
0,
0,
0,
0,
0,
0,
0,
0,
0,
0,
0,
0,
0,
0,
0,
0,
0,
0,
0,
0,
0,
0,
0,
0,
0,
0,
0,
0,
0,
0,
0,
0,
0,
0,
0,
0,
0,
0,
0,
0,
0,
0,
0,
0,
0,
0,
0,
0,
0,
0,
0,
0,
0,
0,
0,
0,
0,
0,
0,
0,
0,
0,
0,
0,
0,
0,
0,
0,
0,
0,
0,
0,
0,
0,
0,
0,
0,
0,
0,
0,
0,
0,
0,
0,
0,
0,
0,
0,
0,
0,
0,
0,
0,
0,
0,
0,
0,
0,
0,
0,
0,
0,
0,
0,
0,
0,
0,
0,
0,
0,
0,
0,
0,
0,
0,
0,
0,
0,
0,
0,
0,
0,
0,
0,
0,
0,
0,
0,
0,
0,
0,
0,
0,
0,
0,
0,
0,
0,
0,
0,
0,
0,
0,
0,
0,
0,
0,
0,
0,
0,
0,
0,
0,
0,
0,
0,
0,
0,
0,
0,
0,
0,
0,
0,
0,
0,
0,
0,
0,
0,
0,
0,
0,
0,
0,
0,
0,
0,
0,
0,
0,
0,
0,
0,
0,
0,
0,
0,
0,
0,
0,
0,
0,
0,
0,
0,
0,
0,
0,
0,
0,
0,
0,
0,
0,
0,
0,
0,
0,
0,
0,
0,
0,
0,
0,
0,
0,
0,
0,
0,
0,
0,
0,
0,
0,
0,
0,
0,
0,
0,
0,
0,
0,
0,
0,
0,
0,
0,
0,
0,
0,
0,
0,
0,
0,
0,
0,
0,
0,
0,
0,
0,
0,
0,
0,
0,
0,
0,
0,
0,
0,
0,
0,
0,
0,
0,
0,
0,
0,
0,
0,
0,
0,
0,
0,
0,
0,
0,
0,
0,
0,
0,
0,
0,
0,
0,
0,
0,
0,
0,
0,
0,
0,
0,
0,
0,
0,
0,
0,
0,
0,
0,
0,
0,
0,
0,
0,
0,
0,
0,
0,
0,
0,
0,
0,
0,
0,
0,
0,
#ENDOFDATA   :