File: N132962/Standards/15 keV/Ru std.msa
#FORMAT      : EMSA/MAS Spectral Data File
#VERSION     : 1.0
#TITLE       : Ru standard for 'N132962' detector
#NPOINTS     : 4096
#NCOLUMNS    : 1
#XUNITS      : eV
#YUNITS      : counts
#DATATYPE    : Y
#SIGNALTYPE  : EDS
#XLABEL      : Energy (eV)
#YLABEL      : Counts
#XPERCHAN -eV: 9.99778
#OFFSET   -eV: 1.69135
#CHOFFSET    : 0
#DATE        : 30-Sep-2025
#TIME        : 17:27:00
#OWNER       : Unknown
#ELEVANGLE   : 35
#BEAMKV   -kV: 15
#LIVETIME  -s: 1684.76
#REALTIME  -s: 1853.22
#PROBECUR -nA: 1.23069
##WORKING -mm: 15
##D2STDCMP   : Ru,(Ru:100.0000)
##SIMILAR    : 1.3
#SPECTRUM    :
161,
198,
160,
1043,
6745,
38054,
199902,
560747,
600171,
298233,
106119,
44242,
35125,
35008,
33471,
35347,
41661,
48787,
43483,
33442,
32402,
35235,
40101,
43416,
44449,
48597,
64910,
83169,
77151,
62928,
64565,
72712,
71234,
65860,
64405,
65021,
65326,
66498,
67077,
67713,
68151,
68788,
70069,
70307,
71228,
71499,
71585,
72062,
74145,
74572,
74835,
74456,
73428,
72658,
73090,
74407,
76072,
80061,
83515,
82066,
78853,
73266,
69033,
65755,
65151,
64892,
64582,
64310,
64486,
63872,
64713,
66544,
71612,
86820,
116219,
137557,
127368,
100774,
89318,
94866,
106881,
130229,
225720,
565060,
1280823,
1930630,
1801442,
1146810,
792825,
837877,
816988,
588535,
363546,
242697,
185124,
147992,
109740,
82377,
72935,
67964,
56897,
42616,
35139,
33604,
37160,
42691,
45777,
42933,
36830,
31929,
29531,
29344,
29468,
29252,
29327,
29053,
29398,
29335,
29009,
29047,
29599,
30053,
30472,
30802,
30669,
30134,
29719,
29290,
29152,
28828,
28871,
28981,
29024,
28991,
28829,
28764,
29046,
28617,
28471,
28062,
28096,
28251,
27813,
27842,
28039,
27791,
27649,
27969,
28325,
28879,
29427,
28947,
28355,
27213,
27051,
26825,
26631,
26217,
26446,
26464,
26190,
26506,
25997,
26162,
25779,
26180,
25906,
25843,
25830,
26787,
27328,
27455,
27384,
27095,
26765,
26574,
26216,
25390,
25134,
24477,
24462,
24040,
23809,
23287,
23297,
22719,
22853,
22688,
22949,
22274,
22179,
22023,
21564,
21777,
21632,
21204,
21212,
21334,
21347,
20623,
20422,
20438,
20666,
20375,
20228,
20032,
20186,
20107,
19653,
19839,
19540,
19973,
20029,
19953,
19957,
19558,
19001,
18980,
18478,
18472,
18363,
18482,
18289,
18276,
17913,
17631,
17614,
17525,
17191,
17298,
17080,
17186,
17024,
16852,
16838,
17064,
16628,
16512,
16606,
16220,
16037,
15986,
15955,
15842,
15608,
15500,
15570,
15775,
15643,
15555,
15425,
15255,
14906,
14580,
14611,
14530,
14264,
14405,
14235,
14219,
14075,
13924,
13808,
13903,
13633,
13676,
13672,
13610,
13476,
13384,
13323,
12978,
12686,
12908,
12564,
12666,
12631,
12344,
12214,
12246,
12216,
11994,
11933,
11736,
11822,
11838,
11609,
11454,
11502,
11488,
11277,
11084,
11078,
10924,
11011,
10808,
10807,
10724,
10691,
10570,
10672,
10250,
10161,
10419,
10270,
10115,
9925,
10067,
9671,
9520,
9433,
9437,
9555,
9324,
9241,
9212,
9228,
9207,
9126,
9027,
9040,
8706,
8604,
8560,
8613,
8646,
8485,
8431,
8330,
8395,
8040,
8271,
7980,
8013,
7882,
7863,
7757,
7718,
7667,
7670,
7507,
7523,
7422,
7202,
7236,
7166,
7226,
7004,
7019,
6971,
6885,
6591,
6776,
6641,
6573,
6460,
6473,
6378,
6303,
6212,
6122,
6294,
6144,
6139,
5979,
5953,
5861,
5916,
5751,
5700,
5631,
5642,
5611,
5529,
5391,
5364,
5215,
5272,
5195,
5099,
4805,
5028,
4893,
4804,
4827,
4691,
4737,
4575,
4535,
4351,
4458,
4441,
4257,
4309,
4155,
4073,
4085,
4130,
3966,
4100,
4051,
3934,
3881,
3782,
3676,
3754,
3615,
3497,
3551,
3571,
3307,
3386,
3390,
3368,
3289,
3181,
3122,
3055,
2977,
2999,
2992,
2941,
2875,
2765,
2745,
2716,
2684,
2695,
2589,
2676,
2559,
2446,
2432,
2301,
2316,
2250,
2213,
2164,
2088,
2130,
2067,
2099,
2104,
2009,
1948,
1841,
1781,
1836,
1692,
1773,
1670,
1682,
1554,
1552,
1534,
1469,
1475,
1399,
1413,
1393,
1361,
1307,
1310,
1279,
1212,
1101,
1106,
1083,
1033,
1069,
943,
969,
937,
929,
842,
813,
750,
783,
755,
686,
676,
601,
625,
636,
529,
533,
468,
476,
472,
377,
385,
304,
332,
241,
248,
194,
170,
132,
112,
81,
75,
45,
37,
28,
31,
36,
21,
29,
25,
31,
27,
27,
26,
27,
31,
30,
34,
26,
21,
23,
18,
27,
29,
28,
29,
19,
23,
16,
22,
20,
18,
23,
24,
25,
17,
21,
13,
21,
15,
8,
12,
20,
12,
14,
14,
19,
17,
12,
16,
15,
19,
19,
20,
19,
14,
12,
10,
16,
14,
9,
10,
13,
16,
17,
16,
11,
13,
7,
15,
10,
13,
15,
9,
9,
18,
5,
9,
14,
16,
10,
5,
11,
9,
7,
16,
9,
13,
9,
6,
6,
7,
8,
6,
10,
5,
7,
10,
5,
13,
11,
6,
7,
3,
8,
9,
10,
8,
11,
5,
4,
8,
4,
6,
4,
5,
9,
7,
1,
3,
5,
7,
9,
4,
6,
5,
5,
7,
5,
2,
7,
4,
5,
4,
4,
4,
5,
1,
1,
5,
4,
3,
4,
2,
4,
6,
3,
7,
7,
7,
4,
0,
3,
3,
4,
2,
2,
2,
4,
4,
2,
3,
3,
4,
2,
4,
3,
3,
3,
2,
6,
3,
3,
1,
4,
3,
3,
5,
6,
4,
4,
1,
2,
3,
2,
4,
3,
5,
1,
4,
0,
0,
1,
4,
1,
3,
1,
3,
1,
2,
6,
1,
1,
4,
1,
0,
0,
2,
2,
1,
4,
1,
4,
2,
3,
2,
2,
5,
2,
1,
1,
1,
1,
1,
3,
0,
2,
1,
3,
1,
3,
2,
0,
2,
1,
0,
2,
1,
1,
1,
0,
3,
0,
1,
0,
1,
2,
2,
0,
1,
1,
2,
1,
2,
2,
0,
1,
0,
0,
0,
1,
1,
1,
2,
2,
0,
0,
1,
0,
1,
1,
1,
0,
1,
1,
0,
0,
1,
0,
0,
0,
0,
0,
1,
1,
0,
1,
0,
0,
0,
0,
0,
1,
0,
0,
0,
1,
0,
0,
0,
0,
0,
0,
1,
0,
0,
0,
0,
0,
0,
0,
0,
0,
0,
0,
0,
0,
0,
1,
0,
1,
1,
1,
2,
0,
1,
0,
2,
1,
0,
1,
0,
0,
0,
0,
1,
0,
0,
0,
0,
0,
0,
0,
0,
0,
0,
0,
0,
0,
0,
0,
1,
0,
0,
0,
0,
2,
1,
0,
2,
1,
0,
0,
0,
0,
0,
0,
0,
2,
0,
0,
0,
0,
0,
0,
0,
0,
0,
0,
0,
0,
0,
0,
0,
0,
0,
0,
0,
0,
0,
0,
0,
0,
0,
0,
0,
0,
0,
1,
0,
0,
0,
0,
0,
0,
0,
0,
0,
0,
0,
0,
0,
0,
0,
0,
0,
0,
0,
0,
0,
0,
1,
0,
0,
0,
0,
0,
0,
0,
0,
0,
0,
0,
0,
0,
0,
0,
0,
0,
0,
0,
0,
0,
1,
0,
0,
0,
0,
0,
0,
0,
0,
0,
0,
0,
0,
0,
0,
0,
0,
0,
0,
0,
0,
0,
0,
0,
0,
0,
0,
0,
0,
0,
0,
0,
0,
0,
0,
0,
0,
0,
0,
0,
0,
0,
0,
0,
0,
0,
0,
0,
0,
0,
0,
0,
0,
0,
0,
0,
0,
0,
0,
0,
0,
0,
0,
0,
0,
0,
0,
0,
0,
0,
0,
0,
0,
0,
0,
0,
0,
0,
0,
0,
0,
0,
0,
0,
0,
0,
0,
0,
0,
0,
0,
0,
0,
0,
0,
0,
0,
0,
0,
0,
0,
0,
0,
0,
0,
0,
0,
0,
0,
0,
0,
0,
0,
0,
0,
0,
0,
0,
0,
0,
0,
0,
0,
0,
0,
0,
0,
0,
0,
0,
0,
0,
0,
0,
0,
0,
0,
0,
0,
0,
0,
0,
0,
0,
0,
0,
0,
0,
0,
0,
0,
0,
0,
0,
0,
0,
0,
0,
0,
0,
0,
0,
0,
0,
0,
0,
0,
0,
0,
0,
0,
0,
0,
0,
0,
0,
0,
0,
0,
0,
0,
0,
0,
0,
0,
0,
0,
0,
0,
0,
0,
0,
0,
0,
0,
0,
0,
0,
0,
0,
0,
0,
0,
0,
0,
0,
0,
0,
0,
0,
0,
0,
0,
0,
0,
0,
0,
0,
0,
0,
0,
0,
0,
0,
0,
0,
0,
0,
0,
0,
0,
0,
0,
0,
0,
0,
0,
0,
0,
0,
0,
0,
0,
0,
0,
0,
0,
0,
0,
0,
0,
0,
0,
0,
0,
0,
0,
0,
0,
0,
0,
0,
0,
0,
0,
0,
0,
0,
0,
0,
0,
0,
0,
0,
0,
0,
0,
0,
0,
0,
0,
0,
0,
0,
0,
0,
0,
0,
0,
0,
0,
0,
0,
0,
0,
0,
0,
0,
0,
0,
0,
0,
0,
0,
0,
0,
0,
0,
0,
0,
0,
0,
0,
0,
0,
0,
0,
0,
0,
0,
0,
0,
0,
0,
0,
0,
0,
0,
0,
0,
0,
0,
0,
0,
0,
0,
0,
0,
0,
0,
0,
0,
0,
0,
0,
0,
0,
0,
0,
0,
0,
0,
0,
0,
0,
0,
0,
0,
0,
0,
0,
0,
0,
0,
0,
0,
0,
0,
0,
0,
0,
0,
0,
0,
0,
0,
0,
0,
0,
0,
0,
0,
0,
0,
0,
0,
0,
0,
0,
0,
0,
0,
0,
0,
0,
0,
0,
0,
0,
0,
0,
0,
0,
0,
0,
0,
0,
0,
0,
0,
0,
0,
0,
0,
0,
0,
0,
0,
0,
0,
0,
0,
0,
0,
#ENDOFDATA   :