File: N132962/Standards/15 keV/Sb std.msa
#FORMAT      : EMSA/MAS Spectral Data File
#VERSION     : 1.0
#TITLE       : Sb standard for 'N132962' detector
#NPOINTS     : 4096
#NCOLUMNS    : 1
#XUNITS      : eV
#YUNITS      : counts
#DATATYPE    : Y
#SIGNALTYPE  : EDS
#XLABEL      : Energy (eV)
#YLABEL      : Counts
#XPERCHAN -eV: 9.99778
#OFFSET   -eV: 1.69135
#CHOFFSET    : 0
#DATE        : 26-Sep-2025
#TIME        : 16:40:00
#OWNER       : Unknown
#ELEVANGLE   : 35
#BEAMKV   -kV: 15
#LIVETIME  -s: 2169.1
#REALTIME  -s: 2358.58
#PROBECUR -nA: 1.21512
##WORKING -mm: 15
##D2STDCMP   : Sb,(Sb:100.0000)
##SIMILAR    : 1.1
#SPECTRUM    :
205,
256,
108,
862,
7266,
29247,
66882,
108273,
152559,
164076,
140870,
144941,
237242,
475396,
611800,
402465,
222847,
195336,
147226,
79039,
55479,
53510,
57167,
68330,
79426,
76618,
66111,
58665,
55604,
53320,
50663,
50333,
50632,
52084,
53781,
55384,
56804,
57981,
59506,
60957,
62342,
64479,
65406,
66599,
68089,
69972,
70652,
72145,
74100,
75777,
76264,
75844,
75457,
75754,
76801,
77502,
80095,
84450,
89369,
89937,
89693,
91773,
91128,
83783,
75960,
72368,
72178,
72274,
73472,
76085,
77935,
77006,
73963,
72809,
71590,
70782,
71446,
71326,
71620,
71302,
70577,
69616,
68291,
67967,
67763,
67622,
67940,
68108,
67138,
66106,
65439,
64968,
64320,
64442,
63831,
63675,
62985,
63007,
62237,
61847,
61637,
61299,
62216,
66082,
75862,
94620,
110138,
106576,
89220,
71571,
63408,
61873,
64461,
71907,
82193,
93358,
123067,
244957,
575240,
1087306,
1433717,
1267484,
759364,
334149,
152701,
154040,
291132,
515000,
689525,
673742,
513820,
345712,
226706,
153603,
131140,
162651,
213006,
228977,
184744,
118737,
71966,
54125,
55275,
71247,
93194,
103058,
92031,
67766,
48272,
39779,
41222,
48875,
58580,
63758,
60008,
50606,
41368,
35827,
33586,
31752,
31334,
30902,
30569,
30868,
30817,
30399,
30600,
30647,
30188,
30258,
30345,
30112,
30234,
30090,
29704,
29676,
29989,
30079,
30328,
30888,
31287,
31025,
30227,
29862,
28932,
28804,
28391,
28833,
28722,
28360,
28026,
28029,
27918,
28007,
28014,
27719,
27539,
27746,
27443,
27074,
27330,
26689,
26616,
26523,
26362,
25934,
25867,
25993,
25570,
26273,
26809,
28452,
29461,
30270,
29845,
28283,
26583,
25621,
24498,
24170,
24035,
24011,
23949,
23408,
23748,
23418,
23438,
23365,
23175,
23245,
22668,
22862,
22711,
23076,
22934,
23145,
22656,
22550,
22179,
22271,
22553,
22080,
22050,
21728,
21355,
20961,
21434,
21734,
21785,
21863,
21670,
20970,
20518,
20014,
19922,
19739,
19912,
19961,
19540,
19281,
18838,
18969,
18803,
18410,
18321,
18370,
18308,
18271,
17988,
17827,
17663,
17759,
17811,
17540,
17325,
17426,
17208,
17182,
16859,
16522,
16511,
16507,
16583,
16149,
16081,
16063,
15902,
15695,
15547,
15496,
15330,
15186,
15069,
15026,
14907,
14766,
14866,
14768,
14261,
14618,
14386,
14058,
14120,
14223,
13777,
13762,
13724,
13559,
13612,
13236,
13345,
12930,
13279,
12895,
12987,
12801,
12726,
12693,
12583,
12574,
12314,
12220,
12153,
12124,
11914,
11709,
11780,
11702,
11496,
11674,
11518,
11322,
11114,
11103,
10970,
10913,
10688,
10704,
10582,
10574,
10363,
10466,
10182,
10172,
10180,
10073,
9959,
9772,
9721,
9660,
9615,
9618,
9381,
9153,
9136,
9276,
9013,
8959,
8813,
8855,
8693,
8533,
8403,
8602,
8341,
8144,
8067,
7985,
7984,
7897,
7810,
7989,
7589,
7690,
7566,
7368,
7401,
7221,
7287,
7040,
6920,
6904,
6792,
6781,
6707,
6717,
6640,
6578,
6513,
6405,
6230,
6174,
6157,
6083,
5963,
5931,
5923,
5824,
5596,
5576,
5548,
5405,
5199,
5383,
5253,
5135,
5167,
5214,
5033,
5062,
4830,
4853,
4762,
4617,
4623,
4559,
4516,
4482,
4418,
4350,
4265,
4135,
4135,
4189,
4014,
3912,
3860,
3746,
3739,
3623,
3651,
3492,
3388,
3451,
3293,
3293,
3329,
3165,
3217,
3074,
2876,
2897,
2884,
2808,
2815,
2735,
2744,
2657,
2575,
2568,
2507,
2479,
2416,
2310,
2258,
2218,
2183,
2138,
1963,
2043,
1961,
1930,
1826,
1761,
1721,
1698,
1696,
1619,
1534,
1446,
1520,
1397,
1413,
1363,
1317,
1182,
1159,
1183,
1086,
1025,
931,
995,
957,
868,
782,
750,
758,
645,
577,
603,
580,
478,
407,
429,
330,
298,
240,
206,
162,
139,
108,
87,
65,
67,
50,
40,
34,
57,
44,
41,
42,
36,
39,
34,
53,
40,
36,
51,
35,
43,
31,
23,
38,
40,
38,
33,
26,
41,
32,
35,
34,
27,
31,
31,
30,
37,
30,
35,
13,
26,
21,
20,
23,
26,
31,
19,
28,
25,
15,
22,
33,
34,
27,
25,
23,
27,
24,
21,
20,
24,
21,
21,
32,
30,
29,
29,
29,
29,
38,
27,
23,
33,
28,
21,
27,
26,
22,
24,
16,
15,
25,
22,
16,
20,
19,
14,
10,
19,
20,
19,
13,
13,
14,
21,
11,
24,
16,
13,
14,
16,
15,
12,
15,
19,
9,
18,
9,
12,
10,
9,
11,
15,
11,
12,
17,
6,
15,
12,
8,
7,
8,
12,
10,
10,
7,
10,
5,
7,
7,
7,
9,
4,
8,
8,
3,
8,
8,
5,
5,
6,
3,
5,
6,
5,
9,
1,
5,
6,
5,
5,
5,
5,
8,
4,
5,
8,
5,
6,
7,
3,
9,
2,
2,
3,
4,
2,
2,
6,
6,
2,
7,
5,
4,
3,
3,
5,
3,
5,
3,
5,
4,
6,
7,
2,
3,
6,
3,
6,
3,
3,
6,
4,
2,
4,
1,
4,
3,
1,
3,
4,
3,
2,
6,
0,
3,
2,
3,
4,
2,
1,
4,
3,
1,
1,
6,
2,
4,
0,
1,
2,
2,
4,
3,
0,
6,
2,
1,
4,
0,
3,
4,
0,
3,
1,
3,
8,
1,
3,
3,
2,
0,
0,
3,
3,
3,
1,
1,
3,
3,
0,
1,
1,
2,
3,
1,
5,
1,
1,
1,
1,
0,
1,
0,
4,
1,
3,
1,
2,
1,
1,
1,
2,
1,
4,
2,
0,
2,
2,
1,
0,
0,
2,
1,
1,
0,
0,
0,
0,
1,
1,
0,
0,
0,
0,
1,
1,
0,
0,
0,
0,
1,
1,
0,
0,
2,
0,
2,
1,
0,
0,
1,
0,
0,
0,
0,
1,
0,
1,
0,
0,
1,
0,
1,
1,
0,
0,
1,
0,
2,
0,
0,
0,
0,
2,
0,
0,
0,
1,
0,
0,
1,
1,
0,
0,
0,
0,
1,
0,
1,
0,
0,
0,
0,
0,
2,
0,
1,
0,
0,
0,
0,
0,
0,
0,
0,
0,
0,
1,
0,
1,
0,
0,
0,
0,
0,
0,
0,
0,
0,
0,
1,
0,
0,
0,
0,
0,
0,
0,
0,
0,
1,
0,
0,
0,
0,
0,
0,
0,
1,
0,
0,
0,
1,
0,
0,
0,
0,
0,
0,
0,
0,
0,
0,
0,
0,
0,
0,
0,
0,
0,
0,
0,
0,
0,
0,
0,
0,
0,
0,
0,
0,
0,
0,
0,
0,
0,
0,
0,
0,
0,
0,
0,
0,
0,
0,
0,
0,
0,
0,
0,
0,
0,
0,
0,
0,
0,
0,
0,
0,
0,
0,
0,
0,
0,
0,
0,
0,
0,
0,
0,
0,
0,
0,
0,
0,
0,
0,
0,
0,
0,
0,
0,
0,
0,
0,
0,
1,
0,
0,
0,
0,
0,
0,
0,
0,
0,
0,
0,
0,
0,
0,
0,
0,
0,
0,
0,
0,
0,
0,
0,
0,
0,
0,
0,
0,
0,
0,
0,
0,
0,
0,
0,
0,
0,
0,
0,
0,
0,
0,
0,
0,
0,
0,
0,
0,
0,
0,
0,
0,
0,
0,
0,
0,
0,
0,
0,
0,
0,
0,
0,
0,
0,
0,
0,
0,
0,
0,
0,
0,
0,
0,
0,
0,
0,
0,
0,
0,
0,
0,
0,
0,
0,
0,
0,
0,
0,
0,
0,
0,
0,
0,
0,
0,
0,
0,
0,
0,
0,
0,
0,
0,
0,
0,
0,
0,
0,
0,
0,
0,
0,
0,
0,
0,
0,
0,
0,
0,
0,
0,
0,
0,
0,
0,
0,
0,
0,
0,
0,
0,
0,
0,
0,
0,
0,
0,
0,
0,
0,
0,
0,
0,
0,
0,
0,
0,
0,
0,
0,
0,
0,
0,
0,
0,
0,
0,
0,
0,
0,
0,
0,
0,
0,
0,
0,
0,
0,
0,
0,
0,
0,
0,
0,
0,
0,
0,
0,
0,
0,
0,
0,
0,
0,
0,
0,
0,
0,
0,
0,
0,
0,
0,
0,
0,
0,
0,
0,
0,
0,
0,
0,
0,
0,
0,
0,
0,
0,
0,
0,
0,
0,
0,
0,
0,
0,
0,
0,
0,
0,
0,
0,
0,
0,
0,
0,
0,
0,
0,
0,
0,
0,
0,
0,
0,
0,
0,
0,
0,
0,
0,
0,
0,
0,
0,
0,
0,
0,
0,
0,
0,
0,
0,
0,
0,
0,
0,
0,
0,
0,
0,
0,
0,
0,
0,
0,
0,
0,
0,
0,
0,
0,
0,
0,
0,
0,
0,
0,
0,
0,
0,
0,
0,
0,
0,
0,
0,
0,
0,
0,
0,
0,
0,
0,
0,
0,
0,
0,
0,
0,
0,
0,
0,
0,
0,
0,
0,
0,
0,
0,
0,
0,
0,
0,
0,
0,
0,
0,
0,
0,
0,
0,
0,
0,
0,
0,
0,
0,
0,
0,
0,
0,
0,
0,
0,
0,
0,
0,
0,
0,
0,
0,
0,
0,
0,
0,
0,
0,
0,
0,
0,
0,
0,
0,
0,
0,
0,
0,
0,
0,
0,
0,
0,
0,
0,
0,
0,
0,
0,
0,
0,
0,
0,
0,
0,
0,
0,
0,
#ENDOFDATA   :