File: N132962/Standards/15 keV/Sc std.msa
#FORMAT      : EMSA/MAS Spectral Data File
#VERSION     : 1.0
#TITLE       : Sc standard for 'N132962' detector
#NPOINTS     : 4096
#NCOLUMNS    : 1
#XUNITS      : eV
#YUNITS      : counts
#DATATYPE    : Y
#SIGNALTYPE  : EDS
#XLABEL      : Energy (eV)
#YLABEL      : Counts
#XPERCHAN -eV: 9.99778
#OFFSET   -eV: 1.69135
#CHOFFSET    : 0
#DATE        : 26-Sep-2025
#TIME        : 21:11:00
#OWNER       : Unknown
#ELEVANGLE   : 35
#BEAMKV   -kV: 15
#LIVETIME  -s: 1440.6
#REALTIME  -s: 1552.64
#PROBECUR -nA: 1.21419
##WORKING -mm: 15
##D2STDCMP   : Sc,(Sc:100.0000)
##SIMILAR    : 1.6
#SPECTRUM    :
143,
180,
69,
187,
1118,
4794,
13676,
30019,
59061,
127067,
337856,
585995,
502552,
284227,
107450,
34346,
34560,
48773,
39095,
21138,
17808,
24756,
35746,
36000,
26498,
22618,
23145,
24619,
26677,
27708,
28126,
28887,
30112,
31245,
32403,
33204,
33417,
33734,
34961,
35556,
36483,
37264,
37395,
38349,
38590,
39481,
40151,
40536,
42843,
46491,
46669,
43606,
40995,
39983,
40251,
40780,
42461,
44519,
46536,
45241,
42447,
39294,
36807,
34810,
33994,
33876,
33517,
33033,
33196,
32957,
32656,
32088,
32015,
31959,
32449,
33703,
36509,
42063,
46932,
43605,
36666,
31215,
29420,
28926,
28815,
28537,
27775,
27713,
27769,
28015,
28950,
28219,
27236,
26174,
25761,
25475,
25254,
24689,
24321,
24332,
24207,
23738,
23858,
23429,
23105,
22964,
22675,
22507,
22513,
22097,
22010,
21800,
21833,
21909,
21737,
21670,
21301,
21642,
21134,
20912,
20580,
20266,
20120,
19751,
19515,
19169,
19811,
20408,
21846,
24861,
29850,
41321,
82754,
237472,
635146,
1264590,
1747081,
1649328,
1061518,
476043,
155748,
48156,
24756,
22589,
27633,
43955,
82991,
149600,
215254,
226871,
173272,
97473,
43957,
20489,
13000,
11079,
11037,
10948,
11022,
11014,
11054,
11152,
10974,
10743,
10568,
10517,
10505,
10401,
10435,
10307,
10218,
10291,
10467,
10109,
10052,
10125,
10252,
9918,
10143,
9969,
9984,
10193,
9776,
9710,
9862,
9524,
9625,
9593,
9515,
9527,
9251,
9118,
9179,
9031,
9174,
8846,
9074,
9075,
8993,
8794,
8798,
8763,
8618,
8573,
8486,
8342,
8260,
8435,
8453,
8366,
8417,
8601,
8596,
8846,
8556,
8345,
8178,
7945,
7814,
7611,
7582,
7556,
7356,
7532,
7173,
7256,
7197,
7312,
7211,
7100,
7099,
7128,
7054,
7016,
6911,
6886,
6847,
6982,
6683,
6526,
6575,
6509,
6422,
6438,
6331,
6461,
6336,
6453,
6271,
6298,
6324,
6136,
6053,
5940,
5991,
5794,
5766,
5879,
5654,
5660,
5587,
5648,
5497,
5554,
5423,
5369,
5481,
5356,
5539,
5854,
6295,
6778,
7339,
7430,
7032,
6313,
5761,
5260,
4996,
4871,
4892,
4889,
5017,
5085,
5019,
5129,
5037,
4853,
4815,
4601,
4446,
4306,
4300,
4245,
4183,
4245,
4225,
4088,
4145,
4093,
4147,
3960,
4050,
3956,
3884,
3899,
3869,
3853,
3830,
3691,
3757,
3742,
3672,
3659,
3652,
3641,
3543,
3475,
3528,
3443,
3373,
3363,
3433,
3337,
3261,
3230,
3266,
3096,
3271,
3122,
3116,
3119,
3059,
3065,
2997,
2910,
3006,
2999,
2856,
2902,
2704,
2754,
2674,
2742,
2736,
2725,
2652,
2681,
2573,
2608,
2487,
2517,
2529,
2459,
2418,
2372,
2460,
2360,
2308,
2401,
2256,
2218,
2232,
2180,
2235,
2169,
2132,
2017,
2162,
2075,
2089,
1996,
1974,
1967,
1998,
1918,
1882,
1922,
1827,
1824,
1826,
1834,
1755,
1696,
1668,
1620,
1611,
1639,
1629,
1588,
1547,
1536,
1526,
1539,
1493,
1476,
1465,
1421,
1407,
1361,
1430,
1390,
1355,
1291,
1248,
1308,
1280,
1279,
1205,
1197,
1143,
1213,
1161,
1131,
1042,
1043,
1058,
1064,
1018,
992,
991,
994,
968,
953,
914,
893,
853,
901,
772,
848,
847,
805,
809,
765,
743,
701,
685,
737,
697,
640,
673,
626,
654,
627,
599,
538,
614,
550,
563,
512,
512,
515,
529,
522,
516,
476,
444,
444,
422,
420,
449,
415,
357,
356,
365,
368,
353,
316,
317,
309,
294,
262,
297,
274,
243,
227,
223,
211,
244,
199,
196,
154,
201,
183,
151,
164,
143,
146,
93,
109,
96,
92,
74,
88,
56,
56,
53,
39,
32,
34,
14,
14,
13,
15,
10,
7,
15,
16,
15,
15,
7,
10,
10,
7,
15,
11,
7,
9,
10,
11,
9,
7,
11,
7,
10,
12,
8,
7,
13,
7,
5,
6,
7,
8,
10,
5,
5,
7,
7,
4,
7,
12,
3,
2,
6,
4,
3,
7,
3,
8,
5,
3,
7,
2,
3,
2,
3,
8,
7,
6,
2,
2,
4,
5,
9,
5,
1,
6,
6,
5,
2,
3,
5,
7,
6,
5,
6,
1,
7,
8,
4,
2,
7,
6,
5,
5,
7,
6,
2,
1,
8,
3,
6,
7,
2,
5,
3,
2,
0,
1,
4,
3,
1,
0,
0,
4,
4,
2,
5,
1,
3,
3,
6,
1,
3,
7,
2,
3,
3,
0,
1,
1,
1,
2,
2,
1,
1,
0,
1,
0,
1,
1,
2,
1,
2,
0,
2,
1,
2,
1,
1,
1,
1,
0,
1,
0,
1,
0,
0,
1,
2,
1,
1,
1,
1,
0,
1,
1,
0,
0,
0,
2,
0,
2,
0,
0,
0,
0,
0,
1,
0,
0,
0,
0,
0,
0,
0,
1,
0,
2,
0,
1,
0,
0,
0,
0,
0,
0,
1,
0,
0,
2,
0,
0,
1,
0,
1,
1,
0,
0,
0,
0,
1,
0,
0,
0,
1,
0,
0,
0,
0,
0,
0,
1,
0,
0,
1,
1,
0,
1,
0,
0,
0,
0,
0,
0,
0,
0,
0,
0,
0,
1,
0,
0,
0,
0,
0,
0,
1,
0,
1,
0,
0,
1,
0,
0,
0,
0,
0,
1,
1,
0,
0,
0,
0,
0,
0,
0,
1,
0,
0,
0,
0,
0,
1,
1,
0,
0,
0,
0,
0,
0,
0,
1,
0,
0,
1,
0,
0,
0,
0,
0,
0,
0,
0,
1,
0,
0,
0,
1,
0,
0,
0,
0,
0,
0,
0,
0,
0,
0,
0,
0,
1,
0,
0,
0,
0,
0,
0,
0,
0,
0,
0,
0,
0,
0,
0,
0,
0,
0,
0,
0,
0,
0,
0,
0,
0,
0,
0,
0,
0,
1,
0,
0,
0,
0,
0,
0,
0,
0,
0,
0,
0,
0,
0,
0,
0,
0,
0,
0,
0,
0,
0,
0,
0,
0,
0,
0,
0,
1,
0,
0,
0,
0,
0,
0,
0,
0,
0,
0,
0,
0,
0,
0,
0,
0,
0,
0,
0,
0,
0,
0,
0,
0,
0,
0,
0,
0,
0,
0,
0,
0,
0,
0,
0,
0,
0,
0,
0,
0,
0,
0,
0,
0,
0,
0,
0,
0,
0,
0,
0,
0,
0,
0,
0,
0,
0,
0,
0,
0,
0,
0,
0,
0,
0,
0,
0,
0,
0,
0,
0,
0,
0,
0,
0,
0,
0,
0,
0,
0,
0,
0,
0,
0,
0,
0,
0,
0,
0,
0,
0,
0,
0,
0,
0,
0,
0,
0,
0,
0,
0,
0,
0,
0,
0,
0,
0,
0,
0,
0,
0,
0,
0,
0,
0,
0,
0,
0,
0,
0,
0,
0,
0,
0,
0,
0,
0,
0,
0,
0,
0,
0,
0,
0,
0,
0,
0,
0,
0,
0,
0,
0,
0,
0,
0,
0,
0,
0,
0,
0,
0,
0,
0,
0,
0,
0,
0,
0,
0,
0,
0,
0,
0,
0,
0,
0,
0,
0,
0,
0,
0,
0,
0,
0,
0,
0,
0,
0,
0,
0,
0,
0,
0,
0,
0,
0,
0,
0,
0,
0,
0,
0,
0,
0,
0,
0,
0,
0,
0,
0,
0,
0,
0,
0,
0,
0,
0,
0,
0,
0,
0,
0,
0,
0,
0,
0,
0,
0,
0,
0,
0,
0,
0,
0,
0,
0,
0,
0,
0,
0,
0,
0,
0,
0,
0,
0,
0,
0,
0,
0,
0,
0,
0,
0,
0,
0,
0,
0,
0,
0,
0,
0,
0,
0,
0,
0,
0,
0,
0,
0,
0,
0,
0,
0,
0,
0,
0,
0,
0,
0,
0,
0,
0,
0,
0,
0,
0,
0,
0,
0,
0,
0,
0,
0,
0,
0,
0,
0,
0,
0,
0,
0,
0,
0,
0,
0,
0,
0,
0,
0,
0,
0,
0,
0,
0,
0,
0,
0,
0,
0,
0,
0,
0,
0,
0,
0,
0,
0,
0,
0,
0,
0,
0,
0,
0,
0,
0,
0,
0,
0,
0,
0,
0,
0,
0,
0,
0,
0,
0,
0,
0,
0,
0,
0,
0,
0,
0,
0,
0,
0,
0,
0,
0,
0,
0,
0,
0,
0,
0,
0,
0,
0,
0,
0,
0,
0,
0,
0,
0,
0,
0,
0,
0,
0,
0,
0,
0,
0,
0,
0,
0,
0,
0,
0,
0,
0,
0,
0,
0,
0,
0,
0,
0,
0,
0,
0,
0,
0,
0,
0,
0,
0,
0,
0,
0,
0,
0,
0,
0,
0,
0,
0,
0,
0,
0,
0,
0,
0,
0,
0,
0,
0,
0,
0,
0,
0,
0,
0,
0,
0,
0,
0,
0,
0,
0,
0,
0,
0,
0,
0,
0,
0,
0,
0,
0,
0,
0,
0,
0,
0,
0,
0,
0,
0,
0,
0,
0,
0,
0,
0,
0,
0,
0,
0,
0,
0,
0,
0,
0,
0,
0,
0,
0,
0,
0,
0,
0,
0,
0,
0,
0,
0,
0,
0,
0,
0,
0,
0,
0,
0,
0,
0,
0,
0,
0,
0,
0,
0,
0,
0,
0,
0,
0,
0,
0,
0,
#ENDOFDATA   :