File: N132962/Standards/15 keV/Se std.msa
#FORMAT      : EMSA/MAS Spectral Data File
#VERSION     : 1.0
#TITLE       : Se standard for 'N132962' detector
#NPOINTS     : 4096
#NCOLUMNS    : 1
#XUNITS      : eV
#YUNITS      : counts
#DATATYPE    : Y
#SIGNALTYPE  : EDS
#XLABEL      : Energy (eV)
#YLABEL      : Counts
#XPERCHAN -eV: 9.99778
#OFFSET   -eV: 1.69135
#CHOFFSET    : 0
#DATE        : 25-Sep-2025
#TIME        : 21:07:00
#OWNER       : Unknown
#ELEVANGLE   : 35
#BEAMKV   -kV: 15
#LIVETIME  -s: 1680.27
#REALTIME  -s: 1864.85
#PROBECUR -nA: 1.20952
##WORKING -mm: 15
##D2STDCMP   : Se,(Se:100.0000)
##SIMILAR    : 2.0
#SPECTRUM    :
210,
194,
103,
221,
980,
3497,
9285,
20441,
42440,
52064,
36797,
30219,
34064,
37100,
38633,
42377,
49399,
57481,
56765,
54220,
56583,
60791,
65164,
69373,
71893,
73256,
76067,
80094,
83123,
84054,
84970,
86507,
88221,
89953,
92991,
94968,
97416,
103474,
133328,
217580,
308539,
304225,
245876,
324224,
1050027,
2934102,
4561980,
3972489,
2095348,
718044,
196177,
71206,
40299,
33533,
33833,
33863,
33708,
33548,
34490,
35045,
34109,
32721,
31440,
30488,
30701,
31129,
31362,
31888,
32034,
32681,
32999,
33010,
33198,
33056,
33462,
34075,
34348,
34795,
34400,
34349,
34598,
34478,
34715,
34844,
34976,
35766,
36345,
36922,
36783,
37303,
40253,
46912,
53632,
54572,
50219,
42654,
37639,
34233,
33373,
33474,
33343,
32995,
32602,
32213,
32169,
32102,
32392,
32203,
31572,
31734,
31265,
31283,
30852,
30740,
30754,
30432,
30626,
30059,
30030,
29858,
29573,
29968,
29428,
29338,
29217,
29088,
28804,
28243,
28279,
28031,
27881,
28136,
27579,
27349,
27090,
26914,
27024,
26809,
26606,
26542,
25989,
26190,
25897,
25788,
25340,
25642,
25491,
25956,
25647,
26542,
26753,
26412,
25836,
24853,
24091,
23983,
23696,
23244,
23203,
23111,
22933,
22867,
22784,
22749,
22649,
22235,
22187,
21671,
21601,
21483,
21574,
21380,
20971,
20982,
21074,
20740,
20341,
20168,
20108,
20108,
19785,
19752,
19751,
19634,
19418,
19301,
19048,
18527,
18697,
18776,
18401,
18448,
18361,
18240,
18178,
17796,
17777,
17745,
17443,
17416,
17313,
17215,
17074,
16688,
16620,
16585,
16446,
16445,
16389,
16262,
16108,
16120,
16409,
16226,
16161,
15994,
15486,
15229,
15229,
14813,
14796,
15013,
14618,
14650,
14440,
14269,
14314,
14023,
13949,
14009,
13805,
13617,
13608,
13553,
13454,
13511,
13014,
13268,
13066,
12941,
12786,
12735,
12600,
12560,
12426,
12355,
12463,
12379,
12312,
12173,
12127,
11851,
11878,
11505,
11345,
11567,
11247,
11183,
11134,
11037,
10996,
10809,
10885,
10720,
10678,
10493,
10580,
10413,
10446,
10329,
10139,
10210,
10014,
10028,
9918,
9815,
9771,
9562,
9697,
9373,
9355,
9422,
9347,
9269,
9186,
9105,
9054,
8936,
8907,
8765,
8653,
8519,
8609,
8672,
8475,
8277,
8208,
8080,
8152,
8065,
8008,
8020,
7762,
7874,
7758,
7683,
7577,
7603,
7333,
7563,
7391,
7318,
7285,
7222,
7276,
7118,
6999,
7051,
7006,
6661,
6750,
6764,
6820,
6670,
6659,
6665,
6457,
6530,
6291,
6374,
6192,
6234,
6170,
5996,
6227,
5990,
6018,
5780,
5681,
5824,
5670,
5678,
5538,
5514,
5631,
5389,
5389,
5304,
5230,
5258,
5380,
5271,
5227,
5157,
4936,
4893,
4884,
4888,
4825,
4894,
4686,
4699,
4632,
4569,
4636,
4631,
5020,
6237,
8444,
13022,
19916,
28395,
36465,
41241,
39603,
33960,
24885,
16686,
10316,
6752,
4905,
4062,
3797,
3598,
3592,
3512,
3556,
3433,
3322,
3448,
3333,
3262,
3327,
3173,
3185,
3063,
3034,
3036,
2900,
2923,
2938,
2802,
2843,
2758,
2748,
2706,
2760,
2627,
2725,
2752,
2914,
3191,
3894,
4792,
6156,
6890,
7397,
7113,
6298,
5337,
4098,
3398,
2840,
2325,
2171,
2100,
1979,
1809,
1802,
1769,
1712,
1750,
1731,
1728,
1650,
1612,
1606,
1511,
1463,
1493,
1437,
1442,
1417,
1356,
1272,
1257,
1274,
1313,
1308,
1181,
1157,
1163,
1083,
1121,
1115,
1030,
1061,
974,
984,
1011,
970,
931,
902,
865,
857,
868,
778,
755,
774,
738,
649,
636,
664,
609,
556,
547,
568,
502,
498,
443,
417,
440,
391,
412,
344,
344,
351,
317,
271,
257,
252,
227,
175,
187,
164,
137,
137,
95,
84,
67,
55,
34,
36,
31,
24,
20,
17,
20,
15,
22,
23,
19,
16,
14,
20,
15,
17,
11,
13,
14,
18,
11,
13,
21,
15,
22,
9,
5,
17,
10,
13,
8,
17,
14,
18,
11,
8,
11,
7,
13,
4,
9,
9,
4,
7,
7,
7,
6,
4,
8,
6,
5,
11,
7,
8,
5,
5,
6,
2,
4,
5,
10,
8,
15,
7,
10,
7,
11,
8,
8,
8,
6,
11,
2,
9,
13,
12,
6,
8,
6,
6,
5,
9,
6,
9,
4,
2,
7,
8,
10,
11,
8,
5,
4,
7,
6,
9,
5,
12,
7,
7,
9,
4,
9,
9,
7,
3,
4,
6,
6,
4,
8,
5,
11,
2,
6,
6,
8,
3,
7,
10,
5,
4,
4,
2,
3,
8,
2,
4,
4,
6,
3,
7,
4,
7,
1,
5,
3,
3,
4,
3,
3,
4,
2,
6,
3,
5,
4,
3,
1,
4,
2,
3,
6,
6,
1,
1,
1,
3,
2,
4,
4,
2,
3,
2,
5,
1,
3,
3,
1,
3,
5,
5,
2,
1,
3,
0,
3,
1,
3,
1,
2,
1,
1,
3,
2,
1,
2,
0,
1,
4,
4,
5,
2,
5,
3,
1,
2,
1,
3,
3,
2,
4,
2,
2,
0,
1,
1,
1,
2,
2,
2,
2,
3,
1,
5,
2,
5,
1,
3,
2,
2,
2,
0,
3,
2,
2,
0,
3,
2,
1,
1,
0,
2,
0,
3,
2,
0,
0,
2,
2,
1,
1,
5,
1,
2,
0,
2,
6,
2,
2,
1,
1,
1,
0,
1,
1,
2,
1,
1,
1,
0,
2,
0,
1,
1,
0,
2,
0,
1,
2,
0,
0,
2,
1,
1,
0,
0,
1,
1,
1,
0,
1,
2,
2,
0,
1,
0,
2,
2,
0,
2,
1,
0,
1,
1,
0,
0,
2,
0,
1,
0,
1,
0,
0,
1,
1,
1,
0,
0,
2,
0,
0,
1,
0,
0,
0,
0,
3,
1,
0,
1,
1,
0,
1,
2,
0,
0,
0,
1,
0,
0,
3,
0,
0,
1,
0,
0,
0,
1,
1,
0,
0,
0,
0,
0,
0,
0,
0,
0,
0,
0,
2,
1,
0,
0,
0,
0,
0,
1,
0,
0,
0,
0,
0,
0,
0,
0,
0,
0,
0,
1,
1,
0,
0,
0,
0,
0,
0,
0,
0,
0,
1,
1,
0,
0,
0,
0,
0,
0,
0,
0,
0,
0,
0,
0,
0,
0,
0,
0,
0,
0,
0,
0,
0,
0,
0,
0,
0,
0,
0,
0,
0,
0,
0,
0,
0,
0,
0,
0,
1,
0,
0,
0,
0,
0,
0,
0,
0,
0,
0,
0,
0,
0,
0,
0,
0,
0,
0,
0,
0,
0,
0,
0,
0,
0,
0,
0,
0,
0,
0,
0,
0,
0,
0,
0,
0,
0,
0,
0,
0,
0,
0,
0,
0,
0,
0,
0,
0,
0,
0,
0,
0,
0,
0,
0,
0,
0,
0,
0,
0,
0,
0,
0,
0,
0,
0,
0,
0,
0,
0,
0,
0,
0,
0,
0,
0,
0,
0,
0,
0,
0,
0,
0,
0,
0,
0,
0,
0,
0,
0,
0,
0,
0,
0,
0,
0,
0,
0,
0,
0,
0,
0,
0,
0,
0,
0,
0,
0,
0,
0,
0,
0,
0,
0,
0,
0,
0,
0,
0,
0,
0,
0,
0,
0,
0,
0,
0,
0,
0,
0,
0,
0,
0,
0,
0,
0,
0,
0,
0,
0,
0,
0,
0,
0,
0,
0,
0,
0,
0,
0,
0,
0,
0,
0,
0,
0,
0,
0,
0,
0,
0,
0,
0,
0,
0,
0,
0,
0,
0,
0,
0,
0,
0,
0,
0,
0,
0,
0,
0,
0,
0,
0,
0,
0,
0,
0,
0,
0,
0,
0,
0,
0,
0,
0,
0,
0,
0,
0,
0,
0,
0,
0,
0,
0,
0,
0,
0,
0,
0,
0,
0,
0,
0,
0,
0,
0,
0,
0,
0,
0,
1,
0,
0,
0,
0,
0,
0,
0,
0,
0,
0,
0,
0,
0,
0,
0,
0,
0,
0,
0,
0,
0,
0,
0,
0,
0,
0,
0,
0,
0,
0,
0,
0,
0,
0,
0,
0,
0,
0,
0,
0,
0,
0,
0,
0,
0,
0,
0,
0,
0,
0,
0,
0,
0,
0,
0,
0,
0,
0,
0,
0,
0,
0,
0,
0,
0,
0,
0,
0,
0,
0,
0,
0,
0,
0,
0,
0,
0,
0,
0,
0,
0,
0,
0,
0,
0,
0,
0,
0,
0,
0,
0,
0,
0,
0,
0,
0,
0,
0,
0,
0,
0,
0,
0,
0,
0,
0,
0,
0,
0,
0,
0,
0,
0,
0,
0,
0,
0,
0,
0,
0,
0,
0,
0,
0,
0,
0,
0,
0,
0,
0,
0,
0,
0,
0,
0,
0,
0,
0,
0,
0,
0,
0,
0,
0,
0,
0,
0,
0,
0,
0,
0,
0,
0,
0,
0,
0,
0,
0,
0,
0,
0,
0,
0,
0,
0,
0,
0,
0,
0,
0,
0,
0,
0,
0,
0,
0,
0,
0,
0,
0,
0,
0,
0,
0,
0,
0,
0,
0,
0,
0,
0,
0,
0,
0,
0,
0,
0,
0,
0,
0,
0,
0,
0,
0,
0,
0,
0,
0,
0,
0,
0,
0,
0,
0,
0,
0,
0,
0,
0,
0,
0,
0,
0,
0,
#ENDOFDATA   :