File: N132962/Standards/15 keV/Si std.msa
#FORMAT      : EMSA/MAS Spectral Data File
#VERSION     : 1.0
#TITLE       : Si standard for 'N132962' detector
#NPOINTS     : 4096
#NCOLUMNS    : 1
#XUNITS      : eV
#YUNITS      : counts
#DATATYPE    : Y
#SIGNALTYPE  : EDS
#XLABEL      : Energy (eV)
#YLABEL      : Counts
#XPERCHAN -eV: 9.99778
#OFFSET   -eV: 1.69135
#CHOFFSET    : 0
#DATE        : 27-Sep-2025
#TIME        : 16:41:00
#OWNER       : Unknown
#ELEVANGLE   : 35
#BEAMKV   -kV: 15
#LIVETIME  -s: 2160.98
#REALTIME  -s: 2415.68
#PROBECUR -nA: 1.21005
##WORKING -mm: 15
##D2STDCMP   : Si,(Si:100.0000)
##SIMILAR    : 1.1
#SPECTRUM    :
223,
332,
825,
2540,
2424,
2905,
7149,
18532,
45731,
57813,
33934,
20513,
20964,
23197,
26036,
30945,
40216,
49495,
48545,
44339,
46220,
50522,
54625,
58330,
61234,
63503,
66214,
68272,
69635,
71679,
73992,
76263,
75664,
74641,
75032,
73320,
73507,
72262,
72115,
72426,
71754,
71994,
72599,
72329,
72360,
73889,
75206,
78194,
82350,
88815,
93927,
97465,
100532,
108072,
164608,
611664,
2628865,
6728972,
8957157,
6151075,
2386525,
786609,
341642,
135947,
45349,
23071,
19887,
19463,
19490,
19313,
19396,
19492,
20257,
20442,
20314,
20579,
20920,
20872,
21168,
21175,
20936,
21124,
21441,
21484,
21421,
21659,
21386,
21393,
21267,
21575,
21235,
21402,
21239,
21129,
20686,
20766,
20706,
20632,
20518,
20626,
20254,
20306,
20147,
20211,
19935,
19918,
19950,
19791,
20185,
19819,
19840,
20053,
21271,
27406,
41962,
61682,
72187,
61805,
42879,
29274,
22921,
19322,
17831,
17015,
16910,
16721,
16599,
16410,
16092,
15945,
16021,
15825,
15874,
15578,
15634,
15450,
15205,
15181,
15100,
15098,
14731,
14798,
14567,
14109,
14366,
14438,
14096,
14047,
13890,
13839,
13746,
13511,
13742,
13584,
13292,
13217,
13300,
13206,
13001,
12960,
12704,
12641,
12295,
12326,
12235,
12293,
12182,
11960,
11827,
11914,
11618,
11595,
11685,
11673,
11497,
11299,
11101,
11031,
10825,
10753,
10489,
10575,
10587,
10473,
10565,
10523,
10262,
10104,
10109,
9919,
10017,
10013,
9827,
9702,
9717,
9472,
9416,
9428,
9176,
9111,
9113,
8941,
9010,
8996,
8864,
8778,
8631,
8621,
8571,
8549,
8440,
8450,
8418,
8399,
8275,
8172,
7990,
8039,
7874,
7740,
7826,
7562,
7563,
7512,
7296,
7256,
7394,
7121,
7108,
7031,
7076,
6922,
6981,
6758,
6998,
6922,
6727,
6587,
6749,
6522,
6653,
6345,
6327,
6206,
6370,
6299,
6158,
6238,
6203,
6014,
5953,
6121,
5876,
5892,
5823,
5663,
5714,
5603,
5496,
5480,
5461,
5434,
5312,
5355,
5291,
5273,
5297,
5347,
5184,
5014,
5086,
5023,
4845,
4901,
4856,
4904,
4763,
4610,
4574,
4568,
4558,
4481,
4495,
4439,
4386,
4406,
4433,
4438,
4203,
4265,
4227,
4157,
4012,
4084,
4101,
3993,
3882,
4010,
3822,
3770,
3766,
3801,
3709,
3562,
3669,
3603,
3609,
3504,
3421,
3511,
3450,
3396,
3433,
3341,
3337,
3190,
3334,
3181,
3271,
3258,
3228,
3110,
3023,
3082,
3166,
2935,
2890,
2995,
2910,
2976,
2819,
2726,
2840,
2744,
2799,
2708,
2596,
2572,
2622,
2600,
2564,
2484,
2468,
2500,
2394,
2485,
2354,
2411,
2334,
2325,
2352,
2259,
2195,
2176,
2150,
2251,
2109,
2143,
2050,
2136,
1987,
2013,
2021,
1929,
1911,
1900,
2020,
1890,
1888,
1859,
1785,
1803,
1812,
1758,
1721,
1674,
1610,
1703,
1532,
1658,
1595,
1528,
1491,
1512,
1502,
1451,
1401,
1536,
1413,
1387,
1340,
1322,
1330,
1364,
1270,
1241,
1285,
1272,
1208,
1162,
1180,
1170,
1177,
1068,
1138,
1036,
1047,
1075,
1048,
1043,
996,
984,
972,
993,
902,
1007,
892,
826,
870,
873,
880,
824,
797,
796,
774,
695,
743,
749,
750,
724,
708,
706,
680,
646,
702,
680,
614,
624,
541,
577,
560,
531,
568,
535,
510,
491,
517,
477,
487,
455,
473,
455,
440,
433,
367,
397,
385,
347,
352,
375,
330,
331,
325,
288,
272,
302,
287,
267,
237,
239,
228,
250,
226,
204,
196,
194,
197,
181,
174,
163,
159,
147,
155,
144,
118,
115,
111,
98,
106,
85,
76,
82,
73,
67,
43,
38,
42,
27,
33,
17,
14,
10,
8,
5,
10,
10,
7,
9,
1,
3,
3,
9,
9,
8,
9,
5,
7,
2,
6,
5,
7,
5,
5,
3,
3,
8,
7,
2,
3,
1,
6,
4,
4,
9,
3,
6,
5,
4,
4,
7,
3,
6,
2,
0,
3,
2,
2,
6,
1,
4,
2,
0,
3,
3,
1,
1,
1,
2,
0,
1,
0,
0,
0,
3,
1,
0,
0,
1,
0,
0,
3,
2,
1,
1,
1,
2,
2,
0,
0,
0,
0,
0,
1,
1,
2,
0,
1,
0,
0,
0,
2,
0,
2,
2,
1,
1,
1,
3,
1,
1,
1,
0,
0,
1,
0,
1,
0,
1,
1,
1,
1,
1,
0,
2,
1,
0,
0,
0,
0,
0,
1,
2,
1,
0,
0,
0,
1,
1,
3,
1,
1,
0,
1,
0,
1,
1,
1,
0,
0,
1,
0,
0,
1,
0,
1,
1,
0,
0,
0,
1,
0,
0,
1,
0,
1,
1,
0,
2,
0,
1,
0,
0,
0,
0,
0,
0,
0,
1,
1,
0,
1,
0,
0,
2,
1,
0,
0,
0,
0,
0,
0,
0,
1,
1,
0,
0,
1,
0,
0,
0,
0,
0,
0,
0,
0,
0,
0,
1,
0,
0,
0,
0,
0,
0,
0,
0,
0,
0,
0,
0,
0,
0,
0,
0,
0,
0,
0,
0,
0,
0,
0,
0,
0,
0,
0,
0,
0,
0,
1,
0,
0,
0,
0,
0,
0,
0,
0,
1,
0,
0,
0,
0,
0,
0,
0,
0,
0,
0,
0,
0,
0,
0,
0,
0,
0,
0,
0,
0,
0,
1,
0,
0,
0,
0,
0,
0,
1,
0,
0,
0,
0,
0,
0,
0,
0,
0,
0,
0,
0,
0,
0,
0,
0,
0,
0,
0,
0,
0,
0,
0,
0,
0,
0,
0,
0,
0,
0,
0,
0,
0,
0,
1,
0,
0,
0,
0,
0,
0,
0,
0,
0,
0,
0,
0,
0,
0,
0,
0,
0,
0,
0,
0,
0,
0,
0,
0,
0,
0,
0,
0,
0,
0,
0,
0,
0,
0,
0,
0,
0,
0,
0,
0,
0,
0,
0,
0,
0,
0,
0,
0,
0,
0,
0,
0,
0,
0,
0,
0,
0,
0,
0,
0,
0,
0,
0,
0,
0,
0,
0,
0,
0,
0,
0,
0,
0,
0,
0,
0,
0,
0,
0,
0,
0,
0,
0,
0,
0,
0,
0,
0,
0,
0,
0,
0,
0,
0,
0,
0,
0,
0,
0,
0,
0,
0,
0,
0,
0,
0,
0,
0,
0,
0,
0,
0,
0,
0,
0,
0,
0,
0,
0,
0,
0,
0,
0,
0,
0,
0,
0,
0,
0,
0,
0,
0,
0,
0,
0,
0,
0,
0,
0,
0,
0,
0,
0,
0,
0,
0,
0,
0,
0,
0,
0,
0,
0,
0,
0,
0,
0,
0,
0,
0,
0,
0,
0,
0,
0,
0,
0,
0,
0,
0,
0,
0,
0,
0,
0,
0,
0,
0,
0,
0,
0,
0,
0,
0,
0,
0,
0,
0,
0,
0,
0,
0,
0,
0,
0,
0,
0,
0,
0,
0,
0,
0,
0,
0,
0,
0,
0,
0,
0,
0,
0,
0,
0,
0,
0,
0,
0,
0,
0,
0,
0,
0,
0,
0,
0,
0,
0,
0,
0,
0,
0,
0,
0,
0,
0,
0,
0,
0,
0,
0,
0,
0,
0,
0,
0,
0,
0,
0,
0,
0,
0,
0,
0,
0,
0,
0,
0,
0,
0,
0,
0,
0,
0,
0,
0,
0,
0,
0,
0,
0,
0,
0,
0,
0,
0,
0,
0,
0,
0,
0,
0,
0,
0,
0,
0,
0,
0,
0,
0,
0,
0,
0,
0,
0,
0,
0,
0,
0,
0,
0,
0,
0,
0,
0,
0,
0,
0,
0,
0,
0,
0,
0,
0,
0,
0,
0,
0,
0,
0,
0,
0,
0,
0,
0,
0,
0,
0,
0,
0,
0,
0,
0,
1,
0,
0,
0,
0,
0,
0,
0,
0,
0,
0,
0,
0,
0,
0,
0,
0,
0,
0,
0,
0,
0,
0,
0,
0,
0,
0,
0,
0,
0,
0,
0,
0,
0,
0,
0,
0,
0,
0,
0,
0,
0,
0,
0,
0,
0,
0,
0,
0,
0,
0,
0,
0,
0,
0,
0,
0,
0,
0,
0,
0,
0,
0,
0,
0,
0,
0,
0,
0,
0,
0,
0,
0,
0,
0,
0,
0,
0,
0,
0,
0,
0,
0,
0,
0,
0,
0,
0,
0,
0,
0,
0,
0,
0,
0,
0,
0,
0,
0,
0,
0,
0,
0,
0,
0,
0,
0,
0,
0,
0,
0,
0,
0,
0,
0,
0,
0,
0,
0,
0,
0,
0,
0,
0,
0,
0,
0,
0,
0,
0,
0,
0,
0,
0,
0,
0,
0,
0,
0,
0,
0,
0,
0,
0,
0,
0,
0,
0,
0,
0,
0,
0,
0,
0,
0,
0,
0,
0,
0,
0,
0,
0,
0,
0,
0,
0,
0,
0,
0,
0,
0,
0,
0,
0,
0,
0,
0,
0,
0,
0,
0,
0,
0,
0,
0,
0,
0,
0,
0,
0,
0,
0,
0,
0,
0,
0,
0,
0,
0,
0,
0,
0,
0,
0,
0,
0,
0,
0,
0,
0,
0,
0,
0,
0,
0,
0,
0,
0,
0,
0,
0,
0,
0,
0,
0,
0,
0,
0,
0,
0,
0,
0,
#ENDOFDATA   :