File: N132962/Standards/15 keV/SiO2 std.msa
#FORMAT      : EMSA/MAS Spectral Data File
#VERSION     : 1.0
#TITLE       : SiO2 standard for 'N132962' detector
#NPOINTS     : 4096
#NCOLUMNS    : 1
#XUNITS      : eV
#YUNITS      : counts
#DATATYPE    : Y
#SIGNALTYPE  : EDS
#XLABEL      : Energy (eV)
#YLABEL      : Counts
#XPERCHAN -eV: 9.99778
#OFFSET   -eV: 1.69135
#CHOFFSET    : 0
#DATE        : 27-Sep-2025
#TIME        : 17:12:00
#OWNER       : Unknown
#ELEVANGLE   : 35
#BEAMKV   -kV: 15
#LIVETIME  -s: 1919.23
#REALTIME  -s: 2064.84
#PROBECUR -nA: 1.20983
##WORKING -mm: 15
##D2STDCMP   : SiO2,(O:53.2563),(Si:46.7437)
##SIMILAR    : 1.2
#SPECTRUM    :
231,
215,
93,
210,
782,
2648,
7272,
17882,
41085,
52039,
34987,
27922,
32848,
44062,
86640,
332118,
1262665,
2388231,
1725525,
449390,
55833,
18449,
18643,
20041,
21339,
22529,
24207,
25832,
27622,
28788,
31054,
33360,
34375,
36629,
40161,
39152,
36596,
34666,
34677,
35310,
35986,
36165,
36227,
37270,
37677,
38497,
39203,
40243,
42667,
44936,
46738,
47947,
49092,
52000,
70593,
221506,
925868,
2398393,
3266262,
2297005,
908117,
288264,
118018,
51523,
25286,
18403,
17584,
17778,
17593,
17533,
17386,
17666,
18863,
21534,
27137,
30816,
28959,
22933,
19265,
17918,
17121,
16910,
16817,
16580,
16651,
16327,
16428,
16190,
16068,
16127,
15954,
15689,
15704,
15601,
15322,
15197,
15228,
14918,
14962,
14791,
14883,
14869,
14283,
14351,
14314,
13867,
14024,
13878,
13744,
13815,
13454,
13490,
13587,
14646,
16003,
18715,
20577,
19310,
16351,
14245,
13114,
12639,
12097,
11741,
11597,
11666,
11548,
11268,
11279,
11291,
11215,
10974,
11028,
10948,
10700,
10526,
10450,
10427,
10397,
10297,
10116,
10039,
9774,
10003,
9884,
9650,
9626,
9512,
9323,
9450,
9264,
9111,
9158,
8987,
8865,
8942,
8765,
8692,
8710,
8572,
8538,
8406,
8302,
8251,
8152,
8061,
7882,
8069,
7862,
7856,
7491,
7763,
7444,
7555,
7443,
7353,
7123,
7211,
7150,
7179,
7009,
7078,
6872,
6726,
6749,
6912,
6639,
6685,
6536,
6408,
6427,
6412,
6187,
6212,
6280,
6045,
6112,
6001,
6006,
5989,
5924,
5662,
5801,
5746,
5661,
5585,
5561,
5439,
5513,
5440,
5366,
5322,
5373,
5461,
5351,
5252,
5201,
5005,
5050,
4952,
4843,
4920,
4847,
4739,
4867,
4657,
4656,
4599,
4637,
4531,
4464,
4423,
4437,
4331,
4243,
4304,
4311,
4277,
4428,
4135,
4094,
4117,
4060,
4067,
3912,
3902,
3986,
3771,
3898,
3770,
3915,
3742,
3612,
3684,
3545,
3589,
3512,
3421,
3603,
3574,
3347,
3482,
3475,
3345,
3218,
3282,
3304,
3269,
3258,
3226,
3130,
3204,
3060,
2985,
3057,
3017,
2863,
2897,
2826,
2836,
2786,
2822,
2742,
2674,
2855,
2767,
2742,
2775,
2674,
2681,
2712,
2721,
2476,
2564,
2401,
2502,
2495,
2395,
2356,
2506,
2373,
2387,
2315,
2244,
2315,
2274,
2226,
2171,
2188,
2225,
2145,
2049,
2023,
1976,
2147,
2011,
1956,
1965,
1987,
2026,
1963,
1906,
1913,
1851,
1871,
1844,
1817,
1804,
1781,
1776,
1816,
1705,
1667,
1630,
1701,
1682,
1614,
1538,
1575,
1565,
1500,
1588,
1533,
1433,
1503,
1504,
1449,
1420,
1429,
1437,
1369,
1293,
1358,
1344,
1329,
1250,
1294,
1250,
1278,
1212,
1216,
1216,
1169,
1163,
1107,
1190,
1114,
1145,
1126,
1116,
1082,
1049,
1009,
1072,
998,
966,
1009,
1023,
987,
970,
921,
939,
882,
943,
964,
874,
820,
905,
832,
776,
799,
810,
793,
810,
706,
756,
764,
782,
759,
684,
727,
699,
670,
674,
688,
649,
650,
590,
608,
614,
609,
609,
605,
543,
566,
547,
571,
502,
487,
456,
515,
508,
472,
460,
487,
409,
438,
440,
449,
426,
394,
419,
381,
425,
396,
348,
339,
367,
358,
322,
338,
348,
331,
318,
316,
331,
290,
296,
271,
276,
264,
245,
255,
237,
204,
217,
242,
220,
180,
192,
195,
174,
196,
178,
173,
176,
155,
138,
148,
147,
148,
131,
122,
115,
138,
97,
99,
107,
112,
89,
84,
76,
75,
90,
70,
77,
67,
48,
66,
46,
46,
39,
41,
34,
21,
29,
14,
16,
18,
12,
5,
2,
3,
4,
4,
3,
2,
0,
3,
3,
2,
0,
4,
5,
3,
3,
4,
1,
0,
2,
1,
0,
2,
0,
1,
2,
2,
1,
1,
1,
1,
4,
2,
1,
2,
1,
2,
0,
1,
1,
1,
0,
2,
1,
0,
2,
1,
1,
1,
1,
0,
0,
1,
1,
0,
0,
0,
1,
1,
0,
1,
1,
1,
0,
0,
0,
0,
0,
1,
1,
0,
0,
0,
1,
0,
0,
1,
0,
0,
0,
3,
0,
0,
0,
0,
1,
0,
0,
0,
1,
0,
3,
0,
0,
0,
0,
1,
0,
0,
0,
0,
0,
2,
0,
0,
0,
0,
0,
0,
0,
0,
1,
0,
0,
0,
0,
0,
0,
0,
0,
0,
0,
0,
0,
0,
0,
0,
0,
0,
0,
0,
0,
1,
0,
0,
0,
0,
1,
0,
0,
0,
1,
0,
0,
1,
0,
0,
1,
0,
0,
1,
1,
0,
0,
0,
0,
0,
0,
0,
0,
0,
0,
0,
0,
1,
0,
0,
0,
0,
0,
1,
0,
0,
0,
1,
0,
0,
0,
0,
0,
0,
0,
0,
1,
0,
0,
0,
0,
0,
0,
0,
0,
0,
0,
0,
0,
0,
1,
0,
0,
0,
0,
0,
0,
0,
0,
0,
0,
0,
0,
0,
0,
0,
0,
0,
0,
0,
0,
0,
0,
0,
0,
0,
0,
0,
0,
0,
0,
0,
0,
0,
0,
0,
0,
0,
0,
0,
0,
0,
1,
0,
0,
0,
0,
0,
0,
0,
0,
0,
0,
0,
0,
0,
0,
0,
0,
0,
0,
0,
0,
0,
0,
0,
0,
0,
0,
0,
0,
0,
0,
0,
0,
0,
0,
0,
0,
0,
0,
0,
0,
0,
0,
0,
0,
0,
0,
0,
0,
0,
0,
0,
0,
0,
0,
0,
0,
0,
0,
0,
0,
0,
0,
0,
0,
0,
0,
0,
0,
0,
0,
0,
0,
0,
0,
0,
0,
0,
0,
0,
0,
0,
0,
0,
0,
0,
0,
0,
0,
0,
0,
0,
0,
0,
0,
0,
0,
0,
0,
0,
0,
0,
0,
0,
0,
0,
0,
0,
0,
0,
0,
0,
0,
0,
0,
0,
0,
0,
0,
0,
0,
0,
0,
0,
0,
0,
0,
0,
0,
0,
0,
0,
0,
0,
0,
0,
0,
1,
0,
0,
0,
0,
0,
0,
0,
0,
0,
0,
0,
0,
0,
0,
0,
0,
0,
0,
0,
0,
0,
0,
0,
0,
0,
0,
0,
0,
0,
0,
0,
0,
0,
0,
0,
0,
0,
0,
0,
0,
0,
0,
0,
0,
0,
0,
0,
0,
0,
0,
0,
0,
0,
0,
0,
0,
0,
0,
0,
0,
0,
0,
0,
0,
0,
0,
0,
0,
0,
0,
0,
0,
0,
0,
0,
0,
0,
0,
0,
0,
0,
0,
0,
0,
0,
0,
0,
0,
0,
0,
0,
0,
0,
0,
0,
0,
0,
0,
0,
0,
0,
0,
0,
0,
0,
0,
0,
0,
0,
0,
0,
0,
0,
0,
0,
0,
0,
0,
0,
0,
0,
0,
0,
0,
0,
0,
0,
0,
0,
0,
0,
0,
0,
0,
0,
0,
0,
0,
0,
0,
0,
0,
0,
0,
0,
0,
0,
0,
0,
0,
0,
0,
0,
0,
0,
0,
0,
0,
0,
0,
0,
0,
0,
0,
0,
0,
0,
0,
0,
0,
0,
0,
0,
0,
0,
0,
1,
0,
0,
0,
0,
0,
0,
0,
0,
0,
0,
0,
0,
0,
0,
0,
0,
0,
0,
0,
0,
0,
0,
0,
0,
0,
0,
0,
0,
0,
0,
0,
0,
0,
0,
0,
0,
0,
0,
0,
0,
0,
0,
0,
0,
0,
0,
0,
0,
0,
0,
0,
0,
0,
0,
0,
0,
0,
0,
0,
0,
0,
0,
0,
0,
0,
0,
0,
0,
0,
0,
0,
0,
0,
0,
0,
0,
0,
0,
0,
0,
0,
0,
0,
0,
0,
0,
0,
0,
0,
0,
0,
0,
0,
0,
0,
0,
0,
0,
0,
0,
0,
0,
0,
0,
0,
0,
0,
0,
0,
0,
0,
0,
0,
0,
0,
0,
0,
0,
0,
0,
0,
0,
0,
0,
0,
0,
0,
0,
0,
0,
0,
0,
0,
0,
0,
0,
0,
0,
0,
0,
0,
0,
0,
0,
0,
0,
0,
0,
0,
0,
0,
0,
0,
0,
0,
0,
0,
0,
0,
0,
0,
0,
0,
0,
0,
0,
0,
0,
0,
0,
0,
0,
0,
0,
0,
0,
0,
0,
0,
0,
0,
0,
0,
0,
0,
0,
0,
0,
0,
0,
0,
0,
0,
0,
0,
0,
0,
0,
0,
0,
0,
0,
0,
0,
0,
0,
0,
0,
0,
0,
0,
0,
0,
0,
0,
0,
0,
0,
0,
0,
0,
0,
0,
0,
0,
0,
0,
0,
0,
0,
0,
0,
0,
0,
0,
0,
0,
0,
0,
0,
0,
0,
0,
0,
0,
0,
0,
0,
0,
0,
0,
0,
0,
0,
0,
0,
0,
0,
0,
0,
0,
0,
0,
0,
0,
0,
0,
0,
0,
0,
0,
0,
0,
0,
0,
0,
0,
0,
0,
0,
0,
0,
0,
0,
0,
0,
0,
0,
0,
0,
0,
0,
0,
0,
0,
0,
0,
0,
0,
0,
0,
0,
0,
0,
0,
0,
0,
0,
0,
0,
0,
0,
#ENDOFDATA   :