File: N132962/Standards/15 keV/Sm2O3 std.msa
#FORMAT      : EMSA/MAS Spectral Data File
#VERSION     : 1.0
#TITLE       : Sm2O3 standard for 'N132962' detector
#NPOINTS     : 4096
#NCOLUMNS    : 1
#XUNITS      : eV
#YUNITS      : counts
#DATATYPE    : Y
#SIGNALTYPE  : EDS
#XLABEL      : Energy (eV)
#YLABEL      : Counts
#XPERCHAN -eV: 9.99778
#OFFSET   -eV: 1.69135
#CHOFFSET    : 0
#DATE        : 26-Sep-2025
#TIME        : 17:01:00
#OWNER       : Unknown
#ELEVANGLE   : 35
#BEAMKV   -kV: 15
#LIVETIME  -s: 1680.62
#REALTIME  -s: 1797.22
#PROBECUR -nA: 1.21578
##WORKING -mm: 15
##D2STDCMP   : Sm2O3,(O:13.7639),(Sm:86.2361)
##SIMILAR    : 4.6
#SPECTRUM    :
148,
189,
91,
310,
1751,
6836,
21896,
57019,
126087,
156326,
102393,
72550,
71650,
74976,
92868,
196266,
582838,
1054623,
777370,
235419,
78439,
98617,
153027,
143804,
91581,
85506,
142569,
229861,
230036,
140827,
82428,
68901,
68877,
82496,
131575,
239443,
327522,
271390,
137375,
62128,
44805,
48495,
62218,
68654,
59585,
51763,
53376,
55303,
52985,
51371,
48661,
43402,
39713,
39092,
38950,
39574,
41114,
44025,
45075,
44309,
42573,
40581,
37498,
36441,
36355,
36573,
37058,
37016,
37201,
37349,
36852,
37494,
37128,
37401,
37322,
37822,
37821,
37767,
37858,
37775,
37688,
37457,
37537,
37300,
37132,
37936,
38408,
39131,
38988,
37926,
36995,
36717,
36115,
35889,
36172,
35907,
35391,
35595,
34866,
35192,
34921,
34845,
34493,
34341,
34461,
33920,
34025,
33650,
33701,
33726,
33225,
33157,
32709,
32306,
32404,
32089,
32158,
31759,
31780,
31917,
31306,
31301,
31232,
30784,
30401,
30657,
30863,
30323,
30634,
31050,
31547,
30674,
29846,
29401,
28418,
28391,
28354,
27841,
27809,
27777,
27703,
27076,
27544,
27207,
26853,
26943,
26337,
26527,
26458,
26528,
26146,
25682,
25357,
25171,
25129,
25182,
24842,
24851,
24498,
24247,
24353,
24263,
24809,
25697,
28779,
32584,
35310,
35078,
31321,
27492,
24796,
23296,
22784,
22611,
22372,
22114,
22010,
22237,
22588,
22626,
23068,
24023,
26402,
35733,
64693,
126486,
219710,
306126,
326084,
266451,
168680,
86536,
42952,
26483,
21357,
20213,
19595,
19498,
19509,
19181,
19511,
20868,
25333,
38952,
66409,
106331,
141607,
151452,
132410,
97568,
69584,
51739,
39875,
32076,
26467,
25305,
29788,
40865,
55527,
66271,
65201,
53361,
38161,
26457,
19676,
16261,
14856,
14406,
14078,
14077,
14324,
14358,
14598,
14645,
15176,
16819,
20322,
25422,
29903,
32299,
29915,
24938,
19841,
15932,
14267,
14332,
15115,
17095,
18559,
19346,
18114,
16034,
14332,
13101,
12206,
12380,
12472,
12607,
12165,
11917,
11299,
11071,
10832,
10443,
10652,
10708,
10645,
10463,
10471,
10337,
10431,
10108,
10186,
10077,
10012,
9944,
9790,
9832,
9636,
9534,
9627,
9541,
9496,
9420,
9434,
9231,
9374,
9064,
9134,
9048,
8926,
8948,
8943,
8752,
8600,
8716,
8731,
8448,
8440,
8540,
8253,
8315,
8259,
8196,
8070,
8109,
8067,
7988,
7802,
7872,
7792,
7811,
7744,
7569,
7669,
7470,
7318,
7577,
7421,
7339,
7241,
7260,
7078,
7037,
7125,
6944,
6963,
6891,
6778,
6799,
6505,
6554,
6564,
6415,
6413,
6314,
6339,
6252,
6128,
6117,
5985,
6063,
6195,
5794,
5974,
5855,
5887,
5715,
5658,
5617,
5768,
5531,
5394,
5433,
5372,
5330,
5265,
5237,
5179,
4941,
5043,
4940,
4889,
4771,
4883,
4810,
4676,
4661,
4615,
4671,
4490,
4514,
4418,
4408,
4497,
4484,
4283,
4414,
4234,
4046,
4112,
3990,
3945,
3880,
3882,
3770,
3843,
3763,
3644,
3567,
3574,
3551,
3470,
3497,
3391,
3416,
3380,
3320,
3201,
3156,
3228,
3085,
3007,
2881,
2963,
2869,
2859,
2811,
2724,
2845,
2610,
2727,
2711,
2546,
2481,
2550,
2467,
2376,
2312,
2318,
2282,
2301,
2262,
2193,
2140,
2123,
2093,
2069,
2012,
1947,
2005,
1888,
1772,
1869,
1748,
1742,
1705,
1678,
1730,
1582,
1533,
1571,
1517,
1454,
1446,
1464,
1370,
1351,
1328,
1301,
1213,
1233,
1149,
1186,
1104,
1069,
987,
973,
969,
1029,
935,
896,
859,
865,
783,
851,
725,
705,
718,
703,
632,
597,
595,
558,
559,
503,
451,
431,
447,
388,
377,
332,
343,
289,
274,
246,
209,
200,
188,
155,
112,
92,
73,
65,
63,
40,
37,
29,
26,
24,
19,
20,
24,
15,
26,
24,
25,
23,
15,
16,
28,
6,
14,
25,
22,
16,
13,
20,
14,
12,
8,
21,
18,
11,
17,
12,
16,
13,
14,
9,
14,
8,
9,
10,
13,
18,
13,
8,
20,
8,
12,
16,
5,
16,
8,
13,
11,
15,
12,
9,
16,
12,
13,
11,
16,
11,
8,
11,
11,
8,
13,
10,
13,
16,
16,
10,
9,
16,
12,
7,
13,
10,
20,
9,
17,
16,
7,
9,
13,
13,
11,
12,
9,
10,
16,
8,
14,
15,
7,
7,
13,
16,
10,
11,
9,
4,
10,
9,
11,
2,
5,
11,
13,
4,
4,
12,
11,
7,
8,
4,
7,
7,
7,
18,
11,
8,
3,
6,
9,
5,
6,
5,
3,
7,
6,
3,
8,
7,
5,
6,
5,
4,
12,
3,
4,
5,
5,
6,
3,
6,
1,
6,
4,
2,
4,
8,
7,
4,
2,
5,
9,
2,
5,
5,
3,
3,
5,
2,
3,
2,
2,
4,
5,
7,
6,
3,
4,
2,
4,
5,
1,
2,
4,
3,
2,
5,
4,
2,
4,
1,
5,
4,
2,
3,
1,
7,
2,
2,
3,
1,
3,
1,
0,
1,
1,
0,
1,
2,
0,
2,
1,
1,
1,
1,
0,
0,
3,
2,
1,
3,
0,
1,
0,
1,
2,
1,
2,
2,
0,
3,
1,
0,
1,
1,
0,
1,
0,
2,
1,
0,
0,
1,
0,
4,
1,
0,
2,
0,
1,
2,
0,
0,
0,
0,
0,
0,
1,
0,
1,
0,
1,
0,
0,
0,
0,
0,
0,
0,
1,
1,
0,
1,
0,
0,
1,
1,
0,
0,
0,
0,
0,
0,
1,
1,
0,
0,
0,
0,
0,
0,
1,
0,
0,
0,
0,
0,
0,
0,
0,
0,
0,
0,
0,
0,
0,
0,
0,
0,
0,
0,
0,
0,
0,
0,
0,
0,
0,
0,
0,
0,
0,
0,
0,
0,
0,
0,
0,
0,
0,
0,
0,
0,
1,
1,
0,
0,
0,
0,
0,
0,
0,
0,
1,
0,
1,
0,
0,
0,
2,
0,
0,
0,
2,
0,
0,
0,
0,
0,
0,
0,
0,
1,
0,
0,
0,
0,
0,
0,
0,
0,
0,
0,
0,
0,
0,
0,
0,
0,
0,
0,
0,
0,
0,
0,
0,
0,
0,
0,
0,
0,
0,
0,
0,
0,
0,
0,
0,
0,
0,
1,
0,
0,
0,
0,
0,
0,
0,
0,
0,
0,
0,
0,
0,
0,
0,
0,
0,
1,
0,
0,
0,
0,
0,
0,
0,
0,
0,
0,
0,
0,
0,
0,
0,
0,
0,
0,
0,
0,
0,
0,
0,
0,
0,
0,
0,
0,
0,
0,
0,
0,
0,
0,
0,
0,
0,
0,
0,
0,
0,
0,
0,
0,
0,
0,
0,
0,
0,
0,
0,
0,
0,
0,
0,
0,
0,
0,
0,
0,
0,
0,
0,
0,
0,
0,
0,
0,
0,
0,
0,
0,
0,
0,
0,
0,
0,
0,
0,
0,
0,
0,
0,
0,
0,
0,
0,
0,
0,
0,
0,
0,
0,
0,
0,
0,
0,
0,
0,
0,
0,
0,
0,
0,
0,
0,
0,
0,
0,
0,
0,
0,
0,
0,
0,
0,
0,
0,
0,
0,
0,
0,
0,
0,
0,
0,
0,
0,
0,
0,
0,
0,
0,
0,
0,
0,
0,
0,
0,
0,
0,
0,
0,
0,
0,
0,
0,
0,
0,
0,
0,
0,
0,
0,
0,
0,
0,
0,
0,
0,
0,
0,
0,
0,
0,
0,
0,
0,
0,
0,
0,
0,
0,
0,
0,
0,
0,
0,
0,
0,
0,
0,
0,
0,
0,
0,
0,
0,
0,
0,
0,
0,
0,
0,
0,
0,
0,
0,
0,
0,
0,
0,
0,
0,
0,
0,
0,
0,
0,
0,
0,
0,
0,
0,
0,
0,
0,
0,
0,
0,
0,
0,
0,
0,
0,
0,
0,
0,
0,
0,
0,
0,
0,
0,
0,
0,
0,
0,
0,
0,
0,
0,
0,
0,
0,
0,
0,
0,
0,
0,
0,
0,
0,
0,
0,
0,
0,
0,
0,
0,
0,
0,
0,
0,
0,
0,
0,
0,
0,
0,
0,
0,
0,
0,
0,
0,
0,
0,
0,
0,
0,
0,
0,
0,
0,
0,
0,
0,
0,
0,
0,
0,
0,
0,
0,
0,
0,
0,
0,
0,
0,
0,
0,
0,
0,
0,
0,
0,
0,
0,
0,
0,
0,
0,
0,
0,
0,
0,
0,
0,
0,
0,
0,
0,
0,
0,
0,
0,
0,
0,
0,
0,
0,
0,
0,
0,
0,
0,
0,
0,
0,
0,
0,
0,
0,
0,
0,
0,
0,
0,
0,
0,
0,
0,
0,
0,
0,
0,
0,
0,
0,
0,
0,
0,
0,
0,
0,
0,
0,
0,
0,
0,
0,
0,
0,
0,
0,
0,
0,
0,
0,
0,
0,
0,
0,
0,
0,
0,
0,
0,
0,
0,
0,
0,
0,
0,
0,
0,
0,
0,
0,
0,
0,
0,
0,
0,
0,
0,
0,
0,
0,
0,
0,
0,
0,
0,
0,
0,
0,
0,
0,
0,
0,
0,
0,
0,
0,
0,
0,
0,
0,
0,
0,
0,
0,
0,
0,
0,
0,
0,
0,
0,
0,
0,
0,
0,
0,
0,
0,
0,
0,
0,
0,
0,
0,
0,
0,
0,
#ENDOFDATA   :