File: N132962/Standards/15 keV/SmP5O14 std.msa
#FORMAT      : EMSA/MAS Spectral Data File
#VERSION     : 1.0
#TITLE       : SmP5O14 standard for 'N132962' detector
#NPOINTS     : 4096
#NCOLUMNS    : 1
#XUNITS      : eV
#YUNITS      : counts
#DATATYPE    : Y
#SIGNALTYPE  : EDS
#XLABEL      : Energy (eV)
#YLABEL      : Counts
#XPERCHAN -eV: 9.99778
#OFFSET   -eV: 1.69135
#CHOFFSET    : 0
#DATE        : 17-Mar-2025
#TIME        : 16:39:00
#OWNER       : Unknown
#ELEVANGLE   : 35
#BEAMKV   -kV: 15
#LIVETIME  -s: 1678.34
#REALTIME  -s: 1770.2
#PROBECUR -nA: 1.02671
##WORKING -mm: 15
##D2STDCMP   : SmP5O14,(O:42.3242),(P:29.2639),(Sm:28.4119)
##SIMILAR    : 1.5
#SPECTRUM    :
157,
189,
89,
327,
1300,
3542,
9681,
29659,
89247,
123588,
67325,
32505,
33597,
41452,
60740,
188319,
704944,
1356169,
989455,
263719,
42550,
22934,
23894,
26812,
28756,
33094,
48982,
71328,
72930,
52065,
37666,
34660,
35184,
40517,
59134,
103420,
143480,
127906,
72459,
40107,
32350,
34238,
40253,
42983,
39405,
35972,
36949,
37805,
35377,
33701,
32838,
31697,
30559,
30263,
30611,
31368,
32280,
34035,
35536,
35422,
35066,
34513,
38016,
56278,
119025,
314091,
703738,
979828,
771059,
352921,
129798,
77921,
59554,
38308,
25529,
21077,
19917,
20033,
19811,
19655,
19794,
19992,
20316,
21072,
21807,
21795,
20684,
19994,
19464,
19042,
19070,
18701,
18918,
18641,
18544,
18724,
18380,
18084,
17963,
17969,
17967,
17667,
18036,
17661,
17646,
17513,
17483,
17062,
16803,
16660,
16728,
16842,
16545,
16209,
16233,
15948,
16097,
15940,
15843,
15608,
15344,
15676,
15444,
15202,
15131,
15257,
14757,
14858,
14808,
14889,
14892,
14745,
14869,
14712,
14700,
14511,
14417,
13994,
13610,
13439,
13405,
13296,
12873,
13155,
12660,
12598,
12636,
12644,
12767,
12757,
12468,
12283,
12059,
11805,
11976,
11715,
11763,
11682,
11379,
11498,
11343,
11526,
11600,
11893,
12444,
13744,
14555,
14254,
12999,
12133,
11179,
10853,
10332,
10408,
10394,
10213,
10242,
10092,
10202,
10144,
10250,
10557,
11138,
13909,
22231,
39902,
67294,
92826,
98802,
81757,
52859,
28780,
15908,
11097,
9336,
9081,
8712,
8898,
8897,
8741,
8665,
9116,
10290,
14175,
22218,
33498,
43584,
46671,
41443,
31357,
23145,
17577,
14361,
11944,
10427,
9878,
11312,
14251,
18531,
21734,
21430,
18081,
13561,
10086,
7985,
7144,
6749,
6676,
6538,
6533,
6494,
6443,
6552,
6696,
6738,
7225,
8235,
9684,
11192,
11828,
11120,
9530,
8001,
6840,
6198,
6200,
6542,
7098,
7613,
7591,
7331,
6837,
6409,
5926,
5512,
5605,
5497,
5559,
5476,
5310,
5107,
4839,
4970,
4975,
4808,
4728,
4639,
4666,
4645,
4498,
4652,
4638,
4740,
4565,
4489,
4470,
4560,
4496,
4339,
4377,
4369,
4196,
4256,
4231,
4098,
4177,
4131,
4147,
4000,
4044,
4000,
3989,
3957,
3898,
3788,
3785,
3814,
3648,
3778,
3693,
3576,
3541,
3474,
3626,
3476,
3439,
3448,
3372,
3387,
3404,
3408,
3354,
3240,
3333,
3184,
3165,
3197,
3182,
3116,
3040,
3077,
3025,
3045,
3014,
3023,
3015,
2879,
2819,
2842,
2838,
2711,
2881,
2697,
2664,
2726,
2682,
2587,
2705,
2535,
2613,
2631,
2497,
2501,
2469,
2342,
2348,
2379,
2341,
2351,
2316,
2236,
2254,
2246,
2245,
2153,
2108,
2203,
2081,
2043,
2023,
2027,
1960,
2045,
1975,
1927,
2031,
1950,
1916,
1833,
1834,
1841,
1863,
1804,
1790,
1744,
1756,
1741,
1687,
1576,
1668,
1593,
1597,
1553,
1554,
1527,
1588,
1445,
1439,
1410,
1460,
1431,
1427,
1355,
1392,
1380,
1281,
1292,
1293,
1206,
1202,
1262,
1167,
1170,
1185,
1186,
1144,
1149,
1085,
1077,
1088,
1100,
979,
997,
1029,
1018,
1038,
939,
907,
926,
926,
868,
885,
885,
838,
896,
841,
742,
762,
785,
761,
734,
751,
687,
672,
701,
645,
677,
663,
647,
642,
590,
618,
563,
562,
564,
516,
542,
498,
479,
480,
446,
493,
426,
431,
443,
419,
425,
389,
399,
387,
329,
375,
322,
315,
326,
288,
305,
313,
269,
253,
247,
274,
216,
211,
188,
189,
199,
199,
202,
173,
165,
166,
130,
144,
138,
102,
110,
100,
83,
84,
62,
71,
64,
60,
58,
29,
32,
22,
20,
16,
6,
7,
8,
4,
5,
4,
3,
5,
5,
5,
3,
10,
6,
5,
4,
2,
4,
4,
6,
7,
0,
1,
2,
3,
4,
4,
4,
3,
3,
1,
3,
3,
3,
5,
0,
1,
3,
3,
5,
4,
0,
2,
2,
7,
3,
6,
1,
1,
2,
1,
3,
3,
1,
2,
1,
1,
3,
1,
1,
2,
1,
2,
4,
1,
1,
1,
2,
2,
4,
3,
4,
1,
2,
1,
1,
0,
4,
2,
1,
0,
1,
4,
1,
5,
0,
0,
0,
0,
2,
0,
1,
2,
0,
3,
2,
0,
2,
0,
0,
0,
1,
0,
0,
1,
2,
1,
0,
1,
2,
3,
0,
0,
1,
1,
1,
1,
2,
2,
1,
0,
3,
2,
1,
1,
0,
0,
3,
1,
2,
0,
2,
2,
1,
0,
1,
1,
0,
0,
0,
0,
1,
1,
0,
1,
0,
0,
2,
1,
0,
0,
0,
0,
2,
1,
0,
0,
2,
1,
3,
0,
1,
0,
1,
0,
0,
0,
2,
0,
1,
0,
0,
0,
0,
0,
2,
1,
0,
0,
0,
0,
0,
0,
0,
0,
0,
1,
0,
0,
2,
0,
0,
0,
0,
0,
0,
1,
0,
0,
0,
0,
0,
0,
0,
0,
0,
1,
0,
1,
0,
0,
0,
0,
0,
1,
0,
0,
0,
0,
0,
1,
2,
0,
0,
0,
0,
0,
0,
0,
0,
0,
0,
0,
0,
0,
0,
0,
0,
0,
0,
0,
0,
1,
0,
0,
0,
0,
0,
0,
0,
0,
0,
0,
0,
0,
0,
0,
0,
1,
0,
0,
0,
0,
0,
1,
0,
0,
0,
0,
0,
0,
0,
0,
0,
0,
0,
0,
0,
0,
0,
0,
0,
0,
0,
0,
0,
0,
0,
0,
0,
0,
0,
0,
0,
0,
0,
0,
0,
0,
0,
0,
0,
0,
0,
0,
0,
0,
0,
0,
0,
0,
0,
0,
0,
0,
0,
0,
0,
0,
0,
0,
0,
0,
0,
0,
0,
0,
0,
0,
0,
0,
0,
0,
0,
0,
0,
1,
0,
0,
0,
0,
0,
0,
0,
0,
0,
0,
0,
0,
0,
0,
0,
0,
0,
0,
0,
0,
0,
0,
0,
0,
0,
0,
0,
0,
0,
0,
0,
0,
1,
0,
0,
0,
0,
0,
0,
0,
0,
0,
0,
0,
0,
0,
0,
0,
0,
0,
0,
0,
0,
0,
0,
0,
0,
0,
0,
0,
0,
0,
0,
0,
0,
0,
0,
0,
0,
0,
0,
0,
0,
0,
0,
0,
0,
0,
0,
0,
0,
0,
0,
0,
0,
0,
0,
0,
0,
0,
0,
0,
0,
0,
0,
0,
0,
0,
0,
0,
0,
0,
0,
0,
0,
0,
0,
0,
0,
0,
0,
0,
0,
0,
0,
0,
0,
0,
0,
0,
0,
0,
0,
0,
0,
0,
0,
0,
0,
0,
0,
0,
0,
0,
0,
0,
0,
0,
0,
0,
0,
0,
0,
0,
0,
0,
0,
0,
0,
0,
0,
0,
0,
0,
0,
0,
0,
0,
0,
0,
0,
0,
0,
0,
0,
0,
0,
0,
0,
0,
0,
0,
0,
0,
0,
0,
0,
0,
0,
0,
0,
0,
0,
0,
0,
0,
0,
0,
0,
0,
0,
0,
0,
0,
0,
0,
0,
0,
0,
0,
0,
0,
0,
0,
0,
0,
0,
0,
0,
0,
0,
0,
0,
0,
0,
0,
0,
0,
0,
0,
0,
0,
0,
0,
0,
0,
0,
0,
0,
0,
0,
0,
0,
0,
0,
0,
0,
0,
0,
0,
0,
0,
0,
0,
0,
0,
0,
0,
0,
0,
0,
0,
0,
0,
0,
0,
0,
0,
0,
0,
0,
0,
0,
0,
0,
0,
0,
0,
0,
0,
0,
0,
0,
0,
0,
0,
0,
0,
0,
0,
0,
0,
0,
0,
0,
0,
0,
0,
0,
0,
0,
0,
0,
0,
0,
0,
0,
0,
0,
0,
0,
0,
0,
0,
0,
0,
0,
0,
0,
0,
0,
0,
0,
0,
0,
0,
0,
0,
0,
0,
0,
0,
0,
0,
0,
0,
0,
0,
0,
0,
0,
0,
0,
0,
0,
0,
0,
0,
0,
0,
0,
0,
0,
0,
0,
0,
0,
0,
0,
0,
0,
0,
0,
0,
0,
0,
0,
0,
0,
0,
0,
0,
0,
0,
0,
0,
0,
0,
0,
0,
0,
0,
0,
0,
0,
0,
0,
0,
0,
0,
0,
0,
0,
0,
0,
0,
0,
0,
0,
0,
0,
0,
0,
0,
0,
0,
0,
0,
0,
0,
0,
0,
0,
0,
0,
0,
0,
0,
0,
0,
0,
0,
0,
0,
0,
0,
0,
0,
0,
0,
0,
0,
0,
0,
0,
0,
0,
0,
0,
0,
0,
0,
0,
0,
0,
0,
0,
0,
0,
0,
0,
0,
0,
0,
0,
0,
0,
0,
0,
0,
0,
0,
0,
0,
0,
0,
0,
0,
0,
0,
0,
0,
0,
0,
0,
0,
0,
0,
0,
0,
0,
0,
0,
0,
0,
0,
0,
0,
0,
0,
0,
0,
0,
0,
0,
0,
0,
0,
0,
0,
0,
0,
0,
0,
0,
0,
0,
0,
0,
0,
0,
0,
0,
0,
0,
0,
0,
0,
0,
0,
0,
0,
0,
0,
0,
0,
0,
0,
0,
0,
0,
0,
0,
0,
0,
0,
0,
0,
0,
0,
#ENDOFDATA   :