File: N132962/Standards/15 keV/Sn std.msa
#FORMAT      : EMSA/MAS Spectral Data File
#VERSION     : 1.0
#TITLE       : Sn standard for 'N132962' detector
#NPOINTS     : 4096
#NCOLUMNS    : 1
#XUNITS      : eV
#YUNITS      : counts
#DATATYPE    : Y
#SIGNALTYPE  : EDS
#XLABEL      : Energy (eV)
#YLABEL      : Counts
#XPERCHAN -eV: 9.99778
#OFFSET   -eV: 1.69135
#CHOFFSET    : 0
#DATE        : 26-Sep-2025
#TIME        : 15:36:00
#OWNER       : Unknown
#ELEVANGLE   : 35
#BEAMKV   -kV: 15
#LIVETIME  -s: 1680.03
#REALTIME  -s: 1834.38
#PROBECUR -nA: 1.22014
##WORKING -mm: 15
##D2STDCMP   : Sn,(Sn:100.0000)
##SIMILAR    : 1.9
#SPECTRUM    :
193,
220,
97,
694,
5559,
21735,
49586,
83032,
118129,
130089,
124323,
197341,
403110,
496923,
304779,
162084,
146857,
137715,
90096,
49374,
39000,
41022,
51574,
61242,
55806,
46185,
40490,
39974,
41378,
41531,
40357,
40357,
41794,
43125,
44446,
46020,
46998,
47673,
49037,
50543,
51702,
53079,
54680,
55807,
56564,
57734,
58458,
60637,
66880,
75475,
76643,
69299,
64772,
64077,
65467,
70828,
79428,
83790,
80646,
73930,
69784,
65824,
62771,
63219,
64055,
63088,
60803,
59841,
59087,
58916,
58238,
59257,
59120,
59113,
57704,
57639,
56885,
57316,
57107,
56644,
56608,
55989,
55598,
55115,
54893,
54862,
54416,
55434,
54481,
53898,
53235,
51833,
52292,
51724,
52217,
51625,
51277,
52036,
54492,
60948,
76312,
91279,
93762,
79097,
62179,
53852,
52543,
55928,
63827,
72850,
84215,
123040,
276321,
633824,
1079753,
1244243,
949908,
493885,
209694,
148379,
247546,
438252,
583133,
561910,
421363,
279170,
181127,
128408,
124309,
157675,
187497,
173557,
122551,
74639,
50927,
49090,
61584,
77538,
82030,
69278,
50414,
36643,
32095,
34900,
41403,
48311,
50366,
44931,
37181,
30807,
27610,
26038,
25919,
25621,
25419,
25579,
25407,
25219,
25242,
25444,
25311,
25245,
25049,
24899,
25007,
25023,
24610,
24596,
24710,
24790,
24410,
24455,
24603,
24227,
24114,
24014,
23783,
23803,
24181,
24397,
24201,
23989,
23897,
23291,
23393,
22910,
23306,
22966,
22737,
22515,
23011,
22350,
22111,
22092,
22154,
22109,
22083,
22076,
21763,
21875,
21404,
21371,
21286,
21122,
20812,
21076,
20677,
20826,
20329,
20815,
20838,
21290,
21635,
22170,
21657,
21040,
20662,
20281,
19820,
19463,
19458,
19088,
18797,
18769,
18748,
18757,
18734,
18816,
19156,
19015,
19232,
19015,
18565,
18309,
18473,
18249,
18680,
18369,
18233,
17858,
17564,
17416,
17271,
17208,
17371,
17270,
17378,
17126,
16722,
17071,
16618,
16334,
16167,
16047,
15813,
15886,
15587,
15021,
15365,
15249,
15020,
15118,
14849,
14764,
14494,
14732,
14298,
14400,
14194,
14308,
14052,
13976,
13893,
13846,
13629,
13734,
13473,
13308,
13192,
13219,
12789,
13073,
13001,
12938,
12813,
12682,
12460,
12702,
12457,
12268,
12255,
12301,
12154,
11901,
11756,
11679,
11670,
11416,
11647,
11207,
11325,
11196,
11163,
11135,
11134,
10835,
10962,
10694,
10713,
10549,
10552,
10443,
10176,
10294,
10246,
9835,
10147,
10240,
10093,
9901,
9681,
9786,
9631,
9591,
9506,
9576,
9402,
9292,
9174,
9042,
9020,
8785,
8891,
8696,
8871,
8566,
8536,
8465,
8443,
8369,
8137,
8220,
8205,
8065,
8037,
7936,
7973,
7845,
7603,
7592,
7629,
7506,
7483,
7197,
7212,
7262,
7113,
7080,
7044,
6763,
6778,
6862,
6760,
6490,
6559,
6518,
6524,
6402,
6196,
6342,
6259,
6092,
6156,
5958,
5996,
5938,
5897,
5734,
5800,
5658,
5438,
5464,
5448,
5485,
5261,
5236,
5188,
5167,
5046,
4981,
5100,
4915,
4907,
4727,
4725,
4735,
4672,
4437,
4429,
4534,
4414,
4319,
4379,
4222,
4206,
4159,
4176,
3932,
4057,
3935,
3707,
3786,
3715,
3613,
3605,
3545,
3495,
3444,
3330,
3291,
3250,
3367,
3213,
3112,
3090,
3030,
3067,
2971,
2852,
2850,
2792,
2744,
2828,
2744,
2637,
2609,
2626,
2450,
2500,
2422,
2430,
2394,
2262,
2219,
2182,
2184,
2046,
2020,
2006,
1940,
1917,
1886,
1878,
1844,
1809,
1672,
1714,
1644,
1653,
1519,
1488,
1442,
1501,
1441,
1370,
1271,
1271,
1272,
1147,
1056,
1131,
1106,
1142,
1042,
1014,
940,
891,
891,
849,
754,
792,
717,
680,
649,
632,
567,
550,
503,
499,
467,
434,
405,
352,
346,
250,
217,
202,
179,
136,
109,
71,
64,
50,
40,
48,
36,
33,
23,
31,
38,
29,
25,
30,
29,
26,
29,
30,
48,
25,
38,
28,
27,
35,
23,
16,
23,
30,
28,
34,
27,
28,
27,
24,
26,
22,
18,
20,
19,
20,
31,
24,
28,
27,
22,
23,
27,
17,
23,
27,
24,
22,
21,
27,
20,
8,
21,
14,
22,
23,
21,
19,
25,
18,
25,
18,
25,
26,
20,
23,
15,
23,
24,
12,
16,
29,
13,
11,
19,
17,
21,
18,
27,
17,
14,
28,
10,
21,
9,
14,
17,
15,
16,
13,
12,
14,
17,
10,
11,
10,
8,
18,
10,
16,
12,
17,
10,
11,
9,
7,
7,
8,
9,
10,
7,
5,
9,
5,
11,
7,
7,
9,
6,
6,
6,
7,
10,
7,
7,
5,
6,
6,
7,
4,
11,
5,
9,
6,
3,
2,
4,
5,
8,
4,
4,
3,
5,
2,
3,
5,
4,
8,
4,
4,
3,
11,
2,
6,
10,
1,
2,
4,
4,
4,
5,
4,
3,
5,
2,
5,
5,
4,
3,
2,
4,
5,
2,
4,
3,
2,
1,
6,
2,
3,
1,
3,
4,
5,
3,
3,
5,
1,
1,
3,
1,
5,
1,
1,
2,
6,
1,
6,
0,
1,
2,
2,
1,
1,
2,
4,
0,
1,
3,
1,
1,
2,
6,
2,
2,
1,
1,
1,
2,
2,
3,
1,
1,
1,
1,
2,
2,
2,
1,
0,
2,
2,
0,
0,
1,
4,
1,
2,
1,
3,
0,
3,
1,
1,
2,
1,
3,
3,
1,
1,
0,
1,
1,
1,
3,
1,
0,
0,
1,
1,
2,
1,
0,
1,
1,
0,
1,
0,
4,
0,
0,
0,
0,
1,
2,
1,
3,
1,
2,
3,
1,
0,
1,
0,
0,
1,
0,
0,
2,
0,
0,
0,
2,
0,
0,
1,
1,
1,
1,
1,
1,
1,
0,
0,
2,
0,
0,
1,
0,
1,
0,
0,
0,
0,
0,
0,
3,
0,
2,
0,
1,
1,
0,
0,
0,
0,
0,
0,
0,
1,
0,
0,
0,
0,
2,
1,
1,
1,
0,
0,
0,
1,
2,
0,
2,
0,
0,
0,
0,
1,
0,
1,
0,
0,
0,
0,
1,
0,
0,
0,
0,
0,
0,
0,
0,
0,
0,
1,
0,
0,
1,
0,
1,
0,
0,
0,
1,
0,
0,
0,
0,
0,
1,
0,
0,
1,
0,
0,
0,
0,
0,
0,
0,
0,
0,
0,
0,
0,
0,
0,
0,
0,
0,
0,
0,
0,
0,
0,
0,
0,
0,
0,
0,
0,
0,
1,
0,
0,
0,
0,
0,
0,
0,
0,
0,
0,
0,
0,
0,
0,
0,
0,
0,
0,
0,
0,
0,
0,
0,
0,
0,
0,
0,
0,
0,
0,
0,
0,
0,
0,
0,
0,
0,
0,
0,
0,
0,
0,
0,
0,
0,
0,
0,
0,
0,
0,
0,
0,
0,
0,
0,
0,
0,
0,
0,
0,
0,
0,
0,
0,
0,
0,
0,
0,
0,
0,
0,
0,
0,
0,
0,
0,
0,
0,
0,
0,
0,
0,
0,
0,
0,
0,
0,
0,
0,
0,
0,
0,
0,
0,
0,
0,
0,
0,
0,
0,
0,
0,
0,
0,
0,
0,
0,
0,
0,
0,
0,
0,
0,
0,
0,
0,
0,
0,
0,
0,
0,
0,
0,
0,
0,
0,
0,
0,
0,
0,
0,
0,
0,
0,
0,
0,
0,
0,
0,
0,
0,
0,
0,
0,
0,
0,
0,
0,
0,
0,
0,
0,
0,
0,
0,
0,
0,
0,
0,
0,
0,
0,
0,
0,
0,
0,
0,
0,
0,
0,
0,
0,
0,
0,
0,
0,
0,
0,
0,
0,
0,
0,
0,
0,
0,
0,
0,
0,
0,
0,
0,
0,
0,
0,
0,
0,
0,
0,
0,
0,
0,
0,
0,
0,
0,
0,
0,
0,
0,
0,
0,
0,
0,
0,
0,
0,
0,
0,
0,
0,
0,
0,
0,
0,
0,
0,
0,
0,
0,
0,
0,
0,
0,
0,
0,
0,
0,
0,
0,
0,
0,
0,
0,
0,
0,
0,
0,
0,
0,
0,
0,
0,
0,
0,
0,
0,
0,
0,
0,
0,
0,
0,
0,
0,
0,
0,
0,
0,
0,
0,
0,
0,
0,
0,
0,
0,
0,
0,
0,
0,
0,
0,
0,
0,
0,
0,
0,
0,
0,
0,
0,
0,
0,
0,
0,
0,
0,
0,
0,
0,
0,
0,
0,
0,
0,
0,
0,
0,
0,
0,
0,
0,
0,
0,
0,
0,
0,
0,
0,
0,
0,
0,
0,
0,
0,
0,
0,
0,
0,
0,
0,
0,
0,
0,
0,
0,
0,
0,
0,
0,
0,
0,
0,
0,
0,
0,
0,
0,
0,
0,
0,
0,
0,
0,
0,
0,
0,
0,
0,
0,
0,
0,
0,
0,
0,
0,
0,
0,
0,
0,
0,
0,
0,
0,
0,
0,
0,
0,
0,
0,
0,
0,
0,
0,
0,
0,
0,
0,
0,
0,
0,
0,
0,
0,
0,
0,
0,
0,
0,
0,
0,
0,
0,
0,
0,
0,
0,
0,
0,
0,
0,
0,
0,
0,
0,
0,
0,
0,
0,
0,
0,
0,
0,
0,
0,
0,
0,
0,
0,
0,
0,
0,
0,
0,
0,
0,
0,
0,
0,
0,
0,
0,
0,
0,
0,
0,
0,
#ENDOFDATA   :