File: N132962/Standards/15 keV/SrF2 std.msa
#FORMAT      : EMSA/MAS Spectral Data File
#VERSION     : 1.0
#TITLE       : SrF2 standard for 'N132962' detector
#NPOINTS     : 4096
#NCOLUMNS    : 1
#XUNITS      : eV
#YUNITS      : counts
#DATATYPE    : Y
#SIGNALTYPE  : EDS
#XLABEL      : Energy (eV)
#YLABEL      : Counts
#XPERCHAN -eV: 9.99778
#OFFSET   -eV: 1.69135
#CHOFFSET    : 0
#DATE        : 26-Sep-2025
#TIME        : 13:17:00
#OWNER       : Unknown
#ELEVANGLE   : 35
#BEAMKV   -kV: 15
#LIVETIME  -s: 1204.07
#REALTIME  -s: 1302.31
#PROBECUR -nA: 1.21801
##WORKING -mm: 15
##D2STDCMP   : SrF2,(F:30.2482),(Sr:69.7518)
##SIMILAR    : 1.1
#SPECTRUM    :
1940,
2740,
1747,
2437,
5906,
9697,
13701,
23039,
37878,
41452,
29454,
20688,
19514,
19845,
21703,
25205,
29872,
34615,
38712,
54018,
134486,
384955,
677895,
600519,
264662,
75667,
32795,
29118,
30657,
31888,
32001,
32962,
34279,
35060,
36265,
37535,
38379,
38927,
39406,
39655,
39979,
40752,
41190,
41963,
41976,
43029,
42476,
43214,
44154,
45619,
50912,
66418,
89954,
102159,
93656,
80318,
77886,
137196,
399736,
939295,
1404038,
1366169,
985208,
601094,
315000,
147332,
70800,
38093,
24922,
21327,
20611,
21134,
22852,
24275,
23559,
21044,
19865,
18912,
18868,
19216,
19365,
20323,
21607,
21855,
21284,
20630,
20134,
19365,
19004,
19247,
18848,
18559,
19052,
18739,
18866,
18592,
18647,
18856,
18518,
18535,
18618,
18461,
18556,
18315,
18246,
18313,
18308,
18347,
18047,
18162,
18008,
17971,
17882,
17741,
17683,
17805,
17661,
17771,
17939,
18425,
19477,
20110,
20056,
19478,
18543,
17937,
17069,
16394,
16239,
16139,
15962,
15895,
15758,
15878,
15516,
15468,
15358,
15378,
15026,
14957,
14878,
14881,
14762,
14450,
14458,
14432,
14599,
14420,
14546,
14325,
13934,
13924,
13743,
13723,
13542,
13351,
13325,
13325,
13349,
13021,
13042,
13059,
13078,
12693,
12708,
12621,
12342,
12069,
12503,
12265,
12157,
11893,
12040,
11953,
11761,
11699,
11601,
11634,
11781,
11632,
11873,
12074,
11424,
11098,
11000,
11128,
10895,
10749,
10774,
10748,
10452,
10562,
10435,
10220,
10204,
10227,
10024,
10305,
10069,
9879,
9946,
9757,
9465,
9507,
9489,
9270,
9278,
9304,
9235,
9098,
9199,
9724,
9910,
10234,
9981,
9546,
9170,
8713,
8702,
8505,
8484,
8337,
8197,
8156,
8239,
8173,
8054,
7937,
7894,
7814,
7793,
7803,
7797,
7752,
7623,
7650,
7564,
7587,
7365,
7176,
7209,
7119,
7059,
7208,
6982,
7020,
7020,
6990,
6916,
6869,
7031,
6863,
6531,
6574,
6345,
6394,
6327,
6350,
6250,
6250,
6088,
6024,
6025,
5959,
5964,
5990,
5753,
5865,
5800,
5743,
5665,
5536,
5541,
5582,
5538,
5414,
5532,
5468,
5392,
5296,
5303,
5227,
5082,
5127,
4996,
4983,
4843,
4965,
4951,
4814,
4726,
4806,
4629,
4540,
4680,
4412,
4491,
4505,
4471,
4402,
4469,
4381,
4437,
4132,
4177,
4129,
4203,
4209,
3970,
4166,
3958,
3890,
3974,
3956,
3900,
3727,
3842,
3947,
3803,
3788,
3714,
3696,
3650,
3532,
3628,
3421,
3480,
3491,
3394,
3440,
3465,
3435,
3434,
3414,
3239,
3294,
3093,
3210,
3186,
3198,
3020,
3082,
2911,
3049,
2986,
2831,
2914,
2893,
2813,
2854,
2832,
2818,
2746,
2721,
2680,
2607,
2624,
2543,
2585,
2551,
2535,
2400,
2456,
2439,
2313,
2367,
2259,
2338,
2283,
2259,
2226,
2107,
2226,
2171,
2169,
2103,
2043,
2008,
2118,
2064,
1990,
1967,
1990,
1869,
1857,
1887,
1937,
1776,
1721,
1728,
1793,
1716,
1778,
1666,
1656,
1554,
1610,
1564,
1544,
1463,
1538,
1546,
1505,
1451,
1486,
1435,
1428,
1380,
1312,
1341,
1306,
1251,
1287,
1237,
1188,
1152,
1170,
1165,
1139,
1104,
1133,
1099,
1123,
1078,
971,
1024,
984,
945,
971,
885,
871,
897,
897,
873,
806,
803,
708,
791,
811,
780,
687,
782,
681,
694,
673,
674,
647,
646,
628,
649,
564,
574,
574,
530,
544,
509,
511,
481,
448,
416,
479,
430,
397,
412,
349,
387,
370,
336,
353,
308,
298,
299,
288,
284,
281,
251,
220,
236,
205,
215,
222,
205,
184,
154,
149,
124,
114,
96,
115,
92,
79,
62,
54,
44,
42,
25,
17,
12,
15,
7,
14,
8,
11,
7,
6,
6,
9,
9,
7,
4,
7,
9,
7,
4,
8,
6,
4,
2,
4,
5,
2,
8,
6,
2,
6,
5,
3,
2,
4,
3,
3,
6,
2,
1,
4,
3,
1,
5,
6,
7,
2,
3,
4,
4,
2,
1,
0,
4,
1,
4,
1,
2,
2,
3,
2,
4,
2,
4,
0,
2,
2,
3,
3,
6,
3,
5,
6,
0,
4,
1,
1,
3,
3,
4,
5,
3,
4,
3,
2,
3,
1,
4,
1,
3,
3,
1,
3,
0,
3,
4,
1,
2,
4,
4,
3,
1,
1,
0,
3,
1,
1,
0,
2,
0,
4,
0,
1,
0,
1,
2,
0,
0,
4,
1,
1,
3,
3,
2,
0,
0,
1,
0,
2,
1,
1,
1,
1,
0,
0,
1,
2,
0,
0,
0,
0,
1,
1,
1,
3,
1,
1,
1,
1,
1,
1,
0,
1,
3,
0,
1,
1,
1,
1,
0,
1,
0,
0,
2,
1,
1,
0,
1,
3,
0,
1,
1,
0,
0,
1,
1,
1,
0,
0,
0,
1,
0,
0,
0,
0,
0,
1,
0,
0,
0,
0,
0,
0,
0,
0,
1,
0,
1,
0,
0,
0,
0,
0,
1,
0,
0,
1,
0,
0,
0,
0,
0,
1,
2,
0,
0,
1,
0,
0,
0,
0,
0,
0,
0,
0,
3,
0,
0,
1,
0,
0,
0,
0,
0,
0,
1,
1,
1,
0,
0,
0,
0,
0,
0,
0,
1,
0,
0,
0,
1,
0,
0,
0,
0,
0,
0,
0,
0,
1,
1,
0,
1,
0,
2,
0,
0,
1,
0,
0,
0,
0,
0,
0,
0,
0,
1,
0,
1,
0,
0,
0,
1,
0,
0,
1,
0,
0,
0,
0,
0,
0,
0,
0,
0,
0,
1,
0,
0,
0,
0,
0,
0,
0,
0,
0,
0,
2,
0,
0,
0,
0,
0,
1,
0,
0,
0,
0,
0,
0,
0,
0,
0,
0,
0,
0,
0,
0,
0,
0,
1,
0,
0,
0,
0,
0,
0,
0,
0,
0,
0,
0,
0,
0,
0,
0,
0,
0,
0,
0,
0,
0,
0,
0,
0,
0,
0,
0,
0,
0,
0,
0,
0,
0,
0,
0,
0,
0,
0,
0,
0,
0,
0,
0,
0,
0,
0,
0,
0,
0,
0,
0,
0,
0,
0,
0,
0,
0,
1,
0,
0,
0,
0,
0,
0,
0,
0,
0,
0,
0,
0,
0,
0,
0,
0,
0,
0,
0,
0,
0,
0,
0,
0,
0,
0,
0,
0,
0,
0,
0,
0,
0,
0,
0,
0,
0,
0,
0,
0,
0,
0,
0,
0,
0,
0,
0,
0,
0,
0,
0,
0,
0,
0,
0,
0,
0,
0,
0,
0,
0,
0,
0,
0,
0,
0,
0,
0,
0,
0,
0,
0,
0,
0,
0,
0,
0,
0,
0,
0,
0,
0,
0,
0,
0,
0,
0,
0,
0,
0,
0,
0,
0,
0,
0,
0,
0,
0,
0,
0,
0,
0,
0,
0,
0,
0,
0,
0,
0,
0,
0,
0,
0,
0,
0,
0,
0,
0,
0,
0,
0,
0,
0,
0,
0,
0,
0,
0,
0,
0,
0,
0,
0,
0,
0,
0,
0,
0,
0,
0,
0,
0,
0,
0,
0,
0,
0,
0,
0,
0,
0,
0,
0,
0,
0,
0,
0,
0,
0,
0,
0,
0,
0,
0,
0,
0,
0,
0,
0,
0,
0,
0,
0,
0,
0,
0,
0,
0,
0,
0,
0,
0,
0,
0,
0,
0,
0,
0,
0,
0,
0,
0,
0,
0,
0,
0,
0,
0,
0,
0,
0,
0,
0,
0,
0,
0,
0,
0,
0,
0,
0,
0,
0,
0,
0,
0,
0,
0,
0,
0,
0,
0,
0,
0,
0,
0,
0,
0,
0,
0,
0,
0,
0,
0,
0,
0,
0,
0,
0,
0,
0,
0,
0,
0,
0,
0,
0,
0,
0,
0,
0,
0,
0,
0,
0,
0,
0,
0,
0,
0,
0,
0,
0,
0,
0,
0,
0,
0,
0,
0,
0,
0,
0,
0,
0,
0,
0,
0,
0,
0,
0,
0,
0,
0,
0,
0,
0,
0,
0,
0,
0,
0,
0,
0,
0,
0,
0,
0,
0,
0,
0,
0,
0,
0,
0,
0,
0,
0,
0,
0,
0,
0,
0,
0,
0,
0,
0,
0,
0,
0,
0,
0,
0,
0,
0,
0,
0,
0,
0,
0,
0,
0,
0,
0,
0,
0,
0,
0,
0,
0,
0,
0,
0,
0,
0,
0,
0,
0,
0,
0,
0,
0,
0,
0,
0,
0,
0,
0,
0,
0,
0,
0,
0,
0,
0,
0,
0,
0,
0,
0,
0,
0,
0,
0,
0,
0,
0,
0,
0,
0,
0,
0,
0,
0,
0,
0,
0,
0,
0,
0,
0,
0,
0,
0,
0,
0,
0,
0,
0,
0,
0,
0,
0,
0,
0,
0,
0,
0,
0,
0,
0,
0,
0,
0,
0,
0,
0,
0,
0,
0,
0,
0,
0,
0,
0,
0,
0,
0,
0,
0,
0,
0,
0,
0,
0,
0,
0,
0,
0,
0,
0,
0,
0,
0,
0,
0,
0,
0,
0,
0,
0,
0,
0,
0,
0,
0,
0,
0,
0,
0,
0,
0,
0,
0,
0,
0,
0,
0,
0,
0,
0,
0,
0,
0,
0,
0,
0,
0,
0,
0,
0,
0,
0,
0,
#ENDOFDATA   :