File: N132962/Standards/15 keV/SrTiO3 std.msa
#FORMAT      : EMSA/MAS Spectral Data File
#VERSION     : 1.0
#TITLE       : SrTiO3 standard for 'N132962' detector
#NPOINTS     : 4096
#NCOLUMNS    : 1
#XUNITS      : eV
#YUNITS      : counts
#DATATYPE    : Y
#SIGNALTYPE  : EDS
#XLABEL      : Energy (eV)
#YLABEL      : Counts
#XPERCHAN -eV: 9.99778
#OFFSET   -eV: 1.69135
#CHOFFSET    : 0
#DATE        : 29-Sep-2025
#TIME        : 00:22:00
#OWNER       : Unknown
#ELEVANGLE   : 35
#BEAMKV   -kV: 15
#LIVETIME  -s: 1921.97
#REALTIME  -s: 2053.01
#PROBECUR -nA: 1.21151
##WORKING -mm: 15
##D2STDCMP   : SrTiO3,(O:26.1587),(Ti:26.0878),(Sr:47.7535)
##SIMILAR    : 1.0
#SPECTRUM    :
189,
187,
118,
640,
2815,
6888,
16404,
46198,
118042,
146982,
77284,
46947,
71935,
96309,
107895,
147138,
306544,
527543,
389163,
116766,
34130,
28045,
30197,
33702,
35529,
36148,
37450,
40712,
43634,
45012,
44881,
46122,
47868,
49272,
50783,
51795,
52988,
53589,
54749,
55741,
56456,
57367,
58419,
59246,
59891,
60640,
60808,
61499,
62948,
64202,
69042,
85152,
113007,
126748,
116228,
100216,
92702,
134729,
382988,
1005168,
1593118,
1512804,
1044237,
633608,
328391,
160215,
85630,
52346,
38473,
34653,
34052,
34784,
36681,
38462,
37729,
34540,
32858,
32681,
32762,
32306,
31868,
31395,
31206,
30879,
30790,
30807,
30896,
30828,
30887,
31149,
31994,
33184,
34122,
33546,
31508,
30324,
29603,
29715,
29303,
29381,
29121,
29031,
28916,
28953,
28550,
28519,
28376,
28344,
28104,
27778,
27662,
27510,
27575,
26985,
26899,
27066,
26631,
26607,
26354,
26974,
27575,
27821,
27642,
27058,
26390,
26011,
25102,
24808,
24577,
24562,
24269,
23917,
23679,
23516,
23439,
22986,
22847,
23019,
22877,
22941,
22618,
22783,
23031,
23442,
25193,
28566,
43226,
93268,
211308,
383941,
504980,
471956,
315547,
154505,
63930,
30540,
22359,
20949,
20983,
21559,
24242,
30979,
45390,
65635,
80893,
78915,
60308,
39329,
25764,
19600,
17369,
16521,
16524,
16465,
16051,
16401,
16337,
15832,
15923,
16176,
15998,
15631,
15634,
15588,
15403,
15315,
15032,
14954,
15068,
14757,
14650,
14583,
14467,
14284,
14211,
14115,
14122,
13875,
13844,
13752,
13704,
13665,
13720,
13335,
13435,
13122,
13174,
13381,
13398,
13734,
13820,
14011,
13999,
13883,
13519,
12935,
12477,
12253,
11863,
11998,
11797,
11878,
11471,
11727,
11612,
11431,
11544,
11293,
11366,
11125,
10830,
10833,
10925,
10890,
10794,
10826,
10720,
10499,
10320,
10178,
10073,
10098,
10281,
9893,
9865,
9717,
9573,
9964,
9841,
9494,
9694,
9317,
9322,
9007,
9009,
9001,
8998,
9016,
8739,
8856,
8576,
8613,
8522,
8406,
8573,
8519,
8123,
8211,
8127,
8242,
8005,
8071,
7971,
8014,
7932,
7784,
7766,
7520,
7728,
7287,
7377,
7219,
7318,
7090,
7138,
7119,
7113,
6995,
6909,
7146,
6852,
6930,
6716,
6650,
6600,
6437,
6472,
6262,
6481,
6427,
6428,
6251,
6190,
6163,
6074,
6021,
5854,
5916,
5976,
5599,
5915,
5677,
5662,
5701,
5634,
5529,
5436,
5441,
5288,
5399,
5162,
5190,
5305,
5063,
4966,
5038,
4938,
4983,
4837,
4889,
4837,
4761,
4928,
4697,
4677,
4687,
4558,
4605,
4444,
4387,
4360,
4335,
4305,
4286,
4210,
4194,
4108,
4078,
4066,
3951,
3990,
3843,
3897,
3783,
3735,
3724,
3678,
3697,
3588,
3536,
3523,
3560,
3446,
3315,
3398,
3266,
3241,
3187,
3210,
3231,
3185,
3149,
2993,
2996,
3029,
2905,
2915,
2950,
2867,
2831,
2720,
2775,
2703,
2676,
2606,
2522,
2649,
2473,
2484,
2442,
2425,
2465,
2452,
2335,
2273,
2280,
2268,
2100,
2170,
2146,
2164,
2228,
2074,
2024,
2054,
1906,
1987,
1879,
1937,
1895,
1736,
1795,
1782,
1713,
1774,
1707,
1649,
1662,
1605,
1516,
1533,
1485,
1521,
1489,
1476,
1378,
1409,
1374,
1298,
1324,
1287,
1288,
1184,
1274,
1180,
1134,
1175,
1136,
1108,
1133,
1046,
1053,
1055,
992,
1021,
965,
943,
936,
842,
880,
815,
840,
782,
825,
810,
772,
726,
694,
691,
686,
663,
602,
611,
561,
547,
566,
560,
505,
543,
473,
473,
440,
467,
411,
372,
370,
373,
356,
337,
319,
261,
270,
276,
277,
256,
201,
205,
199,
195,
171,
154,
139,
137,
90,
103,
75,
71,
53,
43,
48,
20,
24,
16,
15,
15,
11,
11,
10,
16,
16,
7,
7,
5,
14,
9,
6,
5,
11,
9,
10,
11,
15,
11,
10,
7,
8,
13,
14,
11,
6,
6,
5,
11,
10,
7,
9,
2,
6,
8,
5,
6,
4,
6,
8,
5,
3,
4,
5,
2,
3,
8,
5,
3,
2,
6,
6,
2,
7,
3,
7,
6,
11,
4,
6,
6,
4,
6,
4,
8,
5,
6,
5,
7,
5,
1,
3,
7,
3,
5,
8,
4,
5,
6,
5,
3,
7,
5,
5,
2,
1,
1,
3,
4,
5,
4,
6,
1,
1,
3,
8,
2,
5,
6,
4,
3,
1,
2,
2,
7,
1,
0,
2,
3,
1,
1,
1,
2,
1,
3,
1,
2,
2,
5,
2,
1,
3,
2,
2,
2,
1,
1,
0,
3,
0,
1,
3,
2,
1,
0,
0,
2,
1,
1,
1,
0,
3,
2,
3,
3,
4,
2,
0,
1,
0,
1,
2,
1,
1,
2,
0,
0,
1,
1,
3,
1,
0,
0,
1,
1,
1,
2,
1,
0,
0,
3,
1,
0,
1,
0,
0,
0,
0,
1,
0,
0,
1,
4,
0,
0,
1,
0,
0,
2,
1,
1,
0,
1,
1,
2,
0,
1,
0,
2,
1,
0,
1,
0,
0,
0,
0,
0,
1,
1,
1,
2,
0,
0,
0,
0,
1,
0,
0,
0,
1,
0,
0,
1,
0,
0,
0,
0,
2,
0,
1,
0,
0,
0,
0,
1,
2,
0,
0,
0,
0,
1,
0,
0,
0,
1,
0,
0,
0,
0,
0,
0,
0,
0,
1,
0,
1,
0,
0,
0,
0,
0,
1,
0,
1,
0,
0,
0,
0,
0,
0,
0,
0,
0,
0,
1,
1,
0,
0,
1,
0,
0,
0,
1,
0,
0,
0,
1,
0,
0,
0,
0,
0,
0,
0,
0,
0,
0,
0,
0,
0,
1,
0,
0,
0,
0,
0,
0,
0,
0,
0,
0,
0,
0,
0,
0,
0,
0,
0,
0,
0,
0,
0,
0,
0,
0,
0,
0,
0,
0,
0,
0,
0,
0,
0,
0,
0,
0,
0,
0,
0,
0,
0,
0,
0,
1,
0,
0,
0,
0,
0,
0,
0,
0,
0,
0,
1,
0,
0,
0,
0,
0,
0,
0,
0,
0,
0,
0,
0,
0,
0,
0,
0,
0,
0,
0,
1,
0,
0,
0,
0,
0,
0,
0,
0,
0,
0,
0,
0,
0,
0,
0,
0,
0,
0,
0,
0,
0,
0,
0,
0,
0,
0,
0,
0,
0,
0,
0,
0,
0,
0,
0,
0,
0,
0,
0,
0,
0,
0,
0,
0,
0,
0,
0,
0,
0,
0,
0,
0,
0,
0,
0,
0,
0,
0,
0,
0,
0,
0,
0,
0,
0,
0,
0,
0,
0,
0,
0,
0,
0,
0,
0,
0,
0,
0,
0,
0,
0,
0,
0,
0,
0,
0,
0,
0,
0,
0,
0,
0,
0,
0,
0,
0,
0,
0,
0,
0,
0,
0,
0,
0,
0,
0,
0,
0,
0,
0,
0,
0,
0,
0,
0,
0,
0,
0,
0,
0,
0,
0,
0,
0,
0,
0,
0,
0,
0,
0,
0,
0,
0,
0,
0,
0,
0,
0,
0,
0,
0,
0,
0,
0,
0,
0,
0,
0,
0,
0,
0,
0,
0,
0,
0,
0,
0,
0,
0,
0,
0,
0,
0,
0,
0,
0,
0,
0,
0,
0,
0,
0,
0,
0,
0,
0,
0,
0,
0,
0,
0,
0,
0,
0,
0,
0,
0,
0,
0,
0,
0,
0,
0,
0,
0,
0,
0,
0,
0,
0,
0,
0,
0,
0,
0,
0,
0,
0,
0,
0,
0,
0,
0,
0,
0,
0,
0,
0,
0,
0,
0,
0,
0,
0,
0,
0,
0,
0,
0,
0,
0,
0,
0,
0,
0,
0,
0,
0,
0,
0,
0,
0,
0,
0,
0,
0,
0,
0,
0,
0,
0,
0,
0,
0,
0,
0,
0,
0,
0,
0,
0,
0,
0,
0,
0,
0,
0,
0,
0,
0,
0,
0,
0,
0,
0,
0,
0,
0,
0,
0,
0,
0,
0,
0,
0,
0,
0,
0,
0,
0,
0,
0,
0,
0,
0,
0,
0,
0,
0,
0,
0,
0,
0,
0,
0,
0,
0,
0,
0,
0,
0,
0,
0,
0,
0,
0,
0,
0,
0,
0,
0,
0,
0,
0,
0,
0,
0,
0,
0,
0,
0,
0,
0,
0,
0,
0,
0,
0,
0,
0,
0,
0,
0,
0,
0,
0,
0,
0,
0,
0,
0,
0,
0,
0,
0,
0,
0,
0,
0,
0,
0,
0,
0,
0,
0,
0,
0,
0,
0,
0,
0,
0,
0,
0,
0,
0,
0,
0,
0,
0,
0,
0,
0,
0,
0,
0,
0,
0,
0,
0,
0,
0,
0,
0,
0,
0,
0,
0,
0,
0,
0,
0,
0,
0,
0,
0,
0,
0,
0,
0,
0,
0,
0,
0,
0,
0,
0,
0,
0,
0,
0,
0,
0,
0,
0,
0,
0,
0,
0,
0,
0,
0,
0,
0,
0,
0,
0,
0,
0,
0,
0,
0,
0,
0,
0,
0,
0,
0,
0,
0,
0,
0,
0,
0,
0,
0,
0,
0,
0,
0,
0,
0,
0,
0,
0,
0,
0,
0,
0,
0,
0,
0,
0,
0,
0,
0,
0,
0,
0,
0,
0,
0,
0,
0,
0,
0,
#ENDOFDATA   :