File: N132962/Standards/15 keV/Ta std.msa
#FORMAT      : EMSA/MAS Spectral Data File
#VERSION     : 1.0
#TITLE       : Ta standard for 'N132962' detector
#NPOINTS     : 4096
#NCOLUMNS    : 1
#XUNITS      : eV
#YUNITS      : counts
#DATATYPE    : Y
#SIGNALTYPE  : EDS
#XLABEL      : Energy (eV)
#YLABEL      : Counts
#XPERCHAN -eV: 9.99778
#OFFSET   -eV: 1.69135
#CHOFFSET    : 0
#DATE        : 26-Sep-2025
#TIME        : 17:54:00
#OWNER       : Unknown
#ELEVANGLE   : 35
#BEAMKV   -kV: 15
#LIVETIME  -s: 2161.16
#REALTIME  -s: 2413.38
#PROBECUR -nA: 1.21605
##WORKING -mm: 15
##D2STDCMP   : Ta,(Ta:100.0000)
##SIMILAR    : 1.2
#SPECTRUM    :
209,
208,
128,
476,
2777,
12910,
38087,
66481,
96637,
109122,
80447,
66418,
65374,
65381,
67870,
78836,
110566,
146695,
126481,
91089,
84274,
88909,
97181,
103739,
104702,
103308,
105363,
110633,
116602,
119349,
119682,
121502,
122629,
125288,
126472,
127760,
128373,
129021,
129660,
130994,
133210,
141547,
175722,
269556,
368448,
336218,
229600,
165773,
145773,
142724,
142470,
145406,
156234,
195383,
367708,
1065103,
2565354,
3666169,
3154666,
1919355,
889195,
308193,
110557,
82422,
100552,
120158,
114171,
88162,
67728,
61438,
61863,
63910,
65925,
71695,
76151,
74944,
68895,
63878,
60451,
58209,
57346,
57245,
57075,
56186,
56392,
56036,
56569,
57585,
57788,
58535,
57929,
56879,
56557,
56679,
56801,
57025,
57065,
57490,
57720,
58212,
58648,
58287,
59075,
59055,
58097,
58216,
57757,
57601,
57540,
58144,
57845,
59067,
60664,
64011,
65962,
66998,
65046,
62310,
59679,
57395,
56725,
56177,
56861,
56969,
56898,
56119,
55835,
55723,
55187,
55334,
55293,
54469,
54455,
54387,
54393,
53928,
53875,
53674,
53266,
52910,
52860,
52578,
52519,
52582,
51844,
52124,
51986,
52009,
51525,
51399,
50959,
50885,
50337,
50270,
50000,
49548,
49809,
49561,
49220,
49151,
48882,
48740,
48691,
48503,
47511,
47607,
47769,
47545,
47076,
46657,
46576,
46362,
45964,
46187,
45830,
45165,
45688,
45219,
45179,
45320,
45090,
44581,
44582,
43806,
43538,
42684,
42626,
42375,
42419,
42015,
42005,
41468,
41019,
41630,
40850,
40795,
40898,
40419,
40209,
40061,
39465,
39629,
39356,
38737,
38844,
38430,
38036,
38093,
38153,
38109,
38502,
39762,
40847,
41189,
40278,
39700,
37518,
36386,
35438,
35450,
35130,
34754,
34484,
34182,
34584,
33866,
33914,
33929,
33725,
33372,
33023,
32603,
32981,
32742,
33305,
34410,
35952,
37899,
40022,
41035,
39482,
36914,
34068,
32103,
31042,
30575,
30155,
30399,
30549,
30316,
30032,
29489,
28895,
28507,
28656,
28241,
28038,
27918,
28019,
28017,
27600,
27495,
27922,
28081,
28958,
32145,
41270,
60870,
96040,
146421,
196211,
226385,
215452,
172870,
117624,
72237,
45285,
32203,
27483,
26253,
25964,
25831,
24956,
24249,
23949,
23544,
23359,
22858,
22681,
22423,
22594,
22027,
22102,
21760,
21648,
21620,
21452,
21420,
21101,
21031,
20708,
20999,
21432,
21843,
23354,
25703,
29672,
36102,
46816,
59471,
72564,
78800,
75531,
65454,
51417,
41139,
34762,
33183,
36002,
40941,
48014,
52784,
52120,
45751,
37286,
28925,
23525,
20547,
19204,
18653,
17762,
16997,
16220,
15864,
15454,
15112,
14827,
14770,
14864,
14639,
14380,
14197,
14063,
14185,
13889,
13824,
13945,
13809,
13599,
13712,
13610,
13608,
13494,
13450,
13044,
13144,
13066,
13223,
13917,
15130,
17021,
19095,
20851,
21252,
20394,
18533,
15904,
14311,
12899,
12530,
12452,
12513,
12882,
13097,
13028,
13290,
12687,
12425,
11595,
11040,
10472,
10179,
10001,
9777,
9857,
9842,
9647,
9750,
9684,
9330,
9246,
9112,
8854,
8570,
8681,
8716,
8408,
8143,
8131,
8164,
8151,
7840,
7948,
7749,
7681,
7768,
7322,
7471,
7271,
7370,
7070,
6990,
7000,
6921,
6896,
6647,
6631,
6613,
6460,
6480,
6249,
6370,
6117,
5872,
5981,
5802,
5863,
5689,
5636,
5542,
5529,
5394,
5188,
5174,
5131,
5101,
5040,
4852,
4767,
4812,
4638,
4613,
4456,
4416,
4342,
4135,
4087,
3966,
4106,
3861,
3890,
3730,
3609,
3531,
3586,
3406,
3309,
3336,
3228,
3087,
3154,
3061,
2822,
2825,
2756,
2663,
2698,
2588,
2496,
2494,
2390,
2177,
2090,
2192,
2057,
2018,
1976,
1798,
1774,
1741,
1729,
1561,
1535,
1439,
1376,
1304,
1224,
1187,
1103,
1025,
930,
871,
842,
676,
696,
569,
507,
385,
355,
267,
208,
165,
129,
95,
75,
98,
92,
91,
96,
97,
66,
72,
67,
67,
66,
62,
65,
68,
66,
64,
61,
67,
76,
53,
60,
57,
60,
59,
60,
49,
48,
62,
46,
63,
46,
46,
62,
66,
58,
68,
76,
66,
63,
71,
62,
66,
46,
56,
46,
47,
37,
44,
36,
43,
54,
49,
39,
45,
34,
43,
26,
39,
55,
55,
45,
50,
49,
61,
47,
53,
48,
43,
50,
57,
43,
49,
48,
44,
51,
49,
62,
55,
59,
58,
60,
46,
46,
58,
45,
54,
43,
51,
47,
44,
47,
54,
46,
59,
41,
41,
38,
45,
45,
38,
37,
40,
30,
28,
27,
36,
30,
37,
30,
24,
33,
28,
35,
34,
24,
31,
23,
33,
37,
25,
31,
28,
24,
28,
35,
32,
33,
37,
29,
29,
32,
40,
31,
30,
21,
29,
21,
23,
26,
29,
30,
23,
20,
16,
22,
22,
18,
14,
21,
21,
23,
20,
18,
16,
30,
21,
21,
28,
24,
12,
20,
20,
22,
15,
23,
18,
13,
22,
17,
11,
13,
14,
15,
16,
15,
18,
15,
23,
12,
17,
12,
17,
13,
15,
6,
19,
8,
12,
15,
10,
9,
22,
11,
7,
11,
10,
8,
6,
10,
15,
9,
14,
9,
10,
12,
13,
13,
8,
8,
15,
12,
8,
9,
11,
7,
8,
9,
10,
10,
7,
7,
8,
6,
5,
6,
4,
5,
9,
5,
12,
11,
2,
7,
9,
5,
8,
7,
6,
7,
7,
3,
6,
5,
3,
8,
7,
2,
6,
4,
5,
2,
3,
3,
6,
3,
2,
5,
5,
6,
3,
4,
3,
2,
1,
4,
2,
1,
3,
4,
3,
0,
1,
2,
2,
2,
3,
2,
4,
4,
3,
2,
2,
2,
3,
2,
0,
0,
0,
2,
3,
0,
3,
5,
0,
2,
5,
2,
1,
4,
4,
1,
3,
1,
3,
1,
2,
3,
3,
1,
0,
0,
1,
0,
2,
0,
0,
0,
1,
1,
2,
3,
1,
3,
2,
2,
0,
1,
0,
1,
2,
0,
1,
0,
1,
2,
0,
0,
1,
1,
0,
0,
0,
1,
1,
2,
0,
1,
1,
1,
1,
1,
1,
1,
0,
2,
1,
2,
1,
0,
1,
1,
1,
0,
0,
0,
0,
0,
0,
0,
0,
0,
1,
1,
1,
1,
0,
0,
0,
0,
0,
0,
0,
1,
1,
1,
0,
0,
1,
2,
0,
0,
0,
0,
0,
0,
1,
0,
0,
0,
0,
1,
0,
0,
0,
2,
0,
0,
0,
1,
0,
0,
0,
0,
0,
0,
0,
0,
0,
1,
0,
0,
0,
0,
0,
0,
0,
0,
1,
0,
0,
0,
0,
0,
0,
0,
0,
1,
0,
0,
0,
0,
0,
0,
0,
0,
0,
0,
0,
0,
0,
0,
0,
0,
0,
1,
0,
0,
0,
0,
1,
0,
0,
0,
0,
0,
0,
0,
0,
0,
0,
0,
0,
0,
0,
1,
0,
0,
0,
0,
0,
0,
0,
0,
0,
0,
0,
0,
0,
0,
0,
0,
0,
0,
0,
0,
0,
0,
0,
0,
0,
0,
0,
0,
0,
0,
0,
0,
0,
0,
0,
0,
0,
0,
0,
0,
0,
0,
0,
0,
1,
0,
0,
0,
0,
0,
0,
0,
1,
0,
0,
0,
0,
0,
0,
0,
0,
0,
0,
0,
0,
0,
0,
0,
0,
0,
0,
0,
0,
0,
0,
0,
0,
0,
0,
0,
0,
0,
0,
0,
1,
0,
0,
0,
0,
0,
0,
0,
0,
0,
0,
0,
0,
0,
0,
0,
0,
0,
0,
0,
0,
0,
0,
0,
0,
0,
0,
0,
0,
0,
0,
0,
0,
0,
0,
0,
0,
0,
0,
0,
0,
0,
0,
0,
0,
0,
0,
0,
0,
0,
1,
0,
0,
0,
0,
1,
0,
0,
0,
0,
0,
0,
0,
0,
0,
0,
0,
0,
0,
0,
0,
0,
0,
0,
0,
0,
0,
0,
0,
0,
0,
0,
0,
0,
0,
0,
0,
0,
0,
0,
0,
0,
0,
0,
0,
0,
0,
0,
0,
0,
0,
0,
0,
0,
0,
0,
0,
0,
0,
0,
0,
0,
0,
0,
0,
0,
0,
0,
0,
0,
0,
0,
0,
0,
0,
0,
0,
0,
0,
0,
0,
0,
0,
0,
0,
0,
0,
0,
0,
0,
0,
0,
0,
0,
0,
0,
0,
0,
0,
0,
0,
0,
0,
0,
0,
0,
0,
0,
0,
0,
0,
0,
0,
0,
0,
0,
0,
0,
0,
0,
0,
0,
0,
0,
0,
0,
0,
0,
0,
0,
0,
0,
0,
0,
0,
0,
0,
0,
0,
0,
0,
0,
0,
0,
0,
0,
0,
0,
0,
0,
0,
0,
0,
0,
0,
0,
0,
0,
0,
0,
0,
0,
0,
0,
0,
0,
0,
0,
0,
0,
0,
0,
0,
0,
0,
0,
0,
0,
0,
0,
0,
0,
0,
0,
0,
0,
0,
0,
0,
0,
0,
0,
0,
0,
0,
0,
0,
0,
0,
0,
0,
0,
0,
0,
0,
0,
0,
0,
0,
0,
0,
0,
0,
0,
0,
0,
0,
0,
0,
0,
0,
0,
0,
0,
0,
0,
0,
0,
0,
0,
0,
0,
0,
0,
0,
0,
0,
0,
0,
0,
0,
0,
0,
0,
0,
0,
0,
0,
0,
0,
0,
0,
0,
#ENDOFDATA   :