File: N132962/Standards/15 keV/Tb std.msa
#FORMAT      : EMSA/MAS Spectral Data File
#VERSION     : 1.0
#TITLE       : Tb standard for 'N132962' detector
#NPOINTS     : 4096
#NCOLUMNS    : 1
#XUNITS      : eV
#YUNITS      : counts
#DATATYPE    : Y
#SIGNALTYPE  : EDS
#XLABEL      : Energy (eV)
#YLABEL      : Counts
#XPERCHAN -eV: 9.99778
#OFFSET   -eV: 1.69135
#CHOFFSET    : 0
#DATE        : 26-Sep-2025
#TIME        : 17:22:00
#OWNER       : Unknown
#ELEVANGLE   : 35
#BEAMKV   -kV: 15
#LIVETIME  -s: 1440.3
#REALTIME  -s: 1565.25
#PROBECUR -nA: 1.21621
##WORKING -mm: 15
##D2STDCMP   : Tb,(Tb:100.0000)
##SIMILAR    : 2.2
#SPECTRUM    :
133,
161,
85,
350,
1852,
6061,
15832,
34511,
65741,
79804,
65621,
60296,
62654,
63382,
65670,
82786,
136101,
197117,
160481,
94076,
82441,
111352,
156459,
148685,
103931,
83849,
83126,
86838,
94505,
113193,
180878,
307212,
351613,
237823,
131667,
97425,
92512,
93851,
107865,
166027,
316910,
512781,
541342,
342401,
140952,
61247,
50046,
60134,
76100,
77778,
62385,
51629,
52416,
56782,
55996,
51690,
48125,
46758,
45586,
44868,
43380,
40999,
38891,
37743,
37908,
38195,
38051,
38144,
38071,
38307,
38556,
39095,
39072,
39531,
39664,
40172,
40201,
40500,
40667,
40468,
40392,
40826,
40818,
41309,
40893,
41147,
41145,
41119,
40885,
41236,
40787,
40515,
40997,
40814,
40767,
40296,
40736,
40723,
40781,
40313,
40751,
40300,
39916,
39702,
39847,
40103,
39868,
39241,
39360,
39424,
39159,
39365,
39243,
38542,
38573,
38127,
37850,
38268,
37749,
38064,
37714,
37683,
37370,
37023,
36612,
36704,
36520,
36422,
36481,
36345,
35869,
35664,
35268,
35282,
35220,
34812,
34928,
34429,
34435,
34091,
34499,
34032,
34046,
33760,
33490,
33211,
33325,
32970,
33068,
33225,
33581,
33259,
33228,
32287,
32047,
31647,
31591,
30871,
30972,
30388,
30609,
30763,
30264,
30302,
30013,
29602,
29423,
29073,
29314,
28927,
28861,
28761,
28633,
28785,
28444,
28404,
28041,
28001,
27798,
28241,
28734,
29471,
31025,
34175,
37932,
39763,
37974,
34058,
29952,
27746,
26182,
26184,
25591,
25197,
25183,
25062,
25106,
25136,
24989,
24893,
25030,
25163,
25744,
29001,
38839,
66949,
127092,
220044,
310707,
350012,
308173,
214297,
121838,
63820,
36918,
26842,
23994,
22708,
22111,
21870,
21539,
21445,
21086,
21278,
21163,
21422,
22268,
25390,
34107,
54259,
87165,
124886,
150566,
150051,
126536,
94460,
68183,
51713,
40605,
32075,
27953,
27923,
35009,
48094,
62448,
70899,
69165,
57277,
41820,
30335,
22911,
19157,
16986,
16088,
15711,
15108,
15283,
15229,
15161,
15431,
15432,
15556,
15780,
15622,
15663,
16918,
19709,
24147,
29464,
33048,
33609,
30007,
24828,
19954,
16811,
15583,
15394,
16377,
17483,
18833,
19464,
18532,
17526,
15708,
14002,
13449,
12874,
12997,
13168,
13150,
12922,
12417,
12085,
12002,
11788,
11331,
11205,
11306,
11246,
11156,
11109,
11032,
11147,
10820,
10966,
10864,
10903,
10516,
10522,
10510,
10541,
10467,
10246,
10268,
10286,
10251,
9982,
10151,
10010,
9818,
9951,
9664,
9770,
9700,
9600,
9557,
9430,
9245,
9318,
9226,
9252,
9081,
8927,
8860,
8960,
8775,
8733,
8787,
8572,
8533,
8445,
8350,
8421,
8207,
8209,
8111,
8099,
7938,
7901,
7917,
7716,
7709,
7719,
7576,
7628,
7515,
7330,
7425,
7410,
7228,
7108,
7069,
7149,
6768,
6852,
6797,
6750,
6766,
6703,
6531,
6379,
6525,
6388,
6393,
6059,
6209,
6253,
6008,
6035,
5947,
5878,
5815,
5820,
5636,
5552,
5511,
5415,
5436,
5425,
5460,
5324,
5218,
5169,
5153,
5084,
4927,
4893,
4836,
4827,
4797,
4761,
4536,
4474,
4508,
4517,
4450,
4242,
4366,
4186,
4151,
4120,
4126,
4037,
3916,
3881,
3930,
3826,
3846,
3798,
3728,
3743,
3569,
3449,
3423,
3343,
3338,
3255,
3237,
3080,
3099,
3179,
3015,
2940,
2946,
2880,
2798,
2839,
2683,
2733,
2686,
2685,
2725,
2605,
2539,
2414,
2407,
2340,
2284,
2320,
2217,
2183,
2063,
2069,
2057,
2068,
1931,
1887,
1845,
1761,
1730,
1690,
1669,
1577,
1648,
1458,
1562,
1443,
1427,
1345,
1302,
1239,
1233,
1171,
1114,
1084,
1093,
1050,
1029,
905,
909,
866,
805,
783,
741,
766,
647,
629,
605,
521,
467,
471,
419,
338,
348,
267,
241,
221,
167,
126,
112,
84,
80,
70,
49,
40,
50,
38,
42,
34,
38,
42,
33,
47,
43,
45,
28,
34,
37,
34,
31,
34,
30,
40,
33,
34,
42,
37,
28,
48,
33,
31,
29,
21,
30,
30,
37,
24,
30,
26,
27,
29,
39,
25,
22,
25,
28,
27,
26,
21,
23,
26,
20,
22,
23,
21,
22,
19,
22,
25,
20,
20,
30,
26,
31,
34,
34,
28,
17,
30,
21,
26,
35,
28,
23,
23,
26,
26,
25,
23,
16,
29,
25,
39,
27,
24,
34,
13,
21,
19,
24,
22,
25,
25,
26,
22,
19,
20,
25,
20,
17,
13,
14,
18,
26,
15,
19,
14,
22,
17,
23,
21,
24,
14,
16,
22,
10,
13,
15,
15,
19,
18,
13,
18,
17,
16,
9,
14,
12,
10,
22,
13,
18,
14,
17,
19,
9,
10,
16,
11,
12,
18,
15,
17,
9,
14,
13,
10,
13,
8,
11,
10,
14,
11,
9,
11,
13,
10,
12,
5,
8,
6,
12,
12,
14,
7,
6,
10,
7,
13,
13,
6,
7,
6,
7,
6,
6,
6,
9,
5,
2,
4,
5,
12,
5,
8,
2,
7,
5,
5,
5,
5,
3,
5,
4,
5,
8,
7,
5,
0,
1,
3,
0,
2,
3,
6,
5,
6,
4,
0,
8,
2,
4,
5,
1,
2,
3,
5,
0,
6,
4,
2,
4,
4,
4,
1,
4,
0,
4,
0,
1,
2,
3,
2,
5,
5,
1,
2,
1,
1,
2,
1,
0,
4,
4,
2,
2,
1,
0,
0,
1,
1,
0,
0,
1,
0,
0,
3,
0,
2,
2,
2,
1,
4,
1,
3,
1,
1,
2,
1,
3,
2,
0,
3,
2,
1,
0,
1,
1,
2,
0,
3,
2,
3,
1,
2,
0,
2,
0,
2,
1,
1,
1,
1,
0,
0,
6,
1,
0,
0,
1,
2,
0,
0,
0,
1,
0,
0,
0,
0,
1,
0,
0,
0,
0,
0,
0,
0,
0,
0,
0,
1,
0,
0,
0,
0,
0,
0,
1,
1,
0,
1,
1,
1,
0,
1,
0,
0,
2,
2,
2,
0,
0,
1,
0,
0,
0,
0,
0,
0,
1,
0,
0,
2,
0,
2,
0,
0,
0,
0,
0,
0,
1,
0,
1,
0,
0,
0,
1,
1,
0,
1,
0,
1,
1,
1,
0,
0,
1,
0,
0,
0,
0,
0,
0,
1,
1,
0,
0,
0,
0,
0,
0,
0,
0,
0,
0,
0,
0,
1,
0,
0,
0,
0,
0,
0,
0,
0,
0,
0,
0,
0,
0,
0,
0,
0,
0,
0,
0,
0,
0,
0,
0,
0,
0,
0,
0,
0,
0,
0,
0,
2,
0,
0,
0,
0,
0,
0,
0,
0,
0,
1,
1,
0,
0,
0,
0,
0,
0,
0,
0,
0,
0,
0,
0,
0,
0,
0,
0,
0,
0,
0,
0,
0,
0,
0,
0,
0,
0,
0,
0,
0,
0,
0,
0,
0,
0,
0,
0,
0,
0,
0,
0,
0,
0,
0,
0,
0,
0,
0,
0,
0,
0,
0,
0,
0,
0,
0,
0,
0,
0,
0,
0,
0,
0,
0,
0,
0,
0,
0,
0,
0,
0,
0,
0,
0,
0,
0,
0,
0,
0,
0,
0,
0,
0,
0,
0,
0,
0,
0,
0,
0,
0,
0,
0,
0,
0,
0,
0,
0,
0,
0,
0,
0,
0,
0,
0,
0,
0,
0,
0,
0,
0,
0,
0,
0,
0,
0,
0,
0,
0,
0,
0,
0,
0,
0,
0,
0,
0,
0,
0,
0,
0,
0,
0,
0,
0,
0,
0,
0,
0,
0,
0,
0,
0,
0,
0,
0,
0,
0,
0,
0,
0,
0,
0,
0,
0,
0,
0,
0,
0,
0,
0,
0,
0,
0,
0,
0,
0,
0,
0,
0,
0,
0,
0,
0,
0,
0,
0,
0,
0,
0,
0,
0,
0,
0,
0,
0,
0,
0,
0,
0,
0,
0,
0,
0,
0,
0,
0,
0,
0,
0,
0,
0,
0,
0,
0,
0,
0,
0,
0,
0,
0,
0,
0,
0,
0,
0,
0,
0,
0,
0,
0,
0,
0,
0,
0,
0,
0,
0,
0,
0,
0,
0,
0,
0,
0,
0,
0,
0,
0,
0,
0,
0,
0,
0,
0,
0,
0,
0,
0,
0,
0,
0,
0,
0,
0,
0,
0,
0,
0,
0,
0,
0,
0,
0,
0,
0,
0,
0,
0,
0,
0,
0,
0,
0,
0,
0,
0,
0,
0,
0,
0,
0,
0,
0,
0,
0,
0,
0,
0,
0,
0,
0,
0,
0,
0,
0,
0,
0,
0,
0,
0,
0,
0,
0,
0,
0,
0,
0,
0,
0,
0,
0,
0,
0,
0,
0,
0,
0,
0,
0,
0,
0,
0,
0,
0,
0,
0,
0,
0,
0,
0,
0,
0,
0,
0,
0,
0,
0,
0,
0,
0,
0,
0,
0,
0,
0,
0,
0,
0,
0,
0,
0,
0,
0,
0,
0,
0,
0,
0,
0,
0,
0,
0,
0,
0,
0,
0,
0,
0,
0,
0,
0,
0,
0,
0,
0,
0,
0,
0,
0,
0,
0,
0,
0,
0,
0,
0,
0,
0,
0,
0,
0,
0,
0,
0,
0,
0,
0,
0,
1,
0,
0,
0,
0,
0,
0,
0,
0,
0,
0,
0,
0,
0,
0,
0,
0,
0,
0,
0,
0,
0,
0,
0,
0,
0,
#ENDOFDATA   :