File: N132962/Standards/15 keV/TbP5O14 std.msa
#FORMAT      : EMSA/MAS Spectral Data File
#VERSION     : 1.0
#TITLE       : TbP5O14 standard for 'N132962' detector
#NPOINTS     : 4096
#NCOLUMNS    : 1
#XUNITS      : eV
#YUNITS      : counts
#DATATYPE    : Y
#SIGNALTYPE  : EDS
#XLABEL      : Energy (eV)
#YLABEL      : Counts
#XPERCHAN -eV: 9.99778
#OFFSET   -eV: 1.69135
#CHOFFSET    : 0
#DATE        : 17-Mar-2025
#TIME        : 16:16:00
#OWNER       : Unknown
#ELEVANGLE   : 35
#BEAMKV   -kV: 15
#LIVETIME  -s: 959.13
#REALTIME  -s: 1011.49
#PROBECUR -nA: 1.02671
##WORKING -mm: 15
##D2STDCMP   : TbP5O14,(O:41.6501),(P:28.7978),(Tb:29.5521)
##SIMILAR    : 1.0
#SPECTRUM    :
82,
119,
48,
199,
718,
2075,
5481,
17330,
53210,
72823,
38939,
18467,
20064,
24088,
33623,
102063,
375472,
720984,
527136,
142810,
23605,
13252,
13824,
15473,
16140,
16178,
16870,
17754,
19416,
21750,
29093,
43779,
49153,
37790,
26667,
23546,
22751,
22604,
24983,
35410,
65262,
108874,
120819,
81911,
39560,
22286,
19841,
22231,
26005,
26598,
23452,
21043,
20872,
21433,
21255,
20326,
20032,
20165,
20835,
20415,
19886,
19730,
21615,
31854,
66283,
174864,
387248,
537949,
423201,
194886,
72320,
43299,
32834,
21611,
14618,
12280,
11564,
11606,
11756,
11521,
11405,
11581,
11731,
12356,
12592,
12617,
11912,
11472,
11344,
11217,
10878,
10939,
10968,
10805,
10925,
10772,
10629,
10718,
10608,
10560,
10551,
10373,
10480,
10282,
10201,
10193,
10121,
10291,
10101,
10264,
10120,
10125,
9873,
9755,
9620,
9665,
9484,
9292,
9282,
9305,
9258,
9200,
9210,
8978,
9112,
8976,
8766,
8925,
8650,
8569,
8541,
8679,
8589,
8699,
8620,
8455,
8375,
8151,
8070,
7875,
7895,
7861,
7840,
7686,
7744,
7593,
7512,
7456,
7569,
7538,
7412,
7331,
7514,
7151,
6971,
7073,
6956,
6889,
6962,
6752,
6793,
6710,
6695,
6560,
6501,
6610,
6333,
6463,
6437,
6318,
6118,
6255,
6097,
6147,
6225,
6166,
6126,
5961,
5969,
6010,
6184,
6055,
6231,
6696,
7103,
7308,
7166,
6594,
6209,
5901,
5512,
5339,
5414,
5408,
5297,
5296,
5268,
5104,
5132,
4994,
5185,
5257,
5384,
5421,
6844,
10119,
17827,
28998,
40840,
45743,
40232,
28918,
17369,
9926,
6570,
5152,
4589,
4600,
4542,
4216,
4385,
4319,
4241,
4347,
4320,
4407,
4475,
4779,
5843,
8356,
11995,
16788,
20092,
20128,
17357,
13093,
9728,
8000,
6449,
5368,
4734,
4764,
5753,
7214,
9027,
10162,
9867,
8259,
6383,
5176,
4179,
3550,
3410,
3308,
3309,
3142,
3015,
3151,
3089,
3164,
3100,
3197,
3200,
3157,
3073,
3238,
3570,
4141,
4823,
5233,
5275,
4911,
4037,
3518,
3122,
2999,
2969,
3086,
3332,
3411,
3498,
3380,
3155,
2911,
2683,
2638,
2571,
2542,
2516,
2587,
2633,
2438,
2445,
2437,
2263,
2237,
2267,
2236,
2300,
2234,
2232,
2144,
2154,
2120,
2196,
2057,
2108,
2092,
2007,
1906,
2003,
2001,
2016,
1938,
1961,
1912,
1907,
1909,
1945,
1885,
1820,
1803,
1819,
1805,
1756,
1773,
1787,
1716,
1696,
1747,
1712,
1646,
1712,
1647,
1615,
1634,
1645,
1602,
1639,
1525,
1529,
1479,
1512,
1530,
1535,
1472,
1415,
1459,
1445,
1378,
1452,
1386,
1381,
1413,
1322,
1358,
1347,
1313,
1245,
1325,
1244,
1335,
1197,
1155,
1173,
1209,
1170,
1169,
1173,
1124,
1120,
1086,
1086,
1035,
1065,
1067,
1041,
1023,
1051,
952,
1002,
1020,
890,
963,
984,
976,
927,
943,
935,
907,
852,
858,
855,
788,
899,
799,
830,
783,
726,
745,
763,
721,
745,
705,
696,
723,
685,
675,
696,
684,
681,
654,
663,
651,
676,
608,
603,
616,
558,
590,
561,
544,
569,
508,
521,
489,
512,
471,
475,
491,
457,
385,
440,
465,
439,
393,
397,
405,
387,
387,
383,
382,
343,
361,
337,
334,
346,
308,
304,
332,
290,
312,
316,
305,
281,
264,
259,
230,
215,
276,
220,
222,
200,
203,
196,
181,
187,
180,
164,
155,
164,
129,
146,
136,
150,
129,
113,
109,
123,
93,
109,
92,
96,
82,
72,
83,
75,
69,
49,
60,
50,
46,
39,
42,
29,
26,
17,
16,
4,
10,
4,
6,
3,
2,
2,
4,
2,
1,
3,
2,
2,
1,
1,
3,
4,
1,
0,
3,
2,
4,
0,
3,
1,
4,
3,
0,
5,
1,
3,
3,
1,
5,
2,
2,
2,
2,
3,
1,
1,
2,
1,
2,
0,
0,
1,
1,
2,
3,
1,
3,
3,
1,
1,
0,
3,
4,
0,
0,
0,
0,
2,
0,
3,
2,
2,
1,
0,
0,
1,
2,
1,
1,
0,
0,
3,
0,
2,
1,
2,
3,
1,
0,
1,
0,
2,
2,
1,
1,
0,
0,
0,
0,
0,
0,
1,
1,
0,
0,
1,
1,
0,
1,
2,
1,
4,
0,
0,
1,
1,
1,
0,
0,
0,
0,
0,
4,
1,
0,
0,
0,
0,
0,
0,
1,
1,
2,
0,
1,
0,
1,
1,
1,
0,
0,
0,
1,
0,
2,
2,
0,
0,
2,
1,
0,
0,
0,
1,
1,
1,
0,
0,
0,
1,
0,
0,
0,
0,
0,
1,
0,
0,
2,
0,
1,
0,
0,
0,
0,
0,
0,
0,
0,
2,
1,
0,
0,
0,
0,
2,
0,
0,
0,
1,
1,
0,
1,
0,
0,
2,
0,
0,
0,
0,
0,
0,
0,
1,
1,
0,
0,
0,
0,
0,
0,
0,
0,
0,
0,
0,
0,
0,
0,
0,
0,
0,
0,
0,
0,
0,
0,
0,
0,
0,
0,
0,
0,
0,
0,
0,
0,
0,
0,
0,
0,
1,
0,
0,
0,
0,
0,
1,
0,
0,
0,
0,
0,
0,
0,
0,
0,
0,
0,
0,
0,
0,
0,
0,
0,
0,
0,
0,
2,
0,
0,
0,
0,
0,
0,
0,
0,
0,
0,
0,
0,
0,
0,
0,
0,
0,
1,
0,
0,
0,
0,
1,
0,
0,
1,
0,
0,
0,
0,
0,
0,
0,
0,
0,
0,
0,
0,
0,
0,
0,
0,
0,
0,
0,
0,
0,
0,
0,
0,
0,
0,
0,
0,
0,
0,
0,
0,
0,
0,
0,
0,
0,
0,
0,
0,
0,
0,
0,
0,
0,
0,
0,
0,
0,
0,
0,
0,
0,
0,
0,
0,
0,
0,
0,
0,
0,
0,
0,
0,
0,
0,
0,
0,
0,
0,
0,
0,
0,
0,
0,
0,
0,
0,
0,
0,
0,
0,
0,
0,
0,
0,
0,
0,
0,
0,
0,
0,
0,
0,
0,
0,
0,
0,
0,
0,
0,
0,
0,
0,
0,
0,
0,
0,
0,
0,
0,
0,
0,
0,
0,
0,
0,
0,
0,
1,
0,
0,
0,
0,
0,
0,
0,
0,
0,
0,
0,
0,
0,
0,
0,
0,
0,
0,
0,
0,
0,
0,
0,
0,
0,
0,
0,
0,
0,
0,
0,
0,
0,
0,
0,
0,
0,
0,
0,
0,
0,
0,
0,
0,
0,
0,
0,
0,
0,
0,
0,
0,
0,
0,
0,
0,
0,
0,
0,
0,
0,
0,
0,
0,
0,
0,
0,
0,
0,
0,
0,
0,
0,
0,
0,
0,
0,
0,
0,
0,
0,
0,
0,
0,
0,
0,
0,
0,
0,
0,
0,
0,
0,
0,
0,
0,
0,
0,
0,
0,
0,
0,
0,
0,
0,
0,
0,
0,
0,
0,
0,
0,
0,
0,
0,
0,
0,
0,
0,
0,
0,
0,
0,
0,
0,
0,
0,
0,
0,
0,
0,
0,
0,
0,
0,
0,
0,
0,
0,
0,
0,
0,
0,
0,
0,
0,
0,
0,
0,
0,
0,
0,
0,
0,
0,
0,
0,
0,
0,
0,
0,
0,
0,
0,
0,
0,
0,
0,
0,
0,
0,
0,
0,
0,
0,
0,
0,
0,
0,
0,
0,
0,
0,
0,
0,
0,
0,
0,
0,
0,
0,
0,
0,
0,
0,
0,
0,
0,
0,
0,
0,
0,
0,
0,
0,
0,
0,
0,
0,
0,
0,
0,
0,
0,
0,
0,
0,
0,
0,
0,
0,
0,
0,
0,
0,
0,
0,
0,
0,
0,
0,
0,
0,
0,
0,
0,
0,
0,
0,
0,
0,
0,
0,
0,
0,
0,
0,
0,
0,
0,
0,
0,
0,
0,
0,
0,
0,
0,
0,
0,
0,
0,
0,
0,
0,
0,
0,
0,
0,
0,
0,
0,
0,
0,
0,
0,
0,
0,
0,
0,
0,
0,
0,
0,
0,
0,
0,
0,
0,
0,
0,
0,
0,
0,
0,
0,
0,
0,
0,
0,
0,
0,
0,
0,
0,
0,
0,
0,
0,
0,
0,
0,
0,
0,
0,
0,
0,
0,
0,
0,
0,
0,
0,
0,
0,
0,
0,
0,
0,
0,
0,
0,
0,
0,
0,
0,
0,
0,
0,
0,
0,
0,
0,
0,
0,
0,
0,
0,
0,
0,
0,
0,
0,
0,
0,
0,
0,
0,
0,
0,
0,
0,
0,
0,
0,
0,
0,
0,
0,
0,
0,
0,
0,
0,
0,
0,
0,
0,
0,
0,
0,
0,
0,
0,
0,
0,
0,
0,
0,
0,
0,
0,
0,
0,
0,
0,
0,
0,
0,
0,
0,
0,
0,
0,
0,
0,
0,
0,
0,
0,
0,
0,
0,
0,
0,
0,
0,
0,
0,
0,
0,
0,
0,
0,
0,
0,
0,
0,
0,
0,
0,
0,
0,
0,
0,
0,
0,
0,
0,
0,
0,
0,
0,
0,
0,
0,
0,
0,
0,
0,
0,
0,
0,
0,
0,
0,
0,
0,
#ENDOFDATA   :