File: N132962/Standards/15 keV/Te std.msa
#FORMAT      : EMSA/MAS Spectral Data File
#VERSION     : 1.0
#TITLE       : Te standard for 'N132962' detector
#NPOINTS     : 4096
#NCOLUMNS    : 1
#XUNITS      : eV
#YUNITS      : counts
#DATATYPE    : Y
#SIGNALTYPE  : EDS
#XLABEL      : Energy (eV)
#YLABEL      : Counts
#XPERCHAN -eV: 9.99778
#OFFSET   -eV: 1.69135
#CHOFFSET    : 0
#DATE        : 26-Sep-2025
#TIME        : 16:29:00
#OWNER       : Unknown
#ELEVANGLE   : 35
#BEAMKV   -kV: 15
#LIVETIME  -s: 1911.47
#REALTIME  -s: 2077.24
#PROBECUR -nA: 1.21512
##WORKING -mm: 15
##D2STDCMP   : Te,(Te:100.0000)
##SIMILAR    : 1.3
#SPECTRUM    :
206,
204,
107,
766,
6506,
27231,
61863,
99147,
140131,
152867,
122583,
108526,
121506,
193174,
396905,
547513,
388288,
205153,
156509,
138083,
92266,
57719,
51713,
53619,
55293,
62490,
70948,
68845,
62113,
54169,
48216,
45734,
45440,
45779,
47048,
47518,
49480,
49885,
51242,
52891,
53898,
54889,
56303,
57178,
58114,
59804,
60569,
61807,
63333,
64755,
65903,
65802,
65960,
65775,
66646,
67717,
69789,
74526,
76639,
75489,
73134,
69041,
65003,
62871,
62913,
64609,
69223,
74316,
73918,
69145,
65402,
65941,
70245,
74484,
75368,
74990,
74731,
71952,
66405,
63041,
61580,
60535,
60477,
60951,
60650,
60593,
60244,
59343,
58604,
57658,
57463,
57428,
56743,
56210,
56519,
55733,
55799,
55328,
54233,
54383,
53739,
53871,
53427,
53218,
52602,
52911,
52540,
53413,
56735,
66242,
81660,
93258,
89325,
73142,
60147,
53082,
51445,
52631,
56764,
64172,
73090,
88016,
143778,
328473,
694960,
1080940,
1153447,
838347,
429847,
177113,
92849,
110235,
213753,
391991,
550332,
568183,
454295,
311036,
204403,
136284,
102298,
110146,
151760,
192351,
189101,
143510,
88689,
55208,
42917,
43722,
53985,
71946,
86835,
85237,
68490,
48806,
36759,
34105,
37816,
45897,
52761,
54316,
48405,
40334,
34150,
30881,
29019,
27809,
27158,
26863,
26431,
26599,
26164,
26081,
26314,
26329,
26489,
26381,
26395,
27095,
26920,
26985,
26358,
26077,
25607,
25279,
25299,
25270,
25113,
24988,
25099,
24667,
24454,
24320,
24678,
24163,
24255,
24402,
24260,
23958,
24052,
23864,
23098,
23370,
23240,
22985,
23248,
23025,
23264,
23343,
23366,
24405,
25518,
25999,
25441,
24453,
23202,
22395,
21695,
21619,
21504,
21432,
21195,
20778,
20934,
20920,
20656,
20353,
20490,
20704,
20303,
20315,
20483,
20244,
20451,
20332,
20368,
19742,
19807,
19305,
19145,
18902,
18926,
18719,
18927,
18745,
18577,
19088,
19114,
19149,
19150,
19018,
18689,
18615,
18027,
17710,
17532,
17227,
17609,
17345,
17547,
17493,
17546,
17341,
16998,
16661,
16593,
16526,
16222,
16446,
15965,
16205,
15948,
15807,
15640,
15576,
15347,
15325,
15109,
15206,
14840,
14872,
14744,
14747,
14570,
14388,
14344,
14145,
14124,
14155,
14070,
13786,
13629,
13530,
13500,
13348,
13494,
13172,
12973,
13074,
12651,
12650,
12824,
12448,
12357,
12236,
12253,
12219,
12343,
11962,
11992,
11939,
11800,
11409,
11610,
11640,
11485,
11395,
11376,
11244,
11173,
10985,
10999,
10817,
10797,
10814,
10703,
10670,
10633,
10353,
10647,
10570,
10692,
10760,
10289,
10218,
9990,
9748,
9728,
9581,
9604,
9332,
9406,
9236,
9218,
9099,
8985,
8867,
8741,
8653,
8602,
8395,
8475,
8349,
8388,
8286,
8090,
7936,
8164,
8004,
7835,
7736,
7618,
7616,
7505,
7428,
7421,
7433,
7368,
7284,
7045,
6900,
7024,
6988,
6703,
6736,
6582,
6562,
6660,
6417,
6190,
6246,
6223,
6190,
6075,
6114,
5729,
5987,
5910,
5879,
5500,
5741,
5727,
5621,
5611,
5349,
5365,
5483,
5333,
5179,
5069,
4908,
4938,
4843,
4880,
4712,
4563,
4643,
4651,
4413,
4425,
4364,
4291,
4208,
4082,
4189,
4152,
3915,
3960,
3868,
3822,
3919,
3738,
3576,
3602,
3578,
3442,
3385,
3483,
3387,
3310,
3254,
3061,
3069,
3017,
3076,
2966,
2885,
2888,
2874,
2726,
2667,
2647,
2546,
2508,
2454,
2528,
2323,
2278,
2233,
2248,
2246,
2133,
2092,
2049,
1939,
2014,
1995,
1820,
1807,
1759,
1753,
1735,
1678,
1583,
1538,
1554,
1414,
1444,
1379,
1377,
1266,
1283,
1188,
1201,
1187,
1122,
974,
1043,
945,
921,
869,
812,
822,
811,
724,
652,
608,
594,
565,
476,
440,
417,
396,
328,
284,
222,
198,
166,
136,
97,
83,
64,
50,
48,
41,
35,
37,
39,
47,
42,
42,
30,
36,
40,
40,
46,
36,
37,
28,
36,
29,
43,
25,
49,
25,
25,
20,
35,
21,
31,
25,
34,
41,
31,
39,
38,
27,
24,
24,
30,
25,
18,
29,
28,
25,
25,
33,
22,
28,
24,
16,
24,
25,
33,
20,
22,
26,
16,
14,
23,
21,
28,
29,
26,
32,
32,
21,
18,
27,
22,
26,
22,
26,
24,
22,
21,
17,
26,
25,
18,
24,
21,
22,
24,
18,
22,
20,
16,
18,
15,
17,
15,
19,
18,
21,
15,
16,
16,
18,
15,
13,
10,
8,
19,
8,
16,
12,
12,
10,
16,
12,
18,
17,
14,
18,
4,
12,
14,
8,
9,
8,
11,
11,
7,
17,
13,
8,
11,
16,
10,
9,
6,
8,
5,
9,
8,
11,
7,
6,
6,
5,
2,
2,
5,
7,
8,
8,
1,
7,
7,
4,
6,
4,
9,
3,
9,
6,
3,
4,
4,
2,
4,
6,
4,
2,
3,
4,
6,
5,
4,
0,
1,
1,
5,
4,
6,
3,
4,
5,
1,
5,
6,
5,
1,
6,
3,
8,
2,
2,
3,
6,
7,
3,
2,
4,
4,
2,
1,
3,
1,
3,
2,
3,
1,
2,
4,
4,
5,
4,
7,
0,
2,
1,
1,
7,
1,
1,
2,
5,
2,
1,
6,
5,
6,
2,
4,
2,
0,
1,
3,
3,
4,
2,
2,
4,
3,
3,
2,
3,
0,
1,
0,
2,
0,
4,
0,
0,
1,
2,
0,
0,
0,
1,
2,
0,
1,
1,
2,
0,
4,
1,
2,
6,
2,
0,
0,
0,
1,
2,
1,
0,
2,
0,
1,
2,
1,
2,
0,
1,
0,
1,
1,
0,
0,
3,
2,
1,
1,
1,
0,
0,
2,
2,
1,
0,
1,
3,
0,
2,
0,
0,
0,
0,
0,
0,
1,
1,
0,
0,
0,
1,
1,
0,
0,
0,
0,
0,
0,
0,
1,
0,
0,
2,
0,
0,
1,
1,
0,
1,
1,
2,
1,
2,
0,
0,
0,
0,
0,
1,
0,
2,
1,
0,
0,
2,
1,
0,
0,
0,
0,
0,
0,
0,
0,
1,
0,
0,
1,
1,
0,
0,
0,
1,
0,
0,
0,
0,
0,
0,
2,
0,
3,
1,
0,
0,
0,
1,
0,
0,
0,
0,
0,
0,
0,
0,
0,
0,
0,
0,
0,
0,
0,
0,
0,
1,
0,
0,
0,
0,
0,
0,
0,
0,
0,
0,
0,
0,
0,
0,
0,
1,
0,
0,
1,
0,
0,
0,
0,
0,
0,
0,
0,
0,
0,
0,
0,
1,
0,
0,
0,
0,
0,
0,
0,
0,
0,
0,
0,
0,
0,
0,
0,
0,
0,
0,
0,
0,
0,
0,
0,
0,
0,
0,
0,
0,
0,
0,
0,
1,
0,
0,
0,
0,
0,
0,
0,
0,
0,
0,
0,
0,
0,
0,
0,
0,
0,
0,
0,
0,
0,
0,
0,
0,
0,
0,
0,
0,
0,
0,
0,
0,
0,
0,
1,
0,
0,
0,
0,
0,
0,
0,
0,
0,
0,
0,
0,
0,
0,
0,
0,
0,
0,
0,
0,
0,
0,
0,
0,
0,
0,
0,
0,
0,
0,
0,
0,
0,
0,
0,
0,
0,
0,
0,
0,
0,
0,
0,
0,
0,
0,
0,
0,
0,
0,
0,
0,
0,
0,
0,
0,
0,
0,
0,
0,
0,
0,
0,
0,
0,
0,
0,
0,
0,
1,
0,
0,
0,
0,
0,
0,
0,
0,
0,
0,
0,
0,
0,
0,
0,
0,
0,
0,
0,
0,
0,
0,
0,
0,
0,
0,
0,
0,
0,
0,
0,
0,
0,
0,
0,
0,
0,
0,
0,
0,
0,
0,
0,
0,
0,
0,
0,
0,
0,
0,
0,
0,
0,
0,
0,
0,
0,
0,
0,
0,
0,
0,
0,
0,
0,
0,
0,
0,
0,
0,
0,
0,
0,
0,
0,
0,
0,
0,
0,
0,
0,
0,
0,
0,
0,
0,
0,
0,
0,
0,
0,
0,
0,
0,
0,
0,
0,
0,
0,
0,
0,
0,
0,
0,
0,
0,
0,
0,
0,
0,
0,
0,
0,
0,
0,
0,
0,
0,
0,
0,
0,
0,
0,
0,
0,
0,
0,
0,
0,
0,
0,
0,
0,
0,
0,
0,
0,
0,
0,
0,
0,
0,
0,
0,
0,
0,
0,
0,
0,
0,
0,
0,
0,
0,
0,
0,
0,
0,
0,
0,
0,
0,
0,
0,
0,
0,
0,
0,
0,
0,
0,
0,
0,
0,
0,
0,
0,
0,
0,
0,
0,
0,
0,
0,
0,
0,
0,
0,
0,
0,
0,
0,
0,
0,
0,
0,
0,
0,
0,
0,
0,
0,
0,
0,
0,
0,
0,
0,
0,
0,
0,
0,
0,
0,
0,
0,
0,
0,
0,
0,
0,
0,
0,
0,
0,
0,
0,
0,
0,
0,
0,
0,
0,
0,
0,
0,
0,
0,
0,
0,
0,
0,
0,
0,
0,
0,
0,
0,
0,
0,
0,
0,
0,
0,
0,
0,
0,
0,
0,
0,
0,
0,
0,
0,
0,
0,
0,
0,
0,
0,
0,
0,
0,
0,
0,
0,
0,
0,
0,
0,
0,
0,
0,
0,
0,
0,
0,
0,
0,
0,
0,
0,
0,
0,
0,
0,
0,
0,
0,
0,
0,
#ENDOFDATA   :