File: N132962/Standards/15 keV/Ti std.msa
#FORMAT      : EMSA/MAS Spectral Data File
#VERSION     : 1.0
#TITLE       : Ti standard for 'N132962' detector
#NPOINTS     : 4096
#NCOLUMNS    : 1
#XUNITS      : eV
#YUNITS      : counts
#DATATYPE    : Y
#SIGNALTYPE  : EDS
#XLABEL      : Energy (eV)
#YLABEL      : Counts
#XPERCHAN -eV: 9.99778
#OFFSET   -eV: 1.69135
#CHOFFSET    : 0
#DATE        : 26-Sep-2025
#TIME        : 22:27:00
#OWNER       : Unknown
#ELEVANGLE   : 35
#BEAMKV   -kV: 15
#LIVETIME  -s: 1919.16
#REALTIME  -s: 2065.11
#PROBECUR -nA: 1.21471
##WORKING -mm: 15
##D2STDCMP   : Ti,(Ti:100.0000)
##SIMILAR    : 1.5
#SPECTRUM    :
190,
229,
79,
213,
1324,
5899,
17257,
37744,
68796,
91344,
109536,
254630,
630002,
855438,
704877,
495330,
229226,
119314,
74992,
32203,
20267,
21053,
24093,
26664,
27204,
27291,
28114,
30666,
33372,
34406,
35092,
36014,
37525,
38701,
40494,
41841,
42823,
43372,
44194,
44877,
45871,
46754,
47209,
48267,
48748,
49830,
50149,
51435,
53014,
55220,
56015,
54185,
52614,
52536,
52644,
52908,
54670,
57377,
59423,
58803,
55661,
52285,
48703,
46537,
45549,
45759,
45308,
45331,
44458,
43789,
43669,
43450,
43203,
43065,
42642,
42290,
42405,
41348,
41266,
40586,
40358,
40035,
39445,
39392,
39200,
38682,
38202,
38102,
38236,
39461,
42104,
48070,
51650,
48792,
41924,
37189,
34713,
34388,
33644,
33579,
33237,
32990,
32866,
32475,
32517,
32988,
32806,
32473,
31544,
30670,
30011,
29812,
29599,
29383,
28906,
28927,
28392,
28070,
28069,
27620,
27893,
27661,
27548,
27334,
27104,
26684,
26710,
26411,
26374,
26368,
26059,
25710,
25267,
24567,
24483,
23969,
23784,
23697,
23439,
23913,
24104,
25192,
26708,
30296,
36061,
50955,
110939,
313844,
792027,
1491661,
1996203,
1874197,
1236172,
579020,
203022,
64663,
30399,
24539,
25311,
28888,
38944,
67140,
126668,
207116,
264021,
251683,
178964,
97124,
45285,
23198,
15691,
14063,
13643,
13569,
13559,
13646,
13792,
13829,
14026,
13923,
13828,
13774,
13330,
13227,
13172,
12887,
12988,
12751,
12696,
12769,
12639,
12617,
12722,
12505,
12368,
12093,
12319,
12355,
12218,
12050,
11876,
11960,
11784,
11686,
11809,
11496,
11477,
11611,
11397,
11477,
11582,
11825,
11940,
12206,
11962,
11451,
11222,
10959,
10561,
10586,
10610,
10575,
10480,
10195,
10308,
10077,
10287,
10055,
10052,
9881,
9768,
9852,
9804,
9753,
9632,
9489,
9461,
9286,
9392,
9188,
9057,
9180,
8847,
8771,
8985,
8814,
8931,
8644,
8847,
8781,
8728,
8491,
8244,
8367,
8306,
8236,
8081,
7991,
7960,
7792,
8172,
7878,
7889,
7696,
7595,
7633,
7483,
7531,
7454,
7406,
7197,
7315,
7164,
7050,
7139,
7095,
6964,
6940,
6739,
6904,
6807,
6616,
6615,
6704,
6549,
6541,
6477,
6383,
6502,
6025,
6158,
6177,
5957,
6010,
6068,
6084,
6141,
6292,
6933,
7184,
7567,
7700,
7334,
6868,
6218,
5867,
5489,
5411,
5353,
5227,
5433,
5321,
5395,
5477,
5633,
5651,
5669,
5493,
5202,
5171,
4874,
4799,
4782,
4779,
4670,
4599,
4665,
4370,
4623,
4475,
4445,
4445,
4323,
4300,
4336,
4181,
4102,
4142,
3977,
3956,
3917,
4009,
3937,
3787,
3818,
3726,
3617,
3763,
3645,
3702,
3491,
3594,
3551,
3440,
3328,
3438,
3387,
3382,
3318,
3226,
3250,
3317,
3135,
3111,
3096,
2983,
3058,
2997,
2936,
2922,
2911,
2878,
2785,
2839,
2798,
2717,
2643,
2706,
2580,
2635,
2537,
2516,
2496,
2460,
2423,
2336,
2375,
2361,
2381,
2287,
2203,
2134,
2123,
2105,
2121,
2022,
2024,
1966,
2018,
1962,
1916,
1963,
1890,
1794,
1882,
1817,
1855,
1694,
1786,
1708,
1648,
1641,
1630,
1567,
1523,
1564,
1551,
1464,
1510,
1432,
1432,
1351,
1375,
1328,
1284,
1316,
1279,
1224,
1229,
1222,
1165,
1147,
1111,
1153,
1079,
1115,
1052,
1013,
1044,
926,
928,
965,
910,
908,
853,
881,
835,
836,
801,
785,
795,
742,
740,
704,
670,
674,
626,
646,
672,
555,
585,
591,
575,
535,
508,
515,
476,
486,
448,
463,
427,
410,
378,
410,
354,
377,
346,
315,
264,
285,
302,
274,
248,
259,
222,
196,
186,
168,
167,
144,
134,
115,
129,
125,
109,
94,
81,
57,
40,
40,
30,
25,
15,
22,
24,
19,
15,
21,
6,
18,
12,
11,
14,
18,
12,
12,
15,
12,
19,
14,
11,
9,
10,
11,
7,
20,
11,
16,
13,
9,
11,
12,
13,
7,
10,
10,
10,
10,
10,
5,
11,
14,
11,
10,
10,
6,
9,
8,
12,
8,
16,
7,
6,
3,
11,
5,
6,
5,
6,
13,
6,
9,
10,
7,
9,
9,
17,
6,
12,
9,
11,
6,
12,
14,
4,
7,
10,
8,
5,
7,
7,
7,
7,
7,
9,
8,
3,
5,
5,
4,
8,
5,
2,
5,
8,
5,
11,
4,
3,
6,
5,
6,
1,
4,
6,
3,
1,
3,
10,
3,
1,
4,
5,
7,
6,
3,
2,
4,
5,
5,
2,
1,
3,
5,
2,
4,
2,
2,
7,
4,
4,
3,
3,
2,
3,
3,
0,
3,
2,
0,
2,
2,
2,
2,
2,
0,
0,
5,
2,
0,
1,
1,
1,
0,
1,
0,
0,
1,
1,
0,
4,
0,
2,
1,
1,
1,
1,
0,
0,
0,
1,
1,
1,
0,
1,
1,
2,
0,
0,
2,
1,
0,
0,
0,
1,
0,
0,
0,
0,
0,
0,
0,
1,
0,
0,
0,
1,
0,
0,
1,
0,
0,
0,
1,
0,
2,
0,
0,
0,
0,
1,
0,
0,
1,
0,
0,
1,
1,
0,
3,
0,
0,
0,
0,
0,
0,
1,
0,
0,
0,
0,
0,
1,
0,
1,
0,
0,
0,
2,
1,
0,
1,
0,
1,
0,
0,
0,
1,
0,
0,
0,
0,
0,
0,
0,
0,
1,
0,
0,
0,
0,
0,
0,
0,
1,
0,
0,
0,
0,
0,
0,
0,
0,
0,
0,
0,
1,
0,
0,
1,
0,
0,
0,
0,
0,
0,
0,
0,
0,
1,
0,
0,
0,
0,
0,
1,
0,
0,
0,
0,
0,
0,
0,
0,
0,
0,
0,
0,
0,
0,
0,
0,
0,
0,
0,
0,
0,
0,
0,
0,
0,
0,
0,
0,
0,
0,
0,
0,
0,
0,
0,
0,
0,
0,
0,
0,
0,
0,
0,
0,
0,
0,
0,
0,
0,
0,
0,
0,
0,
1,
0,
0,
0,
0,
0,
0,
0,
0,
0,
0,
0,
0,
0,
0,
0,
0,
0,
0,
0,
0,
0,
0,
0,
0,
0,
0,
0,
0,
0,
0,
1,
0,
0,
0,
0,
0,
0,
0,
0,
0,
0,
0,
0,
0,
0,
0,
0,
0,
0,
0,
1,
0,
0,
0,
0,
0,
0,
0,
0,
0,
0,
0,
1,
0,
0,
0,
0,
0,
1,
0,
0,
0,
0,
0,
0,
0,
0,
0,
0,
0,
0,
0,
0,
0,
0,
0,
0,
0,
0,
0,
0,
0,
0,
0,
0,
0,
0,
0,
0,
0,
0,
0,
0,
0,
0,
0,
0,
0,
0,
0,
0,
0,
0,
0,
0,
0,
0,
0,
0,
0,
0,
0,
0,
0,
0,
0,
0,
0,
0,
0,
0,
0,
0,
0,
0,
0,
0,
0,
0,
0,
0,
0,
0,
0,
0,
0,
0,
0,
0,
0,
0,
0,
0,
0,
0,
0,
0,
0,
0,
0,
0,
0,
0,
0,
0,
0,
0,
0,
0,
0,
0,
0,
0,
0,
0,
0,
0,
0,
0,
0,
0,
0,
0,
0,
0,
0,
0,
0,
0,
0,
0,
0,
0,
0,
0,
0,
0,
0,
0,
0,
0,
0,
0,
0,
0,
0,
0,
0,
0,
0,
0,
0,
0,
0,
0,
0,
0,
0,
0,
0,
0,
0,
0,
0,
0,
0,
0,
0,
0,
0,
0,
0,
0,
0,
0,
0,
0,
0,
0,
0,
0,
0,
0,
0,
0,
0,
0,
0,
0,
0,
0,
0,
0,
0,
0,
0,
0,
0,
0,
0,
0,
0,
0,
0,
0,
0,
0,
0,
0,
0,
0,
0,
0,
0,
0,
0,
0,
0,
0,
0,
0,
0,
0,
0,
0,
0,
0,
0,
0,
0,
0,
0,
0,
0,
0,
0,
0,
0,
0,
0,
0,
0,
0,
0,
0,
0,
0,
0,
0,
0,
0,
0,
0,
0,
0,
0,
0,
0,
0,
0,
0,
0,
0,
0,
0,
0,
0,
0,
0,
0,
0,
0,
0,
0,
0,
0,
0,
0,
0,
0,
0,
0,
0,
0,
0,
0,
0,
0,
0,
0,
0,
0,
0,
0,
0,
0,
0,
0,
0,
0,
0,
0,
0,
0,
0,
0,
0,
0,
0,
0,
0,
0,
0,
0,
0,
0,
0,
0,
0,
0,
0,
0,
0,
0,
0,
0,
0,
0,
0,
0,
0,
0,
0,
0,
0,
0,
0,
0,
0,
0,
0,
0,
0,
0,
0,
0,
0,
0,
0,
0,
0,
0,
0,
0,
0,
0,
0,
0,
0,
0,
0,
0,
0,
0,
0,
0,
0,
0,
0,
0,
0,
0,
0,
0,
0,
0,
0,
0,
0,
0,
0,
0,
0,
0,
0,
0,
0,
0,
0,
0,
0,
0,
0,
0,
0,
0,
0,
0,
0,
0,
0,
0,
0,
0,
0,
0,
0,
0,
0,
0,
0,
0,
0,
0,
0,
0,
0,
0,
0,
0,
0,
0,
0,
0,
0,
0,
0,
0,
0,
0,
0,
0,
0,
0,
0,
0,
0,
0,
0,
0,
0,
0,
0,
0,
0,
0,
0,
0,
0,
0,
0,
0,
0,
0,
0,
0,
#ENDOFDATA   :