File: N132962/Standards/15 keV/Tm std.msa
#FORMAT      : EMSA/MAS Spectral Data File
#VERSION     : 1.0
#TITLE       : Tm standard for 'N132962' detector
#NPOINTS     : 4096
#NCOLUMNS    : 1
#XUNITS      : eV
#YUNITS      : counts
#DATATYPE    : Y
#SIGNALTYPE  : EDS
#XLABEL      : Energy (eV)
#YLABEL      : Counts
#XPERCHAN -eV: 9.99778
#OFFSET   -eV: 1.69135
#CHOFFSET    : 0
#DATE        : 26-Sep-2025
#TIME        : 18:36:00
#OWNER       : Unknown
#ELEVANGLE   : 35
#BEAMKV   -kV: 15
#LIVETIME  -s: 1681.2
#REALTIME  -s: 1838.69
#PROBECUR -nA: 1.21629
##WORKING -mm: 15
##D2STDCMP   : Tm,(Tm:100.0000)
##SIMILAR    : 2.0
#SPECTRUM    :
158,
152,
102,
363,
2435,
9582,
21933,
37321,
66785,
82233,
64496,
55191,
56968,
59284,
62403,
70067,
90210,
114089,
103769,
83827,
83307,
99436,
124221,
124306,
103733,
93107,
93541,
96615,
101340,
102665,
101238,
101660,
102933,
104500,
108573,
125459,
189516,
307687,
350023,
251612,
153150,
118532,
111604,
111716,
117397,
134476,
202406,
441533,
930851,
1320150,
1184587,
682359,
258683,
91773,
63710,
76787,
101248,
107757,
90096,
70285,
60986,
57307,
56983,
57803,
56068,
52453,
49093,
46751,
44628,
43861,
43395,
43457,
43581,
44021,
44446,
44854,
45371,
45386,
44733,
44767,
44972,
45012,
44985,
45266,
45434,
45402,
46209,
46202,
46729,
46484,
46261,
45491,
46166,
45853,
46504,
45999,
46597,
46834,
47479,
47562,
47318,
46584,
46336,
45885,
45639,
45861,
45816,
45713,
45280,
45360,
45227,
44827,
44513,
44704,
45091,
44277,
44348,
44221,
43931,
43749,
44332,
44025,
43603,
43353,
43601,
43249,
43241,
42637,
42823,
42457,
42213,
42392,
42241,
42112,
41434,
41705,
40952,
41127,
40549,
40641,
40494,
39998,
40086,
40017,
39911,
39376,
39310,
39132,
39121,
38746,
38657,
38487,
38081,
38061,
37855,
37684,
37667,
37752,
37023,
37007,
36649,
36445,
36019,
35947,
35710,
35559,
35328,
35155,
35617,
35304,
34443,
34660,
34494,
34113,
33577,
33816,
33853,
33829,
33962,
34449,
34496,
34346,
33833,
33067,
32327,
31855,
31648,
31731,
31202,
30923,
31190,
30797,
30617,
30466,
30520,
30047,
30019,
29891,
29627,
29465,
29213,
29262,
28854,
28559,
28494,
28654,
28413,
29279,
31218,
34063,
37771,
40842,
41344,
38758,
35242,
31320,
28679,
27417,
26633,
26261,
25861,
25954,
25677,
25747,
25496,
25279,
25312,
24972,
24999,
24879,
25221,
25385,
26450,
29658,
39323,
62827,
109425,
177187,
244944,
278080,
253010,
190081,
118672,
67424,
40412,
28905,
25081,
23363,
22618,
22357,
22055,
21432,
21310,
21342,
20845,
20777,
20597,
20533,
20400,
20261,
20078,
20159,
20500,
21593,
24427,
30823,
42390,
62289,
85425,
105965,
112991,
103788,
84685,
64081,
48304,
37732,
31434,
28409,
29099,
35625,
45901,
56387,
60054,
56262,
46485,
34888,
26137,
21198,
18438,
17045,
16352,
15414,
14904,
14715,
14611,
14454,
14450,
14348,
14111,
13957,
14095,
14045,
14100,
14399,
14184,
14358,
14211,
14125,
14349,
15037,
16656,
19778,
23009,
25856,
27448,
25929,
22772,
19083,
16236,
14544,
14073,
14011,
14417,
15361,
16049,
16280,
15856,
15015,
13861,
12790,
12059,
11785,
11542,
11496,
11473,
11492,
11524,
11165,
11030,
10839,
10607,
10283,
10099,
10195,
10003,
9695,
9954,
9661,
9588,
9685,
9500,
9339,
9281,
9281,
9409,
9209,
9060,
9033,
8986,
8849,
8837,
8765,
8818,
8810,
8659,
8567,
8463,
8339,
8329,
8244,
7972,
8009,
7957,
7822,
7743,
7711,
7596,
7540,
7364,
7285,
7243,
7120,
7046,
7112,
6944,
6915,
6794,
6636,
6669,
6707,
6613,
6509,
6298,
6417,
6242,
6282,
6101,
6088,
6054,
5892,
5761,
5665,
5532,
5772,
5585,
5604,
5416,
5177,
5367,
5014,
5247,
5035,
5141,
4945,
4959,
4905,
4730,
4661,
4650,
4545,
4520,
4539,
4446,
4413,
4348,
4286,
4195,
3969,
4009,
3988,
3926,
3780,
3805,
3697,
3597,
3621,
3523,
3639,
3418,
3441,
3272,
3160,
3268,
3091,
3146,
3053,
2989,
2876,
2947,
2778,
2763,
2628,
2637,
2601,
2520,
2483,
2413,
2361,
2318,
2218,
2193,
2110,
2120,
2120,
2003,
1858,
1873,
1753,
1759,
1694,
1620,
1633,
1579,
1594,
1447,
1425,
1398,
1348,
1305,
1222,
1210,
1182,
1063,
1010,
922,
893,
866,
823,
742,
700,
664,
622,
506,
538,
450,
377,
314,
278,
223,
161,
128,
117,
73,
72,
76,
80,
92,
85,
88,
70,
76,
75,
80,
75,
53,
59,
57,
55,
65,
47,
56,
58,
54,
74,
58,
53,
52,
47,
38,
40,
31,
28,
44,
38,
46,
57,
35,
34,
38,
43,
44,
46,
43,
35,
32,
50,
30,
52,
31,
33,
35,
36,
41,
34,
46,
34,
36,
43,
37,
29,
31,
49,
42,
40,
38,
36,
54,
37,
42,
31,
43,
32,
30,
34,
35,
30,
28,
31,
38,
39,
26,
32,
39,
48,
38,
38,
44,
31,
44,
36,
29,
26,
33,
37,
23,
31,
26,
33,
25,
26,
23,
27,
25,
34,
26,
35,
24,
29,
21,
21,
26,
20,
27,
24,
30,
19,
19,
14,
30,
17,
12,
21,
14,
21,
18,
29,
23,
26,
30,
14,
28,
14,
16,
20,
25,
27,
24,
11,
17,
22,
22,
23,
14,
8,
16,
19,
17,
10,
7,
17,
16,
9,
17,
26,
13,
14,
16,
20,
16,
8,
11,
15,
19,
6,
6,
13,
9,
9,
15,
12,
13,
19,
13,
6,
8,
9,
14,
12,
7,
12,
13,
13,
11,
10,
12,
10,
9,
13,
9,
6,
8,
9,
13,
8,
5,
6,
5,
10,
7,
9,
8,
10,
7,
6,
11,
8,
4,
7,
8,
9,
5,
5,
7,
6,
3,
2,
3,
7,
5,
8,
6,
4,
8,
5,
3,
7,
7,
2,
5,
3,
1,
5,
5,
3,
2,
4,
2,
2,
4,
3,
5,
4,
1,
4,
2,
3,
0,
2,
1,
0,
1,
5,
2,
3,
3,
0,
5,
6,
3,
2,
3,
2,
6,
3,
0,
0,
1,
4,
2,
2,
3,
2,
5,
0,
2,
1,
2,
1,
0,
1,
3,
1,
2,
3,
1,
2,
2,
0,
1,
0,
0,
1,
1,
0,
2,
1,
0,
1,
0,
1,
0,
2,
0,
4,
2,
1,
0,
3,
0,
2,
1,
1,
1,
1,
0,
1,
0,
1,
1,
2,
0,
1,
0,
3,
1,
0,
3,
0,
1,
0,
1,
0,
1,
0,
0,
0,
2,
0,
1,
4,
3,
1,
2,
1,
0,
0,
1,
1,
1,
0,
1,
0,
0,
0,
0,
0,
0,
0,
2,
0,
0,
0,
0,
2,
0,
0,
0,
0,
0,
1,
0,
0,
0,
0,
0,
0,
1,
0,
0,
0,
2,
0,
0,
0,
0,
1,
0,
1,
0,
0,
0,
0,
0,
0,
0,
0,
0,
0,
0,
0,
1,
0,
0,
0,
1,
0,
0,
0,
0,
0,
0,
0,
0,
0,
0,
0,
1,
0,
0,
0,
0,
0,
0,
1,
0,
0,
0,
0,
0,
0,
0,
0,
0,
1,
1,
0,
0,
0,
0,
0,
0,
0,
0,
0,
0,
1,
0,
0,
0,
0,
0,
0,
0,
0,
0,
0,
0,
0,
0,
0,
0,
0,
0,
0,
0,
0,
0,
0,
0,
0,
0,
0,
0,
0,
0,
0,
0,
0,
0,
0,
0,
0,
0,
0,
0,
0,
0,
0,
0,
0,
0,
0,
0,
0,
0,
0,
0,
0,
0,
0,
0,
0,
0,
0,
0,
0,
0,
0,
0,
0,
0,
0,
0,
0,
0,
0,
0,
0,
0,
0,
0,
0,
0,
0,
0,
0,
0,
0,
0,
0,
0,
0,
0,
0,
0,
0,
0,
0,
0,
0,
0,
0,
0,
0,
0,
0,
0,
0,
0,
0,
0,
0,
0,
0,
0,
0,
0,
0,
0,
0,
0,
0,
0,
0,
0,
0,
0,
0,
0,
0,
0,
0,
0,
0,
0,
0,
0,
0,
0,
0,
0,
0,
0,
0,
0,
0,
0,
0,
0,
0,
0,
0,
0,
0,
0,
0,
0,
0,
0,
0,
0,
0,
0,
0,
0,
0,
0,
0,
0,
0,
0,
0,
0,
0,
0,
0,
0,
0,
0,
0,
0,
0,
0,
0,
0,
0,
0,
0,
0,
0,
0,
0,
0,
0,
0,
0,
0,
0,
0,
0,
0,
0,
0,
0,
0,
0,
0,
0,
0,
0,
0,
0,
0,
0,
0,
0,
0,
0,
0,
0,
0,
0,
0,
0,
0,
0,
0,
0,
0,
0,
0,
0,
0,
0,
0,
0,
0,
0,
0,
0,
0,
0,
0,
0,
0,
0,
0,
0,
0,
0,
0,
0,
0,
0,
0,
0,
0,
0,
0,
0,
0,
0,
0,
0,
0,
0,
0,
0,
0,
0,
0,
0,
0,
0,
0,
0,
0,
0,
0,
0,
0,
0,
0,
0,
0,
0,
0,
0,
0,
0,
0,
0,
0,
0,
0,
0,
0,
0,
0,
0,
0,
0,
0,
0,
0,
0,
0,
0,
0,
0,
0,
0,
0,
0,
0,
0,
0,
0,
0,
0,
0,
0,
0,
0,
0,
0,
0,
0,
0,
0,
0,
0,
0,
0,
0,
0,
0,
0,
0,
0,
0,
0,
0,
0,
0,
0,
0,
0,
0,
0,
0,
0,
0,
0,
0,
0,
0,
0,
0,
0,
0,
0,
0,
0,
0,
0,
0,
0,
0,
0,
0,
0,
0,
0,
0,
0,
0,
0,
0,
0,
0,
0,
0,
0,
0,
0,
0,
0,
0,
0,
0,
0,
0,
0,
0,
0,
0,
0,
0,
0,
0,
0,
0,
0,
0,
0,
0,
0,
0,
0,
0,
0,
0,
0,
0,
0,
0,
0,
0,
0,
0,
0,
0,
0,
0,
0,
#ENDOFDATA   :