File: N132962/Standards/15 keV/TmP5O14 std.msa
#FORMAT      : EMSA/MAS Spectral Data File
#VERSION     : 1.0
#TITLE       : TmP5O14 standard for 'N132962' detector
#NPOINTS     : 4096
#NCOLUMNS    : 1
#XUNITS      : eV
#YUNITS      : counts
#DATATYPE    : Y
#SIGNALTYPE  : EDS
#XLABEL      : Energy (eV)
#YLABEL      : Counts
#XPERCHAN -eV: 9.99778
#OFFSET   -eV: 1.69135
#CHOFFSET    : 0
#DATE        : 17-Mar-2025
#TIME        : 15:40:00
#OWNER       : Unknown
#ELEVANGLE   : 35
#BEAMKV   -kV: 15
#LIVETIME  -s: 1438.617
#REALTIME  -s: 1519.47
#PROBECUR -nA: 1.0242
##WORKING -mm: 15
##D2STDCMP   : TmP5O14,(O:40.8891),(P:28.2716),(Tm:30.8393)
##SIMILAR    : 1.1
#SPECTRUM    :
161,
163,
84,
254,
1090,
3380,
8839,
26149,
80466,
112208,
58662,
25757,
25042,
30982,
45739,
137528,
508243,
972712,
715857,
195675,
34813,
20235,
21517,
23779,
24823,
24482,
25295,
26975,
28809,
29588,
29701,
30179,
30786,
32635,
33933,
37835,
47976,
68226,
75491,
59262,
42878,
37537,
36050,
36177,
37156,
40891,
57814,
119462,
249056,
348254,
313375,
186217,
80525,
37843,
30896,
34240,
40857,
42817,
38624,
33904,
31609,
31625,
35249,
51205,
102554,
259131,
570914,
793537,
624264,
287103,
105520,
62699,
48164,
32037,
21766,
18625,
17769,
17364,
17065,
17284,
17162,
17066,
17710,
18143,
18699,
18765,
17836,
17242,
17142,
16802,
16902,
16664,
16556,
16771,
16403,
16439,
16281,
16349,
16111,
16204,
16106,
16064,
15758,
16055,
15812,
15833,
15596,
15465,
15422,
15201,
15250,
15011,
15097,
15025,
14942,
14996,
15177,
15008,
14596,
14587,
14501,
14339,
14291,
14566,
14000,
13902,
13602,
13585,
13304,
13375,
13420,
13311,
13505,
13434,
13680,
13456,
13006,
13048,
12634,
12357,
12074,
12177,
12223,
12245,
11931,
11884,
11937,
11739,
11712,
11447,
11440,
11375,
11366,
11332,
11121,
10990,
11056,
10850,
10952,
10814,
10727,
10745,
10486,
10578,
10504,
10423,
10372,
10254,
10171,
9952,
9979,
9923,
9844,
9750,
9682,
9783,
9558,
9649,
9513,
9554,
9550,
9355,
9259,
9131,
9165,
8906,
8863,
8815,
8731,
8809,
8652,
8493,
8505,
8216,
8328,
8287,
8182,
8148,
8032,
7862,
7858,
7815,
7776,
7802,
7739,
7660,
7647,
7949,
8065,
8404,
8769,
9385,
9378,
8891,
8400,
7765,
7413,
6986,
6979,
6867,
6838,
6866,
6799,
6643,
6739,
6716,
6522,
6543,
6492,
6504,
6502,
6359,
6704,
7087,
8674,
12450,
19747,
30530,
41754,
47107,
43828,
33414,
21559,
13361,
8607,
6911,
6081,
5847,
5674,
5666,
5582,
5523,
5441,
5540,
5272,
5380,
5211,
5311,
5158,
5138,
5067,
4985,
5123,
5266,
5695,
6477,
8389,
11265,
14826,
18331,
19381,
17925,
14887,
11656,
9207,
7591,
6636,
6030,
6073,
7124,
8749,
10177,
11156,
10662,
8940,
7060,
5692,
4727,
4312,
4070,
3823,
3821,
3753,
3675,
3771,
3686,
3622,
3574,
3621,
3525,
3538,
3472,
3517,
3547,
3498,
3522,
3404,
3373,
3458,
3512,
3761,
4158,
4757,
5326,
5343,
5228,
4720,
4071,
3570,
3295,
3138,
3047,
3159,
3323,
3422,
3536,
3407,
3315,
3004,
2864,
2724,
2799,
2743,
2661,
2660,
2732,
2584,
2618,
2650,
2584,
2524,
2372,
2463,
2383,
2299,
2328,
2286,
2273,
2189,
2205,
2180,
2169,
2192,
2144,
2085,
2106,
2045,
2016,
2046,
1990,
2021,
1999,
1923,
1989,
1888,
1890,
1890,
1805,
1839,
1782,
1779,
1682,
1756,
1769,
1705,
1679,
1627,
1637,
1629,
1563,
1519,
1565,
1615,
1468,
1503,
1501,
1452,
1447,
1440,
1435,
1355,
1366,
1356,
1323,
1337,
1277,
1258,
1302,
1234,
1197,
1205,
1178,
1171,
1109,
1193,
1132,
1161,
1099,
1075,
1047,
987,
1014,
992,
982,
965,
949,
938,
936,
935,
907,
874,
913,
897,
902,
768,
814,
822,
772,
752,
776,
683,
742,
766,
693,
699,
664,
623,
707,
624,
603,
599,
580,
582,
579,
584,
521,
487,
527,
493,
505,
482,
496,
447,
428,
433,
417,
360,
379,
358,
382,
339,
341,
363,
365,
381,
325,
299,
273,
265,
265,
270,
233,
261,
237,
232,
222,
207,
237,
180,
170,
173,
161,
163,
138,
124,
124,
110,
125,
108,
79,
90,
76,
55,
84,
38,
32,
35,
28,
23,
18,
8,
11,
8,
7,
7,
2,
2,
5,
7,
4,
3,
5,
6,
4,
3,
5,
3,
4,
5,
5,
4,
8,
9,
3,
2,
3,
4,
6,
5,
5,
4,
2,
3,
0,
2,
3,
1,
2,
5,
4,
2,
0,
1,
6,
1,
3,
5,
0,
3,
1,
5,
0,
1,
1,
7,
4,
4,
3,
2,
1,
0,
3,
2,
4,
5,
2,
4,
2,
1,
4,
1,
0,
3,
1,
2,
0,
3,
1,
0,
5,
2,
0,
4,
2,
2,
2,
1,
1,
1,
2,
1,
5,
2,
2,
2,
0,
1,
0,
3,
2,
0,
5,
1,
1,
0,
1,
2,
1,
2,
2,
0,
3,
0,
0,
1,
1,
1,
2,
3,
2,
3,
3,
0,
2,
0,
1,
0,
0,
0,
1,
1,
0,
1,
1,
0,
1,
0,
1,
0,
0,
4,
1,
2,
1,
1,
2,
2,
0,
0,
1,
1,
1,
1,
0,
0,
3,
2,
0,
0,
0,
1,
0,
0,
0,
0,
1,
1,
0,
1,
3,
0,
0,
1,
0,
0,
0,
1,
0,
2,
1,
0,
1,
1,
0,
0,
0,
0,
0,
0,
0,
0,
0,
0,
1,
0,
1,
0,
0,
0,
1,
0,
0,
1,
0,
0,
0,
0,
0,
0,
0,
0,
0,
0,
0,
0,
0,
1,
0,
0,
0,
0,
0,
0,
0,
0,
0,
0,
0,
0,
0,
1,
1,
0,
1,
0,
1,
1,
0,
1,
0,
0,
0,
0,
0,
0,
0,
0,
0,
0,
0,
0,
0,
0,
0,
1,
0,
0,
0,
1,
0,
0,
0,
0,
1,
0,
0,
0,
0,
1,
0,
0,
0,
0,
0,
0,
1,
0,
0,
0,
0,
0,
0,
0,
0,
0,
0,
1,
0,
0,
0,
0,
0,
0,
0,
0,
0,
0,
0,
0,
0,
0,
0,
0,
0,
0,
1,
0,
0,
0,
0,
1,
0,
0,
0,
0,
0,
0,
0,
0,
0,
0,
0,
0,
0,
0,
0,
0,
0,
0,
0,
0,
0,
0,
0,
0,
0,
0,
0,
0,
0,
0,
0,
0,
0,
0,
0,
0,
0,
0,
0,
0,
0,
0,
0,
0,
0,
0,
0,
0,
0,
0,
0,
0,
0,
0,
0,
0,
0,
0,
0,
0,
0,
0,
0,
0,
0,
0,
0,
0,
0,
0,
0,
0,
0,
0,
0,
0,
0,
0,
0,
0,
0,
0,
0,
0,
0,
0,
0,
0,
0,
0,
0,
0,
0,
0,
0,
0,
0,
0,
0,
0,
0,
0,
0,
0,
0,
0,
0,
0,
0,
0,
0,
0,
0,
0,
0,
0,
0,
0,
0,
0,
0,
0,
0,
0,
0,
0,
0,
0,
0,
0,
0,
0,
0,
0,
0,
0,
0,
0,
0,
0,
0,
0,
0,
0,
0,
0,
0,
0,
0,
0,
0,
0,
0,
0,
0,
0,
0,
0,
0,
0,
0,
0,
0,
0,
0,
0,
0,
0,
0,
0,
0,
0,
0,
0,
0,
0,
0,
0,
0,
0,
0,
0,
0,
0,
0,
0,
0,
0,
0,
0,
0,
0,
0,
0,
0,
0,
0,
0,
0,
0,
0,
0,
0,
0,
0,
0,
0,
0,
0,
0,
0,
0,
0,
0,
0,
0,
0,
0,
0,
0,
0,
0,
0,
0,
0,
0,
0,
0,
0,
0,
0,
0,
0,
0,
0,
0,
0,
0,
0,
0,
0,
0,
0,
0,
0,
0,
0,
0,
0,
0,
0,
0,
0,
0,
0,
0,
0,
0,
0,
0,
0,
0,
0,
0,
0,
0,
0,
0,
0,
0,
0,
0,
0,
0,
0,
0,
0,
0,
0,
0,
0,
0,
0,
0,
0,
0,
0,
0,
0,
0,
0,
0,
0,
0,
0,
0,
0,
0,
0,
0,
0,
0,
0,
0,
0,
0,
0,
0,
0,
0,
0,
0,
0,
0,
0,
0,
0,
0,
0,
0,
0,
0,
0,
0,
0,
0,
0,
0,
0,
0,
0,
0,
0,
0,
0,
0,
0,
0,
0,
0,
0,
0,
0,
0,
0,
0,
0,
0,
0,
0,
0,
0,
0,
0,
0,
0,
0,
0,
0,
0,
0,
0,
0,
0,
0,
0,
0,
0,
0,
0,
0,
0,
0,
0,
0,
0,
0,
0,
0,
0,
0,
0,
0,
0,
0,
0,
0,
0,
0,
0,
0,
0,
0,
0,
0,
0,
0,
0,
0,
0,
0,
0,
0,
0,
0,
0,
0,
0,
0,
0,
0,
0,
0,
0,
0,
0,
0,
0,
0,
0,
0,
0,
0,
0,
0,
0,
0,
0,
0,
0,
0,
0,
0,
0,
0,
0,
0,
0,
0,
0,
0,
0,
0,
0,
0,
0,
0,
0,
0,
0,
0,
0,
0,
0,
0,
0,
0,
0,
0,
0,
0,
0,
0,
0,
0,
0,
0,
0,
0,
0,
0,
0,
0,
0,
0,
0,
0,
0,
0,
0,
0,
0,
0,
0,
0,
0,
0,
0,
0,
0,
0,
0,
0,
0,
0,
0,
0,
0,
0,
0,
0,
0,
0,
0,
0,
0,
0,
0,
0,
0,
0,
0,
0,
0,
0,
0,
0,
0,
0,
0,
0,
0,
0,
0,
0,
0,
0,
0,
0,
0,
0,
0,
0,
0,
0,
0,
0,
0,
0,
0,
0,
0,
0,
0,
0,
0,
0,
0,
0,
0,
0,
0,
0,
0,
0,
#ENDOFDATA   :