File: N132962/Standards/15 keV/V std.msa
#FORMAT      : EMSA/MAS Spectral Data File
#VERSION     : 1.0
#TITLE       : V standard for 'N132962' detector
#NPOINTS     : 4096
#NCOLUMNS    : 1
#XUNITS      : eV
#YUNITS      : counts
#DATATYPE    : Y
#SIGNALTYPE  : EDS
#XLABEL      : Energy (eV)
#YLABEL      : Counts
#XPERCHAN -eV: 9.99778
#OFFSET   -eV: 1.69135
#CHOFFSET    : 0
#DATE        : 25-Sep-2025
#TIME        : 23:28:00
#OWNER       : Unknown
#ELEVANGLE   : 35
#BEAMKV   -kV: 15
#LIVETIME  -s: 1679.83
#REALTIME  -s: 1800.17
#PROBECUR -nA: 1.20539
##WORKING -mm: 15
##D2STDCMP   : V,(V:100.0000)
##SIMILAR    : 1.3
#SPECTRUM    :
174,
182,
66,
186,
1188,
5218,
15160,
37720,
81685,
105545,
83012,
80638,
133705,
278384,
529003,
655185,
736808,
743916,
369275,
86935,
24077,
17470,
17936,
19004,
19640,
20217,
21628,
23426,
25703,
27234,
28745,
30245,
31297,
32788,
34833,
35684,
35413,
34962,
35791,
37156,
37346,
38913,
40371,
41350,
41711,
41427,
41876,
42445,
44159,
46295,
46387,
44711,
43852,
43650,
43766,
44792,
45380,
48454,
50184,
49776,
47168,
44238,
41000,
39392,
38840,
38267,
38884,
38382,
38354,
38146,
37564,
37485,
37244,
36946,
36792,
37080,
37353,
37190,
36751,
35680,
35039,
34829,
34725,
34178,
33819,
32981,
33932,
33940,
33733,
32589,
31688,
31458,
31408,
31084,
30769,
30263,
30789,
31405,
33769,
36882,
36539,
33733,
30990,
30805,
32291,
35609,
37852,
37738,
34491,
30140,
27856,
27043,
26442,
25946,
25478,
24991,
24868,
25011,
24570,
23983,
24160,
24065,
24053,
24076,
23572,
23176,
22592,
22366,
21868,
21874,
21785,
21520,
21528,
21286,
21060,
21197,
21019,
20736,
20813,
20710,
20251,
20357,
20131,
19788,
19569,
19521,
19184,
18942,
18806,
19127,
19336,
19158,
18560,
18622,
18557,
19106,
19910,
21375,
23578,
28861,
48293,
121684,
327460,
718444,
1173974,
1385129,
1173070,
716249,
322561,
112751,
39534,
21065,
18094,
17701,
18610,
20472,
25534,
39001,
70458,
121081,
169935,
185593,
155030,
99047,
51785,
25261,
15165,
11831,
10956,
10796,
10830,
10736,
10856,
10674,
10870,
10852,
10800,
10823,
10727,
10674,
10375,
10343,
10185,
10243,
10199,
10238,
9912,
10076,
9838,
9848,
9793,
9879,
9878,
10147,
10014,
9763,
9559,
9533,
9388,
9026,
9207,
8963,
9117,
9054,
9054,
8684,
9054,
8692,
8730,
8731,
8552,
8598,
8449,
8366,
8300,
8469,
8262,
8165,
8039,
8095,
7998,
7916,
7870,
7831,
7856,
7800,
7758,
7669,
7654,
7657,
7740,
7396,
7438,
7368,
7227,
7096,
7159,
6976,
6997,
6983,
6811,
6908,
6878,
6627,
6591,
6834,
6761,
6669,
6613,
6520,
6652,
6370,
6292,
6423,
6338,
6294,
6110,
6103,
5977,
5948,
5923,
5887,
5921,
5699,
5751,
5790,
5537,
5576,
5520,
5502,
5425,
5436,
5264,
5366,
5305,
5229,
5237,
5006,
5041,
5021,
4943,
5041,
4902,
4863,
4824,
4657,
4729,
4698,
4698,
4554,
4584,
4407,
4520,
4516,
4420,
4343,
4356,
4303,
4286,
4242,
4102,
4123,
4146,
4132,
4223,
4254,
4261,
4690,
4888,
5288,
5427,
5122,
4920,
4440,
3978,
3801,
3764,
3580,
3551,
3549,
3526,
3569,
3469,
3515,
3685,
3742,
3609,
3485,
3591,
3319,
3283,
3135,
3118,
3065,
2890,
2984,
2888,
2885,
2779,
2908,
2884,
2740,
2814,
2668,
2740,
2719,
2620,
2553,
2701,
2479,
2450,
2459,
2421,
2398,
2403,
2339,
2302,
2263,
2275,
2104,
2164,
2152,
2140,
2108,
2077,
2017,
1963,
1958,
1963,
1962,
1997,
1885,
1845,
1852,
1833,
1814,
1676,
1722,
1632,
1757,
1660,
1639,
1698,
1588,
1598,
1535,
1524,
1515,
1427,
1465,
1415,
1456,
1317,
1419,
1312,
1272,
1302,
1204,
1233,
1204,
1168,
1218,
1144,
1158,
1031,
1078,
1071,
1092,
1075,
1009,
1008,
938,
895,
950,
889,
933,
865,
883,
862,
860,
812,
825,
772,
755,
723,
741,
716,
721,
624,
617,
627,
635,
606,
585,
541,
538,
559,
546,
522,
490,
469,
484,
464,
414,
426,
395,
388,
380,
383,
362,
330,
309,
282,
284,
293,
274,
241,
238,
224,
212,
194,
211,
163,
166,
158,
116,
134,
129,
112,
114,
106,
99,
69,
74,
60,
56,
45,
40,
23,
32,
19,
26,
13,
22,
11,
10,
12,
18,
15,
18,
19,
20,
14,
13,
21,
18,
12,
18,
8,
8,
9,
17,
8,
10,
11,
9,
13,
6,
8,
13,
12,
11,
8,
4,
7,
8,
14,
3,
11,
6,
12,
8,
3,
3,
11,
5,
3,
7,
10,
6,
8,
7,
5,
7,
10,
14,
3,
8,
5,
3,
6,
5,
3,
9,
7,
8,
5,
7,
7,
3,
6,
8,
10,
9,
8,
8,
10,
11,
4,
7,
5,
8,
3,
7,
8,
8,
1,
6,
6,
6,
5,
8,
7,
5,
4,
5,
7,
3,
2,
5,
7,
8,
1,
8,
2,
10,
6,
3,
7,
3,
6,
2,
6,
2,
6,
4,
5,
1,
3,
3,
1,
1,
4,
2,
6,
3,
0,
0,
0,
1,
2,
2,
3,
2,
4,
0,
0,
4,
2,
3,
5,
4,
2,
2,
2,
6,
1,
1,
2,
1,
0,
2,
2,
1,
0,
2,
1,
1,
2,
0,
0,
1,
3,
3,
2,
0,
0,
0,
0,
0,
3,
0,
1,
0,
0,
0,
1,
1,
0,
2,
1,
2,
0,
0,
1,
1,
0,
0,
1,
0,
1,
0,
0,
0,
0,
1,
0,
0,
1,
1,
0,
1,
2,
1,
0,
0,
2,
0,
0,
0,
0,
2,
0,
0,
0,
1,
0,
0,
0,
0,
0,
0,
0,
0,
1,
0,
1,
0,
0,
0,
0,
0,
0,
0,
0,
0,
0,
0,
0,
0,
0,
0,
0,
0,
0,
0,
0,
0,
0,
0,
0,
1,
0,
1,
0,
0,
0,
0,
1,
0,
1,
1,
0,
0,
0,
0,
0,
0,
0,
0,
0,
0,
0,
0,
0,
0,
0,
0,
0,
0,
0,
1,
0,
1,
0,
0,
0,
0,
0,
0,
0,
0,
0,
0,
0,
1,
0,
1,
0,
1,
0,
0,
0,
0,
0,
1,
0,
0,
0,
0,
0,
0,
0,
0,
0,
0,
0,
0,
0,
0,
0,
0,
0,
0,
1,
1,
0,
1,
0,
0,
0,
0,
0,
0,
0,
0,
0,
0,
0,
0,
0,
0,
1,
0,
0,
0,
0,
0,
1,
0,
0,
0,
0,
0,
0,
0,
0,
0,
0,
0,
0,
0,
0,
0,
0,
0,
0,
0,
0,
0,
0,
0,
0,
0,
0,
0,
0,
0,
0,
0,
0,
0,
0,
0,
0,
0,
0,
0,
1,
0,
0,
0,
0,
0,
0,
0,
0,
0,
0,
0,
0,
0,
0,
0,
0,
0,
0,
0,
0,
0,
0,
0,
0,
0,
0,
0,
0,
0,
0,
0,
0,
0,
0,
0,
0,
0,
0,
0,
0,
0,
0,
0,
0,
0,
0,
0,
0,
0,
0,
0,
0,
0,
0,
0,
0,
0,
0,
0,
0,
0,
0,
0,
0,
0,
0,
0,
0,
0,
0,
0,
0,
0,
0,
0,
0,
0,
0,
0,
0,
0,
0,
0,
0,
0,
0,
0,
0,
0,
0,
0,
0,
0,
0,
0,
0,
0,
0,
0,
0,
0,
0,
0,
0,
0,
0,
0,
0,
0,
0,
0,
0,
0,
0,
0,
0,
0,
0,
0,
0,
0,
0,
0,
0,
0,
0,
0,
0,
0,
0,
0,
0,
0,
0,
0,
0,
0,
0,
0,
0,
0,
0,
0,
0,
0,
0,
0,
0,
0,
0,
0,
0,
0,
0,
0,
0,
0,
1,
0,
0,
0,
0,
0,
0,
0,
0,
0,
0,
0,
0,
0,
0,
0,
0,
0,
0,
0,
0,
0,
0,
0,
0,
0,
0,
0,
0,
0,
0,
0,
0,
0,
0,
0,
0,
0,
0,
0,
0,
0,
0,
0,
0,
0,
0,
0,
0,
0,
0,
0,
0,
0,
0,
0,
0,
0,
0,
0,
0,
0,
0,
0,
0,
0,
0,
0,
0,
0,
0,
0,
0,
0,
0,
0,
0,
0,
0,
0,
0,
0,
0,
0,
0,
0,
0,
0,
0,
0,
0,
0,
0,
0,
0,
0,
0,
0,
0,
0,
0,
0,
0,
0,
0,
0,
0,
0,
0,
0,
0,
0,
0,
0,
0,
0,
0,
0,
0,
0,
0,
0,
0,
0,
0,
0,
0,
0,
0,
0,
0,
0,
0,
0,
0,
0,
0,
0,
0,
0,
0,
0,
0,
0,
0,
0,
0,
0,
0,
0,
0,
0,
0,
0,
0,
0,
0,
0,
0,
0,
0,
0,
0,
0,
0,
0,
0,
0,
0,
0,
0,
0,
0,
0,
0,
0,
0,
0,
0,
0,
0,
0,
0,
0,
0,
0,
0,
0,
0,
0,
0,
0,
0,
0,
0,
0,
0,
1,
0,
0,
0,
0,
0,
0,
0,
0,
0,
0,
0,
0,
0,
0,
0,
0,
0,
0,
0,
0,
0,
0,
0,
0,
0,
0,
0,
0,
0,
0,
0,
0,
0,
0,
0,
0,
0,
0,
0,
0,
0,
0,
0,
0,
0,
0,
0,
0,
0,
0,
0,
0,
0,
0,
0,
0,
0,
0,
0,
0,
0,
0,
0,
0,
0,
0,
0,
0,
0,
0,
0,
0,
0,
0,
0,
0,
0,
0,
0,
0,
0,
0,
0,
0,
0,
0,
0,
0,
0,
0,
0,
0,
0,
0,
0,
0,
0,
0,
0,
0,
0,
0,
0,
0,
0,
0,
0,
0,
0,
0,
0,
0,
0,
0,
0,
0,
0,
0,
0,
0,
0,
0,
#ENDOFDATA   :