File: N132962/Standards/15 keV/W std.msa
#FORMAT      : EMSA/MAS Spectral Data File
#VERSION     : 1.0
#TITLE       : W standard for 'N132962' detector
#NPOINTS     : 4096
#NCOLUMNS    : 1
#XUNITS      : eV
#YUNITS      : counts
#DATATYPE    : Y
#SIGNALTYPE  : EDS
#XLABEL      : Energy (eV)
#YLABEL      : Counts
#XPERCHAN -eV: 9.99778
#OFFSET   -eV: 1.69135
#CHOFFSET    : 0
#DATE        : 27-Sep-2025
#TIME        : 21:10:00
#OWNER       : Unknown
#ELEVANGLE   : 35
#BEAMKV   -kV: 15
#LIVETIME  -s: 2159.07
#REALTIME  -s: 2413.65
#PROBECUR -nA: 1.21182
##WORKING -mm: 15
##D2STDCMP   : W,(W:100.0000)
##SIMILAR    : 1.1
#SPECTRUM    :
233,
242,
158,
614,
3021,
12510,
38768,
78119,
131259,
148159,
93022,
62775,
60759,
61211,
61582,
68528,
81858,
97208,
91891,
79089,
78421,
81711,
87757,
93621,
96437,
98440,
102062,
107600,
114018,
120155,
129311,
136484,
133566,
132036,
133440,
130372,
127946,
127586,
127432,
128715,
129555,
131188,
134242,
146172,
192055,
295278,
361757,
300156,
204862,
158988,
145151,
139867,
138431,
141453,
153397,
189273,
318461,
875439,
2233626,
3509481,
3351907,
2286811,
1216292,
470074,
150503,
83667,
93301,
117118,
121252,
99286,
74219,
62547,
60272,
62041,
63519,
66939,
72405,
77016,
75732,
69710,
63513,
60821,
58754,
57926,
57747,
57402,
56906,
56167,
56490,
56635,
56974,
57469,
58513,
58440,
57744,
57224,
56949,
56550,
56570,
56646,
56816,
56817,
57229,
57324,
58253,
58262,
58542,
58603,
57802,
57696,
58018,
57546,
57202,
57562,
57676,
58369,
59446,
62405,
64556,
65888,
66009,
63333,
60636,
58716,
57009,
56142,
55867,
55874,
55448,
55316,
55380,
54953,
54758,
54860,
54750,
54346,
54459,
54516,
54105,
53476,
53527,
53583,
53120,
53221,
53045,
53017,
52308,
52292,
51581,
52308,
51565,
51338,
51354,
51217,
50557,
50550,
50197,
50288,
49675,
50020,
49397,
48827,
49120,
48511,
48472,
48438,
48305,
47941,
47787,
47435,
47027,
47042,
46896,
46577,
46569,
46006,
46118,
45884,
45500,
45105,
45104,
44973,
45265,
44616,
43922,
43961,
43666,
43396,
43329,
43047,
42350,
42600,
42201,
41536,
41805,
41729,
41315,
41175,
40414,
40095,
40292,
40191,
39701,
39520,
38945,
39338,
38808,
38795,
38634,
38401,
38452,
38755,
38596,
38713,
38860,
38033,
37328,
37103,
36260,
36022,
36111,
36003,
35707,
35378,
35021,
34665,
34579,
34258,
34501,
33865,
34007,
33285,
33505,
33191,
32929,
33064,
32467,
32524,
32522,
31950,
31776,
32233,
32557,
34058,
36398,
38186,
39149,
38779,
36656,
34576,
31995,
30881,
29818,
29716,
29216,
28977,
28694,
28516,
28466,
28328,
27980,
27893,
27711,
27751,
27317,
27515,
27420,
27229,
27341,
27094,
27034,
27140,
27653,
30023,
36067,
50012,
76197,
115845,
160825,
193542,
196715,
169294,
123031,
79008,
49286,
33602,
27413,
25327,
24643,
24606,
24625,
24257,
23970,
23007,
22739,
22083,
22221,
22008,
21689,
21334,
21367,
21012,
20895,
21019,
20570,
20480,
20574,
20327,
20108,
20098,
19839,
19741,
19884,
20002,
21436,
22442,
24444,
27544,
32732,
40763,
51254,
60805,
65123,
62086,
53296,
42938,
35543,
32101,
32863,
37146,
42626,
47526,
47721,
43733,
36209,
29014,
23146,
19865,
18411,
17741,
17179,
16699,
15860,
15219,
14733,
14365,
14258,
13774,
13627,
13654,
13591,
13586,
13635,
13300,
13234,
13122,
12831,
12848,
12764,
12521,
12583,
12545,
12488,
12364,
12381,
12164,
12159,
11923,
11991,
11826,
12086,
12564,
13534,
14995,
16489,
17602,
18065,
17381,
15861,
14045,
12657,
11507,
11031,
10933,
11182,
11173,
11464,
11366,
11333,
11231,
10716,
10190,
9812,
9288,
9027,
8818,
8672,
8636,
8675,
8400,
8496,
8381,
8358,
8218,
8187,
7902,
7593,
7582,
7447,
7285,
7338,
7287,
7106,
6930,
6849,
6715,
6690,
6685,
6518,
6376,
6360,
6413,
6196,
6174,
6007,
5925,
5974,
5738,
5577,
5663,
5496,
5494,
5267,
5231,
5340,
5112,
5003,
4959,
4962,
4731,
4706,
4426,
4485,
4506,
4370,
4259,
4183,
4195,
4104,
4005,
3898,
3847,
3686,
3756,
3618,
3537,
3366,
3459,
3297,
3122,
3128,
3074,
2970,
2907,
2776,
2744,
2593,
2591,
2561,
2503,
2440,
2389,
2267,
2268,
2090,
2044,
1963,
1801,
1790,
1799,
1721,
1564,
1559,
1451,
1385,
1328,
1239,
1153,
1026,
1060,
991,
900,
765,
769,
653,
529,
501,
389,
311,
261,
245,
144,
115,
106,
104,
83,
80,
67,
81,
88,
75,
80,
75,
95,
78,
57,
68,
62,
78,
76,
73,
49,
62,
64,
77,
69,
74,
64,
60,
70,
58,
56,
67,
60,
67,
54,
50,
51,
48,
46,
56,
39,
47,
56,
46,
52,
55,
43,
39,
40,
47,
44,
31,
40,
40,
45,
41,
48,
31,
46,
50,
55,
70,
61,
50,
68,
65,
53,
47,
52,
49,
51,
42,
54,
52,
41,
39,
34,
48,
42,
40,
44,
33,
41,
31,
49,
51,
43,
39,
39,
27,
42,
31,
39,
44,
41,
47,
43,
48,
59,
48,
52,
50,
40,
45,
45,
40,
36,
42,
42,
54,
37,
42,
40,
32,
28,
34,
26,
31,
26,
34,
37,
25,
34,
29,
33,
31,
25,
30,
32,
25,
22,
25,
27,
24,
22,
33,
19,
24,
22,
23,
15,
20,
21,
21,
24,
28,
25,
20,
25,
18,
28,
16,
35,
21,
30,
34,
24,
28,
18,
19,
18,
25,
20,
27,
24,
14,
14,
27,
23,
12,
26,
23,
23,
20,
16,
15,
11,
15,
16,
9,
13,
18,
15,
12,
18,
15,
11,
21,
8,
12,
10,
17,
17,
12,
15,
12,
6,
11,
12,
10,
14,
8,
14,
9,
12,
9,
15,
11,
10,
10,
15,
6,
14,
9,
9,
5,
9,
11,
16,
9,
9,
5,
9,
6,
7,
4,
5,
7,
12,
7,
8,
5,
7,
7,
2,
7,
7,
6,
6,
6,
6,
6,
4,
5,
10,
4,
3,
7,
9,
4,
6,
3,
6,
2,
4,
6,
3,
6,
4,
9,
5,
10,
3,
6,
5,
4,
2,
0,
4,
2,
5,
6,
4,
2,
1,
3,
3,
3,
2,
3,
1,
2,
1,
2,
2,
4,
1,
3,
3,
3,
0,
1,
2,
3,
1,
3,
3,
4,
0,
4,
2,
3,
3,
2,
3,
3,
0,
2,
1,
1,
6,
3,
0,
2,
0,
1,
0,
0,
1,
4,
5,
1,
2,
2,
2,
0,
1,
1,
3,
0,
3,
0,
1,
1,
2,
1,
0,
1,
0,
3,
2,
2,
2,
1,
1,
2,
0,
1,
1,
2,
2,
1,
0,
2,
0,
0,
0,
0,
1,
2,
0,
0,
0,
0,
0,
3,
0,
0,
0,
0,
0,
0,
0,
2,
0,
2,
1,
0,
1,
0,
1,
1,
0,
2,
1,
1,
1,
1,
0,
1,
0,
1,
0,
1,
0,
0,
0,
0,
1,
0,
0,
0,
0,
0,
0,
0,
2,
0,
0,
0,
0,
0,
0,
0,
0,
0,
0,
0,
0,
0,
0,
0,
0,
0,
0,
0,
0,
0,
0,
0,
0,
0,
0,
0,
0,
1,
0,
1,
0,
0,
0,
0,
0,
0,
0,
0,
0,
0,
0,
0,
0,
0,
0,
0,
0,
0,
0,
0,
0,
0,
0,
0,
0,
1,
0,
0,
0,
0,
0,
0,
0,
0,
0,
0,
0,
0,
0,
0,
0,
0,
0,
0,
0,
0,
0,
0,
0,
0,
0,
0,
0,
0,
0,
0,
0,
0,
0,
0,
0,
0,
0,
0,
0,
0,
0,
1,
0,
0,
0,
0,
0,
0,
0,
0,
0,
0,
0,
0,
0,
0,
0,
0,
0,
0,
0,
0,
0,
0,
0,
0,
0,
0,
0,
0,
0,
0,
0,
0,
0,
0,
0,
0,
0,
0,
0,
0,
0,
0,
0,
0,
0,
0,
0,
0,
0,
0,
0,
0,
0,
0,
0,
0,
0,
0,
0,
0,
0,
0,
0,
0,
0,
0,
0,
0,
0,
0,
0,
0,
0,
0,
0,
0,
0,
0,
0,
0,
0,
0,
0,
0,
0,
0,
0,
0,
0,
0,
0,
0,
0,
0,
0,
0,
0,
0,
0,
0,
0,
0,
0,
0,
0,
0,
0,
0,
0,
0,
0,
0,
0,
0,
0,
0,
0,
0,
0,
0,
0,
0,
0,
0,
0,
0,
0,
0,
0,
0,
0,
0,
0,
0,
0,
0,
0,
0,
0,
0,
0,
0,
0,
0,
0,
0,
0,
0,
0,
0,
0,
0,
0,
0,
0,
0,
0,
0,
0,
0,
0,
0,
0,
0,
0,
0,
0,
0,
0,
0,
0,
0,
0,
0,
0,
0,
0,
0,
0,
0,
0,
0,
0,
0,
0,
0,
0,
0,
0,
0,
0,
0,
0,
0,
0,
0,
0,
0,
0,
0,
0,
0,
0,
0,
0,
0,
0,
0,
0,
0,
0,
0,
0,
0,
0,
0,
0,
0,
0,
0,
0,
0,
0,
0,
0,
0,
0,
0,
0,
0,
0,
0,
0,
0,
0,
0,
0,
0,
0,
0,
0,
0,
0,
0,
0,
0,
0,
0,
0,
0,
0,
0,
0,
0,
0,
0,
0,
0,
0,
0,
0,
0,
0,
0,
0,
0,
0,
0,
0,
0,
0,
0,
0,
0,
0,
0,
0,
0,
0,
0,
0,
0,
0,
0,
0,
0,
0,
0,
0,
0,
0,
0,
0,
0,
0,
0,
0,
0,
0,
0,
0,
0,
0,
0,
0,
0,
0,
0,
0,
0,
0,
0,
0,
0,
0,
0,
0,
0,
0,
0,
0,
0,
0,
0,
0,
0,
0,
0,
0,
0,
0,
0,
0,
0,
0,
0,
0,
0,
0,
0,
0,
0,
0,
0,
0,
0,
0,
0,
0,
0,
0,
0,
0,
0,
0,
0,
0,
0,
0,
#ENDOFDATA   :