File: N132962/Standards/15 keV/Y std.msa
#FORMAT      : EMSA/MAS Spectral Data File
#VERSION     : 1.0
#TITLE       : Y standard for 'N132962' detector
#NPOINTS     : 4096
#NCOLUMNS    : 1
#XUNITS      : eV
#YUNITS      : counts
#DATATYPE    : Y
#SIGNALTYPE  : EDS
#XLABEL      : Energy (eV)
#YLABEL      : Counts
#XPERCHAN -eV: 9.99778
#OFFSET   -eV: 1.69135
#CHOFFSET    : 0
#DATE        : 30-Sep-2025
#TIME        : 17:38:00
#OWNER       : Unknown
#ELEVANGLE   : 35
#BEAMKV   -kV: 15
#LIVETIME  -s: 1681.6
#REALTIME  -s: 1845.27
#PROBECUR -nA: 1.23077
##WORKING -mm: 15
##D2STDCMP   : Y,(Y:100.0000)
##SIMILAR    : 3.9
#SPECTRUM    :
188,
171,
201,
1902,
9838,
27164,
47078,
50921,
73699,
76767,
46437,
34859,
35152,
36311,
40711,
66667,
161149,
276173,
213326,
86290,
65153,
129283,
233494,
211139,
101141,
55864,
52623,
55249,
58496,
60222,
61507,
62744,
63783,
65780,
67220,
68973,
70230,
71343,
72481,
73305,
74426,
75880,
76763,
77702,
78706,
79543,
79983,
80779,
81739,
82138,
82812,
81530,
80894,
84185,
104759,
152528,
198359,
196941,
174168,
167587,
197681,
340785,
825646,
1784299,
2488289,
2243457,
1657805,
1166787,
681686,
344326,
176143,
91204,
53158,
39791,
34838,
34005,
36512,
41464,
43814,
41393,
36039,
32496,
31691,
31428,
31160,
32091,
32757,
33447,
33201,
32398,
31753,
31239,
31505,
31102,
31517,
31298,
31387,
31400,
31405,
31479,
31594,
31234,
31508,
31567,
30961,
31518,
31104,
31099,
30941,
30899,
30995,
30578,
30733,
30806,
30288,
30163,
30352,
30090,
30342,
29901,
30428,
30521,
29795,
30239,
30360,
30459,
31750,
32967,
34452,
34811,
34149,
33300,
32102,
30873,
29465,
28790,
27848,
27148,
26993,
27257,
26711,
26676,
26700,
26564,
26074,
26181,
25896,
26230,
26535,
27940,
28487,
27800,
26822,
25703,
24858,
24379,
24370,
24119,
24082,
23825,
23686,
23769,
23828,
23840,
23538,
23254,
23123,
22984,
22778,
22523,
22319,
22335,
21862,
21787,
21856,
21542,
21417,
21159,
21555,
21034,
20786,
20926,
20467,
20504,
20544,
20291,
19900,
19814,
19797,
19669,
19497,
19542,
19299,
19089,
19178,
19086,
18744,
18593,
18585,
18686,
17907,
18026,
18143,
17829,
17883,
17767,
17465,
17505,
17363,
17348,
17210,
17380,
17541,
17347,
16953,
16873,
16726,
16094,
16152,
16027,
15977,
15900,
15872,
15453,
15391,
15407,
15308,
14988,
14938,
14882,
14777,
14723,
14716,
14636,
14429,
14344,
14402,
14119,
14067,
13904,
13835,
13382,
13587,
13473,
13216,
13315,
13414,
13056,
13408,
13258,
13007,
12947,
12580,
12430,
12372,
12306,
12301,
12163,
12227,
12053,
11808,
11756,
11707,
11643,
11546,
11377,
11399,
11290,
11212,
11125,
11135,
10876,
10871,
10752,
10670,
10754,
10517,
10552,
10377,
10243,
10131,
10126,
9969,
10038,
9895,
9935,
9938,
9658,
9665,
9514,
9440,
9347,
9156,
8989,
9207,
9046,
9088,
8780,
8837,
8705,
8754,
8486,
8313,
8533,
8307,
8414,
8083,
8164,
8213,
8175,
7850,
7904,
8025,
7730,
7736,
7666,
7619,
7751,
7418,
7521,
7281,
7349,
7284,
7179,
7106,
6955,
6965,
6835,
6878,
6866,
6766,
6753,
6705,
6557,
6570,
6453,
6466,
6303,
6125,
6114,
6183,
6083,
5916,
5916,
5961,
5844,
5757,
5788,
5670,
5504,
5539,
5580,
5429,
5265,
5457,
5151,
5234,
5013,
5245,
5107,
5076,
4895,
5000,
4915,
4759,
4751,
4634,
4669,
4600,
4441,
4519,
4375,
4356,
4329,
4333,
4214,
4068,
4160,
3931,
3946,
3892,
3897,
3921,
3898,
3913,
3734,
3631,
3665,
3599,
3537,
3551,
3480,
3405,
3367,
3242,
3264,
3151,
3280,
3123,
3023,
3088,
3082,
3057,
2899,
2915,
2880,
2786,
2779,
2744,
2739,
2710,
2586,
2550,
2515,
2486,
2486,
2465,
2348,
2209,
2298,
2324,
2183,
2181,
2148,
2065,
1985,
1985,
2049,
1939,
1948,
1830,
1776,
1839,
1672,
1664,
1700,
1659,
1610,
1530,
1604,
1572,
1542,
1404,
1499,
1457,
1370,
1368,
1337,
1276,
1259,
1150,
1222,
1177,
1123,
1128,
1080,
1018,
1032,
1028,
949,
992,
890,
898,
848,
837,
761,
764,
750,
713,
693,
642,
659,
642,
572,
499,
508,
494,
438,
441,
433,
434,
398,
360,
382,
311,
326,
300,
273,
249,
230,
198,
189,
158,
159,
114,
109,
95,
80,
71,
58,
33,
19,
24,
21,
29,
16,
20,
15,
24,
21,
24,
19,
22,
22,
17,
13,
15,
16,
11,
16,
14,
17,
10,
10,
19,
12,
15,
19,
11,
11,
7,
8,
15,
14,
9,
8,
15,
8,
9,
7,
14,
9,
8,
11,
7,
16,
8,
8,
5,
3,
5,
7,
3,
13,
5,
7,
7,
5,
5,
7,
7,
6,
8,
8,
4,
8,
6,
4,
6,
11,
7,
7,
7,
6,
4,
6,
9,
4,
3,
6,
5,
5,
7,
4,
6,
7,
7,
8,
7,
10,
4,
4,
10,
9,
9,
5,
4,
8,
7,
7,
9,
3,
5,
2,
5,
2,
6,
9,
5,
2,
3,
10,
5,
0,
3,
2,
3,
2,
5,
6,
4,
4,
1,
5,
0,
3,
4,
6,
3,
6,
4,
6,
4,
10,
3,
9,
2,
4,
6,
1,
2,
7,
5,
4,
7,
2,
1,
1,
1,
5,
6,
4,
3,
2,
4,
3,
3,
2,
1,
3,
2,
3,
2,
2,
3,
3,
2,
1,
2,
2,
1,
1,
4,
2,
1,
0,
1,
2,
2,
2,
1,
0,
1,
2,
2,
1,
0,
2,
1,
2,
0,
1,
3,
2,
2,
5,
0,
0,
2,
1,
1,
2,
1,
2,
2,
0,
0,
2,
0,
0,
1,
0,
3,
1,
1,
0,
1,
1,
2,
1,
1,
0,
0,
0,
2,
1,
0,
3,
0,
1,
4,
1,
0,
3,
1,
1,
1,
0,
1,
0,
2,
0,
0,
3,
1,
0,
1,
0,
0,
0,
0,
0,
0,
0,
0,
2,
0,
0,
1,
0,
2,
2,
0,
1,
0,
0,
1,
0,
0,
1,
0,
0,
0,
0,
1,
0,
0,
0,
3,
0,
2,
0,
2,
0,
2,
0,
1,
1,
0,
2,
1,
0,
0,
0,
1,
1,
0,
0,
2,
1,
0,
0,
0,
0,
0,
1,
1,
0,
1,
0,
0,
0,
0,
0,
0,
0,
1,
0,
0,
0,
0,
0,
0,
0,
0,
0,
1,
0,
0,
0,
0,
0,
1,
0,
0,
0,
0,
0,
0,
1,
1,
0,
0,
0,
1,
0,
0,
0,
0,
0,
0,
0,
0,
0,
0,
0,
0,
0,
1,
0,
0,
0,
0,
0,
0,
0,
0,
1,
0,
0,
0,
0,
0,
0,
0,
0,
0,
0,
0,
0,
0,
0,
0,
0,
1,
1,
0,
0,
0,
0,
0,
0,
0,
0,
0,
0,
0,
0,
0,
0,
0,
0,
0,
0,
0,
0,
0,
0,
0,
0,
0,
0,
0,
0,
0,
0,
0,
0,
0,
0,
0,
0,
0,
0,
0,
0,
0,
0,
0,
0,
0,
0,
0,
0,
0,
0,
0,
0,
0,
0,
0,
0,
0,
0,
0,
0,
0,
0,
0,
0,
0,
0,
0,
0,
0,
0,
0,
0,
0,
0,
0,
0,
0,
0,
0,
0,
0,
0,
0,
0,
0,
0,
0,
0,
0,
0,
0,
0,
0,
0,
0,
0,
0,
0,
0,
0,
0,
0,
0,
0,
0,
0,
0,
0,
0,
0,
0,
0,
0,
0,
0,
0,
0,
0,
0,
0,
0,
0,
0,
0,
0,
0,
0,
0,
0,
0,
0,
0,
0,
0,
0,
0,
0,
0,
0,
0,
0,
0,
0,
0,
0,
0,
0,
0,
0,
0,
0,
0,
0,
0,
0,
0,
0,
0,
0,
0,
0,
0,
0,
0,
0,
0,
0,
0,
0,
0,
0,
0,
0,
0,
0,
0,
0,
0,
0,
0,
0,
0,
0,
0,
0,
0,
0,
0,
0,
0,
0,
0,
0,
0,
0,
0,
0,
0,
0,
0,
0,
0,
0,
0,
0,
0,
0,
0,
0,
0,
0,
0,
0,
0,
0,
0,
0,
0,
0,
0,
0,
0,
0,
0,
0,
0,
0,
0,
0,
0,
0,
0,
0,
0,
0,
0,
0,
0,
0,
0,
0,
0,
0,
0,
0,
0,
0,
0,
0,
0,
0,
0,
0,
0,
0,
0,
0,
0,
0,
0,
0,
0,
0,
0,
0,
0,
0,
0,
0,
0,
0,
0,
0,
0,
0,
0,
0,
0,
0,
0,
0,
0,
0,
0,
0,
0,
0,
0,
0,
0,
0,
0,
0,
0,
0,
0,
0,
0,
0,
0,
0,
0,
0,
0,
0,
0,
0,
0,
0,
0,
0,
0,
0,
0,
0,
0,
0,
0,
0,
0,
0,
0,
0,
0,
0,
0,
0,
0,
0,
0,
0,
0,
0,
0,
0,
0,
0,
0,
0,
0,
0,
0,
0,
0,
0,
0,
0,
0,
0,
0,
0,
0,
0,
0,
0,
0,
0,
0,
0,
0,
0,
0,
0,
0,
0,
0,
0,
0,
0,
0,
0,
0,
0,
0,
0,
0,
0,
0,
0,
0,
0,
0,
0,
0,
0,
0,
0,
0,
0,
0,
0,
0,
0,
0,
0,
0,
0,
0,
0,
0,
0,
0,
0,
0,
0,
0,
0,
0,
0,
0,
0,
0,
0,
0,
0,
0,
0,
0,
0,
0,
0,
0,
0,
0,
0,
0,
0,
0,
0,
0,
0,
0,
0,
0,
0,
0,
0,
0,
0,
0,
0,
0,
0,
0,
0,
0,
0,
0,
0,
0,
0,
0,
0,
0,
0,
0,
0,
0,
0,
0,
0,
0,
0,
0,
0,
0,
0,
0,
0,
0,
0,
0,
0,
0,
0,
0,
0,
0,
0,
0,
#ENDOFDATA   :