File: N132962/Standards/15 keV/Yb std.msa
#FORMAT      : EMSA/MAS Spectral Data File
#VERSION     : 1.0
#TITLE       : Yb standard for 'N132962' detector
#NPOINTS     : 4096
#NCOLUMNS    : 1
#XUNITS      : eV
#YUNITS      : counts
#DATATYPE    : Y
#SIGNALTYPE  : EDS
#XLABEL      : Energy (eV)
#YLABEL      : Counts
#XPERCHAN -eV: 9.99778
#OFFSET   -eV: 1.69135
#CHOFFSET    : 0
#DATE        : 26-Sep-2025
#TIME        : 18:25:00
#OWNER       : Unknown
#ELEVANGLE   : 35
#BEAMKV   -kV: 15
#LIVETIME  -s: 1200.35
#REALTIME  -s: 1321.62
#PROBECUR -nA: 1.21629
##WORKING -mm: 15
##D2STDCMP   : Yb,(Yb:100.0000)
##SIMILAR    : 5.9
#SPECTRUM    :
121,
132,
68,
220,
1562,
7023,
17222,
30132,
57364,
70725,
49800,
38773,
38966,
41100,
45447,
64272,
131017,
210564,
164514,
76808,
55899,
70338,
97995,
95984,
70534,
58412,
58253,
60664,
63357,
64400,
64090,
65045,
65902,
67531,
69111,
70455,
74713,
94117,
149840,
213591,
196865,
127956,
88822,
77851,
76634,
77008,
82570,
104661,
200755,
551759,
1155915,
1422056,
1045284,
511009,
180667,
64917,
46067,
56495,
71988,
72985,
56862,
42190,
35427,
34185,
35771,
38189,
40284,
38812,
36040,
33691,
32069,
31546,
30661,
30701,
30632,
30447,
30717,
31164,
31800,
31489,
31575,
31030,
31287,
31012,
31230,
31151,
31897,
32093,
32573,
32329,
32301,
32169,
31725,
32125,
31778,
31915,
31734,
31967,
32314,
32262,
33099,
33777,
34037,
34247,
33127,
32290,
32007,
31477,
31361,
30990,
30943,
30913,
31162,
30698,
30836,
30389,
30673,
30671,
30344,
30363,
30461,
30284,
30876,
31418,
30600,
30484,
29885,
29727,
29159,
29388,
29354,
29326,
29094,
28961,
29182,
28545,
28592,
28562,
28334,
27730,
28186,
28066,
27567,
27897,
27639,
27442,
27014,
27234,
26977,
26891,
27150,
26384,
26526,
26398,
26023,
26004,
25757,
25596,
25437,
25925,
25253,
25378,
24962,
24923,
25165,
24795,
24563,
24366,
24096,
24353,
24145,
24282,
23922,
23418,
23250,
23577,
23325,
23232,
23530,
23598,
23560,
23212,
23095,
22670,
22310,
22094,
22144,
22490,
22158,
22085,
21763,
21871,
21406,
21149,
20938,
20739,
20722,
20799,
20539,
20562,
20192,
20146,
19975,
19980,
19723,
19415,
19721,
19382,
19360,
19239,
19571,
19900,
20640,
21184,
21558,
21875,
23311,
24437,
25171,
24296,
22549,
20398,
18967,
18206,
17790,
17608,
17294,
17412,
17159,
16817,
16690,
16931,
16798,
16927,
16721,
17093,
16760,
16528,
16221,
16701,
17489,
19927,
26584,
42789,
72368,
113835,
152000,
166482,
150812,
110474,
69364,
39910,
25248,
18841,
16507,
15538,
14684,
14639,
14051,
13905,
13676,
13612,
13599,
13539,
13338,
13317,
13302,
13201,
13343,
13125,
13083,
13116,
13275,
14334,
16199,
19785,
27044,
37157,
50495,
61237,
65652,
60734,
49036,
37385,
28481,
23229,
19769,
18646,
20192,
24862,
30998,
35401,
35781,
32416,
25758,
19213,
14935,
12622,
11396,
10652,
10231,
10047,
9474,
9401,
9272,
9188,
9279,
9166,
9067,
8936,
8979,
9198,
9021,
8916,
8814,
8936,
9027,
9148,
8980,
9051,
9133,
9562,
10721,
12357,
14111,
15987,
16433,
15276,
13437,
11310,
9684,
9123,
8514,
8581,
8709,
9115,
9640,
9966,
9720,
9142,
8528,
7927,
7538,
7134,
7268,
7060,
7000,
7011,
6986,
7056,
6835,
6702,
6492,
6452,
6239,
6187,
6074,
6184,
5940,
6028,
5981,
5831,
6017,
5777,
5763,
5764,
5730,
5457,
5544,
5529,
5461,
5500,
5321,
5315,
5113,
5233,
5045,
5187,
5151,
5011,
4816,
4762,
4937,
4841,
4793,
4615,
4669,
4595,
4574,
4387,
4354,
4341,
4377,
4265,
4286,
4160,
4164,
4018,
4149,
3943,
3910,
3827,
3840,
3850,
3686,
3743,
3682,
3650,
3590,
3450,
3480,
3501,
3309,
3298,
3335,
3186,
3124,
3222,
3079,
3129,
3012,
2969,
2841,
2918,
2848,
2729,
2731,
2768,
2640,
2653,
2571,
2656,
2400,
2462,
2388,
2369,
2337,
2333,
2270,
2230,
2119,
2168,
2117,
2014,
2068,
1985,
1913,
1885,
1888,
1791,
1713,
1768,
1750,
1624,
1589,
1620,
1494,
1488,
1494,
1451,
1364,
1367,
1397,
1311,
1269,
1232,
1178,
1152,
1069,
1144,
1006,
1027,
953,
982,
903,
832,
847,
834,
789,
725,
705,
682,
633,
592,
572,
506,
523,
505,
479,
395,
402,
357,
338,
296,
290,
241,
210,
185,
140,
97,
80,
61,
45,
46,
34,
38,
30,
29,
32,
40,
35,
28,
35,
36,
37,
29,
29,
29,
30,
33,
35,
35,
44,
28,
35,
31,
50,
42,
47,
20,
31,
34,
35,
35,
30,
22,
21,
32,
32,
31,
28,
29,
27,
20,
23,
29,
13,
18,
24,
23,
17,
15,
20,
22,
25,
29,
21,
15,
19,
20,
19,
25,
26,
28,
25,
28,
32,
28,
29,
31,
27,
30,
33,
28,
38,
29,
21,
27,
27,
37,
16,
19,
21,
30,
19,
23,
15,
21,
23,
16,
21,
19,
21,
9,
17,
19,
19,
20,
18,
14,
18,
16,
16,
14,
15,
19,
24,
16,
19,
11,
15,
21,
22,
18,
16,
17,
20,
11,
17,
12,
20,
14,
7,
8,
10,
14,
19,
15,
12,
8,
16,
10,
12,
11,
15,
14,
10,
10,
13,
8,
8,
16,
16,
7,
5,
7,
7,
6,
11,
7,
14,
7,
9,
6,
10,
5,
5,
10,
9,
8,
8,
8,
9,
12,
14,
7,
6,
10,
7,
7,
3,
4,
5,
10,
6,
8,
3,
4,
4,
4,
7,
11,
2,
7,
9,
2,
5,
4,
5,
3,
10,
9,
7,
9,
5,
3,
7,
6,
5,
3,
2,
3,
4,
5,
5,
3,
1,
4,
5,
7,
3,
3,
1,
3,
3,
2,
3,
1,
3,
6,
3,
3,
5,
6,
3,
1,
2,
2,
6,
4,
4,
3,
4,
1,
2,
0,
2,
1,
2,
4,
0,
2,
3,
0,
4,
2,
4,
1,
3,
2,
1,
1,
4,
3,
2,
3,
4,
2,
2,
2,
0,
2,
3,
3,
3,
0,
0,
2,
2,
4,
1,
0,
1,
1,
1,
0,
0,
2,
0,
1,
0,
1,
2,
0,
1,
0,
0,
0,
1,
0,
2,
4,
1,
1,
1,
0,
0,
1,
2,
2,
0,
0,
0,
0,
2,
2,
1,
1,
0,
0,
0,
1,
0,
0,
0,
0,
0,
0,
2,
0,
0,
0,
1,
0,
0,
0,
0,
0,
0,
1,
0,
1,
0,
0,
0,
0,
1,
1,
0,
0,
0,
0,
0,
0,
1,
0,
0,
0,
0,
1,
1,
0,
2,
0,
1,
0,
1,
0,
0,
0,
0,
0,
0,
1,
0,
0,
0,
0,
0,
1,
0,
0,
0,
0,
0,
0,
0,
0,
0,
0,
0,
0,
0,
0,
0,
0,
0,
0,
0,
0,
0,
1,
0,
0,
0,
0,
0,
0,
0,
0,
0,
1,
0,
0,
1,
0,
0,
1,
0,
0,
1,
0,
1,
0,
1,
0,
0,
0,
0,
0,
0,
0,
0,
0,
0,
0,
0,
0,
1,
0,
0,
0,
0,
0,
0,
0,
0,
0,
0,
2,
0,
0,
0,
0,
0,
0,
0,
0,
0,
0,
0,
0,
0,
0,
0,
0,
0,
0,
0,
1,
0,
0,
0,
0,
0,
0,
0,
0,
0,
0,
0,
0,
0,
0,
0,
0,
0,
0,
0,
0,
0,
0,
0,
0,
0,
0,
0,
0,
0,
0,
0,
0,
0,
0,
0,
0,
0,
0,
0,
0,
0,
0,
0,
0,
0,
0,
0,
0,
0,
0,
0,
0,
0,
0,
0,
0,
0,
0,
0,
0,
0,
0,
0,
0,
0,
0,
0,
0,
0,
0,
0,
0,
0,
0,
0,
0,
0,
0,
0,
0,
0,
0,
0,
0,
0,
0,
0,
0,
0,
0,
0,
0,
0,
0,
0,
0,
0,
0,
0,
0,
0,
0,
0,
0,
0,
0,
0,
0,
0,
0,
0,
0,
0,
0,
0,
0,
0,
0,
0,
0,
0,
0,
0,
0,
0,
0,
0,
0,
0,
0,
0,
0,
0,
0,
0,
0,
0,
0,
0,
0,
0,
0,
0,
0,
0,
0,
0,
0,
0,
0,
0,
0,
0,
0,
0,
0,
0,
0,
0,
0,
0,
0,
0,
0,
0,
0,
0,
0,
0,
0,
0,
0,
0,
0,
0,
0,
0,
0,
0,
0,
0,
0,
0,
0,
0,
0,
0,
0,
0,
0,
0,
0,
0,
0,
0,
0,
0,
0,
0,
0,
0,
0,
0,
0,
0,
0,
0,
0,
0,
0,
0,
0,
0,
0,
0,
0,
0,
0,
0,
0,
0,
0,
0,
0,
0,
0,
0,
0,
0,
0,
0,
0,
0,
0,
0,
0,
0,
0,
0,
0,
0,
0,
0,
0,
0,
0,
0,
0,
0,
0,
0,
0,
0,
0,
0,
0,
0,
0,
0,
0,
0,
0,
0,
0,
0,
0,
0,
0,
0,
0,
0,
0,
0,
0,
0,
0,
0,
0,
0,
0,
0,
0,
0,
0,
0,
0,
0,
0,
0,
0,
0,
0,
0,
0,
0,
0,
0,
0,
0,
0,
0,
0,
0,
0,
0,
0,
0,
0,
0,
0,
0,
0,
0,
0,
0,
0,
0,
0,
0,
0,
0,
0,
0,
0,
0,
0,
0,
0,
0,
0,
0,
0,
0,
0,
0,
0,
0,
0,
0,
0,
0,
0,
0,
0,
0,
0,
0,
0,
0,
0,
0,
0,
0,
0,
0,
0,
0,
0,
0,
0,
0,
0,
0,
0,
0,
0,
0,
0,
0,
0,
0,
0,
0,
0,
0,
0,
0,
0,
0,
0,
0,
0,
0,
0,
0,
0,
0,
0,
0,
0,
0,
0,
0,
0,
0,
0,
0,
0,
0,
0,
0,
0,
0,
0,
0,
0,
#ENDOFDATA   :