File: N132962/Standards/15 keV/YbP5O14 std.msa
#FORMAT      : EMSA/MAS Spectral Data File
#VERSION     : 1.0
#TITLE       : YbP5O14 standard for 'N132962' detector
#NPOINTS     : 4096
#NCOLUMNS    : 1
#XUNITS      : eV
#YUNITS      : counts
#DATATYPE    : Y
#SIGNALTYPE  : EDS
#XLABEL      : Energy (eV)
#YLABEL      : Counts
#XPERCHAN -eV: 9.99778
#OFFSET   -eV: 1.69135
#CHOFFSET    : 0
#DATE        : 17-Mar-2025
#TIME        : 15:53:00
#OWNER       : Unknown
#ELEVANGLE   : 35
#BEAMKV   -kV: 15
#LIVETIME  -s: 1198.85
#REALTIME  -s: 1267.74
#PROBECUR -nA: 1.0242
##WORKING -mm: 15
##D2STDCMP   : YbP5O14,(O:40.5845),(P:28.0610),(Yb:31.3544)
##SIMILAR    : 1.1
#SPECTRUM    :
127,
131,
48,
222,
849,
2740,
7604,
22401,
68884,
95124,
49937,
21827,
22217,
27477,
38101,
111045,
411346,
789346,
578040,
157696,
28618,
16896,
17626,
19729,
20268,
20657,
21176,
22527,
23664,
24373,
24802,
25146,
25746,
26887,
28106,
29102,
29899,
33639,
46371,
60724,
57982,
42922,
33656,
31041,
30608,
31111,
32075,
36420,
57726,
137891,
289697,
376311,
308270,
171993,
72803,
33608,
26438,
30116,
35971,
37552,
32131,
27570,
28544,
40573,
82946,
215194,
473402,
658454,
517860,
237670,
88918,
52822,
40525,
26605,
18054,
15110,
14589,
14484,
14388,
14564,
14321,
14323,
14660,
15200,
15519,
15425,
14801,
14496,
14233,
14196,
13903,
13891,
13821,
13780,
13795,
13631,
13545,
13556,
13666,
13613,
13501,
13471,
13478,
13240,
13397,
12970,
13009,
13037,
12769,
12774,
12828,
12666,
12615,
12498,
12390,
12344,
12495,
12752,
12513,
12675,
12384,
12138,
11746,
11935,
12033,
11438,
11258,
11293,
11340,
11210,
11129,
11221,
11246,
11309,
11299,
11029,
10832,
10676,
10637,
10469,
10462,
10277,
10024,
10314,
10044,
10142,
9971,
9749,
9733,
9634,
9732,
9573,
9492,
9530,
9483,
9133,
9135,
9198,
9169,
8956,
8805,
9005,
8803,
8624,
8857,
8565,
8497,
8342,
8306,
8453,
8400,
8133,
8211,
8184,
8072,
7839,
8116,
7786,
7679,
7858,
7698,
7854,
7582,
7636,
7464,
7555,
7490,
7595,
7384,
7252,
7208,
7112,
7173,
6973,
7083,
6991,
7027,
6870,
6802,
6694,
6658,
6468,
6444,
6632,
6442,
6307,
6197,
6251,
6082,
6225,
6325,
6274,
6546,
6729,
6584,
6752,
6753,
7063,
7166,
7163,
6550,
6119,
5941,
5719,
5460,
5526,
5613,
5442,
5438,
5426,
5456,
5302,
5399,
5211,
5317,
5305,
5098,
5112,
5117,
5022,
5185,
5798,
7078,
10143,
16354,
24797,
32327,
35544,
32086,
23851,
15707,
9775,
6617,
5312,
4788,
4515,
4502,
4409,
4372,
4213,
4250,
4140,
4192,
4108,
4176,
4087,
4045,
3992,
3943,
3851,
3914,
3837,
3975,
4147,
4570,
4970,
6501,
8525,
10906,
13413,
13941,
12731,
10814,
8579,
6683,
5516,
5124,
4884,
5013,
5885,
7127,
8047,
8414,
7532,
6335,
4974,
4140,
3513,
3224,
3110,
3167,
3037,
2856,
2863,
2769,
2864,
2832,
2786,
2713,
2697,
2786,
2710,
2748,
2623,
2690,
2716,
2644,
2565,
2678,
2557,
2675,
2670,
2875,
3372,
3583,
3871,
4111,
3769,
3443,
3003,
2685,
2393,
2332,
2361,
2368,
2456,
2567,
2608,
2596,
2450,
2317,
2206,
2084,
1998,
1949,
1974,
2054,
1925,
2016,
1972,
2003,
1934,
1842,
1835,
1827,
1741,
1770,
1736,
1675,
1588,
1661,
1681,
1637,
1612,
1628,
1601,
1621,
1539,
1554,
1456,
1551,
1496,
1444,
1426,
1397,
1424,
1483,
1401,
1436,
1338,
1383,
1358,
1213,
1273,
1239,
1264,
1259,
1271,
1157,
1142,
1208,
1196,
1168,
1083,
1165,
1139,
1082,
1049,
1128,
1029,
973,
1027,
1099,
941,
958,
976,
959,
908,
873,
948,
884,
860,
869,
860,
791,
795,
747,
807,
776,
750,
749,
742,
692,
712,
685,
699,
651,
655,
574,
627,
661,
585,
591,
572,
577,
529,
562,
577,
503,
543,
537,
503,
478,
475,
479,
456,
438,
405,
387,
426,
347,
386,
404,
346,
361,
334,
334,
336,
336,
301,
319,
327,
302,
300,
240,
253,
245,
260,
252,
225,
226,
220,
192,
198,
198,
196,
165,
143,
154,
136,
150,
145,
118,
127,
110,
102,
92,
88,
69,
66,
55,
68,
57,
49,
49,
45,
22,
17,
18,
11,
8,
11,
4,
7,
5,
8,
1,
4,
3,
2,
3,
3,
6,
2,
4,
3,
2,
5,
3,
4,
1,
2,
2,
2,
2,
2,
7,
4,
5,
4,
6,
4,
3,
3,
3,
1,
0,
4,
3,
3,
1,
2,
3,
4,
1,
1,
0,
1,
1,
1,
2,
1,
1,
2,
0,
0,
6,
0,
1,
1,
1,
6,
0,
2,
2,
2,
2,
2,
1,
0,
3,
3,
3,
1,
0,
4,
4,
2,
4,
0,
0,
3,
2,
2,
3,
1,
2,
0,
0,
0,
0,
3,
1,
0,
1,
1,
1,
1,
0,
2,
1,
2,
1,
1,
2,
1,
2,
0,
4,
0,
1,
2,
0,
0,
2,
0,
2,
1,
1,
1,
2,
0,
2,
2,
1,
1,
0,
1,
0,
0,
0,
1,
0,
0,
2,
0,
1,
3,
0,
0,
0,
1,
1,
1,
0,
1,
2,
1,
1,
1,
2,
0,
1,
0,
2,
0,
0,
1,
2,
0,
1,
0,
2,
0,
0,
0,
1,
0,
0,
1,
0,
0,
0,
0,
0,
0,
0,
0,
1,
1,
0,
0,
0,
0,
0,
1,
2,
0,
1,
0,
1,
0,
0,
0,
0,
1,
0,
0,
0,
0,
1,
1,
0,
0,
0,
1,
0,
2,
1,
0,
0,
0,
0,
0,
0,
1,
0,
0,
0,
1,
1,
0,
0,
0,
0,
0,
0,
0,
0,
0,
0,
0,
0,
0,
1,
0,
0,
0,
0,
0,
0,
0,
0,
1,
0,
1,
0,
0,
0,
0,
0,
0,
0,
0,
0,
0,
0,
0,
0,
0,
0,
0,
0,
1,
0,
0,
0,
0,
0,
0,
1,
0,
0,
0,
0,
0,
0,
0,
0,
0,
1,
0,
0,
0,
0,
0,
0,
0,
0,
0,
0,
0,
0,
0,
0,
0,
0,
0,
0,
0,
0,
0,
0,
0,
0,
0,
0,
0,
0,
0,
0,
0,
0,
0,
0,
0,
0,
0,
0,
0,
0,
0,
0,
0,
0,
0,
0,
0,
0,
0,
0,
0,
0,
0,
0,
0,
0,
0,
0,
0,
0,
0,
0,
0,
0,
0,
0,
0,
0,
0,
0,
0,
0,
0,
0,
0,
0,
0,
0,
0,
0,
0,
0,
0,
0,
0,
0,
0,
0,
0,
0,
0,
0,
0,
0,
0,
0,
0,
0,
0,
0,
0,
0,
0,
0,
0,
0,
0,
0,
0,
0,
0,
0,
0,
0,
0,
0,
0,
0,
0,
0,
0,
0,
0,
0,
0,
0,
0,
0,
0,
0,
0,
0,
0,
0,
0,
0,
0,
0,
0,
0,
0,
0,
0,
0,
0,
0,
0,
0,
0,
0,
0,
0,
0,
0,
0,
0,
0,
0,
0,
0,
0,
0,
0,
0,
0,
0,
0,
0,
0,
0,
0,
0,
0,
0,
0,
0,
0,
0,
0,
0,
0,
0,
0,
0,
0,
0,
0,
0,
0,
0,
0,
0,
0,
0,
0,
0,
0,
0,
0,
0,
0,
0,
0,
0,
0,
0,
0,
0,
0,
0,
0,
0,
0,
0,
0,
0,
0,
0,
0,
0,
0,
0,
0,
0,
0,
0,
0,
0,
0,
0,
0,
0,
0,
0,
0,
0,
0,
0,
0,
0,
0,
0,
0,
0,
0,
0,
0,
0,
0,
0,
0,
0,
0,
0,
0,
0,
0,
0,
0,
0,
0,
0,
0,
0,
0,
0,
0,
0,
0,
0,
0,
0,
0,
0,
0,
0,
0,
0,
0,
0,
0,
0,
0,
0,
0,
0,
0,
0,
0,
0,
0,
0,
0,
0,
0,
0,
0,
0,
0,
0,
0,
0,
0,
0,
0,
0,
0,
0,
0,
0,
0,
0,
0,
0,
0,
0,
0,
0,
0,
0,
0,
0,
0,
0,
0,
0,
0,
0,
0,
0,
0,
0,
0,
0,
0,
0,
0,
0,
0,
0,
0,
0,
0,
0,
0,
0,
0,
0,
0,
0,
0,
0,
0,
0,
0,
0,
0,
0,
0,
0,
0,
0,
0,
0,
0,
0,
0,
0,
0,
0,
0,
0,
0,
0,
0,
0,
0,
0,
0,
0,
0,
0,
0,
0,
0,
0,
0,
0,
0,
0,
0,
0,
0,
0,
0,
0,
0,
0,
0,
0,
0,
0,
0,
0,
0,
0,
0,
0,
0,
0,
0,
0,
0,
0,
0,
0,
0,
0,
0,
0,
0,
0,
0,
0,
0,
0,
0,
0,
0,
0,
0,
0,
0,
0,
0,
0,
0,
0,
0,
0,
0,
0,
0,
0,
0,
0,
0,
0,
0,
0,
0,
0,
0,
0,
0,
0,
0,
0,
0,
0,
0,
0,
0,
0,
0,
0,
0,
0,
0,
0,
0,
0,
0,
0,
0,
0,
0,
0,
0,
0,
0,
0,
0,
0,
0,
0,
0,
0,
0,
0,
0,
0,
0,
0,
0,
0,
0,
0,
0,
0,
0,
0,
0,
0,
0,
0,
0,
0,
0,
0,
0,
0,
0,
0,
0,
0,
0,
0,
0,
0,
0,
0,
0,
0,
0,
0,
0,
0,
0,
0,
0,
0,
0,
0,
0,
0,
0,
0,
0,
0,
0,
0,
0,
0,
0,
0,
0,
0,
0,
0,
0,
0,
0,
0,
0,
0,
0,
0,
0,
0,
0,
0,
0,
0,
0,
0,
0,
0,
0,
0,
0,
0,
0,
0,
0,
0,
0,
0,
0,
0,
0,
0,
0,
0,
0,
#ENDOFDATA   :