File: N132962/Standards/15 keV/YP5O14 std.msa
#FORMAT      : EMSA/MAS Spectral Data File
#VERSION     : 1.0
#TITLE       : YP5O14 standard for 'N132962' detector
#NPOINTS     : 4096
#NCOLUMNS    : 1
#XUNITS      : eV
#YUNITS      : counts
#DATATYPE    : Y
#SIGNALTYPE  : EDS
#XLABEL      : Energy (eV)
#YLABEL      : Counts
#XPERCHAN -eV: 9.99778
#OFFSET   -eV: 1.69135
#CHOFFSET    : 0
#DATE        : 17-Mar-2025
#TIME        : 17:25:00
#OWNER       : Unknown
#ELEVANGLE   : 35
#BEAMKV   -kV: 15
#LIVETIME  -s: 1917.96
#REALTIME  -s: 2023.74
#PROBECUR -nA: 1.02589
##WORKING -mm: 15
##D2STDCMP   : YP5O14,(O:47.8847),(P:33.1086),(Y:19.0067)
##SIMILAR    : 1.2
#SPECTRUM    :
180,
198,
99,
479,
1978,
6058,
14387,
33796,
99978,
138949,
71836,
28247,
27216,
33444,
51163,
166403,
641017,
1243845,
909339,
242429,
39326,
20503,
21269,
23539,
24326,
24820,
25815,
27319,
29023,
30044,
30271,
30913,
32035,
33511,
34751,
35249,
35428,
35759,
36215,
36774,
37062,
37541,
38141,
38075,
38350,
38362,
38655,
39231,
39734,
40000,
39911,
39727,
38725,
39164,
42564,
51112,
60318,
61628,
59334,
57883,
60515,
84237,
170989,
358999,
577343,
845555,
1353051,
1702986,
1298375,
584459,
205826,
108667,
75290,
43944,
25486,
19297,
18268,
18954,
19408,
19284,
18774,
18259,
18654,
19524,
20225,
19720,
18339,
17072,
16775,
16435,
16335,
16173,
16289,
16032,
16030,
15838,
15903,
15613,
15999,
15693,
15632,
15286,
15203,
15196,
15256,
15029,
14931,
14860,
14797,
14548,
14338,
14156,
14507,
14287,
14053,
14132,
14070,
13691,
13683,
13612,
13505,
13483,
13437,
13211,
13447,
13231,
12958,
13083,
13011,
13156,
13455,
13756,
14065,
14247,
14265,
13464,
13116,
12520,
11866,
11788,
11396,
11451,
11410,
11298,
10944,
11049,
10931,
10785,
10618,
10650,
10512,
10298,
10360,
10334,
10387,
10051,
10070,
10016,
10015,
9734,
9793,
9717,
9481,
9571,
9521,
9390,
9584,
9158,
9340,
8958,
9070,
9047,
8840,
8724,
8703,
8544,
8468,
8729,
8537,
8356,
8306,
8271,
8092,
8020,
7890,
7948,
7870,
7950,
7737,
7759,
7675,
7417,
7588,
7439,
7398,
7302,
7371,
7302,
7175,
7239,
6847,
6803,
6902,
6906,
6665,
6709,
6527,
6618,
6658,
6525,
6482,
6651,
6757,
6632,
6589,
6410,
6358,
6190,
6150,
5859,
5820,
6003,
5872,
5726,
5736,
5666,
5611,
5625,
5627,
5544,
5418,
5422,
5215,
5337,
5371,
5237,
5210,
5351,
5078,
5137,
4972,
4867,
5033,
4894,
4831,
4818,
4794,
4641,
4793,
4667,
4545,
4703,
4544,
4448,
4383,
4332,
4210,
4287,
4363,
4212,
4273,
4289,
4149,
4191,
3956,
4093,
3937,
3951,
3937,
3879,
3810,
3821,
3695,
3746,
3715,
3771,
3606,
3641,
3658,
3633,
3565,
3507,
3450,
3422,
3431,
3378,
3398,
3343,
3360,
3137,
3291,
3142,
3102,
3225,
3196,
3134,
3146,
3104,
2965,
2934,
2979,
2954,
2902,
2827,
2946,
2965,
2812,
2791,
2735,
2691,
2568,
2761,
2675,
2588,
2621,
2593,
2636,
2508,
2508,
2465,
2471,
2449,
2402,
2366,
2276,
2369,
2287,
2288,
2304,
2293,
2226,
2248,
2172,
2167,
2154,
2143,
2084,
2077,
2028,
2020,
2025,
1983,
1890,
1964,
1838,
1925,
1859,
1779,
1844,
1821,
1855,
1762,
1769,
1758,
1734,
1651,
1664,
1586,
1605,
1653,
1535,
1630,
1549,
1523,
1610,
1515,
1530,
1471,
1487,
1457,
1435,
1392,
1375,
1369,
1256,
1284,
1375,
1246,
1210,
1301,
1254,
1236,
1211,
1154,
1181,
1175,
1128,
1122,
1138,
1067,
1096,
1088,
1017,
982,
1043,
969,
997,
1000,
976,
1015,
927,
899,
922,
896,
934,
838,
799,
827,
791,
812,
779,
780,
730,
777,
695,
721,
687,
745,
739,
632,
694,
666,
651,
661,
608,
587,
625,
559,
589,
541,
546,
544,
526,
515,
557,
492,
472,
473,
461,
406,
416,
407,
423,
395,
404,
353,
401,
366,
364,
348,
363,
339,
320,
314,
324,
315,
275,
311,
256,
255,
246,
245,
257,
235,
227,
212,
197,
209,
194,
182,
171,
180,
192,
164,
157,
139,
147,
139,
147,
123,
103,
87,
105,
102,
95,
93,
76,
65,
56,
52,
69,
45,
47,
33,
19,
36,
23,
16,
8,
11,
2,
5,
2,
1,
2,
3,
0,
2,
2,
3,
3,
3,
2,
2,
3,
4,
4,
4,
2,
1,
2,
2,
3,
2,
1,
3,
2,
4,
3,
1,
4,
1,
0,
1,
0,
0,
1,
1,
2,
4,
1,
1,
2,
0,
1,
1,
2,
1,
1,
2,
0,
2,
0,
0,
0,
1,
0,
1,
0,
0,
1,
1,
0,
0,
3,
0,
2,
1,
1,
1,
1,
1,
0,
3,
0,
0,
0,
1,
0,
0,
0,
0,
0,
0,
0,
0,
1,
0,
0,
1,
1,
0,
0,
0,
1,
1,
1,
2,
0,
1,
0,
1,
0,
1,
0,
0,
0,
0,
1,
2,
1,
2,
0,
0,
0,
0,
1,
0,
0,
0,
0,
0,
0,
0,
1,
0,
1,
0,
0,
0,
0,
0,
0,
2,
0,
0,
0,
0,
0,
0,
0,
0,
0,
0,
0,
1,
0,
0,
0,
0,
1,
0,
0,
0,
0,
1,
0,
0,
0,
0,
0,
0,
0,
1,
1,
1,
0,
0,
0,
0,
0,
0,
0,
0,
2,
1,
0,
0,
0,
0,
1,
0,
0,
0,
1,
0,
0,
0,
0,
0,
1,
0,
0,
0,
0,
0,
0,
0,
0,
0,
0,
0,
0,
0,
0,
0,
0,
0,
0,
0,
0,
0,
0,
0,
0,
0,
0,
0,
0,
0,
0,
0,
0,
0,
0,
1,
0,
0,
0,
0,
0,
0,
0,
0,
1,
0,
0,
0,
0,
0,
0,
0,
0,
0,
0,
0,
0,
0,
0,
0,
0,
1,
0,
0,
0,
0,
0,
0,
0,
0,
0,
0,
0,
0,
1,
0,
0,
0,
0,
0,
0,
0,
0,
0,
0,
0,
0,
0,
0,
0,
0,
0,
0,
0,
0,
0,
0,
0,
0,
0,
0,
0,
0,
0,
0,
0,
0,
0,
0,
0,
0,
0,
0,
0,
0,
0,
0,
0,
0,
0,
0,
0,
0,
0,
0,
0,
0,
0,
0,
0,
0,
0,
0,
0,
0,
0,
0,
0,
0,
0,
0,
0,
0,
0,
0,
0,
0,
0,
0,
0,
0,
0,
0,
0,
0,
0,
0,
0,
0,
0,
0,
0,
0,
0,
0,
0,
0,
0,
0,
0,
0,
0,
0,
0,
0,
0,
0,
0,
0,
0,
0,
0,
0,
0,
0,
0,
0,
0,
0,
0,
0,
0,
0,
0,
0,
0,
0,
0,
0,
0,
0,
0,
0,
0,
0,
0,
0,
0,
0,
0,
0,
0,
0,
0,
0,
0,
0,
0,
0,
0,
0,
0,
0,
0,
0,
0,
0,
0,
0,
0,
0,
0,
0,
0,
0,
0,
0,
0,
0,
0,
0,
0,
0,
0,
0,
0,
0,
0,
0,
0,
0,
0,
0,
0,
0,
0,
0,
0,
0,
0,
0,
0,
0,
0,
0,
0,
0,
0,
0,
0,
0,
0,
0,
0,
0,
0,
0,
0,
0,
0,
0,
0,
0,
0,
0,
0,
0,
0,
0,
0,
1,
0,
0,
0,
0,
0,
0,
0,
0,
0,
0,
0,
0,
0,
0,
0,
0,
0,
0,
0,
0,
0,
0,
0,
0,
0,
0,
0,
0,
0,
0,
0,
0,
0,
0,
0,
0,
0,
0,
0,
0,
0,
0,
0,
0,
0,
0,
0,
0,
0,
0,
0,
0,
0,
0,
0,
0,
0,
0,
0,
0,
0,
0,
0,
0,
0,
0,
0,
0,
0,
0,
0,
0,
0,
0,
0,
0,
0,
0,
0,
0,
0,
0,
0,
0,
0,
0,
0,
0,
0,
0,
0,
0,
0,
0,
0,
0,
0,
0,
0,
0,
0,
0,
0,
0,
0,
0,
0,
0,
0,
0,
0,
0,
0,
0,
0,
0,
0,
0,
0,
0,
0,
0,
0,
0,
0,
0,
0,
0,
0,
0,
0,
0,
0,
0,
0,
0,
0,
0,
0,
0,
0,
0,
0,
0,
0,
0,
0,
0,
0,
0,
0,
0,
0,
0,
0,
0,
0,
0,
0,
0,
0,
0,
0,
0,
0,
0,
0,
0,
0,
0,
0,
0,
0,
0,
0,
0,
0,
0,
0,
0,
0,
0,
0,
0,
0,
0,
0,
0,
0,
0,
0,
0,
0,
0,
0,
0,
0,
0,
0,
0,
0,
0,
0,
0,
0,
0,
0,
0,
0,
0,
0,
0,
0,
0,
0,
0,
0,
0,
0,
0,
0,
0,
0,
0,
0,
0,
0,
0,
0,
0,
0,
0,
0,
0,
0,
0,
0,
0,
0,
0,
0,
0,
0,
0,
0,
0,
0,
0,
0,
0,
0,
0,
0,
0,
0,
0,
0,
0,
0,
0,
0,
0,
0,
0,
0,
0,
0,
0,
0,
0,
0,
0,
0,
0,
0,
0,
0,
0,
0,
0,
0,
0,
0,
0,
0,
0,
0,
0,
0,
0,
0,
0,
0,
0,
0,
0,
0,
0,
0,
0,
0,
0,
0,
0,
0,
0,
0,
0,
0,
0,
0,
0,
0,
0,
0,
0,
0,
0,
0,
0,
0,
0,
0,
0,
0,
0,
0,
0,
0,
0,
0,
0,
0,
0,
0,
0,
0,
0,
0,
0,
0,
0,
0,
0,
0,
0,
0,
0,
0,
0,
0,
0,
0,
0,
0,
0,
0,
0,
0,
0,
0,
0,
0,
0,
0,
0,
0,
0,
0,
0,
0,
0,
0,
0,
0,
0,
0,
0,
0,
0,
0,
0,
0,
0,
0,
#ENDOFDATA   :