File: N132962/Standards/15 keV/Zn std.msa
#FORMAT      : EMSA/MAS Spectral Data File
#VERSION     : 1.0
#TITLE       : Zn standard for 'N132962' detector
#NPOINTS     : 4096
#NCOLUMNS    : 1
#XUNITS      : eV
#YUNITS      : counts
#DATATYPE    : Y
#SIGNALTYPE  : EDS
#XLABEL      : Energy (eV)
#YLABEL      : Counts
#XPERCHAN -eV: 9.99778
#OFFSET   -eV: 1.69135
#CHOFFSET    : 0
#DATE        : 26-Sep-2025
#TIME        : 23:20:00
#OWNER       : Unknown
#ELEVANGLE   : 35
#BEAMKV   -kV: 15
#LIVETIME  -s: 1680.43
#REALTIME  -s: 1859.54
#PROBECUR -nA: 1.21547
##WORKING -mm: 15
##D2STDCMP   : Zn,(Zn:100.0000)
##SIMILAR    : 1.3
#SPECTRUM    :
188,
208,
87,
203,
1148,
4569,
12295,
32181,
79403,
99735,
59316,
38724,
40443,
44526,
48789,
59219,
83103,
110057,
98884,
77584,
75162,
80959,
88014,
93466,
97980,
101947,
113009,
149745,
267282,
437081,
466901,
542140,
1569117,
3886270,
4618168,
2467695,
636982,
121103,
45134,
31276,
28306,
27725,
28410,
29129,
29792,
30193,
31179,
32051,
33483,
34714,
36027,
36498,
36022,
36010,
36438,
37795,
39390,
41990,
43952,
44325,
43253,
41399,
40539,
40333,
40678,
42828,
49472,
58015,
58219,
49628,
41260,
37656,
36850,
37139,
36720,
36735,
37279,
37094,
36962,
36922,
36566,
36780,
36489,
36228,
36273,
36488,
37095,
37574,
37244,
36199,
35583,
35363,
35308,
34823,
34764,
34686,
34328,
34047,
33819,
34046,
33811,
33126,
32966,
32841,
32854,
32881,
32434,
32283,
31914,
31475,
31503,
31151,
31061,
30661,
30180,
30219,
30324,
29704,
29801,
29264,
29297,
29307,
29164,
28869,
28587,
28382,
27989,
27740,
27635,
27338,
26914,
26949,
26683,
26454,
26410,
26569,
26199,
25603,
25463,
25452,
25488,
25291,
24930,
24275,
24393,
24483,
24080,
23681,
23812,
23727,
23386,
23045,
22886,
22781,
22733,
22472,
22602,
22317,
22024,
21845,
21576,
21551,
21376,
20991,
20921,
21049,
20629,
20498,
20310,
20032,
19801,
19734,
19569,
19588,
19541,
19459,
19207,
19059,
19214,
18962,
19286,
19039,
18576,
18576,
17917,
18213,
17732,
17367,
17392,
17329,
17228,
17112,
17021,
16841,
16647,
16683,
16696,
16547,
16465,
16167,
15874,
15968,
15741,
15303,
15465,
15261,
15272,
14926,
15278,
15084,
15203,
15604,
16037,
16317,
16053,
15467,
14864,
14220,
13967,
13773,
13755,
13567,
13457,
13434,
13438,
13269,
13258,
13147,
13201,
13415,
12808,
12776,
12845,
12497,
12456,
12525,
12324,
12123,
12108,
11791,
11646,
11832,
11368,
11384,
11502,
11293,
11459,
11524,
11655,
11073,
11263,
10875,
10816,
10524,
10672,
10462,
10332,
10508,
10104,
10179,
10206,
10087,
9941,
9852,
9750,
9747,
9499,
9663,
9723,
9577,
9352,
9232,
9177,
9339,
9290,
9342,
9293,
9355,
9353,
9643,
10536,
12961,
20832,
41166,
81042,
141920,
212507,
261583,
262089,
217619,
147968,
84012,
41759,
20276,
11836,
8955,
7984,
7770,
7683,
7472,
7536,
7395,
7247,
7194,
7249,
7231,
7181,
7085,
7216,
7263,
7405,
7364,
7702,
8765,
11132,
15583,
22921,
31830,
39378,
41775,
37714,
30031,
21292,
14201,
9644,
7173,
5959,
5661,
5377,
5262,
5184,
5101,
5063,
5040,
4935,
5035,
4955,
4865,
4932,
4932,
4766,
4637,
4726,
4779,
4638,
4547,
4679,
4512,
4629,
4589,
4518,
4583,
4557,
4493,
4417,
4324,
4281,
4062,
4080,
3979,
3931,
3942,
3861,
3891,
3813,
3778,
3710,
3714,
3589,
3558,
3610,
3494,
3380,
3519,
3480,
3376,
3281,
3341,
3245,
3292,
3175,
3207,
3151,
3165,
3000,
3059,
2892,
2981,
2910,
2842,
2793,
2923,
2780,
2691,
2722,
2543,
2635,
2650,
2509,
2565,
2489,
2439,
2420,
2334,
2363,
2352,
2323,
2331,
2216,
2153,
2179,
2150,
2095,
2103,
2044,
1976,
1954,
1976,
1876,
1907,
1856,
1853,
1808,
1729,
1750,
1691,
1627,
1600,
1540,
1588,
1531,
1566,
1506,
1484,
1448,
1416,
1392,
1412,
1308,
1388,
1286,
1277,
1184,
1174,
1150,
1194,
1117,
1176,
1105,
990,
1067,
1008,
1029,
966,
944,
942,
967,
860,
878,
783,
794,
823,
774,
725,
679,
669,
663,
676,
650,
583,
587,
570,
509,
501,
497,
458,
438,
447,
422,
418,
360,
366,
358,
333,
282,
270,
260,
251,
215,
223,
192,
158,
158,
141,
117,
98,
98,
72,
64,
63,
36,
39,
22,
24,
19,
16,
21,
12,
15,
14,
25,
13,
13,
20,
15,
19,
14,
17,
21,
19,
20,
14,
18,
19,
16,
17,
11,
9,
16,
11,
7,
12,
23,
13,
15,
13,
16,
11,
9,
11,
16,
6,
11,
11,
12,
6,
14,
9,
10,
8,
9,
9,
10,
14,
10,
9,
6,
14,
15,
6,
7,
9,
16,
14,
16,
11,
12,
8,
15,
19,
26,
33,
52,
75,
66,
80,
72,
74,
55,
43,
41,
21,
16,
8,
16,
11,
14,
5,
11,
9,
10,
9,
8,
9,
9,
11,
6,
15,
7,
13,
6,
13,
17,
18,
18,
32,
30,
27,
29,
18,
12,
19,
11,
8,
10,
9,
6,
8,
6,
9,
6,
4,
8,
4,
10,
9,
4,
6,
2,
7,
6,
7,
8,
1,
9,
6,
6,
5,
7,
6,
5,
9,
4,
6,
6,
6,
8,
3,
0,
5,
2,
4,
1,
5,
5,
2,
2,
6,
7,
2,
7,
3,
4,
2,
4,
5,
4,
3,
4,
0,
5,
4,
4,
3,
5,
6,
3,
6,
3,
3,
4,
1,
3,
5,
2,
5,
1,
4,
4,
2,
2,
3,
3,
2,
2,
3,
1,
4,
0,
2,
3,
2,
3,
6,
0,
3,
7,
1,
2,
3,
1,
0,
2,
0,
1,
2,
5,
2,
6,
1,
1,
1,
1,
1,
2,
3,
0,
2,
0,
2,
1,
2,
3,
0,
0,
3,
2,
2,
0,
0,
1,
0,
1,
2,
3,
1,
0,
2,
1,
1,
1,
1,
1,
1,
1,
0,
0,
0,
0,
1,
0,
1,
1,
1,
0,
1,
0,
1,
0,
0,
0,
0,
0,
0,
1,
1,
0,
0,
0,
0,
0,
0,
1,
0,
0,
1,
0,
1,
0,
1,
1,
1,
0,
0,
0,
1,
2,
0,
1,
1,
0,
0,
0,
0,
0,
0,
0,
0,
0,
0,
0,
0,
0,
0,
0,
0,
0,
0,
0,
0,
0,
0,
0,
0,
0,
0,
0,
0,
0,
0,
0,
0,
0,
0,
0,
0,
0,
0,
0,
1,
0,
0,
0,
0,
0,
0,
0,
0,
0,
0,
0,
0,
0,
0,
0,
0,
0,
0,
0,
0,
0,
0,
0,
0,
0,
0,
0,
0,
0,
0,
0,
0,
0,
0,
0,
0,
0,
0,
0,
1,
0,
0,
0,
0,
1,
0,
0,
0,
0,
0,
0,
0,
0,
0,
0,
0,
0,
0,
0,
0,
0,
0,
0,
1,
0,
0,
0,
0,
0,
0,
0,
0,
0,
0,
0,
0,
0,
0,
0,
0,
0,
0,
0,
0,
0,
0,
0,
0,
0,
0,
0,
0,
0,
0,
0,
0,
0,
0,
0,
0,
0,
0,
0,
0,
0,
0,
0,
0,
0,
0,
0,
0,
0,
0,
0,
0,
0,
0,
0,
0,
0,
0,
0,
0,
0,
0,
0,
0,
0,
0,
0,
0,
0,
0,
0,
0,
0,
0,
0,
0,
0,
0,
0,
0,
0,
0,
0,
0,
0,
0,
0,
0,
0,
0,
0,
0,
0,
0,
0,
0,
0,
0,
0,
0,
0,
0,
0,
0,
0,
0,
0,
0,
0,
0,
0,
0,
0,
0,
0,
0,
0,
0,
0,
0,
0,
0,
0,
0,
0,
0,
0,
0,
0,
0,
0,
0,
0,
0,
0,
0,
0,
0,
0,
0,
0,
0,
0,
0,
0,
0,
0,
0,
0,
0,
0,
0,
0,
0,
0,
0,
0,
0,
0,
0,
0,
0,
0,
0,
0,
0,
0,
0,
0,
0,
0,
0,
0,
0,
0,
0,
0,
0,
0,
0,
0,
0,
0,
0,
0,
0,
0,
0,
0,
0,
0,
0,
0,
0,
0,
0,
0,
0,
0,
0,
0,
0,
0,
0,
0,
0,
0,
0,
0,
0,
0,
0,
0,
0,
0,
0,
0,
0,
0,
0,
0,
0,
0,
0,
0,
0,
0,
0,
0,
0,
0,
0,
0,
0,
0,
0,
0,
0,
0,
0,
0,
0,
0,
0,
0,
0,
0,
0,
0,
0,
0,
0,
0,
0,
0,
0,
0,
0,
0,
0,
0,
0,
0,
0,
0,
0,
0,
0,
0,
0,
0,
0,
0,
0,
0,
0,
0,
0,
0,
0,
0,
0,
0,
0,
0,
0,
0,
0,
0,
0,
0,
0,
0,
0,
0,
0,
0,
0,
0,
0,
0,
0,
0,
0,
0,
0,
0,
0,
0,
0,
0,
0,
0,
0,
0,
0,
0,
0,
0,
0,
0,
0,
0,
0,
0,
0,
0,
0,
0,
0,
0,
0,
0,
0,
0,
0,
0,
0,
0,
0,
0,
0,
0,
0,
0,
0,
0,
0,
0,
0,
0,
0,
0,
0,
0,
0,
0,
0,
0,
0,
0,
0,
0,
0,
0,
0,
0,
0,
0,
0,
0,
0,
0,
0,
0,
0,
0,
0,
0,
0,
0,
0,
0,
1,
0,
0,
0,
0,
0,
0,
0,
0,
0,
0,
0,
0,
0,
0,
0,
0,
0,
0,
0,
0,
0,
0,
0,
0,
0,
0,
0,
0,
0,
0,
0,
0,
0,
0,
0,
0,
0,
0,
0,
0,
0,
0,
0,
0,
0,
0,
0,
0,
0,
0,
0,
0,
0,
0,
0,
0,
0,
0,
0,
0,
0,
0,
0,
0,
0,
0,
0,
0,
0,
0,
0,
0,
0,
0,
0,
0,
0,
0,
#ENDOFDATA   :