File: N132962/Standards/15 keV/ZnS std.msa
#FORMAT      : EMSA/MAS Spectral Data File
#VERSION     : 1.0
#TITLE       : ZnS standard for 'N132962' detector
#NPOINTS     : 4096
#NCOLUMNS    : 1
#XUNITS      : eV
#YUNITS      : counts
#DATATYPE    : Y
#SIGNALTYPE  : EDS
#XLABEL      : Energy (eV)
#YLABEL      : Counts
#XPERCHAN -eV: 9.99778
#OFFSET   -eV: 1.69135
#CHOFFSET    : 0
#DATE        : 27-Sep-2025
#TIME        : 18:15:00
#OWNER       : Unknown
#ELEVANGLE   : 35
#BEAMKV   -kV: 15
#LIVETIME  -s: 2159.14
#REALTIME  -s: 2357.74
#PROBECUR -nA: 1.20962
##WORKING -mm: 15
##D2STDCMP   : ZnS,(S:32.9023),(Zn:67.0977)
##SIMILAR    : 1.1
#SPECTRUM    :
256,
221,
91,
431,
2300,
6415,
11988,
27965,
67144,
85159,
51442,
33348,
34030,
37599,
42244,
48915,
59418,
73593,
92794,
98438,
84682,
78514,
82601,
89842,
95677,
99832,
107383,
134292,
220650,
348457,
375514,
438011,
1202138,
2965784,
3593981,
2000204,
560911,
129713,
58838,
44148,
40625,
40440,
41100,
42281,
42453,
43396,
44767,
45261,
46858,
48326,
48741,
49066,
48910,
48833,
49340,
49987,
51809,
54745,
57478,
56957,
55421,
53061,
50716,
49686,
50008,
51234,
54509,
58242,
59278,
56397,
53699,
57102,
73034,
114384,
249214,
648448,
1309606,
1627085,
1183270,
520968,
193298,
143964,
160109,
136417,
86789,
51681,
38455,
35870,
35283,
34422,
34677,
34590,
34732,
34412,
34525,
34216,
34139,
34091,
33548,
33419,
33580,
33216,
33101,
33315,
33279,
33275,
33550,
33916,
34202,
36692,
39143,
39350,
37069,
34356,
32161,
31277,
31137,
30706,
30421,
29664,
29644,
29505,
29350,
29129,
28659,
28852,
28714,
28327,
28120,
27817,
27673,
27692,
27126,
26834,
27045,
26999,
26708,
26347,
26207,
25856,
25534,
25660,
25408,
25245,
25156,
25258,
24453,
24318,
24596,
24134,
24183,
24344,
24414,
24759,
24689,
24373,
23620,
23292,
22697,
22718,
22436,
22452,
22090,
21364,
21677,
21460,
21412,
21148,
21139,
20654,
20549,
20519,
20423,
19896,
20002,
19988,
19536,
19122,
19480,
19246,
19094,
19238,
19103,
18868,
18560,
18434,
18025,
18309,
18000,
18055,
17659,
17676,
17300,
17385,
17144,
17018,
17057,
16831,
16621,
16382,
16584,
16242,
16123,
16143,
15920,
15788,
15706,
15608,
15553,
15527,
15235,
15462,
15340,
15502,
15290,
14945,
14495,
14504,
14209,
14151,
13842,
13685,
13877,
13616,
13619,
13631,
13452,
13456,
13553,
13546,
13330,
13210,
12989,
12754,
12715,
12644,
12473,
12484,
12094,
12203,
11857,
11807,
11756,
12005,
11597,
11524,
11651,
11564,
11519,
11432,
11457,
11237,
11047,
10767,
10715,
10579,
10425,
10563,
10333,
10423,
10238,
10181,
9978,
9916,
10115,
10162,
9956,
9794,
9776,
9691,
9635,
9607,
9483,
9579,
9289,
9223,
9504,
9533,
9430,
9540,
10079,
12009,
18494,
34117,
66093,
116738,
171412,
210883,
212229,
176056,
119544,
68572,
34661,
17770,
11005,
8651,
8135,
7729,
7749,
7639,
7552,
7462,
7395,
7200,
7205,
7350,
7057,
7229,
7208,
7211,
7286,
7398,
7555,
8369,
10417,
13980,
19703,
26710,
32388,
34247,
31098,
24592,
17554,
12045,
8493,
6899,
6127,
5743,
5465,
5351,
5389,
5368,
5211,
5143,
5226,
5092,
5003,
5037,
5138,
4932,
4910,
4766,
4773,
4884,
4712,
4652,
4564,
4593,
4615,
4492,
4413,
4484,
4425,
4592,
4258,
4355,
4248,
4217,
4126,
4096,
4044,
4207,
4382,
4270,
4178,
4193,
4251,
3985,
3842,
3808,
3751,
3730,
3509,
3429,
3474,
3293,
3393,
3371,
3276,
3278,
3170,
3273,
3149,
3100,
3054,
3039,
2989,
3021,
2905,
2856,
2840,
2826,
2764,
2812,
2797,
2758,
2568,
2712,
2622,
2461,
2524,
2518,
2519,
2459,
2311,
2308,
2256,
2277,
2273,
2101,
2253,
2095,
2079,
2106,
1972,
2043,
1947,
1885,
1860,
1855,
1877,
1815,
1761,
1720,
1760,
1675,
1607,
1603,
1630,
1548,
1567,
1503,
1504,
1499,
1428,
1399,
1370,
1367,
1240,
1303,
1326,
1219,
1203,
1162,
1157,
1168,
1077,
1098,
1045,
991,
1002,
971,
985,
954,
864,
901,
857,
900,
783,
780,
780,
763,
714,
739,
687,
683,
623,
576,
635,
547,
550,
573,
506,
547,
483,
484,
452,
449,
395,
398,
378,
357,
308,
344,
332,
283,
293,
237,
236,
209,
200,
183,
154,
134,
124,
119,
105,
79,
60,
42,
37,
35,
26,
12,
22,
19,
16,
21,
10,
17,
17,
18,
19,
11,
15,
9,
16,
12,
16,
18,
9,
15,
13,
18,
14,
12,
12,
13,
14,
14,
12,
15,
13,
9,
22,
13,
8,
10,
12,
7,
11,
5,
11,
4,
10,
7,
3,
10,
12,
10,
8,
11,
9,
11,
9,
8,
6,
3,
11,
4,
12,
9,
8,
6,
15,
7,
13,
8,
9,
9,
21,
24,
26,
28,
49,
49,
38,
36,
22,
25,
16,
9,
8,
5,
5,
8,
5,
6,
7,
4,
8,
6,
5,
6,
7,
7,
9,
3,
6,
5,
8,
5,
3,
9,
10,
16,
13,
13,
16,
8,
7,
9,
7,
7,
5,
4,
14,
6,
5,
5,
2,
5,
4,
3,
3,
2,
5,
5,
3,
4,
5,
3,
8,
2,
7,
3,
2,
7,
7,
0,
0,
3,
3,
2,
5,
2,
9,
2,
2,
3,
6,
7,
6,
2,
4,
0,
6,
1,
2,
3,
0,
2,
3,
2,
2,
6,
0,
2,
3,
3,
5,
4,
2,
4,
5,
6,
0,
1,
3,
3,
2,
0,
3,
3,
4,
4,
5,
1,
4,
3,
2,
0,
3,
7,
1,
1,
5,
4,
1,
3,
1,
1,
1,
2,
1,
1,
0,
3,
2,
1,
1,
2,
0,
1,
4,
3,
1,
1,
1,
0,
2,
0,
2,
0,
2,
2,
0,
1,
0,
1,
0,
1,
1,
1,
1,
0,
0,
0,
0,
0,
0,
1,
0,
0,
0,
0,
1,
0,
1,
0,
0,
2,
1,
1,
2,
1,
1,
0,
1,
0,
0,
0,
0,
1,
0,
1,
0,
1,
2,
0,
0,
0,
0,
0,
1,
1,
0,
1,
0,
0,
0,
1,
2,
0,
0,
1,
0,
0,
1,
1,
0,
0,
0,
0,
0,
0,
0,
0,
0,
1,
0,
0,
0,
0,
0,
1,
0,
0,
0,
0,
0,
1,
0,
0,
0,
0,
0,
0,
0,
0,
0,
0,
0,
0,
0,
0,
0,
0,
0,
0,
0,
0,
0,
0,
0,
0,
0,
0,
0,
0,
0,
0,
1,
0,
0,
0,
0,
0,
0,
0,
0,
1,
0,
1,
0,
0,
0,
0,
0,
0,
1,
1,
0,
0,
1,
0,
0,
0,
0,
0,
0,
0,
0,
0,
0,
0,
0,
0,
0,
0,
0,
0,
0,
0,
0,
0,
0,
0,
0,
0,
0,
0,
0,
0,
0,
0,
0,
0,
0,
0,
0,
0,
0,
0,
0,
0,
0,
0,
0,
0,
0,
0,
0,
0,
0,
0,
0,
0,
0,
0,
0,
0,
0,
0,
0,
0,
0,
0,
0,
0,
0,
0,
0,
0,
0,
0,
0,
0,
0,
0,
0,
0,
0,
0,
0,
0,
0,
0,
0,
0,
0,
0,
0,
0,
0,
0,
0,
0,
0,
0,
0,
0,
0,
0,
0,
0,
0,
0,
0,
0,
0,
0,
0,
0,
0,
0,
0,
0,
0,
0,
0,
0,
0,
0,
0,
0,
0,
0,
0,
0,
0,
0,
0,
0,
0,
0,
0,
0,
0,
0,
0,
0,
0,
0,
0,
0,
0,
0,
0,
0,
0,
0,
0,
0,
0,
0,
0,
0,
0,
0,
0,
0,
0,
0,
0,
0,
0,
0,
0,
0,
0,
0,
0,
0,
0,
0,
0,
0,
0,
0,
0,
0,
0,
0,
0,
0,
0,
0,
0,
0,
0,
0,
0,
0,
0,
0,
0,
0,
0,
0,
0,
0,
0,
0,
0,
0,
0,
0,
0,
0,
0,
0,
0,
0,
0,
0,
0,
0,
0,
0,
0,
0,
0,
0,
0,
0,
0,
0,
0,
0,
0,
0,
0,
0,
0,
0,
0,
0,
0,
0,
0,
0,
0,
0,
0,
0,
0,
0,
0,
0,
0,
0,
0,
0,
0,
0,
0,
0,
0,
0,
0,
0,
0,
0,
0,
0,
0,
0,
0,
0,
0,
0,
0,
0,
0,
0,
0,
0,
0,
0,
0,
0,
0,
0,
0,
0,
0,
0,
0,
0,
0,
0,
0,
0,
0,
0,
0,
0,
0,
0,
0,
0,
0,
0,
0,
0,
0,
0,
0,
0,
0,
1,
0,
0,
0,
0,
0,
0,
0,
0,
0,
0,
0,
0,
0,
0,
0,
0,
0,
0,
0,
0,
0,
0,
0,
0,
0,
0,
0,
0,
0,
0,
0,
0,
0,
0,
0,
0,
0,
0,
0,
0,
0,
0,
0,
0,
0,
0,
0,
0,
0,
0,
0,
0,
0,
0,
0,
0,
0,
0,
0,
0,
0,
0,
0,
0,
0,
0,
0,
0,
0,
0,
0,
0,
0,
0,
0,
0,
0,
0,
0,
0,
0,
0,
0,
0,
0,
0,
0,
0,
0,
0,
0,
0,
0,
0,
0,
0,
0,
0,
0,
0,
0,
0,
0,
0,
0,
0,
0,
0,
0,
0,
0,
0,
0,
0,
0,
0,
0,
0,
0,
0,
0,
0,
0,
0,
0,
0,
0,
0,
0,
0,
0,
0,
0,
0,
0,
0,
0,
0,
0,
0,
0,
0,
0,
0,
0,
0,
0,
0,
0,
0,
0,
0,
0,
0,
0,
0,
0,
0,
0,
0,
0,
0,
0,
0,
0,
0,
0,
0,
0,
0,
0,
0,
0,
0,
0,
0,
0,
0,
0,
0,
0,
0,
0,
0,
0,
0,
0,
0,
0,
0,
0,
0,
0,
0,
#ENDOFDATA   :