File: N132962/Standards/15 keV/Zr std.msa
#FORMAT      : EMSA/MAS Spectral Data File
#VERSION     : 1.0
#TITLE       : Zr standard for 'N132962' detector
#NPOINTS     : 4096
#NCOLUMNS    : 1
#XUNITS      : eV
#YUNITS      : counts
#DATATYPE    : Y
#SIGNALTYPE  : EDS
#XLABEL      : Energy (eV)
#YLABEL      : Counts
#XPERCHAN -eV: 9.99778
#OFFSET   -eV: 1.69135
#CHOFFSET    : 0
#DATE        : 26-Sep-2025
#TIME        : 13:39:00
#OWNER       : Unknown
#ELEVANGLE   : 35
#BEAMKV   -kV: 15
#LIVETIME  -s: 2157.53
#REALTIME  -s: 2370.737
#PROBECUR -nA: 1.21821
##WORKING -mm: 15
##D2STDCMP   : Zr,(Zr:100.0000)
##SIMILAR    : 1.1
#SPECTRUM    :
220,
239,
377,
5879,
42579,
93336,
74716,
50868,
72496,
117572,
122646,
77230,
64002,
64197,
51524,
55251,
85483,
122945,
103221,
63820,
54490,
58384,
66691,
72180,
72639,
70358,
72159,
75396,
81118,
83782,
84150,
86103,
86998,
89321,
90331,
91379,
92888,
94302,
94979,
96278,
96944,
98541,
100146,
100587,
101585,
102294,
103625,
104322,
106375,
110362,
110948,
107441,
104590,
104296,
103930,
104527,
108797,
126838,
174926,
242545,
266015,
222273,
181427,
180530,
231252,
432749,
1082106,
2320844,
3211033,
2839826,
2082217,
1594555,
1069025,
594746,
328199,
179914,
102692,
69338,
55140,
46915,
43095,
44665,
49439,
55035,
54521,
48106,
41895,
39271,
38622,
38702,
38916,
38889,
38941,
39573,
39511,
39600,
39792,
39685,
39850,
40006,
40497,
40062,
39967,
40328,
39860,
40411,
40104,
40485,
39971,
40060,
39693,
40000,
39938,
39688,
39681,
39490,
39372,
39320,
39237,
39294,
39361,
39223,
39162,
39432,
39000,
39077,
38495,
38861,
38714,
38053,
38332,
38071,
38322,
39004,
40172,
42049,
43992,
44053,
44060,
42971,
41712,
39968,
38055,
37305,
36214,
35668,
35196,
34540,
34422,
34399,
33778,
33674,
33502,
33329,
33029,
32891,
32840,
32644,
32213,
32133,
32072,
31962,
32090,
31577,
31327,
31063,
31110,
30790,
30627,
30546,
30389,
30073,
30183,
29477,
29430,
29592,
29412,
29255,
29731,
29472,
29817,
29562,
28644,
28049,
27922,
27336,
27521,
27403,
27116,
26800,
26661,
26582,
26316,
26155,
26366,
26206,
25767,
25916,
25841,
25355,
25114,
24940,
24938,
24796,
24321,
24408,
23993,
24146,
23970,
24022,
24269,
24832,
26142,
26480,
26280,
25082,
23895,
23098,
22470,
22171,
22010,
21782,
21582,
21364,
21221,
21283,
21069,
21053,
20799,
20606,
20807,
20364,
20444,
20456,
20482,
20324,
19728,
19538,
19777,
19175,
19168,
18624,
18726,
18730,
18473,
18451,
18289,
18639,
18446,
18289,
18160,
18063,
17478,
17552,
17271,
16815,
16933,
16800,
16673,
16507,
16432,
16486,
16333,
16010,
15984,
15838,
15877,
15629,
15762,
15382,
15203,
15032,
15192,
14883,
15065,
14695,
14600,
14464,
14314,
14343,
14107,
14030,
13824,
13786,
13904,
13708,
13840,
13715,
13652,
13194,
13126,
13178,
12985,
12827,
12818,
12799,
12589,
12456,
12149,
12258,
12052,
11998,
11918,
11773,
11875,
11753,
11536,
11418,
11337,
11432,
11189,
11233,
11257,
10886,
10694,
10794,
10602,
10823,
10592,
10477,
10526,
10230,
10271,
10216,
10123,
9920,
9604,
9771,
9820,
9457,
9438,
9486,
9337,
9450,
9434,
9147,
8810,
9037,
8866,
8692,
8783,
8789,
8614,
8246,
8200,
8390,
8195,
8124,
8008,
7991,
8016,
7919,
7766,
7804,
7569,
7482,
7433,
7395,
7349,
7206,
7164,
7087,
6943,
7016,
6937,
6781,
6619,
6555,
6687,
6481,
6531,
6457,
6350,
6181,
6159,
6131,
6034,
5942,
5802,
5906,
5688,
5711,
5621,
5621,
5473,
5387,
5179,
5337,
5159,
5203,
5097,
5042,
5010,
4897,
4826,
4780,
4618,
4599,
4646,
4459,
4419,
4466,
4395,
4242,
4152,
4180,
4146,
4095,
4060,
4014,
3865,
3913,
3768,
3756,
3678,
3757,
3539,
3542,
3434,
3389,
3334,
3276,
3171,
3211,
3152,
3072,
3081,
2990,
2993,
2960,
2818,
2772,
2748,
2711,
2592,
2587,
2506,
2546,
2445,
2450,
2388,
2274,
2275,
2174,
2137,
2050,
2083,
2147,
1907,
1929,
1903,
1799,
1781,
1825,
1729,
1739,
1645,
1638,
1598,
1510,
1497,
1456,
1348,
1333,
1349,
1305,
1218,
1205,
1147,
1103,
1072,
1074,
1016,
941,
934,
931,
902,
860,
812,
767,
754,
700,
664,
623,
601,
564,
534,
476,
498,
426,
392,
329,
267,
250,
250,
197,
180,
148,
133,
95,
55,
60,
41,
45,
34,
34,
31,
24,
33,
31,
22,
40,
22,
28,
28,
28,
29,
23,
30,
26,
26,
28,
27,
18,
25,
25,
24,
24,
15,
12,
24,
16,
23,
17,
21,
23,
13,
18,
14,
14,
21,
14,
13,
19,
18,
18,
15,
14,
11,
17,
5,
10,
21,
17,
7,
14,
9,
15,
12,
10,
8,
10,
20,
12,
21,
19,
8,
10,
13,
13,
6,
5,
7,
14,
9,
7,
9,
15,
7,
8,
6,
9,
9,
10,
11,
11,
14,
9,
12,
7,
7,
8,
5,
6,
10,
4,
7,
7,
4,
7,
8,
12,
9,
9,
3,
8,
10,
12,
5,
6,
11,
6,
7,
6,
10,
9,
5,
4,
5,
8,
6,
4,
7,
3,
3,
8,
5,
3,
4,
8,
2,
8,
5,
2,
7,
6,
4,
5,
1,
3,
5,
4,
5,
7,
3,
8,
4,
5,
6,
3,
3,
2,
1,
4,
4,
2,
5,
5,
4,
7,
1,
2,
5,
0,
3,
5,
1,
2,
6,
3,
1,
3,
3,
2,
5,
1,
4,
3,
3,
2,
2,
4,
4,
2,
5,
3,
4,
2,
7,
2,
2,
5,
4,
3,
1,
2,
5,
3,
0,
1,
2,
1,
2,
1,
3,
2,
2,
0,
3,
2,
3,
0,
1,
0,
0,
1,
0,
1,
2,
2,
2,
1,
1,
2,
3,
1,
0,
4,
1,
1,
3,
0,
1,
1,
3,
2,
0,
0,
1,
1,
1,
2,
1,
1,
0,
0,
0,
1,
1,
0,
1,
2,
2,
1,
1,
1,
2,
1,
1,
0,
2,
1,
1,
0,
0,
0,
0,
2,
0,
1,
0,
1,
0,
0,
1,
1,
1,
0,
3,
1,
1,
0,
0,
0,
0,
0,
0,
0,
1,
1,
0,
1,
1,
0,
2,
1,
0,
0,
1,
1,
0,
1,
0,
0,
0,
0,
0,
0,
1,
1,
0,
0,
1,
0,
0,
0,
0,
0,
0,
0,
1,
0,
1,
0,
0,
0,
0,
0,
1,
0,
2,
1,
0,
1,
1,
0,
0,
0,
0,
0,
0,
0,
0,
0,
0,
1,
0,
1,
0,
0,
1,
0,
0,
0,
1,
1,
0,
0,
0,
0,
0,
0,
1,
0,
1,
0,
0,
0,
0,
0,
0,
1,
0,
1,
0,
0,
0,
0,
0,
0,
0,
0,
0,
0,
0,
0,
0,
0,
0,
0,
0,
0,
0,
0,
0,
0,
0,
0,
0,
0,
0,
0,
0,
0,
0,
0,
0,
0,
0,
0,
0,
0,
0,
0,
0,
0,
0,
0,
0,
0,
0,
0,
0,
0,
0,
0,
0,
0,
0,
0,
1,
0,
0,
0,
0,
0,
0,
0,
0,
0,
0,
0,
0,
0,
0,
0,
0,
0,
0,
0,
0,
0,
0,
0,
0,
0,
0,
0,
0,
0,
0,
0,
0,
0,
0,
0,
0,
0,
0,
0,
0,
0,
0,
0,
0,
0,
0,
0,
0,
0,
0,
0,
0,
0,
0,
0,
0,
0,
0,
0,
0,
0,
0,
0,
0,
0,
0,
0,
0,
0,
0,
0,
0,
0,
0,
0,
0,
0,
0,
0,
0,
0,
0,
0,
0,
0,
0,
0,
0,
0,
0,
0,
0,
0,
0,
0,
0,
0,
0,
0,
0,
0,
0,
0,
0,
0,
0,
0,
0,
0,
0,
0,
0,
0,
0,
0,
0,
0,
0,
0,
0,
0,
0,
0,
0,
0,
0,
0,
0,
0,
0,
0,
0,
0,
0,
0,
0,
0,
0,
0,
0,
0,
0,
0,
0,
0,
0,
0,
0,
0,
0,
0,
0,
0,
0,
0,
0,
0,
0,
0,
0,
0,
0,
0,
0,
0,
0,
0,
0,
0,
0,
0,
0,
0,
0,
0,
0,
0,
0,
0,
0,
0,
0,
0,
0,
0,
0,
0,
0,
0,
0,
0,
0,
0,
0,
0,
0,
0,
0,
0,
0,
0,
0,
0,
0,
0,
0,
0,
0,
0,
0,
0,
0,
0,
0,
0,
0,
0,
0,
0,
0,
0,
0,
0,
0,
0,
0,
0,
0,
0,
0,
0,
0,
0,
0,
0,
0,
0,
0,
0,
0,
0,
0,
0,
0,
0,
0,
0,
0,
0,
0,
0,
0,
0,
0,
0,
0,
0,
0,
0,
0,
0,
0,
0,
0,
0,
0,
0,
0,
0,
0,
0,
0,
0,
0,
0,
0,
0,
0,
0,
0,
0,
0,
0,
0,
0,
0,
0,
0,
0,
0,
0,
0,
0,
0,
0,
0,
0,
0,
0,
0,
0,
0,
0,
0,
0,
0,
0,
0,
0,
0,
0,
0,
0,
0,
0,
0,
0,
0,
0,
0,
0,
0,
0,
0,
0,
0,
0,
0,
0,
0,
0,
0,
0,
0,
0,
0,
0,
0,
0,
0,
0,
0,
0,
0,
0,
0,
0,
0,
0,
0,
0,
0,
0,
0,
0,
0,
0,
0,
0,
0,
1,
0,
0,
0,
0,
0,
0,
0,
0,
0,
0,
0,
0,
0,
0,
0,
0,
0,
0,
0,
0,
0,
0,
0,
0,
0,
0,
0,
0,
0,
0,
0,
0,
0,
0,
0,
0,
0,
0,
0,
0,
0,
0,
0,
0,
0,
0,
0,
0,
0,
0,
0,
0,
0,
0,
0,
0,
0,
0,
0,
0,
0,
0,
0,
0,
0,
0,
0,
0,
0,
0,
0,
0,
0,
0,
#ENDOFDATA   :