File: N132962/Quantification/MMM1/SPI MM1 Crocoite[0][4].msa
#FORMAT      : EMSA/MAS Spectral Data File
#VERSION     : 1.0
#TITLE       : SPI MM1dup Crocoite[0][all]
#DATE        : 12-MAR-2025
#TIME        : 13:49
#OWNER       : Unknown
#NPOINTS     : 4096
#NCOLUMNS    : 1
#XUNITS      : eV
#YUNITS      : counts
#DATATYPE    : Y
#XPERCHAN    : 9.99778
#OFFSET      : 1.69135
#BEAMKV      : 20
#SIGNALTYPE  : EDS
#ELEVANGLE   : 35
#AZIMANGLE   : 0
#LIVETIME    : 239.894
#REALTIME    : 262.051
#PROBECUR    : 1.02627
#TAUWIND     : 0
#TDEADLYR    : 0
#TACTLYR     : 0.045
#TALWIND     : 0.025
#CHOFFSET    : 0.0
#XLABEL      : Energy (eV)
#YLABEL      : Counts
#XPOSITION   : -1.17008
#YPOSITION   : -0.64091
#ZPOSITION   : 31.03608
#EDSDET      : SD
##SPECIMEN   : SPI MM1dup Crocoite[0][all]
##DET_HASH   : 12273538-fd48-a23f-0a19-f1e6fa85caef
##CALIB_HASH : 6abaa72c-aa41-8738-0be9-f592914732f3
##WORKING    : 15.0 mm
##DET_NAME   : EDAX All
##DET_MODE   : MediumLE
#SPECTRUM    :
26,
24,
10,
44,
290,
1169,
3217,
7722,
16450,
20129,
11207,
6138,
5330,
5444,
6509,
13214,
37465,
65625,
51707,
22441,
11210,
6868,
5596,
6329,
5987,
4898,
4671,
4949,
5393,
5496,
5490,
5682,
5642,
5815,
5963,
6290,
6245,
6404,
6598,
6529,
6789,
7076,
7241,
7415,
7414,
7656,
7745,
8133,
8215,
8515,
8408,
8301,
8565,
8458,
8469,
8739,
8947,
9698,
10881,
13179,
16587,
17960,
15271,
11052,
9278,
8681,
8429,
8376,
8285,
8413,
8839,
9619,
10582,
11455,
13318,
21523,
49180,
104948,
154930,
149573,
119575,
108728,
92853,
54850,
23372,
10198,
7863,
9481,
11346,
10919,
8515,
6268,
5339,
4890,
5072,
4975,
5413,
5406,
5477,
5311,
5739,
6160,
6590,
6605,
6400,
5866,
5537,
5200,
4866,
4818,
4703,
4922,
4806,
4740,
4648,
4730,
4667,
4739,
4912,
4771,
4766,
4790,
4875,
4911,
4907,
4871,
4821,
4722,
4613,
4579,
4515,
4455,
4573,
4515,
4470,
4608,
4592,
4643,
4652,
4447,
4544,
4558,
4330,
4623,
4503,
4367,
4352,
4292,
4440,
4390,
4451,
4495,
4318,
4389,
4366,
4442,
4531,
4527,
4513,
4485,
4419,
4188,
4400,
4274,
4311,
4316,
4301,
4173,
4097,
4178,
4149,
4169,
4198,
4222,
4353,
4715,
6581,
11626,
22017,
36426,
46622,
44503,
32812,
18753,
9551,
5550,
4217,
4054,
3937,
3819,
3943,
4011,
3836,
4084,
4489,
5359,
6920,
8667,
9400,
8749,
7372,
5419,
4324,
3678,
3546,
3429,
3443,
3413,
3431,
3451,
3446,
3618,
3744,
3701,
3608,
3622,
3445,
3347,
3145,
3291,
3199,
3131,
3218,
3169,
3055,
3204,
3080,
3140,
3117,
3134,
3152,
3070,
3022,
2959,
3094,
3061,
3070,
3019,
2928,
3006,
2967,
2961,
2958,
2780,
2996,
2925,
2913,
3081,
3091,
3149,
2970,
2932,
2919,
2759,
2752,
2589,
2824,
2706,
2735,
2694,
2745,
2715,
2746,
2649,
2672,
2583,
2590,
2545,
2531,
2665,
2607,
2515,
2481,
2469,
2578,
2461,
2528,
2510,
2442,
2433,
2433,
2340,
2331,
2419,
2457,
2335,
2348,
2298,
2383,
2119,
2312,
2246,
2272,
2253,
2263,
2209,
2198,
2264,
2210,
2165,
2221,
2237,
2237,
2334,
2509,
2655,
2709,
2514,
2382,
2248,
2145,
2054,
2158,
2108,
1998,
2038,
2011,
1959,
1971,
1967,
1884,
1936,
1944,
1968,
1894,
1930,
1875,
1896,
1920,
1871,
1880,
1751,
1838,
1837,
1854,
1798,
1708,
1838,
1781,
1781,
1750,
1844,
1797,
1822,
2146,
2426,
3174,
4160,
6081,
8221,
9874,
11031,
10737,
9357,
7066,
4880,
3265,
2248,
1909,
1666,
1660,
1538,
1555,
1549,
1532,
1587,
1498,
1424,
1380,
1468,
1474,
1401,
1385,
1421,
1396,
1418,
1403,
1378,
1332,
1311,
1410,
1336,
1301,
1252,
1312,
1314,
1291,
1249,
1224,
1169,
1300,
1262,
1215,
1215,
1198,
1188,
1122,
1207,
1204,
1177,
1193,
1216,
1203,
1265,
1260,
1269,
1241,
1269,
1215,
1267,
1170,
1183,
1204,
1248,
1284,
1530,
2058,
2773,
3487,
4244,
4517,
4353,
3855,
3054,
2371,
1783,
1376,
1212,
1169,
1110,
1098,
1107,
1102,
1095,
1110,
958,
974,
874,
850,
834,
774,
791,
771,
804,
777,
800,
795,
742,
749,
737,
757,
691,
640,
716,
709,
728,
698,
693,
698,
664,
646,
649,
701,
642,
631,
636,
641,
650,
598,
602,
655,
628,
610,
631,
564,
590,
548,
575,
583,
564,
571,
588,
559,
528,
557,
592,
603,
581,
626,
690,
738,
772,
736,
759,
682,
588,
591,
536,
502,
503,
523,
526,
530,
544,
504,
504,
526,
500,
462,
475,
459,
406,
391,
429,
364,
422,
376,
406,
416,
379,
371,
352,
356,
367,
366,
350,
359,
380,
337,
349,
319,
324,
345,
328,
319,
300,
298,
307,
304,
280,
281,
293,
259,
248,
260,
244,
284,
268,
243,
243,
254,
245,
231,
232,
267,
251,
226,
256,
232,
237,
225,
241,
208,
203,
224,
240,
199,
187,
204,
203,
210,
223,
189,
180,
157,
187,
190,
180,
164,
160,
177,
168,
167,
156,
137,
166,
159,
154,
162,
148,
145,
163,
141,
108,
144,
134,
137,
131,
110,
129,
128,
130,
140,
123,
108,
121,
113,
95,
108,
107,
93,
108,
93,
89,
93,
90,
91,
86,
71,
97,
74,
77,
90,
66,
66,
66,
71,
85,
59,
67,
72,
56,
59,
57,
40,
44,
56,
60,
52,
50,
44,
55,
42,
44,
31,
30,
38,
30,
31,
29,
32,
26,
25,
30,
23,
19,
24,
20,
15,
21,
10,
10,
9,
7,
9,
7,
7,
3,
5,
7,
4,
5,
1,
6,
1,
2,
3,
4,
7,
1,
1,
3,
3,
3,
4,
3,
2,
1,
2,
4,
4,
5,
2,
1,
4,
3,
4,
0,
5,
4,
4,
4,
2,
5,
3,
3,
1,
1,
5,
1,
3,
0,
4,
2,
3,
1,
1,
2,
1,
0,
3,
2,
2,
3,
3,
1,
0,
2,
0,
4,
0,
0,
1,
0,
1,
3,
0,
2,
2,
3,
2,
1,
3,
3,
3,
0,
0,
0,
3,
3,
2,
2,
0,
0,
0,
0,
1,
0,
1,
1,
1,
2,
0,
2,
2,
1,
2,
2,
2,
2,
4,
0,
1,
2,
1,
2,
1,
1,
4,
1,
0,
1,
1,
2,
3,
0,
0,
0,
0,
1,
0,
0,
2,
0,
0,
1,
1,
3,
2,
0,
0,
0,
2,
0,
2,
2,
0,
1,
0,
1,
0,
1,
1,
2,
1,
1,
0,
2,
1,
1,
1,
1,
2,
0,
1,
0,
1,
1,
2,
2,
1,
1,
0,
2,
1,
0,
1,
2,
1,
1,
0,
0,
0,
2,
1,
1,
2,
1,
1,
1,
0,
1,
1,
2,
4,
0,
1,
0,
2,
0,
0,
2,
1,
1,
0,
2,
1,
0,
0,
0,
1,
0,
1,
0,
2,
0,
0,
0,
0,
1,
2,
0,
1,
1,
0,
0,
0,
1,
1,
0,
3,
0,
1,
0,
0,
1,
0,
2,
1,
1,
0,
0,
0,
0,
2,
0,
0,
0,
1,
0,
0,
0,
1,
0,
1,
1,
0,
1,
0,
0,
0,
0,
0,
0,
0,
0,
0,
1,
0,
0,
0,
0,
3,
0,
0,
0,
0,
0,
1,
0,
0,
0,
0,
0,
1,
1,
0,
0,
0,
0,
1,
0,
0,
0,
0,
0,
0,
0,
0,
1,
0,
0,
1,
0,
0,
1,
0,
0,
0,
0,
0,
0,
0,
0,
1,
0,
0,
0,
1,
0,
0,
0,
0,
0,
0,
0,
0,
0,
0,
0,
1,
0,
0,
0,
0,
0,
0,
0,
0,
0,
0,
0,
0,
0,
0,
0,
0,
0,
1,
0,
0,
0,
0,
0,
0,
2,
1,
0,
0,
0,
0,
0,
0,
1,
0,
0,
0,
0,
0,
0,
0,
0,
0,
0,
0,
0,
0,
0,
0,
0,
0,
0,
0,
0,
0,
0,
0,
0,
0,
0,
0,
0,
0,
0,
0,
0,
0,
0,
0,
0,
0,
0,
0,
0,
0,
0,
0,
0,
0,
0,
0,
0,
0,
0,
0,
0,
0,
0,
0,
0,
0,
0,
0,
0,
0,
1,
0,
0,
0,
0,
0,
0,
0,
0,
0,
0,
0,
0,
0,
0,
0,
0,
0,
0,
0,
0,
0,
0,
0,
0,
0,
0,
0,
0,
0,
0,
0,
0,
0,
0,
0,
0,
0,
0,
0,
0,
0,
0,
0,
0,
0,
0,
0,
0,
0,
0,
0,
0,
0,
0,
0,
0,
0,
0,
0,
0,
0,
0,
0,
0,
0,
0,
0,
0,
0,
0,
0,
0,
0,
0,
1,
0,
0,
0,
0,
0,
0,
0,
0,
0,
0,
0,
0,
0,
0,
0,
0,
0,
0,
0,
0,
0,
0,
0,
0,
0,
0,
0,
0,
0,
0,
0,
0,
0,
0,
0,
0,
0,
0,
0,
0,
0,
0,
0,
0,
0,
0,
1,
0,
0,
0,
0,
0,
0,
0,
0,
0,
0,
0,
0,
0,
0,
0,
0,
0,
0,
0,
0,
0,
0,
0,
0,
0,
0,
0,
0,
0,
0,
0,
0,
0,
0,
0,
0,
0,
0,
0,
0,
0,
0,
0,
0,
0,
0,
0,
0,
0,
0,
0,
0,
0,
0,
0,
0,
0,
0,
0,
0,
0,
0,
0,
0,
0,
0,
0,
0,
0,
0,
0,
0,
0,
0,
0,
0,
0,
0,
0,
0,
0,
0,
0,
0,
0,
0,
0,
0,
0,
0,
0,
0,
0,
0,
0,
0,
0,
0,
0,
0,
0,
0,
0,
0,
0,
0,
0,
0,
0,
0,
0,
0,
0,
0,
0,
0,
0,
0,
0,
0,
0,
0,
0,
0,
0,
0,
0,
0,
0,
0,
0,
0,
0,
0,
0,
0,
0,
0,
0,
0,
0,
0,
0,
0,
0,
0,
0,
0,
0,
0,
0,
0,
0,
0,
0,
0,
0,
0,
#ENDOFDATA   :