File: N132962/Quantification/MMM1/SPI MM1 Barite[7][4].msa
#FORMAT      : EMSA/MAS Spectral Data File
#VERSION     : 1.0
#TITLE       : SPI MM1 Barite[7][all]
#DATE        : 11-MAR-2025
#TIME        : 13:33
#OWNER       : Unknown
#NPOINTS     : 4096
#NCOLUMNS    : 1
#XUNITS      : eV
#YUNITS      : counts
#DATATYPE    : Y
#XPERCHAN    : 9.99778
#OFFSET      : 1.69135
#BEAMKV      : 20
#SIGNALTYPE  : EDS
#ELEVANGLE   : 35
#AZIMANGLE   : 0
#LIVETIME    : 239.872
#REALTIME    : 258.915
#PROBECUR    : 1.02853
#TAUWIND     : 0
#TDEADLYR    : 0
#TACTLYR     : 0.045
#TALWIND     : 0.025
#CHOFFSET    : 0.0
#XLABEL      : Energy (eV)
#YLABEL      : Counts
#XPOSITION   : -0.3737
#YPOSITION   : -5.07894
#ZPOSITION   : 30.9284
#EDSDET      : SD
##SPECIMEN   : SPI MM1 Barite[7][all]
##DET_HASH   : 12273538-fd48-a23f-0a19-f1e6fa85caef
##CALIB_HASH : 6abaa72c-aa41-8738-0be9-f592914732f3
##WORKING    : 15.0 mm
##DET_NAME   : EDAX All
##DET_MODE   : MediumLE
#SPECTRUM    :
24,
33,
8,
52,
449,
1375,
2522,
5141,
12211,
15635,
8824,
5110,
5031,
5846,
8030,
21274,
72725,
137694,
104807,
38050,
16517,
9281,
5811,
5679,
7152,
9573,
10529,
8041,
5165,
4097,
3979,
4762,
5712,
5861,
5677,
5384,
4885,
4450,
4125,
4108,
4225,
4197,
4404,
4565,
4520,
4679,
4709,
4783,
5062,
5082,
5204,
5280,
5190,
5345,
5430,
5515,
5615,
6182,
6637,
6549,
6603,
6166,
5760,
5602,
5373,
5493,
5632,
5784,
5701,
5683,
5704,
5997,
6583,
8792,
15981,
37474,
73594,
92882,
69854,
33025,
13849,
10473,
10454,
9550,
7248,
5687,
5175,
5036,
5025,
5225,
5499,
5521,
5312,
5119,
5114,
5044,
4919,
4965,
4858,
4981,
4963,
4902,
4949,
5064,
4932,
4863,
4869,
4718,
4608,
4713,
4741,
4767,
4750,
4776,
4657,
4552,
4503,
4528,
4483,
4492,
4482,
4390,
4387,
4388,
4381,
4362,
4389,
4238,
4438,
5028,
5868,
6773,
7391,
6767,
5604,
4745,
4307,
4290,
4203,
4135,
4124,
4339,
4706,
5243,
6828,
11470,
24058,
48737,
75278,
85785,
69607,
41097,
18488,
8254,
5003,
4315,
4757,
6637,
12299,
22829,
36334,
43099,
39643,
29632,
19992,
13711,
9482,
6954,
6071,
7369,
10983,
15041,
16594,
14802,
10515,
6409,
4058,
3518,
3151,
3280,
3337,
3967,
4947,
6661,
7873,
7657,
6268,
4708,
3463,
3118,
3194,
3683,
4363,
4740,
4504,
4029,
3452,
2974,
2747,
2800,
2779,
2604,
2386,
2371,
2384,
2243,
2342,
2252,
2207,
2287,
2448,
2552,
2444,
2653,
2691,
2472,
2316,
2248,
2239,
2218,
2218,
2249,
2117,
2219,
2105,
2226,
2125,
2133,
2192,
2117,
2141,
2113,
2183,
2122,
2085,
2104,
2172,
2069,
2123,
2143,
2016,
1990,
2013,
1946,
1933,
2016,
2027,
2052,
2181,
2126,
1999,
1975,
1929,
1908,
1889,
1854,
1903,
1840,
1846,
1769,
1773,
1822,
1870,
1777,
1743,
1807,
1755,
1723,
1768,
1737,
1778,
1692,
1689,
1747,
1777,
1686,
1735,
1655,
1698,
1708,
1612,
1551,
1608,
1659,
1575,
1631,
1563,
1591,
1612,
1604,
1558,
1521,
1509,
1497,
1555,
1523,
1543,
1523,
1496,
1513,
1435,
1544,
1471,
1404,
1418,
1426,
1390,
1476,
1420,
1394,
1414,
1395,
1420,
1468,
1382,
1378,
1353,
1391,
1318,
1418,
1370,
1310,
1341,
1280,
1330,
1304,
1208,
1280,
1264,
1225,
1284,
1225,
1183,
1212,
1287,
1285,
1176,
1274,
1180,
1133,
1106,
1206,
1125,
1129,
1172,
1069,
1128,
1102,
1123,
1102,
1054,
1039,
1031,
1048,
1110,
1009,
1080,
1024,
1042,
1041,
1021,
957,
1017,
1051,
978,
952,
942,
933,
932,
975,
976,
966,
936,
977,
934,
939,
917,
886,
935,
851,
904,
844,
822,
887,
875,
859,
844,
885,
841,
811,
801,
838,
816,
792,
774,
776,
773,
760,
742,
742,
791,
769,
672,
726,
764,
705,
707,
749,
700,
753,
729,
686,
692,
670,
634,
716,
658,
681,
672,
660,
646,
641,
655,
613,
580,
611,
615,
691,
562,
558,
585,
542,
614,
550,
571,
595,
547,
546,
542,
546,
573,
535,
515,
493,
525,
504,
538,
522,
482,
493,
505,
501,
437,
463,
490,
492,
462,
478,
461,
451,
452,
463,
446,
443,
463,
412,
406,
459,
398,
418,
410,
380,
421,
411,
393,
378,
372,
361,
363,
381,
345,
371,
344,
351,
372,
329,
352,
352,
335,
332,
313,
373,
313,
311,
282,
335,
289,
297,
304,
313,
260,
282,
305,
282,
258,
273,
299,
280,
253,
230,
248,
272,
279,
251,
233,
240,
229,
242,
244,
224,
218,
254,
246,
227,
236,
250,
218,
216,
210,
205,
203,
203,
230,
209,
191,
205,
215,
195,
161,
161,
197,
193,
182,
174,
178,
169,
173,
172,
146,
174,
169,
179,
153,
171,
166,
152,
130,
131,
137,
155,
145,
126,
140,
147,
113,
140,
117,
132,
108,
129,
123,
116,
106,
104,
119,
130,
101,
98,
113,
90,
95,
125,
86,
110,
95,
116,
95,
90,
87,
76,
85,
97,
96,
72,
88,
95,
85,
72,
84,
76,
89,
73,
73,
65,
67,
58,
72,
75,
58,
53,
56,
55,
62,
56,
56,
55,
47,
44,
42,
53,
50,
34,
55,
40,
43,
42,
33,
38,
41,
35,
30,
31,
33,
20,
33,
34,
24,
32,
28,
31,
20,
20,
25,
26,
24,
20,
17,
18,
28,
14,
12,
9,
16,
16,
11,
6,
8,
7,
10,
6,
7,
3,
10,
6,
1,
3,
2,
1,
0,
2,
3,
4,
3,
2,
1,
1,
3,
1,
0,
2,
2,
0,
1,
2,
0,
1,
1,
2,
0,
2,
2,
0,
0,
0,
1,
1,
1,
3,
1,
3,
0,
2,
2,
0,
2,
2,
1,
1,
0,
0,
1,
0,
1,
2,
1,
1,
4,
1,
3,
0,
1,
3,
0,
1,
0,
2,
1,
0,
0,
0,
1,
0,
0,
0,
2,
1,
1,
1,
2,
0,
2,
0,
1,
1,
0,
0,
0,
1,
1,
0,
0,
0,
1,
0,
2,
0,
0,
0,
1,
1,
0,
1,
1,
0,
0,
0,
0,
0,
0,
0,
1,
1,
0,
0,
0,
0,
0,
0,
2,
0,
0,
0,
0,
0,
0,
0,
0,
0,
0,
0,
0,
0,
0,
0,
0,
0,
0,
1,
0,
0,
0,
0,
0,
0,
0,
0,
0,
0,
0,
1,
0,
1,
0,
1,
0,
0,
0,
0,
1,
0,
1,
1,
0,
1,
0,
1,
0,
0,
0,
0,
2,
0,
0,
0,
2,
0,
0,
0,
1,
0,
0,
0,
0,
1,
1,
0,
0,
0,
0,
0,
0,
0,
0,
0,
0,
0,
0,
1,
0,
0,
0,
1,
0,
0,
1,
1,
1,
0,
0,
0,
0,
0,
0,
1,
0,
0,
0,
0,
0,
0,
0,
0,
0,
0,
0,
0,
2,
0,
0,
0,
0,
0,
0,
1,
0,
0,
0,
0,
0,
0,
0,
0,
0,
0,
0,
0,
0,
1,
0,
0,
0,
0,
0,
1,
0,
0,
0,
0,
0,
1,
0,
0,
0,
0,
0,
0,
0,
0,
0,
0,
0,
0,
1,
0,
0,
0,
0,
0,
0,
0,
0,
0,
0,
0,
0,
0,
0,
0,
0,
0,
0,
0,
0,
0,
0,
1,
0,
0,
0,
0,
0,
0,
0,
0,
0,
0,
0,
0,
0,
0,
0,
0,
0,
0,
0,
0,
0,
0,
0,
0,
0,
0,
0,
0,
0,
0,
0,
0,
0,
0,
0,
0,
0,
0,
0,
0,
0,
0,
0,
0,
0,
0,
0,
0,
0,
1,
0,
0,
0,
0,
0,
1,
0,
0,
0,
0,
0,
0,
0,
0,
0,
0,
0,
0,
0,
0,
0,
0,
0,
0,
0,
0,
0,
0,
0,
0,
0,
0,
0,
0,
0,
0,
0,
1,
0,
0,
0,
0,
0,
0,
0,
0,
0,
0,
0,
0,
0,
0,
0,
0,
0,
0,
0,
0,
0,
0,
0,
0,
0,
0,
0,
0,
0,
0,
0,
0,
0,
0,
0,
0,
0,
0,
0,
0,
0,
0,
0,
0,
0,
0,
0,
0,
0,
0,
0,
0,
0,
0,
0,
0,
0,
0,
0,
0,
0,
0,
0,
0,
0,
0,
0,
0,
0,
0,
0,
0,
0,
0,
0,
0,
0,
0,
0,
0,
0,
0,
0,
0,
0,
0,
0,
0,
0,
0,
0,
0,
0,
0,
0,
0,
0,
0,
0,
0,
0,
0,
0,
0,
0,
0,
0,
0,
0,
0,
0,
0,
0,
0,
0,
0,
0,
0,
0,
0,
0,
0,
0,
0,
0,
0,
0,
0,
0,
0,
0,
0,
0,
0,
0,
0,
0,
0,
0,
0,
0,
0,
0,
0,
0,
0,
0,
0,
0,
0,
0,
0,
0,
0,
0,
0,
0,
0,
0,
0,
0,
0,
0,
0,
0,
0,
0,
0,
0,
0,
0,
0,
0,
0,
0,
0,
0,
0,
0,
0,
0,
0,
0,
0,
0,
0,
0,
0,
0,
0,
0,
0,
0,
0,
0,
0,
0,
0,
0,
0,
0,
0,
0,
0,
0,
0,
0,
0,
0,
0,
0,
0,
0,
0,
0,
0,
0,
0,
0,
0,
0,
0,
0,
0,
0,
0,
0,
0,
0,
0,
0,
0,
0,
0,
0,
0,
0,
0,
0,
0,
0,
0,
0,
0,
0,
0,
0,
0,
0,
0,
0,
0,
0,
0,
0,
0,
0,
0,
0,
0,
0,
0,
0,
0,
0,
0,
0,
0,
0,
0,
0,
0,
0,
0,
0,
0,
0,
0,
0,
0,
0,
0,
0,
0,
0,
0,
0,
0,
0,
0,
0,
0,
0,
0,
0,
0,
0,
0,
0,
0,
0,
0,
0,
0,
0,
0,
0,
0,
0,
0,
0,
0,
0,
0,
0,
0,
0,
0,
0,
0,
0,
0,
#ENDOFDATA   :