File: N132962/Quantification/MMM1/SPI MM1 Chalcopyrite[0][4].msa
#FORMAT      : EMSA/MAS Spectral Data File
#VERSION     : 1.0
#TITLE       : SPI MM1 Chalcopyrite[0][all]
#DATE        : 11-MAR-2025
#TIME        : 14:26
#OWNER       : Unknown
#NPOINTS     : 4096
#NCOLUMNS    : 1
#XUNITS      : eV
#YUNITS      : counts
#DATATYPE    : Y
#XPERCHAN    : 9.99778
#OFFSET      : 1.69135
#BEAMKV      : 20
#SIGNALTYPE  : EDS
#ELEVANGLE   : 35
#AZIMANGLE   : 0
#LIVETIME    : 239.883
#REALTIME    : 260.4547
#PROBECUR    : 1.02809
#TAUWIND     : 0
#TDEADLYR    : 0
#TACTLYR     : 0.045
#TALWIND     : 0.025
#CHOFFSET    : 0.0
#XLABEL      : Energy (eV)
#YLABEL      : Counts
#XPOSITION   : -4.89738
#YPOSITION   : -3.86636
#ZPOSITION   : 30.9284
#EDSDET      : SD
##SPECIMEN   : SPI MM1 Chalcopyrite[0][all]
##D2STDCMP   : Chalcopyrite,(S:34.9407),(Fe:30.4314),(Cu:34.6279),4.2
##DET_HASH   : 12273538-fd48-a23f-0a19-f1e6fa85caef
##CALIB_HASH : 6abaa72c-aa41-8738-0be9-f592914732f3
##WORKING    : 15.0 mm
##DET_NAME   : EDAX All
##DET_MODE   : MediumLE
#SPECTRUM    :
21,
24,
8,
42,
215,
602,
1157,
3313,
9084,
12094,
6362,
2752,
2658,
2908,
3293,
3946,
4997,
6990,
10475,
14640,
17528,
17724,
24782,
40291,
36095,
17406,
10929,
11611,
11599,
21973,
58468,
84413,
55770,
18784,
6298,
4106,
3625,
3436,
3670,
3547,
3734,
3810,
4066,
4265,
4293,
4374,
4593,
4826,
4913,
5029,
5172,
5096,
5087,
5071,
5303,
5384,
5443,
5952,
6303,
6239,
5917,
5682,
5552,
5211,
5229,
5385,
5652,
5580,
5558,
5619,
5836,
6242,
8225,
14058,
33927,
91107,
185830,
232540,
170121,
74167,
26428,
19235,
21539,
18074,
10855,
5982,
4132,
3781,
3726,
3778,
3758,
3775,
3691,
3793,
3779,
3778,
3818,
3933,
3820,
3754,
3734,
3838,
3802,
3771,
3870,
3804,
3750,
3760,
3854,
3928,
3714,
3730,
3614,
3697,
3591,
3616,
3557,
3512,
3584,
3619,
3416,
3452,
3624,
3473,
3463,
3497,
3409,
3418,
3371,
3333,
3425,
3402,
3296,
3361,
3214,
3307,
3348,
3310,
3206,
3288,
3205,
3179,
3098,
3034,
3144,
3011,
3111,
2975,
3118,
3065,
3076,
3155,
3250,
3364,
3507,
3485,
3370,
3048,
3094,
2940,
2901,
2859,
2772,
2706,
2836,
2750,
2833,
2798,
2696,
2688,
2667,
2720,
2679,
2747,
2585,
2646,
2587,
2662,
2681,
2573,
2542,
2576,
2463,
2580,
2441,
2497,
2446,
2524,
2358,
2461,
2360,
2380,
2391,
2354,
2259,
2325,
2245,
2330,
2331,
2344,
2328,
2296,
2303,
2235,
2345,
2300,
2412,
2859,
4050,
8031,
17732,
34479,
53106,
64953,
60922,
44207,
24757,
11758,
5101,
3009,
2117,
2029,
2138,
2011,
2025,
1962,
1967,
1882,
2011,
2203,
2377,
3120,
4520,
6748,
8964,
9978,
9130,
7123,
4677,
2991,
2118,
1732,
1595,
1676,
1649,
1631,
1591,
1607,
1693,
1629,
1583,
1596,
1588,
1525,
1518,
1580,
1568,
1512,
1521,
1526,
1538,
1790,
2319,
4075,
8027,
15241,
25458,
33787,
36973,
32326,
23430,
13863,
7066,
3535,
1971,
1589,
1419,
1384,
1365,
1306,
1316,
1298,
1270,
1195,
1282,
1257,
1308,
1371,
1350,
1420,
1501,
1626,
1994,
2503,
3490,
4787,
5663,
5816,
5020,
3770,
2698,
1813,
1362,
1153,
1142,
1043,
995,
1022,
998,
1057,
1066,
996,
1019,
986,
1020,
1073,
922,
989,
1027,
950,
976,
988,
1012,
1008,
1002,
891,
924,
984,
940,
871,
887,
903,
911,
856,
947,
902,
876,
876,
850,
856,
878,
821,
850,
909,
969,
916,
918,
901,
814,
817,
860,
755,
779,
819,
771,
785,
770,
738,
761,
723,
788,
713,
724,
726,
735,
702,
689,
678,
710,
711,
748,
720,
743,
699,
691,
680,
690,
691,
645,
600,
659,
663,
658,
611,
607,
584,
599,
622,
616,
637,
610,
546,
605,
565,
595,
577,
540,
534,
522,
579,
491,
517,
503,
519,
523,
522,
470,
502,
529,
520,
497,
492,
505,
522,
513,
491,
480,
480,
470,
482,
480,
453,
472,
449,
420,
404,
444,
439,
427,
454,
443,
415,
419,
456,
397,
409,
404,
408,
396,
363,
382,
360,
368,
388,
377,
375,
342,
349,
367,
369,
335,
332,
338,
326,
347,
351,
323,
306,
348,
323,
332,
309,
317,
297,
293,
317,
283,
304,
298,
248,
325,
268,
303,
263,
287,
245,
280,
290,
252,
281,
281,
308,
253,
271,
264,
253,
238,
229,
240,
205,
236,
243,
235,
222,
204,
209,
193,
204,
198,
197,
224,
203,
186,
185,
168,
184,
161,
207,
192,
174,
170,
180,
178,
177,
187,
186,
172,
150,
171,
142,
167,
165,
146,
166,
151,
158,
149,
158,
138,
160,
147,
159,
155,
146,
143,
146,
134,
131,
137,
120,
151,
116,
117,
102,
118,
143,
91,
86,
104,
102,
117,
107,
110,
93,
92,
100,
98,
81,
105,
97,
111,
85,
97,
91,
81,
78,
81,
83,
95,
86,
82,
79,
98,
58,
64,
80,
85,
77,
73,
73,
65,
49,
83,
67,
57,
71,
63,
67,
65,
56,
57,
61,
69,
45,
56,
49,
50,
52,
56,
49,
58,
45,
57,
53,
53,
46,
52,
34,
47,
38,
41,
51,
35,
32,
40,
39,
29,
36,
37,
33,
25,
30,
29,
27,
27,
22,
25,
19,
25,
23,
22,
25,
25,
22,
16,
23,
19,
24,
13,
15,
12,
17,
9,
11,
19,
13,
9,
20,
13,
8,
6,
15,
15,
9,
9,
5,
12,
7,
9,
5,
6,
5,
6,
5,
3,
1,
1,
1,
1,
1,
2,
1,
2,
0,
1,
0,
2,
0,
3,
3,
2,
1,
2,
0,
2,
1,
2,
1,
0,
3,
4,
0,
2,
1,
2,
0,
2,
0,
2,
1,
3,
0,
1,
0,
0,
1,
0,
0,
1,
0,
1,
0,
0,
0,
2,
1,
4,
0,
0,
0,
1,
3,
0,
1,
0,
1,
1,
0,
1,
2,
0,
0,
1,
0,
1,
0,
1,
1,
1,
1,
0,
0,
0,
0,
1,
0,
0,
0,
0,
0,
0,
1,
0,
2,
0,
0,
0,
0,
0,
0,
0,
1,
0,
1,
1,
0,
0,
0,
0,
1,
0,
0,
1,
0,
0,
0,
2,
1,
0,
0,
0,
0,
1,
0,
1,
0,
0,
0,
1,
1,
0,
2,
0,
0,
0,
1,
0,
0,
0,
0,
1,
1,
1,
1,
0,
0,
0,
0,
0,
0,
2,
0,
0,
0,
1,
0,
1,
0,
0,
0,
0,
0,
0,
1,
0,
0,
0,
0,
0,
1,
0,
0,
0,
0,
0,
0,
0,
0,
0,
0,
0,
1,
0,
0,
1,
0,
0,
1,
0,
0,
1,
1,
0,
0,
0,
0,
0,
1,
0,
0,
0,
0,
0,
0,
0,
0,
0,
0,
0,
0,
0,
0,
0,
0,
1,
0,
0,
0,
0,
0,
0,
0,
0,
0,
0,
0,
0,
1,
0,
0,
1,
0,
0,
0,
0,
0,
0,
0,
0,
0,
0,
0,
0,
0,
0,
0,
0,
0,
0,
0,
0,
0,
0,
0,
0,
0,
0,
0,
0,
0,
0,
0,
0,
0,
1,
0,
0,
0,
0,
0,
0,
0,
0,
0,
0,
0,
0,
0,
0,
0,
0,
0,
0,
0,
0,
0,
0,
0,
0,
0,
0,
0,
0,
0,
0,
0,
0,
0,
0,
0,
0,
0,
0,
0,
0,
0,
0,
0,
0,
0,
0,
0,
0,
0,
0,
0,
0,
0,
0,
0,
0,
0,
0,
0,
0,
0,
0,
0,
0,
0,
0,
0,
0,
0,
0,
0,
0,
0,
0,
0,
0,
0,
0,
0,
0,
0,
0,
0,
0,
1,
0,
0,
0,
0,
0,
0,
0,
0,
0,
0,
0,
0,
0,
0,
0,
0,
1,
0,
0,
0,
0,
0,
0,
0,
0,
0,
0,
0,
0,
0,
0,
0,
0,
0,
0,
0,
0,
0,
0,
0,
0,
0,
0,
0,
0,
0,
0,
0,
0,
0,
0,
0,
0,
0,
0,
0,
0,
0,
0,
0,
0,
0,
0,
0,
0,
0,
0,
0,
0,
0,
0,
0,
0,
0,
0,
0,
0,
0,
0,
0,
0,
0,
0,
0,
0,
0,
0,
0,
0,
0,
0,
0,
0,
0,
0,
0,
0,
0,
0,
0,
0,
0,
0,
0,
0,
0,
0,
0,
0,
0,
0,
0,
0,
0,
0,
0,
0,
0,
0,
0,
0,
0,
0,
0,
0,
0,
0,
0,
0,
0,
0,
0,
0,
0,
0,
0,
0,
0,
0,
0,
0,
0,
0,
0,
0,
0,
0,
0,
0,
0,
0,
0,
0,
0,
0,
0,
0,
0,
0,
0,
0,
0,
0,
0,
0,
0,
0,
0,
0,
0,
0,
0,
0,
0,
0,
0,
0,
0,
0,
0,
0,
0,
0,
0,
0,
0,
0,
0,
0,
0,
0,
0,
0,
0,
0,
0,
0,
0,
0,
0,
0,
0,
0,
0,
0,
0,
0,
0,
0,
0,
0,
0,
0,
0,
0,
0,
0,
0,
0,
0,
0,
0,
0,
0,
0,
0,
0,
0,
0,
0,
0,
0,
0,
0,
0,
0,
0,
0,
0,
0,
0,
0,
0,
0,
0,
0,
0,
0,
0,
0,
0,
0,
0,
0,
0,
0,
0,
0,
0,
0,
0,
0,
0,
0,
0,
0,
0,
0,
0,
0,
0,
0,
0,
0,
0,
0,
0,
0,
0,
0,
0,
0,
0,
0,
0,
0,
0,
0,
0,
0,
0,
0,
0,
0,
0,
0,
0,
0,
0,
0,
0,
0,
0,
0,
0,
0,
0,
0,
0,
0,
0,
0,
0,
0,
0,
0,
0,
0,
0,
0,
0,
0,
0,
0,
0,
0,
0,
0,
0,
0,
0,
0,
0,
0,
0,
0,
0,
0,
0,
0,
0,
0,
0,
0,
0,
0,
0,
0,
0,
0,
0,
0,
0,
0,
0,
0,
#ENDOFDATA   :