File: N132962/Quantification/MMM1/SPI MM1 Albite[2][4].msa
#FORMAT      : EMSA/MAS Spectral Data File
#VERSION     : 1.0
#TITLE       : SPI MM1 Albite[2][all]
#DATE        : 11-MAR-2025
#TIME        : 12:50
#OWNER       : Unknown
#NPOINTS     : 4096
#NCOLUMNS    : 1
#XUNITS      : eV
#YUNITS      : counts
#DATATYPE    : Y
#XPERCHAN    : 9.99778
#OFFSET      : 1.69135
#BEAMKV      : 20
#SIGNALTYPE  : EDS
#ELEVANGLE   : 35
#AZIMANGLE   : 0
#LIVETIME    : 239.848
#REALTIME    : 255.981
#PROBECUR    : 1.02699
#TAUWIND     : 0
#TDEADLYR    : 0
#TACTLYR     : 0.045
#TALWIND     : 0.025
#CHOFFSET    : 0.0
#XLABEL      : Energy (eV)
#YLABEL      : Counts
#XPOSITION   : 3.42271
#YPOSITION   : -7.11557
#ZPOSITION   : 30.9284
#EDSDET      : SD
##SPECIMEN   : SPI MM1 Albite[2][all]
##D2STDCMP   : Albite,(O:48.8112),(Na:8.7674),(Al:10.2897),(Si:32.1316)
##DET_HASH   : 12273538-fd48-a23f-0a19-f1e6fa85caef
##CALIB_HASH : 6abaa72c-aa41-8738-0be9-f592914732f3
##WORKING    : 15.0 mm
##DET_NAME   : EDAX All
##DET_MODE   : MediumLE
#SPECTRUM    :
21,
47,
14,
10,
67,
289,
797,
2372,
6579,
8612,
4849,
2435,
2472,
3310,
6342,
25735,
101619,
196668,
145290,
39311,
5226,
1851,
1780,
2006,
2173,
2265,
2368,
2563,
2755,
3000,
3110,
3876,
7022,
20383,
47362,
52320,
26824,
8201,
3772,
3397,
3468,
3562,
3807,
3981,
4089,
4482,
5662,
13676,
43023,
84471,
85396,
46035,
16741,
7366,
6583,
18539,
73825,
189620,
257995,
182518,
74351,
24490,
10452,
4967,
2668,
2091,
2253,
2277,
2229,
2198,
2057,
2034,
2080,
2265,
2539,
2800,
2784,
2431,
2265,
2174,
2104,
2147,
2182,
2106,
2232,
2147,
2146,
2100,
2140,
2063,
2145,
2091,
2165,
2214,
2131,
2141,
2077,
2130,
2127,
2054,
2061,
2013,
1961,
1974,
2028,
2011,
2109,
2236,
2359,
2494,
2490,
2502,
2364,
2102,
2052,
2110,
2240,
2236,
1944,
1867,
1981,
2020,
2172,
2199,
2031,
1955,
1756,
1667,
1613,
1697,
1689,
1586,
1601,
1662,
1660,
1591,
1698,
1624,
1515,
1550,
1543,
1543,
1492,
1535,
1424,
1548,
1436,
1454,
1360,
1416,
1388,
1419,
1367,
1383,
1363,
1384,
1363,
1410,
1275,
1353,
1271,
1314,
1333,
1280,
1297,
1280,
1292,
1233,
1238,
1258,
1232,
1168,
1129,
1236,
1123,
1169,
1154,
1081,
1219,
1157,
1142,
1194,
1170,
1234,
1101,
1085,
1095,
1023,
1081,
1040,
1009,
1021,
1107,
1031,
986,
971,
1022,
1023,
1038,
1005,
954,
997,
990,
957,
933,
881,
918,
898,
952,
909,
920,
936,
913,
992,
975,
947,
857,
854,
853,
783,
794,
808,
778,
800,
790,
754,
833,
835,
778,
763,
832,
777,
795,
770,
766,
742,
731,
778,
706,
721,
739,
678,
716,
719,
706,
719,
744,
656,
690,
718,
737,
654,
644,
676,
669,
657,
695,
649,
634,
631,
616,
627,
614,
599,
603,
591,
632,
593,
593,
588,
572,
583,
556,
597,
569,
564,
556,
546,
536,
547,
536,
525,
549,
551,
479,
500,
488,
487,
524,
508,
551,
515,
490,
460,
484,
493,
481,
416,
438,
427,
440,
481,
466,
472,
462,
441,
458,
403,
436,
438,
427,
422,
443,
388,
403,
385,
420,
404,
429,
413,
418,
419,
413,
391,
384,
377,
397,
390,
400,
386,
348,
391,
373,
354,
363,
387,
354,
343,
319,
357,
344,
352,
328,
348,
338,
335,
361,
307,
320,
345,
329,
320,
313,
325,
307,
279,
296,
306,
297,
292,
285,
319,
296,
300,
253,
259,
266,
280,
288,
264,
278,
282,
265,
257,
245,
271,
273,
251,
242,
253,
245,
267,
232,
239,
202,
246,
240,
257,
211,
208,
228,
212,
219,
212,
212,
218,
228,
221,
206,
203,
208,
199,
196,
189,
200,
186,
205,
184,
179,
184,
169,
203,
163,
196,
199,
184,
153,
163,
153,
191,
190,
168,
168,
167,
149,
160,
143,
145,
145,
141,
146,
149,
153,
155,
137,
136,
146,
131,
128,
120,
144,
134,
123,
122,
131,
121,
136,
144,
115,
135,
118,
100,
126,
114,
123,
99,
116,
117,
135,
98,
104,
107,
115,
106,
102,
94,
92,
91,
102,
92,
110,
98,
100,
89,
104,
96,
72,
110,
95,
94,
64,
86,
91,
89,
89,
86,
84,
88,
92,
65,
88,
80,
83,
98,
74,
67,
70,
78,
67,
78,
62,
68,
77,
61,
59,
72,
59,
69,
60,
48,
69,
54,
61,
68,
58,
57,
58,
75,
42,
47,
51,
46,
56,
55,
53,
42,
44,
32,
56,
49,
54,
39,
34,
47,
36,
40,
44,
37,
41,
38,
38,
34,
36,
42,
32,
46,
43,
33,
45,
44,
34,
46,
33,
35,
37,
36,
32,
34,
34,
41,
34,
28,
26,
30,
19,
25,
34,
19,
26,
27,
25,
22,
31,
33,
24,
25,
19,
19,
14,
22,
15,
23,
17,
11,
15,
15,
15,
17,
15,
18,
16,
13,
20,
17,
19,
15,
13,
17,
12,
21,
9,
13,
7,
13,
8,
14,
8,
8,
11,
12,
6,
14,
9,
12,
5,
12,
6,
12,
7,
7,
7,
8,
9,
9,
7,
9,
2,
5,
10,
8,
4,
6,
3,
1,
3,
8,
10,
8,
10,
3,
4,
3,
1,
8,
4,
3,
4,
3,
4,
2,
4,
2,
3,
3,
1,
3,
3,
2,
4,
2,
1,
1,
1,
0,
2,
0,
0,
1,
0,
0,
0,
0,
1,
0,
0,
0,
0,
0,
0,
0,
0,
0,
0,
0,
0,
0,
0,
0,
0,
0,
0,
0,
0,
0,
0,
0,
0,
2,
0,
0,
0,
0,
0,
0,
1,
0,
0,
0,
0,
0,
1,
0,
0,
0,
0,
0,
1,
0,
0,
0,
0,
1,
0,
0,
0,
0,
0,
0,
0,
0,
0,
0,
0,
0,
0,
0,
0,
0,
0,
0,
0,
0,
0,
0,
0,
0,
0,
0,
0,
0,
0,
0,
0,
0,
0,
0,
0,
0,
0,
0,
0,
0,
0,
0,
0,
0,
0,
0,
0,
0,
0,
0,
0,
0,
0,
0,
0,
0,
0,
0,
0,
0,
0,
0,
0,
0,
0,
0,
0,
0,
0,
0,
0,
0,
0,
0,
0,
0,
0,
0,
0,
0,
0,
0,
0,
0,
0,
0,
0,
0,
0,
0,
0,
0,
0,
0,
0,
0,
0,
0,
0,
0,
0,
0,
0,
0,
0,
0,
0,
1,
0,
0,
0,
0,
0,
0,
0,
0,
0,
0,
0,
0,
0,
0,
0,
0,
0,
0,
0,
0,
0,
0,
0,
0,
0,
0,
0,
0,
0,
0,
0,
0,
0,
0,
0,
0,
0,
0,
0,
0,
0,
0,
0,
0,
0,
0,
0,
0,
0,
0,
0,
0,
0,
0,
0,
0,
0,
0,
0,
0,
0,
0,
0,
0,
0,
0,
0,
0,
0,
0,
0,
0,
0,
0,
0,
0,
0,
0,
0,
0,
0,
0,
0,
0,
0,
0,
0,
0,
0,
0,
0,
0,
0,
0,
0,
0,
0,
0,
0,
0,
0,
0,
0,
0,
0,
0,
0,
0,
0,
0,
0,
0,
0,
0,
0,
0,
0,
0,
0,
0,
0,
0,
0,
0,
0,
0,
0,
0,
0,
0,
0,
0,
0,
0,
0,
0,
0,
0,
0,
0,
0,
0,
0,
0,
0,
0,
0,
0,
0,
0,
0,
0,
0,
0,
0,
0,
0,
0,
0,
0,
0,
0,
0,
0,
0,
0,
0,
0,
0,
1,
0,
0,
0,
0,
0,
0,
0,
0,
0,
0,
0,
0,
0,
0,
0,
0,
0,
0,
0,
0,
0,
0,
0,
0,
0,
0,
0,
0,
0,
0,
0,
0,
0,
0,
0,
0,
0,
0,
0,
0,
0,
0,
0,
0,
0,
0,
0,
0,
0,
0,
0,
0,
0,
0,
0,
0,
0,
0,
0,
0,
0,
0,
0,
0,
0,
0,
0,
0,
0,
0,
0,
0,
0,
0,
0,
0,
0,
0,
0,
0,
0,
0,
0,
0,
0,
0,
0,
0,
0,
0,
0,
0,
0,
0,
0,
0,
0,
0,
0,
0,
0,
0,
0,
0,
0,
0,
0,
0,
0,
0,
0,
0,
0,
0,
0,
0,
0,
0,
0,
0,
0,
0,
0,
0,
0,
0,
0,
0,
0,
0,
0,
0,
0,
0,
0,
0,
0,
0,
0,
0,
0,
0,
0,
0,
0,
0,
0,
0,
0,
0,
0,
0,
0,
0,
0,
0,
0,
0,
0,
0,
0,
0,
0,
0,
0,
0,
0,
0,
0,
0,
0,
0,
0,
0,
0,
0,
0,
0,
0,
0,
0,
0,
0,
0,
0,
0,
0,
0,
0,
0,
0,
0,
0,
0,
0,
0,
0,
0,
0,
0,
0,
0,
0,
0,
0,
0,
0,
0,
0,
0,
0,
0,
0,
0,
0,
0,
0,
0,
0,
0,
0,
0,
0,
0,
0,
0,
0,
0,
0,
0,
0,
0,
0,
0,
0,
0,
0,
0,
0,
0,
0,
0,
0,
0,
0,
0,
0,
0,
0,
0,
0,
0,
0,
0,
0,
0,
0,
0,
0,
0,
0,
0,
0,
0,
0,
0,
0,
0,
0,
0,
0,
0,
0,
0,
0,
0,
0,
0,
0,
0,
0,
0,
0,
0,
0,
0,
0,
0,
0,
0,
0,
0,
0,
0,
0,
0,
0,
0,
0,
0,
0,
0,
0,
0,
0,
0,
0,
0,
0,
0,
0,
0,
0,
0,
0,
0,
0,
0,
0,
0,
0,
0,
0,
0,
0,
0,
0,
0,
0,
0,
0,
0,
0,
0,
0,
0,
0,
0,
0,
0,
0,
0,
0,
0,
0,
0,
0,
0,
0,
0,
0,
0,
0,
0,
0,
0,
0,
0,
0,
0,
0,
0,
0,
0,
0,
0,
#ENDOFDATA   :