File: N132962/Quantification/MMM1/SPI MM1 Bustamite[7][4].msa
#FORMAT      : EMSA/MAS Spectral Data File
#VERSION     : 1.0
#TITLE       : SPI MM1 Bustamite[7][all]
#DATE        : 11-MAR-2025
#TIME        : 14:10
#OWNER       : Unknown
#NPOINTS     : 4096
#NCOLUMNS    : 1
#XUNITS      : eV
#YUNITS      : counts
#DATATYPE    : Y
#XPERCHAN    : 9.99778
#OFFSET      : 1.69135
#BEAMKV      : 20
#SIGNALTYPE  : EDS
#ELEVANGLE   : 35
#AZIMANGLE   : 0
#LIVETIME    : 239.9274
#REALTIME    : 255.791
#PROBECUR    : 1.02902
#TAUWIND     : 0
#TDEADLYR    : 0
#TACTLYR     : 0.045
#TALWIND     : 0.025
#CHOFFSET    : 0.0
#XLABEL      : Energy (eV)
#YLABEL      : Counts
#XPOSITION   : 2.69589
#YPOSITION   : -2.76034
#ZPOSITION   : 30.9284
#EDSDET      : SD
##SPECIMEN   : SPI MM1 Bustamite[7][all]
##D2STDCMP   : Bustamite,(O:38.8357),(Si:22.7243),(Ca:16.2141),(Mn:22.2259),6.0
##DET_HASH   : 12273538-fd48-a23f-0a19-f1e6fa85caef
##CALIB_HASH : 6abaa72c-aa41-8738-0be9-f592914732f3
##WORKING    : 15.0 mm
##DET_NAME   : EDAX All
##DET_MODE   : MediumLE
#SPECTRUM    :
26,
35,
7,
25,
65,
308,
896,
2925,
8561,
11975,
7550,
4110,
3151,
3283,
4947,
15886,
60349,
118334,
87982,
25809,
9173,
10420,
9149,
7313,
6042,
3586,
2389,
2301,
2406,
2445,
2449,
2554,
2915,
3262,
3529,
3456,
3260,
3277,
3400,
3494,
3840,
4520,
4733,
4453,
4280,
4381,
4409,
4462,
4700,
4935,
5083,
5252,
5293,
5335,
6475,
15408,
56288,
142952,
194176,
137340,
55882,
19979,
9644,
5720,
4238,
3918,
3746,
3441,
3302,
3142,
3279,
3140,
3215,
3421,
3527,
3637,
3599,
3368,
3396,
3236,
3273,
3270,
3117,
3155,
3221,
3169,
3119,
3055,
3207,
3080,
3122,
2999,
3052,
3018,
3021,
3037,
3055,
3140,
3011,
2974,
2993,
2919,
2877,
2952,
2940,
2877,
2827,
2832,
2867,
2962,
2816,
2878,
2759,
2758,
2833,
2900,
3052,
3313,
3582,
5605,
12168,
29111,
52841,
66586,
56702,
32509,
13211,
5121,
3173,
2811,
3159,
4435,
6676,
9137,
10282,
8449,
5492,
3378,
2594,
2422,
2178,
2257,
2045,
2122,
2003,
2038,
2052,
1957,
1958,
1984,
1966,
1884,
1879,
1983,
1919,
1896,
1915,
1899,
1836,
1886,
1826,
1740,
1752,
1854,
1854,
1826,
1826,
1716,
1730,
1701,
1649,
1706,
1680,
1670,
1631,
1663,
1611,
1619,
1661,
1639,
1739,
1712,
1765,
1684,
1678,
1575,
1588,
1611,
1591,
1660,
1817,
2281,
3894,
8426,
17922,
30404,
39974,
40068,
29662,
17009,
8037,
3519,
2015,
1511,
1444,
1424,
1442,
1493,
1647,
2466,
4233,
7414,
11375,
14071,
14998,
13243,
10731,
7796,
5216,
3197,
1943,
1440,
1182,
1138,
1165,
1114,
1133,
1107,
1070,
1130,
1246,
1296,
1598,
1900,
2290,
2498,
2420,
1979,
1549,
1228,
1100,
1018,
937,
950,
1014,
1007,
979,
999,
1024,
979,
1029,
1017,
1116,
1021,
980,
970,
954,
913,
915,
897,
927,
851,
822,
890,
861,
855,
835,
880,
787,
836,
890,
846,
885,
845,
884,
857,
827,
809,
774,
824,
812,
746,
742,
754,
806,
800,
900,
861,
909,
833,
782,
741,
762,
712,
712,
688,
668,
673,
692,
696,
697,
673,
634,
637,
686,
656,
640,
653,
598,
589,
590,
608,
603,
617,
599,
610,
623,
650,
635,
675,
622,
603,
607,
585,
577,
589,
561,
534,
547,
553,
529,
539,
515,
538,
535,
543,
545,
500,
529,
512,
539,
506,
521,
472,
532,
503,
506,
493,
473,
520,
487,
477,
510,
487,
485,
413,
451,
431,
436,
448,
463,
432,
425,
405,
425,
476,
372,
431,
450,
398,
383,
404,
387,
406,
422,
352,
351,
402,
401,
392,
370,
367,
343,
353,
385,
368,
348,
375,
345,
340,
348,
338,
344,
378,
345,
335,
321,
365,
317,
308,
342,
313,
325,
298,
307,
304,
293,
294,
293,
333,
325,
278,
293,
284,
249,
303,
276,
263,
296,
287,
277,
264,
240,
260,
264,
247,
245,
258,
229,
230,
251,
261,
233,
232,
216,
230,
260,
239,
228,
209,
206,
236,
203,
197,
215,
191,
199,
179,
199,
192,
190,
204,
185,
181,
165,
188,
173,
216,
187,
188,
161,
157,
189,
155,
169,
171,
154,
174,
184,
171,
170,
161,
161,
157,
154,
151,
131,
148,
151,
143,
137,
149,
137,
140,
122,
138,
138,
141,
104,
130,
128,
101,
114,
117,
107,
115,
102,
118,
122,
126,
108,
110,
107,
109,
94,
105,
94,
100,
96,
91,
98,
89,
88,
81,
96,
101,
86,
103,
75,
93,
97,
88,
91,
80,
89,
92,
80,
100,
77,
72,
70,
72,
75,
82,
76,
66,
75,
74,
69,
60,
65,
56,
56,
54,
52,
67,
54,
58,
54,
64,
65,
53,
55,
54,
51,
65,
49,
52,
44,
51,
52,
43,
59,
57,
44,
45,
45,
58,
38,
43,
35,
40,
43,
50,
40,
37,
38,
37,
44,
30,
29,
36,
28,
25,
37,
29,
27,
29,
37,
33,
30,
26,
32,
24,
25,
24,
33,
34,
25,
26,
21,
24,
27,
28,
29,
23,
18,
20,
19,
26,
20,
18,
18,
18,
13,
11,
9,
16,
20,
25,
14,
18,
12,
13,
15,
6,
12,
7,
13,
10,
10,
17,
19,
12,
16,
11,
9,
8,
18,
9,
12,
7,
8,
7,
10,
9,
5,
5,
7,
3,
2,
3,
3,
7,
2,
6,
4,
3,
1,
1,
3,
3,
3,
2,
0,
2,
0,
0,
0,
0,
0,
0,
0,
0,
1,
0,
0,
1,
0,
0,
0,
0,
1,
2,
0,
0,
2,
0,
0,
1,
0,
0,
0,
0,
0,
3,
1,
0,
0,
0,
0,
0,
0,
0,
0,
0,
0,
0,
0,
0,
0,
1,
0,
1,
0,
0,
1,
0,
0,
1,
0,
0,
0,
0,
0,
0,
0,
0,
1,
0,
0,
0,
0,
0,
0,
0,
1,
0,
0,
0,
0,
0,
0,
0,
0,
0,
0,
0,
0,
0,
0,
2,
1,
0,
0,
0,
2,
0,
0,
1,
0,
0,
0,
0,
0,
0,
0,
0,
0,
0,
0,
0,
0,
0,
0,
0,
0,
0,
0,
0,
0,
0,
0,
0,
0,
0,
1,
0,
0,
0,
0,
0,
0,
0,
0,
0,
0,
0,
0,
0,
0,
0,
0,
0,
0,
0,
0,
0,
0,
0,
0,
0,
0,
0,
0,
0,
0,
0,
1,
0,
0,
0,
0,
0,
0,
0,
0,
0,
0,
0,
0,
0,
0,
0,
0,
0,
0,
0,
0,
0,
0,
0,
0,
0,
0,
0,
0,
1,
0,
0,
0,
0,
0,
0,
0,
0,
0,
0,
0,
0,
0,
0,
0,
0,
0,
0,
0,
0,
0,
0,
0,
0,
0,
0,
0,
0,
0,
0,
0,
0,
0,
0,
0,
0,
0,
0,
0,
0,
0,
0,
0,
0,
0,
1,
0,
0,
0,
0,
0,
0,
0,
0,
0,
0,
0,
0,
0,
0,
0,
0,
0,
0,
0,
0,
0,
0,
0,
0,
0,
0,
0,
0,
0,
0,
0,
0,
0,
0,
0,
0,
0,
0,
0,
0,
0,
0,
0,
0,
0,
0,
0,
0,
0,
0,
0,
0,
0,
0,
0,
0,
0,
0,
0,
0,
0,
0,
0,
0,
0,
0,
0,
0,
0,
0,
0,
0,
0,
0,
0,
0,
0,
0,
0,
0,
0,
0,
0,
0,
0,
0,
0,
0,
0,
0,
0,
0,
0,
0,
0,
0,
0,
0,
0,
0,
0,
0,
0,
0,
0,
0,
0,
0,
0,
0,
0,
0,
0,
0,
0,
0,
0,
0,
0,
0,
0,
0,
0,
0,
0,
0,
0,
0,
0,
0,
0,
0,
0,
0,
0,
0,
0,
0,
0,
0,
0,
0,
0,
0,
0,
0,
0,
0,
0,
0,
0,
0,
0,
0,
0,
0,
0,
0,
0,
0,
0,
0,
0,
0,
0,
0,
0,
0,
0,
0,
0,
0,
0,
0,
0,
0,
0,
0,
0,
0,
0,
0,
0,
0,
0,
0,
0,
0,
0,
0,
0,
0,
0,
0,
0,
0,
0,
0,
0,
0,
0,
0,
0,
0,
0,
0,
0,
0,
0,
0,
0,
0,
0,
0,
0,
0,
0,
0,
0,
0,
0,
0,
0,
0,
0,
0,
0,
0,
0,
0,
0,
0,
0,
0,
0,
0,
0,
0,
0,
0,
0,
0,
0,
0,
0,
0,
0,
0,
0,
0,
0,
0,
0,
0,
0,
0,
0,
0,
0,
0,
0,
0,
0,
0,
0,
0,
0,
0,
0,
0,
0,
0,
0,
0,
0,
0,
0,
0,
0,
0,
0,
0,
0,
0,
0,
0,
0,
0,
0,
0,
0,
0,
0,
0,
0,
0,
0,
0,
0,
0,
0,
0,
0,
0,
0,
0,
0,
0,
0,
0,
0,
0,
0,
0,
0,
0,
0,
0,
0,
0,
0,
0,
0,
0,
0,
0,
0,
0,
0,
0,
0,
0,
0,
0,
0,
0,
0,
0,
0,
0,
0,
0,
0,
0,
0,
0,
0,
0,
0,
0,
0,
0,
0,
0,
0,
0,
0,
0,
0,
0,
0,
0,
0,
0,
0,
0,
0,
0,
0,
0,
0,
0,
0,
0,
0,
0,
0,
0,
0,
0,
0,
0,
0,
0,
0,
0,
0,
0,
0,
0,
0,
0,
0,
0,
0,
0,
0,
0,
0,
0,
0,
0,
0,
0,
0,
0,
0,
0,
0,
0,
0,
0,
0,
0,
0,
0,
0,
0,
0,
0,
0,
0,
0,
0,
0,
0,
0,
0,
0,
0,
0,
0,
0,
0,
0,
0,
0,
0,
0,
0,
0,
0,
0,
0,
0,
0,
0,
0,
0,
0,
0,
0,
0,
0,
0,
0,
0,
0,
0,
0,
0,
0,
0,
0,
0,
0,
0,
0,
0,
0,
0,
0,
#ENDOFDATA   :