File: N132962/Quantification/MMM1/SPI MM1 Benitoite[3][4].msa
#FORMAT      : EMSA/MAS Spectral Data File
#VERSION     : 1.0
#TITLE       : SPI MM1 Benitoite[3][all]
#DATE        : 11-MAR-2025
#TIME        : 13:19
#OWNER       : Unknown
#NPOINTS     : 4096
#NCOLUMNS    : 1
#XUNITS      : eV
#YUNITS      : counts
#DATATYPE    : Y
#XPERCHAN    : 9.99778
#OFFSET      : 1.69135
#BEAMKV      : 20
#SIGNALTYPE  : EDS
#ELEVANGLE   : 35
#AZIMANGLE   : 0
#LIVETIME    : 239.857
#REALTIME    : 256.742
#PROBECUR    : 1.02853
#TAUWIND     : 0
#TDEADLYR    : 0
#TACTLYR     : 0.045
#TALWIND     : 0.025
#CHOFFSET    : 0.0
#XLABEL      : Energy (eV)
#YLABEL      : Counts
#XPOSITION   : -3.24748
#YPOSITION   : -4.89207
#ZPOSITION   : 30.9284
#EDSDET      : SD
##SPECIMEN   : SPI MM1 Benitoite[3][all]
##D2STDCMP   : Benitoite,(O:34.828),(Si:20.3791),(Ti:11.5776),(Ba:33.2153)
##DET_HASH   : 12273538-fd48-a23f-0a19-f1e6fa85caef
##CALIB_HASH : 6abaa72c-aa41-8738-0be9-f592914732f3
##WORKING    : 15.0 mm
##DET_NAME   : EDAX All
##DET_MODE   : MediumLE
#SPECTRUM    :
17,
25,
13,
18,
112,
401,
1284,
3804,
9783,
12900,
7474,
5211,
7236,
9651,
12098,
22993,
66186,
123484,
91509,
27618,
8146,
4471,
3384,
3528,
4127,
5363,
6211,
5131,
3921,
3504,
3431,
3912,
4534,
4771,
4721,
4475,
4229,
3976,
3873,
3742,
3783,
3922,
4099,
4240,
4298,
4463,
4593,
4743,
4981,
5194,
5493,
5371,
5458,
5543,
6593,
13675,
46274,
113978,
154131,
109787,
45787,
17271,
8838,
5595,
4198,
3825,
3865,
3897,
3923,
4061,
3992,
4114,
4230,
4235,
4345,
4286,
4338,
4204,
4075,
4007,
3981,
4020,
4130,
4091,
4139,
4105,
4063,
4041,
4233,
4321,
4404,
4543,
4461,
4316,
4153,
4096,
4042,
3895,
3885,
3932,
3852,
3969,
3981,
3913,
3831,
3882,
3785,
3831,
3656,
3840,
3745,
3749,
3705,
3812,
3692,
3677,
3754,
3656,
3706,
3527,
3436,
3505,
3473,
3406,
3437,
3518,
3379,
3373,
3538,
3616,
4137,
4690,
4957,
4672,
3774,
3549,
3306,
3231,
3192,
3221,
3311,
3202,
3524,
3993,
4915,
7669,
15873,
33548,
57822,
77915,
78886,
60732,
35427,
16378,
7150,
4056,
3602,
4506,
7655,
13532,
20782,
25191,
24869,
20620,
16824,
13248,
9489,
6351,
4687,
4700,
6454,
8681,
9580,
8360,
6156,
4122,
2879,
2407,
2375,
2370,
2389,
2773,
3354,
4240,
4868,
4820,
4027,
2964,
2425,
2235,
2365,
2551,
2957,
3056,
3026,
2734,
2406,
2185,
2199,
2017,
1980,
1973,
1877,
1882,
1756,
1881,
1887,
1852,
1883,
1920,
1912,
1923,
1979,
2037,
1895,
1850,
1766,
1780,
1759,
1727,
1670,
1693,
1633,
1672,
1639,
1633,
1601,
1525,
1620,
1620,
1631,
1569,
1549,
1608,
1538,
1582,
1536,
1537,
1546,
1491,
1453,
1466,
1429,
1463,
1460,
1533,
1447,
1517,
1565,
1574,
1543,
1452,
1424,
1394,
1412,
1265,
1328,
1353,
1297,
1385,
1353,
1373,
1266,
1367,
1356,
1329,
1292,
1303,
1224,
1265,
1291,
1270,
1217,
1225,
1226,
1250,
1214,
1204,
1180,
1204,
1206,
1235,
1238,
1225,
1132,
1164,
1124,
1142,
1129,
1142,
1108,
1143,
1046,
1091,
1092,
1090,
1098,
1080,
1146,
1047,
1052,
1030,
1054,
1039,
1048,
1073,
1055,
997,
1014,
1045,
999,
986,
1024,
961,
941,
887,
976,
896,
950,
969,
911,
1017,
964,
900,
938,
937,
883,
942,
876,
883,
888,
867,
836,
884,
876,
812,
877,
808,
839,
809,
773,
786,
798,
775,
774,
791,
788,
797,
767,
776,
795,
747,
779,
767,
731,
735,
717,
770,
697,
727,
725,
720,
720,
667,
699,
619,
685,
693,
681,
698,
654,
693,
692,
670,
659,
635,
610,
660,
600,
589,
560,
615,
612,
604,
590,
592,
581,
575,
579,
532,
513,
566,
566,
550,
558,
555,
509,
554,
548,
525,
526,
512,
488,
515,
466,
523,
476,
513,
486,
478,
468,
491,
478,
456,
436,
434,
509,
449,
431,
432,
476,
402,
439,
395,
422,
420,
422,
434,
414,
430,
416,
408,
380,
426,
342,
374,
360,
363,
366,
388,
337,
395,
351,
354,
377,
316,
351,
335,
339,
323,
355,
354,
335,
343,
332,
326,
307,
294,
331,
304,
290,
312,
319,
295,
296,
283,
290,
267,
296,
246,
280,
289,
270,
247,
256,
256,
224,
254,
241,
260,
238,
247,
231,
208,
216,
257,
229,
227,
226,
231,
225,
222,
200,
216,
182,
225,
221,
242,
193,
206,
198,
181,
202,
181,
176,
178,
196,
185,
179,
167,
158,
164,
184,
155,
167,
167,
168,
162,
137,
166,
140,
144,
160,
144,
158,
162,
135,
160,
145,
133,
112,
142,
157,
134,
146,
129,
137,
117,
125,
109,
122,
129,
131,
131,
112,
113,
114,
116,
97,
117,
96,
93,
112,
108,
96,
97,
100,
94,
87,
107,
86,
89,
106,
89,
89,
85,
73,
83,
90,
96,
77,
64,
80,
68,
64,
79,
76,
84,
67,
64,
65,
70,
66,
60,
58,
53,
72,
58,
52,
58,
68,
49,
52,
53,
53,
45,
58,
51,
50,
46,
42,
26,
41,
40,
42,
37,
33,
31,
50,
32,
34,
34,
27,
31,
36,
28,
29,
29,
33,
30,
36,
31,
34,
28,
35,
33,
28,
30,
30,
19,
24,
24,
26,
30,
20,
18,
17,
22,
16,
17,
14,
9,
12,
14,
18,
12,
15,
12,
10,
12,
8,
11,
6,
8,
7,
12,
8,
3,
3,
4,
3,
5,
4,
4,
2,
0,
5,
1,
3,
3,
1,
1,
0,
0,
1,
0,
1,
1,
0,
0,
3,
0,
0,
2,
0,
0,
0,
1,
0,
0,
1,
0,
0,
1,
0,
2,
1,
1,
0,
2,
0,
1,
0,
0,
0,
0,
0,
1,
1,
0,
0,
1,
1,
0,
0,
2,
0,
0,
2,
1,
0,
2,
0,
0,
0,
0,
0,
0,
1,
0,
1,
0,
1,
0,
1,
0,
0,
0,
0,
0,
0,
1,
1,
0,
1,
0,
0,
1,
0,
0,
0,
0,
1,
1,
0,
0,
0,
1,
0,
2,
0,
0,
0,
0,
0,
0,
0,
0,
0,
0,
0,
1,
0,
1,
0,
0,
0,
1,
0,
1,
1,
0,
0,
1,
1,
0,
1,
0,
0,
0,
0,
0,
0,
0,
0,
0,
0,
1,
0,
0,
0,
0,
0,
0,
0,
0,
0,
0,
0,
0,
0,
0,
1,
0,
0,
0,
0,
0,
0,
0,
0,
0,
0,
0,
0,
0,
1,
0,
1,
0,
0,
0,
0,
0,
1,
0,
0,
0,
0,
0,
0,
0,
0,
0,
0,
0,
0,
0,
1,
0,
0,
0,
0,
0,
0,
0,
0,
0,
0,
0,
0,
0,
0,
0,
0,
0,
0,
0,
0,
0,
0,
0,
0,
0,
0,
0,
0,
0,
0,
0,
0,
0,
0,
0,
0,
0,
0,
0,
0,
0,
0,
0,
0,
0,
0,
0,
0,
0,
0,
0,
0,
0,
0,
0,
1,
0,
0,
0,
0,
0,
0,
0,
1,
0,
0,
0,
0,
0,
0,
0,
0,
0,
0,
0,
0,
0,
0,
0,
0,
0,
0,
0,
0,
0,
0,
0,
0,
0,
0,
0,
0,
0,
0,
0,
0,
0,
0,
0,
0,
0,
0,
0,
0,
0,
0,
1,
0,
0,
0,
0,
0,
0,
0,
0,
0,
0,
0,
0,
0,
0,
0,
1,
0,
0,
0,
0,
0,
0,
0,
0,
0,
0,
0,
1,
0,
0,
0,
0,
0,
0,
0,
0,
0,
0,
0,
0,
0,
0,
0,
0,
0,
0,
0,
0,
0,
0,
0,
0,
0,
0,
0,
0,
0,
0,
0,
0,
0,
0,
0,
0,
0,
0,
0,
0,
0,
0,
0,
0,
0,
0,
0,
0,
0,
0,
0,
0,
0,
0,
0,
0,
1,
0,
0,
0,
0,
0,
0,
0,
0,
0,
0,
0,
0,
0,
0,
0,
0,
0,
0,
0,
0,
0,
0,
0,
0,
0,
0,
0,
0,
0,
0,
0,
0,
0,
0,
0,
0,
0,
0,
0,
0,
0,
0,
0,
0,
0,
0,
0,
0,
0,
0,
0,
0,
0,
0,
0,
0,
0,
0,
0,
0,
0,
0,
0,
0,
0,
0,
0,
0,
0,
0,
0,
0,
0,
0,
0,
0,
0,
0,
0,
0,
0,
0,
0,
0,
0,
0,
0,
0,
0,
0,
0,
0,
0,
0,
0,
0,
0,
0,
0,
0,
0,
0,
0,
0,
0,
0,
0,
0,
0,
0,
0,
0,
0,
0,
0,
0,
0,
0,
0,
0,
0,
0,
0,
0,
0,
0,
0,
0,
0,
0,
0,
0,
0,
0,
0,
0,
0,
0,
0,
0,
0,
0,
0,
0,
0,
0,
0,
0,
0,
0,
0,
0,
0,
0,
0,
0,
0,
0,
0,
0,
0,
0,
0,
0,
0,
0,
0,
0,
0,
0,
0,
0,
0,
0,
0,
0,
0,
0,
0,
0,
0,
0,
0,
0,
0,
0,
0,
0,
0,
0,
0,
0,
0,
0,
0,
0,
0,
0,
0,
0,
0,
0,
0,
0,
0,
0,
0,
0,
0,
0,
0,
0,
0,
0,
0,
0,
0,
0,
0,
0,
0,
0,
0,
0,
0,
0,
0,
0,
0,
0,
0,
0,
0,
0,
0,
0,
0,
0,
0,
0,
0,
0,
0,
0,
0,
0,
0,
0,
0,
0,
0,
0,
0,
0,
0,
0,
0,
0,
0,
0,
0,
0,
0,
0,
0,
0,
0,
0,
0,
0,
0,
0,
0,
0,
0,
0,
0,
0,
0,
0,
0,
0,
0,
0,
0,
0,
0,
0,
0,
0,
0,
0,
0,
0,
0,
0,
0,
0,
0,
0,
0,
0,
0,
0,
0,
0,
0,
0,
0,
0,
0,
0,
0,
0,
0,
0,
0,
0,
0,
0,
0,
0,
0,
0,
0,
#ENDOFDATA   :