File: N132962/Quantification/MMM1/SPI MM1 Kaersutite[0][4].msa
#FORMAT      : EMSA/MAS Spectral Data File
#VERSION     : 1.0
#TITLE       : SPI MM1dup Kaersutite[0][all]
#DATE        : 12-MAR-2025
#TIME        : 16:20
#OWNER       : Unknown
#NPOINTS     : 4096
#NCOLUMNS    : 1
#XUNITS      : eV
#YUNITS      : counts
#DATATYPE    : Y
#XPERCHAN    : 9.99778
#OFFSET      : 1.69135
#BEAMKV      : 20
#SIGNALTYPE  : EDS
#ELEVANGLE   : 35
#AZIMANGLE   : 0
#LIVETIME    : 239.742
#REALTIME    : 254.373
#PROBECUR    : 1.02709
#TAUWIND     : 0
#TDEADLYR    : 0
#TACTLYR     : 0.045
#TALWIND     : 0.025
#CHOFFSET    : 0.0
#XLABEL      : Energy (eV)
#YLABEL      : Counts
#XPOSITION   : -1.62807
#YPOSITION   : 3.58502
#ZPOSITION   : 31.03608
#EDSDET      : SD
##SPECIMEN   : SPI MM1dup Kaersutite[0][all]
##DET_HASH   : 12273538-fd48-a23f-0a19-f1e6fa85caef
##CALIB_HASH : 6abaa72c-aa41-8738-0be9-f592914732f3
##WORKING    : 15.0 mm
##DET_NAME   : EDAX All
##DET_MODE   : MediumLE
#SPECTRUM    :
22,
23,
7,
17,
68,
242,
768,
2596,
7776,
10524,
6264,
3379,
3288,
3904,
5692,
17644,
65868,
128065,
93421,
25622,
4928,
3334,
5025,
8224,
7903,
4398,
2751,
2447,
2523,
2612,
2718,
2910,
3504,
5935,
10736,
11838,
7472,
4501,
4330,
6921,
19414,
45390,
54367,
31854,
11318,
5140,
4848,
9056,
25371,
49025,
49845,
27265,
10911,
5774,
5324,
11395,
42194,
106390,
144625,
102907,
42581,
15508,
7620,
4552,
3345,
3229,
3083,
2996,
2762,
2683,
2722,
2791,
2792,
2902,
2956,
2983,
2990,
3058,
2796,
2735,
2662,
2766,
2718,
2694,
2736,
2743,
2797,
2798,
2785,
2827,
2759,
2668,
2649,
2657,
2697,
2667,
2528,
2548,
2621,
2708,
2515,
2535,
2462,
2495,
2527,
2492,
2643,
2777,
3567,
5048,
6390,
6433,
4763,
3388,
2647,
2565,
2509,
2639,
3065,
4294,
8226,
17428,
31350,
39410,
33055,
19148,
8459,
3569,
2418,
2302,
2448,
3155,
4457,
5977,
6554,
5422,
3750,
2500,
2025,
1876,
1811,
1757,
1794,
1793,
1809,
1843,
2228,
3204,
5631,
9229,
11665,
10956,
7978,
4647,
2568,
1913,
1640,
1600,
1599,
1625,
1713,
1932,
2252,
2686,
2933,
2971,
2521,
2025,
1716,
1524,
1441,
1462,
1464,
1413,
1471,
1385,
1379,
1374,
1413,
1467,
1477,
1406,
1366,
1394,
1369,
1198,
1323,
1277,
1255,
1255,
1268,
1250,
1262,
1260,
1262,
1403,
1460,
1423,
1351,
1253,
1204,
1152,
1157,
1193,
1154,
1165,
1215,
1203,
1533,
2510,
4917,
9209,
13785,
16966,
15894,
11962,
6988,
3600,
1877,
1255,
1018,
1001,
977,
1013,
952,
951,
1022,
935,
1047,
1051,
1124,
1342,
1679,
2152,
2643,
2968,
2762,
2263,
1548,
1226,
957,
837,
813,
845,
814,
837,
861,
887,
863,
892,
896,
895,
833,
778,
777,
780,
776,
815,
731,
745,
749,
722,
729,
756,
705,
662,
709,
679,
666,
694,
694,
765,
704,
673,
707,
670,
707,
702,
622,
661,
652,
686,
604,
620,
605,
612,
589,
623,
643,
581,
596,
613,
621,
663,
590,
572,
574,
588,
580,
526,
565,
533,
589,
583,
549,
567,
507,
544,
555,
539,
481,
515,
545,
509,
497,
462,
498,
514,
457,
477,
502,
470,
531,
472,
480,
459,
489,
492,
470,
446,
483,
452,
456,
413,
442,
433,
428,
483,
423,
455,
445,
415,
393,
432,
376,
455,
398,
415,
409,
412,
383,
401,
395,
399,
373,
374,
363,
373,
385,
377,
370,
346,
356,
343,
356,
353,
333,
355,
345,
316,
366,
331,
336,
341,
358,
302,
331,
308,
332,
343,
308,
308,
286,
281,
266,
284,
291,
276,
286,
287,
269,
287,
275,
266,
287,
263,
278,
273,
258,
267,
285,
246,
258,
225,
222,
250,
215,
201,
244,
239,
249,
212,
232,
238,
221,
243,
226,
234,
209,
241,
208,
229,
192,
207,
183,
220,
217,
190,
233,
176,
197,
179,
195,
205,
180,
167,
195,
175,
183,
184,
185,
174,
188,
171,
155,
156,
178,
154,
148,
169,
176,
159,
148,
161,
138,
141,
134,
136,
146,
142,
141,
139,
146,
141,
134,
130,
131,
131,
152,
117,
119,
128,
127,
120,
108,
122,
99,
116,
126,
103,
101,
110,
117,
90,
108,
98,
109,
91,
94,
96,
90,
104,
87,
79,
113,
89,
104,
100,
72,
82,
77,
73,
87,
87,
83,
67,
77,
68,
80,
74,
79,
58,
86,
58,
72,
70,
69,
65,
79,
72,
59,
55,
59,
59,
73,
59,
56,
77,
56,
62,
56,
65,
54,
55,
58,
45,
69,
50,
50,
45,
46,
49,
40,
46,
48,
55,
46,
47,
32,
35,
40,
52,
42,
31,
37,
38,
53,
38,
41,
46,
28,
38,
45,
40,
37,
46,
34,
39,
44,
28,
37,
36,
45,
31,
28,
23,
27,
33,
26,
22,
20,
34,
29,
35,
30,
32,
25,
26,
32,
21,
17,
16,
23,
24,
8,
25,
22,
17,
15,
22,
14,
16,
15,
16,
16,
16,
19,
15,
14,
13,
15,
13,
12,
11,
10,
15,
21,
13,
14,
13,
10,
15,
10,
11,
6,
14,
9,
9,
13,
9,
5,
10,
6,
8,
8,
5,
7,
5,
5,
6,
9,
3,
6,
8,
9,
5,
3,
6,
5,
3,
1,
7,
3,
2,
2,
2,
2,
1,
1,
2,
0,
1,
1,
1,
0,
1,
2,
0,
0,
0,
0,
0,
1,
0,
0,
0,
0,
0,
0,
1,
0,
1,
0,
1,
0,
0,
0,
0,
0,
0,
1,
0,
1,
1,
0,
0,
0,
0,
0,
1,
0,
0,
0,
0,
0,
0,
0,
0,
0,
0,
0,
1,
1,
0,
0,
0,
0,
0,
0,
0,
0,
0,
0,
0,
0,
0,
0,
0,
0,
0,
1,
0,
0,
1,
0,
0,
0,
0,
0,
0,
0,
0,
0,
0,
0,
0,
0,
0,
0,
0,
0,
0,
0,
0,
0,
0,
0,
0,
0,
0,
0,
0,
0,
0,
0,
0,
0,
0,
0,
0,
0,
0,
0,
0,
0,
0,
0,
0,
0,
0,
0,
0,
0,
0,
0,
0,
0,
0,
0,
0,
0,
0,
0,
0,
0,
0,
0,
0,
0,
0,
0,
0,
0,
0,
0,
0,
0,
0,
0,
0,
0,
0,
0,
0,
0,
0,
0,
0,
0,
0,
0,
0,
0,
0,
0,
0,
0,
0,
0,
0,
0,
0,
0,
0,
0,
1,
0,
0,
0,
0,
0,
0,
0,
0,
0,
0,
0,
0,
0,
0,
0,
0,
0,
0,
0,
0,
0,
0,
0,
0,
0,
0,
0,
0,
0,
0,
0,
0,
0,
0,
0,
0,
1,
0,
0,
0,
0,
0,
0,
0,
0,
0,
0,
1,
0,
0,
0,
0,
0,
0,
0,
0,
0,
0,
0,
0,
0,
0,
0,
0,
0,
0,
0,
0,
0,
0,
0,
0,
0,
0,
0,
0,
0,
0,
0,
0,
0,
0,
0,
0,
0,
0,
0,
0,
0,
0,
0,
0,
0,
0,
0,
0,
0,
0,
0,
0,
0,
0,
0,
0,
0,
0,
0,
0,
0,
0,
0,
0,
0,
0,
0,
0,
0,
0,
0,
0,
0,
0,
0,
0,
0,
0,
0,
0,
0,
0,
0,
0,
0,
0,
0,
0,
0,
0,
0,
0,
0,
0,
0,
0,
0,
0,
0,
0,
0,
0,
0,
0,
0,
0,
0,
0,
0,
0,
0,
0,
0,
0,
0,
0,
0,
0,
0,
0,
0,
0,
0,
0,
0,
0,
0,
0,
0,
0,
0,
0,
0,
0,
0,
0,
0,
0,
0,
0,
0,
0,
0,
0,
0,
0,
0,
0,
0,
0,
0,
0,
0,
0,
0,
0,
0,
0,
0,
0,
0,
0,
0,
0,
0,
0,
0,
0,
0,
0,
0,
0,
0,
0,
0,
0,
0,
0,
0,
0,
0,
0,
0,
0,
0,
0,
0,
0,
0,
0,
0,
0,
0,
0,
0,
0,
0,
0,
0,
0,
0,
0,
0,
0,
0,
0,
0,
0,
0,
0,
0,
0,
0,
0,
0,
0,
0,
0,
0,
0,
0,
0,
0,
0,
0,
0,
0,
0,
0,
0,
0,
0,
0,
0,
0,
0,
0,
0,
0,
0,
0,
0,
0,
0,
0,
0,
0,
0,
0,
0,
0,
0,
0,
0,
0,
0,
0,
0,
0,
0,
0,
0,
0,
0,
0,
0,
0,
0,
0,
0,
0,
0,
0,
0,
0,
0,
0,
0,
0,
0,
0,
0,
0,
0,
0,
0,
0,
0,
0,
0,
0,
0,
0,
0,
0,
0,
0,
0,
0,
0,
0,
0,
0,
0,
0,
0,
0,
0,
0,
0,
0,
0,
0,
0,
0,
0,
0,
0,
0,
0,
0,
0,
0,
0,
0,
0,
0,
0,
0,
0,
0,
0,
0,
0,
0,
0,
0,
0,
0,
0,
0,
0,
0,
0,
0,
0,
0,
0,
0,
0,
0,
0,
0,
0,
0,
0,
0,
0,
0,
0,
0,
0,
0,
0,
0,
0,
0,
0,
0,
0,
0,
0,
0,
0,
0,
0,
0,
0,
0,
0,
0,
0,
0,
0,
0,
0,
0,
0,
0,
0,
0,
0,
0,
0,
0,
0,
0,
0,
0,
0,
0,
0,
0,
0,
0,
0,
0,
0,
0,
0,
0,
0,
0,
0,
0,
0,
0,
0,
0,
0,
0,
0,
0,
0,
0,
0,
0,
0,
0,
0,
0,
0,
0,
0,
0,
0,
0,
0,
0,
0,
0,
0,
0,
0,
0,
0,
0,
0,
0,
0,
0,
0,
0,
0,
0,
0,
0,
0,
0,
0,
0,
0,
0,
0,
0,
0,
0,
0,
0,
0,
0,
0,
0,
0,
0,
0,
0,
0,
0,
0,
0,
0,
#ENDOFDATA   :