File: N132962/Quantification/MMM1/SPI MM1 Crocoite[2][4].msa
#FORMAT      : EMSA/MAS Spectral Data File
#VERSION     : 1.0
#TITLE       : SPI MM1dup Crocoite[2][all]
#DATE        : 12-MAR-2025
#TIME        : 13:52
#OWNER       : Unknown
#NPOINTS     : 4096
#NCOLUMNS    : 1
#XUNITS      : eV
#YUNITS      : counts
#DATATYPE    : Y
#XPERCHAN    : 9.99778
#OFFSET      : 1.69135
#BEAMKV      : 20
#SIGNALTYPE  : EDS
#ELEVANGLE   : 35
#AZIMANGLE   : 0
#LIVETIME    : 239.851
#REALTIME    : 261.99
#PROBECUR    : 1.02627
#TAUWIND     : 0
#TDEADLYR    : 0
#TACTLYR     : 0.045
#TALWIND     : 0.025
#CHOFFSET    : 0.0
#XLABEL      : Energy (eV)
#YLABEL      : Counts
#XPOSITION   : -1.18985
#YPOSITION   : -0.60256
#ZPOSITION   : 31.03608
#EDSDET      : SD
##SPECIMEN   : SPI MM1dup Crocoite[2][all]
##DET_HASH   : 12273538-fd48-a23f-0a19-f1e6fa85caef
##CALIB_HASH : 6abaa72c-aa41-8738-0be9-f592914732f3
##WORKING    : 15.0 mm
##DET_NAME   : EDAX All
##DET_MODE   : MediumLE
#SPECTRUM    :
22,
32,
7,
37,
268,
1141,
3282,
7628,
16709,
20058,
11359,
6095,
5319,
5523,
6544,
13205,
36749,
65050,
51033,
22172,
11077,
6986,
5800,
6414,
5835,
5047,
4724,
5004,
5395,
5479,
5580,
5590,
5672,
5994,
5898,
6181,
6302,
6619,
6601,
6675,
6830,
7017,
7206,
7340,
7489,
7758,
8000,
8087,
8139,
8355,
8438,
8445,
8460,
8536,
8515,
8583,
8983,
9662,
10801,
13013,
16409,
18415,
15350,
11290,
9177,
8522,
8391,
8317,
8281,
8501,
8891,
9700,
10664,
11413,
13561,
21651,
48233,
104833,
154838,
149643,
119924,
108444,
92780,
55224,
23284,
10204,
8041,
9510,
11098,
10791,
8565,
6190,
5305,
4871,
4987,
5204,
5361,
5550,
5371,
5466,
5711,
6176,
6674,
6739,
6461,
5962,
5474,
5244,
4835,
4846,
4625,
4684,
4662,
4856,
4728,
4652,
4757,
4769,
4693,
4797,
4905,
4837,
4933,
4822,
4777,
4870,
4702,
4566,
4555,
4544,
4510,
4572,
4610,
4572,
4592,
4570,
4508,
4610,
4452,
4450,
4492,
4563,
4414,
4355,
4514,
4489,
4488,
4512,
4445,
4308,
4455,
4393,
4394,
4398,
4400,
4453,
4350,
4471,
4567,
4421,
4549,
4387,
4343,
4343,
4174,
4255,
4291,
4106,
4205,
4164,
4296,
4127,
4189,
4236,
4390,
4862,
6531,
11420,
22059,
36528,
46353,
44823,
32477,
18720,
9674,
5517,
4228,
3941,
3956,
3856,
3822,
3757,
3977,
4051,
4433,
5309,
6960,
8658,
9636,
8770,
7245,
5394,
4179,
3675,
3540,
3428,
3394,
3431,
3437,
3295,
3476,
3596,
3657,
3814,
3753,
3627,
3484,
3413,
3295,
3121,
3217,
3208,
3214,
3253,
3167,
3074,
3138,
3101,
3106,
3126,
3124,
2990,
3139,
3051,
3066,
3111,
2957,
2962,
2909,
3022,
3070,
2849,
2900,
2831,
2823,
2919,
2904,
3070,
3002,
3094,
3060,
2985,
2844,
2833,
2808,
2734,
2816,
2830,
2775,
2857,
2767,
2718,
2623,
2680,
2643,
2619,
2534,
2500,
2531,
2557,
2500,
2472,
2590,
2484,
2554,
2575,
2510,
2447,
2395,
2450,
2479,
2328,
2319,
2391,
2345,
2365,
2280,
2318,
2291,
2252,
2290,
2319,
2278,
2238,
2324,
2245,
2232,
2178,
2191,
2235,
2229,
2196,
2313,
2320,
2441,
2643,
2567,
2554,
2540,
2170,
2294,
2086,
2065,
2066,
1954,
1945,
1924,
1938,
1946,
1907,
1945,
1868,
1978,
1850,
1976,
1871,
1837,
1793,
1962,
1866,
1856,
1844,
1770,
1863,
1817,
1767,
1768,
1798,
1763,
1763,
1748,
1778,
1736,
1909,
1994,
2401,
3057,
4203,
6063,
7952,
9833,
11032,
10632,
9222,
6897,
4733,
3220,
2329,
1874,
1660,
1577,
1591,
1519,
1539,
1470,
1462,
1434,
1436,
1487,
1455,
1436,
1378,
1485,
1421,
1448,
1415,
1433,
1439,
1451,
1332,
1345,
1339,
1316,
1269,
1284,
1262,
1277,
1290,
1390,
1268,
1205,
1248,
1219,
1132,
1198,
1182,
1118,
1194,
1186,
1175,
1159,
1211,
1190,
1279,
1272,
1244,
1302,
1189,
1220,
1214,
1262,
1159,
1227,
1191,
1333,
1549,
2044,
2665,
3466,
4342,
4637,
4362,
3891,
3125,
2268,
1753,
1426,
1279,
1141,
1069,
1057,
1033,
1077,
1114,
1092,
992,
945,
924,
839,
788,
766,
768,
787,
728,
795,
769,
751,
742,
763,
695,
685,
723,
724,
740,
692,
700,
702,
707,
685,
684,
632,
655,
645,
628,
627,
658,
646,
629,
619,
628,
590,
614,
597,
576,
614,
612,
611,
584,
572,
597,
544,
565,
561,
526,
526,
516,
618,
652,
628,
737,
758,
753,
797,
784,
663,
625,
587,
572,
543,
503,
506,
536,
520,
520,
506,
486,
506,
471,
452,
439,
438,
443,
383,
381,
382,
414,
365,
410,
372,
399,
377,
369,
359,
350,
342,
364,
368,
352,
318,
341,
336,
330,
293,
321,
304,
308,
308,
293,
314,
287,
312,
276,
275,
279,
308,
267,
258,
271,
271,
227,
257,
294,
251,
281,
198,
220,
236,
232,
237,
227,
241,
243,
218,
225,
207,
209,
208,
222,
175,
214,
200,
169,
202,
192,
197,
200,
189,
176,
171,
177,
159,
187,
165,
177,
149,
172,
169,
156,
163,
150,
145,
157,
137,
153,
146,
163,
133,
130,
135,
114,
117,
129,
114,
106,
122,
136,
110,
105,
108,
109,
99,
98,
88,
78,
81,
71,
91,
97,
92,
88,
80,
80,
80,
67,
68,
76,
69,
64,
71,
75,
54,
68,
58,
64,
58,
55,
57,
34,
45,
37,
51,
58,
45,
44,
39,
35,
33,
38,
35,
21,
28,
18,
38,
28,
18,
20,
28,
23,
14,
13,
7,
16,
12,
7,
12,
10,
4,
3,
5,
5,
7,
4,
6,
4,
7,
3,
3,
4,
5,
1,
1,
2,
5,
2,
6,
2,
1,
3,
3,
1,
3,
5,
2,
1,
5,
4,
3,
5,
3,
2,
6,
1,
6,
5,
5,
4,
1,
3,
1,
1,
1,
2,
2,
2,
1,
1,
3,
4,
3,
2,
6,
2,
2,
0,
3,
4,
1,
1,
1,
2,
1,
4,
1,
2,
1,
1,
2,
2,
2,
3,
1,
2,
0,
2,
1,
0,
1,
3,
5,
2,
0,
1,
2,
0,
0,
2,
2,
4,
3,
1,
1,
3,
1,
0,
2,
1,
3,
3,
3,
1,
1,
0,
1,
1,
0,
1,
1,
2,
1,
1,
1,
2,
0,
1,
3,
0,
1,
0,
2,
3,
1,
2,
1,
2,
3,
1,
0,
0,
0,
2,
1,
1,
1,
1,
0,
0,
1,
0,
0,
1,
1,
0,
1,
0,
0,
3,
0,
0,
1,
2,
2,
1,
2,
0,
0,
0,
1,
0,
2,
1,
1,
0,
1,
1,
0,
1,
0,
2,
1,
0,
0,
2,
1,
1,
2,
0,
0,
0,
1,
0,
0,
2,
1,
0,
0,
1,
0,
1,
1,
0,
2,
0,
0,
1,
0,
1,
0,
1,
2,
0,
0,
1,
0,
0,
1,
0,
0,
0,
0,
0,
0,
2,
0,
0,
2,
0,
0,
0,
0,
1,
1,
0,
0,
0,
0,
0,
1,
0,
0,
1,
2,
0,
0,
0,
1,
0,
0,
1,
0,
1,
0,
0,
0,
2,
0,
1,
1,
0,
0,
1,
3,
0,
0,
0,
0,
0,
0,
0,
1,
0,
0,
0,
1,
2,
0,
1,
0,
0,
0,
0,
0,
0,
0,
0,
0,
1,
0,
0,
0,
0,
0,
0,
0,
0,
0,
0,
0,
0,
0,
0,
1,
1,
0,
0,
0,
1,
0,
0,
0,
0,
0,
2,
0,
0,
0,
0,
0,
0,
0,
0,
1,
0,
0,
0,
0,
0,
0,
0,
0,
1,
0,
1,
0,
0,
0,
0,
0,
0,
0,
1,
0,
0,
0,
1,
0,
1,
0,
0,
0,
0,
0,
0,
0,
0,
0,
1,
0,
1,
0,
0,
0,
0,
0,
0,
0,
0,
0,
0,
1,
0,
0,
0,
0,
0,
0,
0,
0,
0,
0,
0,
0,
0,
0,
0,
0,
0,
0,
0,
0,
1,
0,
0,
0,
0,
0,
1,
0,
0,
0,
0,
0,
0,
0,
0,
0,
0,
0,
0,
0,
0,
0,
0,
0,
0,
0,
0,
0,
0,
0,
0,
0,
0,
0,
0,
0,
0,
0,
0,
0,
0,
0,
0,
0,
0,
0,
0,
0,
0,
0,
0,
0,
0,
0,
0,
0,
0,
0,
0,
0,
0,
0,
0,
0,
0,
0,
0,
0,
0,
1,
0,
0,
0,
0,
0,
0,
0,
0,
0,
0,
0,
0,
0,
0,
0,
0,
0,
0,
0,
0,
0,
0,
0,
1,
0,
0,
0,
0,
0,
0,
0,
0,
0,
0,
0,
0,
0,
0,
0,
0,
0,
0,
0,
0,
0,
0,
0,
0,
0,
0,
0,
0,
0,
0,
0,
0,
0,
0,
0,
0,
0,
0,
0,
0,
0,
0,
0,
0,
0,
0,
0,
0,
0,
0,
0,
0,
0,
0,
0,
0,
0,
0,
0,
0,
0,
0,
0,
0,
0,
0,
0,
0,
0,
0,
0,
0,
0,
0,
0,
0,
0,
0,
0,
0,
0,
0,
0,
0,
0,
0,
0,
0,
0,
0,
0,
0,
0,
0,
0,
0,
0,
0,
0,
0,
0,
0,
0,
0,
0,
0,
0,
0,
0,
0,
0,
0,
0,
0,
0,
0,
0,
0,
0,
0,
0,
0,
0,
0,
0,
0,
0,
0,
0,
0,
0,
0,
0,
0,
0,
0,
0,
0,
0,
0,
0,
0,
0,
0,
0,
0,
0,
0,
0,
0,
0,
0,
0,
0,
0,
0,
0,
0,
0,
0,
0,
0,
0,
0,
0,
0,
0,
0,
0,
0,
0,
0,
0,
0,
0,
0,
0,
0,
0,
0,
0,
0,
0,
0,
0,
0,
0,
0,
0,
0,
0,
0,
0,
0,
0,
0,
0,
0,
0,
0,
0,
0,
0,
0,
0,
0,
0,
0,
0,
0,
0,
0,
0,
0,
0,
0,
0,
0,
0,
0,
0,
0,
0,
#ENDOFDATA   :