File: N132962/Quantification/MMM1/SPI MM1 Barite[0][4].msa
#FORMAT      : EMSA/MAS Spectral Data File
#VERSION     : 1.0
#TITLE       : SPI MM1 Barite[0][all]
#DATE        : 11-MAR-2025
#TIME        : 13:25
#OWNER       : Unknown
#NPOINTS     : 4096
#NCOLUMNS    : 1
#XUNITS      : eV
#YUNITS      : counts
#DATATYPE    : Y
#XPERCHAN    : 9.99778
#OFFSET      : 1.69135
#BEAMKV      : 20
#SIGNALTYPE  : EDS
#ELEVANGLE   : 35
#AZIMANGLE   : 0
#LIVETIME    : 239.875
#REALTIME    : 258.922
#PROBECUR    : 1.02853
#TAUWIND     : 0
#TDEADLYR    : 0
#TACTLYR     : 0.045
#TALWIND     : 0.025
#CHOFFSET    : 0.0
#XLABEL      : Energy (eV)
#YLABEL      : Counts
#XPOSITION   : -0.37608
#YPOSITION   : -5.02021
#ZPOSITION   : 30.9284
#EDSDET      : SD
##SPECIMEN   : SPI MM1 Barite[0][all]
##DET_HASH   : 12273538-fd48-a23f-0a19-f1e6fa85caef
##CALIB_HASH : 6abaa72c-aa41-8738-0be9-f592914732f3
##WORKING    : 15.0 mm
##DET_NAME   : EDAX All
##DET_MODE   : MediumLE
#SPECTRUM    :
22,
22,
10,
52,
434,
1363,
2408,
4954,
12117,
15737,
8728,
5090,
5239,
5853,
8181,
21015,
71965,
137417,
105034,
37822,
16360,
9344,
5852,
5710,
7221,
9458,
10692,
7940,
5250,
4219,
4056,
4587,
5683,
6025,
5749,
5512,
4892,
4480,
4171,
4141,
4066,
4272,
4324,
4555,
4522,
4552,
4619,
4797,
4955,
5147,
5225,
5166,
5293,
5332,
5259,
5487,
5676,
6176,
6614,
6670,
6506,
6111,
5735,
5628,
5720,
5431,
5556,
5628,
5724,
5666,
5781,
5822,
6749,
8729,
16156,
37386,
73734,
93488,
70340,
33112,
13865,
10357,
10604,
9509,
7330,
5600,
5184,
4957,
5204,
5369,
5529,
5556,
5331,
5130,
5108,
4936,
5062,
4889,
4821,
4846,
4843,
5016,
5032,
5105,
4897,
4902,
4823,
4617,
4765,
4659,
4591,
4552,
4595,
4580,
4725,
4502,
4559,
4386,
4535,
4465,
4398,
4373,
4306,
4357,
4532,
4323,
4321,
4445,
4489,
4976,
5815,
6655,
7267,
6744,
5646,
4813,
4402,
4111,
4073,
4147,
4191,
4295,
4714,
5403,
6814,
11265,
23983,
48507,
75453,
85577,
70038,
40599,
18789,
8157,
5160,
4358,
4665,
6722,
12233,
23205,
36245,
42892,
39632,
29469,
19878,
13622,
9563,
6953,
6142,
7549,
10931,
15165,
16885,
14632,
10275,
6538,
4319,
3451,
3209,
3194,
3379,
3892,
4830,
6828,
7961,
7891,
6321,
4628,
3558,
3193,
3176,
3735,
4249,
4724,
4474,
3982,
3377,
2968,
2752,
2779,
2629,
2512,
2495,
2389,
2361,
2377,
2290,
2274,
2288,
2356,
2386,
2409,
2456,
2551,
2630,
2459,
2318,
2272,
2224,
2194,
2299,
2214,
2192,
2282,
2167,
2221,
2249,
2227,
2051,
2185,
2121,
2103,
2163,
2116,
2188,
2039,
2102,
2096,
2034,
2039,
2103,
2012,
2032,
1999,
2038,
1967,
2035,
2005,
2083,
2196,
2026,
1945,
2046,
1898,
1939,
1878,
1847,
1872,
1852,
1875,
1881,
1734,
1735,
1797,
1722,
1736,
1699,
1826,
1765,
1768,
1824,
1763,
1660,
1712,
1700,
1763,
1692,
1668,
1652,
1643,
1647,
1625,
1645,
1579,
1573,
1556,
1626,
1517,
1592,
1535,
1573,
1479,
1599,
1518,
1515,
1496,
1586,
1415,
1512,
1514,
1534,
1505,
1457,
1511,
1423,
1490,
1434,
1457,
1428,
1472,
1432,
1366,
1379,
1382,
1345,
1358,
1324,
1349,
1361,
1368,
1349,
1311,
1271,
1272,
1307,
1345,
1299,
1211,
1289,
1190,
1206,
1243,
1291,
1221,
1224,
1222,
1218,
1198,
1189,
1139,
1154,
1161,
1192,
1157,
1111,
1151,
1105,
1145,
1150,
1069,
1080,
1072,
1108,
987,
963,
1089,
1039,
1042,
1058,
1041,
985,
1008,
982,
964,
1016,
962,
975,
1016,
1006,
929,
1003,
947,
882,
892,
992,
892,
898,
969,
871,
915,
887,
876,
870,
881,
858,
869,
841,
819,
772,
816,
847,
795,
819,
791,
759,
792,
783,
762,
708,
744,
695,
763,
765,
771,
727,
683,
751,
736,
683,
689,
712,
675,
642,
651,
675,
643,
688,
618,
645,
644,
589,
619,
665,
626,
628,
625,
620,
642,
599,
579,
582,
569,
532,
555,
598,
557,
593,
568,
568,
577,
530,
519,
505,
529,
546,
536,
501,
513,
498,
534,
454,
487,
458,
487,
490,
449,
466,
481,
459,
480,
423,
484,
443,
448,
445,
452,
456,
413,
431,
436,
385,
397,
368,
399,
403,
411,
381,
396,
323,
396,
355,
359,
338,
328,
330,
340,
355,
350,
307,
315,
342,
329,
327,
326,
320,
305,
341,
315,
290,
285,
275,
304,
268,
298,
276,
271,
254,
257,
261,
284,
254,
240,
249,
268,
239,
246,
254,
244,
240,
253,
245,
233,
244,
248,
234,
226,
213,
192,
242,
208,
216,
187,
226,
180,
198,
193,
197,
188,
210,
201,
176,
177,
189,
173,
146,
174,
174,
162,
165,
169,
159,
149,
153,
161,
113,
163,
153,
143,
148,
128,
146,
139,
127,
152,
120,
118,
99,
118,
134,
105,
111,
119,
136,
112,
121,
123,
120,
110,
111,
106,
99,
92,
112,
94,
92,
100,
92,
87,
87,
73,
90,
90,
72,
83,
69,
81,
95,
76,
78,
77,
75,
79,
70,
75,
79,
56,
58,
66,
67,
61,
53,
67,
53,
56,
43,
53,
56,
46,
43,
45,
54,
38,
47,
49,
49,
42,
42,
26,
36,
36,
26,
31,
33,
41,
32,
30,
21,
32,
33,
23,
19,
27,
14,
32,
24,
19,
23,
17,
13,
17,
11,
15,
13,
6,
10,
10,
10,
5,
5,
7,
7,
4,
5,
3,
4,
2,
2,
5,
1,
0,
4,
2,
2,
4,
1,
1,
0,
1,
1,
0,
2,
1,
6,
3,
1,
3,
1,
2,
2,
2,
4,
3,
0,
0,
0,
0,
0,
1,
0,
0,
0,
0,
2,
0,
0,
2,
0,
1,
1,
1,
0,
2,
0,
1,
1,
1,
1,
2,
1,
2,
0,
1,
0,
2,
0,
1,
1,
2,
0,
1,
0,
1,
1,
0,
0,
0,
0,
1,
0,
0,
1,
1,
0,
0,
0,
1,
2,
0,
0,
1,
1,
2,
1,
0,
2,
0,
0,
0,
2,
0,
0,
0,
0,
0,
0,
1,
0,
0,
0,
0,
0,
1,
2,
0,
1,
0,
2,
0,
0,
1,
1,
0,
1,
0,
0,
2,
0,
0,
0,
0,
1,
1,
0,
0,
0,
0,
0,
2,
0,
1,
3,
2,
0,
0,
1,
0,
0,
0,
0,
0,
0,
1,
0,
0,
2,
0,
0,
0,
0,
0,
0,
0,
1,
0,
0,
1,
0,
0,
0,
2,
0,
0,
0,
0,
0,
0,
0,
0,
0,
0,
0,
0,
2,
1,
0,
0,
0,
0,
0,
1,
0,
0,
1,
0,
0,
0,
0,
0,
0,
0,
0,
1,
0,
1,
0,
0,
0,
0,
0,
1,
0,
0,
0,
0,
0,
0,
1,
0,
0,
0,
0,
0,
0,
0,
0,
0,
0,
0,
1,
0,
0,
0,
0,
0,
0,
0,
0,
0,
0,
0,
0,
0,
0,
0,
0,
0,
0,
1,
0,
0,
0,
0,
0,
1,
0,
0,
0,
0,
0,
0,
0,
0,
0,
0,
0,
0,
0,
0,
0,
0,
0,
0,
0,
1,
0,
0,
0,
0,
0,
0,
0,
1,
0,
0,
0,
0,
0,
0,
0,
0,
0,
0,
0,
0,
0,
0,
0,
0,
1,
0,
0,
0,
0,
0,
0,
0,
0,
0,
0,
1,
0,
0,
0,
0,
0,
0,
0,
0,
0,
0,
0,
0,
0,
0,
0,
0,
0,
0,
0,
0,
0,
0,
0,
0,
0,
0,
0,
0,
0,
0,
0,
0,
0,
0,
0,
0,
0,
0,
0,
0,
0,
0,
0,
0,
0,
1,
0,
0,
0,
0,
1,
0,
0,
0,
0,
0,
0,
0,
0,
0,
0,
0,
0,
0,
0,
0,
0,
0,
0,
0,
0,
0,
0,
0,
0,
0,
0,
0,
0,
0,
0,
0,
0,
0,
0,
0,
1,
0,
0,
0,
0,
0,
0,
0,
0,
0,
0,
0,
0,
1,
0,
0,
0,
0,
0,
0,
0,
0,
0,
0,
0,
0,
0,
0,
0,
0,
0,
0,
0,
0,
0,
0,
0,
0,
0,
0,
0,
0,
0,
0,
0,
0,
0,
0,
0,
0,
0,
0,
0,
0,
1,
0,
0,
0,
0,
0,
0,
0,
0,
0,
0,
0,
0,
0,
0,
0,
0,
0,
0,
0,
0,
0,
0,
0,
0,
0,
0,
0,
0,
0,
0,
0,
0,
0,
0,
0,
0,
0,
0,
0,
0,
0,
0,
0,
0,
0,
0,
0,
0,
0,
0,
0,
0,
0,
0,
0,
0,
0,
0,
0,
0,
0,
0,
0,
0,
0,
0,
0,
0,
0,
0,
0,
0,
0,
0,
0,
0,
0,
0,
0,
0,
0,
0,
0,
0,
0,
0,
0,
0,
0,
0,
0,
0,
0,
0,
0,
0,
0,
0,
0,
0,
0,
0,
0,
0,
0,
0,
0,
0,
0,
0,
0,
0,
0,
0,
0,
0,
0,
0,
0,
0,
0,
0,
0,
0,
0,
0,
0,
0,
0,
0,
0,
0,
0,
0,
0,
0,
0,
0,
0,
0,
0,
0,
0,
0,
0,
0,
0,
0,
0,
0,
0,
0,
0,
0,
0,
0,
0,
0,
0,
0,
0,
0,
0,
0,
0,
0,
0,
0,
0,
0,
0,
0,
0,
0,
0,
0,
0,
0,
0,
0,
0,
0,
0,
0,
0,
0,
0,
0,
0,
0,
0,
0,
0,
0,
0,
0,
0,
0,
0,
0,
0,
0,
0,
0,
0,
0,
0,
0,
0,
0,
0,
0,
0,
0,
0,
0,
0,
0,
0,
0,
0,
0,
0,
0,
0,
0,
0,
0,
0,
0,
0,
0,
0,
0,
0,
0,
0,
0,
0,
0,
0,
0,
0,
0,
0,
0,
0,
0,
0,
0,
0,
0,
0,
0,
0,
#ENDOFDATA   :