File: N132962/Quantification/MMM1/SPI MM1 Dolomite[0][4].msa
#FORMAT      : EMSA/MAS Spectral Data File
#VERSION     : 1.0
#TITLE       : SPI MM1dup Dolomite[0][all]
#DATE        : 12-MAR-2025
#TIME        : 15:45
#OWNER       : Unknown
#NPOINTS     : 4096
#NCOLUMNS    : 1
#XUNITS      : eV
#YUNITS      : counts
#DATATYPE    : Y
#XPERCHAN    : 9.99778
#OFFSET      : 1.69135
#BEAMKV      : 20
#SIGNALTYPE  : EDS
#ELEVANGLE   : 35
#AZIMANGLE   : 0
#LIVETIME    : 239.86
#REALTIME    : 250.734
#PROBECUR    : 1.02695
#TAUWIND     : 0
#TDEADLYR    : 0
#TACTLYR     : 0.045
#TALWIND     : 0.025
#CHOFFSET    : 0.0
#XLABEL      : Energy (eV)
#YLABEL      : Counts
#XPOSITION   : -0.09535
#YPOSITION   : 2.0147
#ZPOSITION   : 31.03608
#EDSDET      : SD
##SPECIMEN   : SPI MM1dup Dolomite[0][all]
##DET_HASH   : 12273538-fd48-a23f-0a19-f1e6fa85caef
##CALIB_HASH : 6abaa72c-aa41-8738-0be9-f592914732f3
##WORKING    : 15.0 mm
##DET_NAME   : EDAX All
##DET_MODE   : MediumLE
#SPECTRUM    :
30,
26,
8,
13,
80,
363,
1321,
6318,
21736,
30263,
15325,
4938,
2711,
2356,
3599,
13249,
53587,
104653,
77126,
20196,
2834,
1315,
1301,
1598,
1653,
1629,
1665,
1791,
2149,
2126,
2219,
2263,
2339,
2596,
2718,
2981,
3220,
3443,
4201,
8189,
28756,
70717,
85625,
48795,
14874,
4492,
2945,
2846,
2795,
3061,
3034,
3054,
3164,
3057,
3102,
3186,
3304,
3638,
3874,
3736,
3516,
3390,
3280,
3352,
3831,
4054,
3720,
3121,
2980,
2819,
2858,
2807,
2891,
2888,
2866,
2882,
2925,
2791,
2732,
2753,
2717,
2704,
2669,
2718,
2632,
2664,
2619,
2538,
2581,
2625,
2533,
2528,
2391,
2435,
2382,
2407,
2340,
2462,
2314,
2342,
2285,
2359,
2325,
2333,
2316,
2276,
2313,
2171,
2197,
2227,
2129,
2075,
2073,
2184,
2103,
2196,
2316,
2619,
3406,
6436,
17207,
43718,
81510,
102524,
86790,
48920,
19225,
6301,
2864,
2462,
2964,
4784,
8346,
12381,
13872,
11191,
6385,
3404,
1947,
1604,
1501,
1479,
1508,
1481,
1382,
1308,
1332,
1309,
1341,
1307,
1287,
1280,
1337,
1305,
1224,
1287,
1234,
1239,
1240,
1229,
1230,
1219,
1244,
1244,
1243,
1207,
1218,
1159,
1145,
1140,
1156,
1080,
1109,
1093,
1114,
1118,
1107,
1017,
1042,
1129,
1076,
1005,
1000,
1060,
1049,
982,
972,
975,
1011,
1004,
965,
1008,
938,
941,
961,
1004,
946,
1020,
965,
949,
893,
885,
880,
912,
869,
927,
877,
925,
907,
913,
961,
958,
979,
1058,
1107,
1009,
877,
866,
849,
803,
786,
745,
825,
820,
776,
782,
765,
755,
733,
669,
747,
728,
737,
738,
755,
731,
755,
743,
679,
683,
696,
715,
636,
704,
677,
676,
716,
751,
721,
739,
664,
669,
663,
631,
598,
637,
644,
624,
623,
627,
627,
587,
573,
580,
556,
572,
539,
502,
515,
562,
571,
528,
566,
531,
570,
554,
555,
548,
515,
504,
547,
477,
468,
488,
523,
502,
537,
513,
507,
429,
491,
448,
476,
479,
497,
455,
467,
442,
439,
459,
442,
425,
435,
457,
458,
424,
452,
414,
445,
415,
413,
399,
386,
389,
404,
423,
373,
370,
369,
350,
374,
365,
375,
346,
379,
376,
355,
386,
365,
325,
344,
370,
340,
338,
341,
365,
336,
301,
328,
324,
335,
322,
300,
343,
329,
336,
330,
305,
313,
300,
294,
307,
310,
309,
298,
260,
269,
316,
264,
295,
275,
274,
278,
243,
238,
267,
259,
272,
254,
260,
248,
275,
259,
256,
258,
244,
261,
255,
237,
249,
215,
226,
219,
232,
204,
238,
216,
227,
217,
226,
198,
202,
211,
198,
224,
217,
203,
203,
193,
215,
175,
209,
191,
206,
174,
187,
197,
202,
172,
187,
172,
188,
182,
173,
160,
169,
134,
201,
177,
174,
146,
165,
185,
160,
149,
145,
142,
143,
160,
152,
131,
132,
156,
133,
142,
134,
147,
138,
146,
136,
129,
135,
108,
125,
103,
138,
126,
118,
128,
108,
96,
130,
139,
128,
107,
112,
131,
114,
90,
117,
107,
108,
108,
101,
101,
116,
98,
97,
102,
101,
104,
111,
80,
79,
114,
100,
98,
102,
102,
95,
66,
69,
64,
96,
88,
70,
80,
94,
84,
77,
69,
70,
75,
71,
55,
67,
78,
76,
64,
62,
71,
54,
64,
62,
54,
61,
62,
56,
61,
53,
56,
50,
58,
59,
57,
61,
44,
53,
52,
45,
54,
57,
44,
47,
51,
32,
44,
47,
49,
50,
48,
46,
35,
40,
44,
40,
37,
40,
39,
35,
28,
43,
34,
31,
41,
37,
28,
44,
35,
27,
34,
33,
29,
28,
32,
34,
31,
30,
33,
19,
33,
25,
22,
28,
27,
27,
22,
23,
21,
27,
28,
34,
16,
16,
22,
24,
13,
27,
26,
21,
11,
24,
17,
15,
20,
20,
14,
14,
11,
10,
12,
14,
23,
14,
11,
17,
7,
7,
16,
7,
17,
15,
9,
9,
19,
13,
14,
7,
14,
9,
13,
9,
12,
5,
3,
6,
6,
11,
8,
9,
9,
13,
7,
5,
8,
3,
5,
8,
4,
6,
9,
6,
7,
12,
3,
5,
9,
7,
3,
3,
6,
9,
4,
3,
2,
4,
1,
6,
2,
2,
2,
3,
3,
1,
3,
6,
1,
2,
1,
0,
1,
0,
0,
1,
0,
0,
0,
0,
0,
0,
0,
0,
0,
0,
0,
1,
1,
0,
0,
0,
0,
0,
0,
0,
1,
0,
0,
0,
0,
0,
0,
0,
0,
0,
0,
1,
0,
0,
0,
0,
0,
1,
0,
0,
0,
0,
0,
0,
0,
0,
0,
0,
0,
0,
0,
0,
0,
0,
0,
0,
0,
0,
0,
0,
0,
0,
0,
0,
0,
0,
0,
0,
0,
1,
0,
0,
0,
0,
0,
0,
0,
0,
0,
0,
0,
0,
0,
0,
0,
0,
0,
0,
0,
0,
0,
0,
0,
0,
0,
0,
0,
0,
0,
0,
0,
0,
0,
0,
0,
0,
0,
0,
0,
0,
0,
0,
0,
0,
0,
0,
0,
0,
0,
1,
0,
0,
0,
0,
0,
0,
0,
0,
0,
0,
0,
0,
0,
0,
0,
0,
0,
0,
0,
0,
0,
0,
0,
0,
0,
0,
0,
0,
0,
0,
0,
0,
0,
0,
0,
0,
0,
0,
0,
0,
0,
0,
0,
0,
0,
0,
0,
0,
0,
0,
0,
0,
0,
0,
0,
0,
0,
0,
0,
0,
0,
0,
0,
1,
0,
0,
0,
0,
0,
0,
0,
0,
0,
0,
0,
0,
0,
0,
0,
0,
0,
0,
0,
0,
0,
0,
0,
0,
0,
0,
0,
0,
0,
0,
0,
0,
0,
0,
0,
0,
0,
0,
0,
0,
0,
0,
0,
0,
0,
0,
0,
0,
0,
0,
0,
0,
0,
0,
0,
0,
0,
0,
0,
0,
0,
0,
0,
0,
0,
0,
0,
0,
0,
0,
0,
0,
0,
0,
0,
0,
0,
0,
0,
0,
0,
0,
0,
0,
0,
0,
0,
0,
0,
0,
0,
0,
0,
0,
0,
0,
0,
0,
0,
0,
0,
0,
0,
0,
0,
0,
0,
0,
0,
0,
0,
0,
0,
0,
0,
0,
0,
0,
0,
0,
0,
0,
0,
0,
0,
0,
0,
0,
0,
0,
0,
0,
0,
0,
0,
0,
0,
0,
0,
0,
0,
0,
0,
0,
0,
0,
0,
0,
0,
0,
0,
0,
0,
0,
0,
0,
0,
0,
0,
0,
0,
0,
0,
0,
0,
0,
0,
0,
0,
0,
0,
0,
0,
0,
0,
0,
0,
0,
0,
0,
0,
0,
0,
0,
0,
0,
0,
0,
0,
0,
0,
0,
0,
0,
0,
0,
0,
0,
0,
0,
0,
0,
0,
0,
0,
0,
0,
0,
0,
0,
0,
0,
0,
0,
0,
0,
0,
0,
0,
0,
0,
0,
0,
0,
0,
0,
0,
0,
0,
0,
0,
0,
0,
0,
0,
0,
0,
0,
0,
0,
0,
0,
0,
0,
0,
0,
0,
0,
0,
0,
0,
0,
0,
0,
0,
0,
0,
0,
0,
0,
0,
0,
0,
0,
0,
0,
0,
0,
0,
0,
0,
0,
0,
0,
0,
0,
0,
0,
0,
0,
0,
0,
0,
0,
0,
0,
0,
0,
0,
0,
0,
0,
0,
0,
0,
0,
0,
0,
0,
0,
0,
0,
0,
0,
0,
0,
0,
0,
0,
0,
0,
0,
0,
0,
0,
0,
0,
0,
0,
0,
0,
0,
0,
0,
0,
0,
0,
0,
0,
0,
0,
0,
0,
0,
0,
0,
0,
0,
0,
0,
0,
0,
0,
0,
0,
0,
0,
0,
0,
0,
0,
0,
0,
0,
0,
0,
0,
0,
0,
0,
0,
0,
0,
0,
0,
0,
0,
0,
0,
0,
0,
0,
0,
0,
0,
0,
0,
0,
0,
0,
0,
0,
0,
0,
0,
0,
0,
0,
0,
0,
0,
0,
0,
0,
0,
0,
0,
0,
0,
0,
0,
0,
0,
0,
0,
0,
0,
0,
0,
0,
0,
0,
0,
0,
0,
0,
0,
0,
0,
0,
0,
0,
0,
0,
0,
0,
0,
0,
0,
0,
0,
0,
0,
0,
0,
0,
0,
0,
0,
0,
0,
0,
0,
0,
0,
0,
0,
0,
0,
0,
0,
0,
0,
0,
0,
0,
0,
0,
0,
0,
0,
0,
0,
0,
0,
0,
0,
0,
0,
0,
0,
0,
0,
0,
0,
0,
0,
0,
0,
0,
0,
0,
0,
0,
0,
0,
0,
0,
0,
0,
0,
0,
0,
0,
0,
0,
0,
0,
0,
0,
0,
0,
0,
0,
0,
0,
0,
0,
0,
0,
0,
0,
0,
0,
0,
0,
0,
0,
#ENDOFDATA   :