File: N132962/Quantification/MMM1/SPI MM1 Bustamite[5][4].msa
#FORMAT      : EMSA/MAS Spectral Data File
#VERSION     : 1.0
#TITLE       : SPI MM1 Bustamite[5][all]
#DATE        : 11-MAR-2025
#TIME        : 14:08
#OWNER       : Unknown
#NPOINTS     : 4096
#NCOLUMNS    : 1
#XUNITS      : eV
#YUNITS      : counts
#DATATYPE    : Y
#XPERCHAN    : 9.99778
#OFFSET      : 1.69135
#BEAMKV      : 20
#SIGNALTYPE  : EDS
#ELEVANGLE   : 35
#AZIMANGLE   : 0
#LIVETIME    : 240.08
#REALTIME    : 255.985
#PROBECUR    : 1.02902
#TAUWIND     : 0
#TDEADLYR    : 0
#TACTLYR     : 0.045
#TALWIND     : 0.025
#CHOFFSET    : 0.0
#XLABEL      : Energy (eV)
#YLABEL      : Counts
#XPOSITION   : 2.72013
#YPOSITION   : -2.77713
#ZPOSITION   : 30.9284
#EDSDET      : SD
##SPECIMEN   : SPI MM1 Bustamite[5][all]
##D2STDCMP   : Bustamite,(O:38.8357),(Si:22.7243),(Ca:16.2141),(Mn:22.2259),6.0
##DET_HASH   : 12273538-fd48-a23f-0a19-f1e6fa85caef
##CALIB_HASH : 6abaa72c-aa41-8738-0be9-f592914732f3
##WORKING    : 15.0 mm
##DET_NAME   : EDAX All
##DET_MODE   : MediumLE
#SPECTRUM    :
29,
25,
8,
13,
72,
342,
912,
3017,
8437,
12135,
7755,
4101,
3219,
3299,
4990,
15923,
61017,
118981,
88708,
26010,
8954,
10555,
9495,
7430,
6039,
3647,
2413,
2285,
2385,
2425,
2536,
2628,
2784,
3261,
3541,
3415,
3399,
3395,
3420,
3551,
3890,
4363,
4802,
4548,
4162,
4266,
4346,
4543,
4782,
5155,
5246,
5326,
5260,
5434,
6638,
15478,
56368,
142920,
194295,
136572,
55962,
19797,
9611,
5675,
4183,
3903,
3617,
3326,
3192,
3110,
3221,
3320,
3231,
3341,
3567,
3704,
3612,
3430,
3325,
3219,
3193,
3301,
3262,
3295,
3218,
3222,
3293,
3178,
3050,
3080,
3152,
3121,
3152,
2961,
3111,
3078,
2978,
3057,
2987,
2992,
2972,
3033,
2934,
3005,
2977,
2947,
2962,
2865,
2862,
2907,
2847,
2717,
2839,
2821,
2777,
2920,
3100,
3226,
3679,
5437,
12426,
28796,
53010,
66607,
56318,
32201,
13558,
5148,
3104,
2876,
3143,
4364,
6593,
9314,
10150,
8462,
5531,
3331,
2608,
2406,
2232,
2177,
2181,
2063,
2072,
2101,
1999,
2052,
1999,
2013,
2022,
2007,
1915,
1897,
1976,
1931,
1933,
1927,
1863,
1851,
1863,
1863,
1801,
1817,
1806,
1766,
1758,
1780,
1782,
1800,
1774,
1701,
1747,
1618,
1646,
1608,
1673,
1668,
1639,
1687,
1774,
1760,
1668,
1720,
1632,
1554,
1555,
1604,
1592,
1594,
1749,
2239,
4020,
8809,
18153,
30501,
39638,
39912,
29856,
17122,
7989,
3488,
1945,
1596,
1461,
1409,
1435,
1479,
1750,
2418,
4129,
7389,
11333,
14212,
14949,
13313,
10638,
7832,
5019,
3247,
2101,
1498,
1148,
1143,
1133,
1051,
1099,
1135,
1150,
1113,
1219,
1360,
1535,
1937,
2322,
2453,
2308,
1956,
1579,
1172,
1087,
1026,
1001,
924,
946,
1016,
1072,
1019,
1068,
1043,
1091,
1032,
975,
985,
1000,
1020,
963,
962,
931,
881,
881,
893,
857,
892,
861,
837,
916,
856,
825,
826,
877,
830,
847,
842,
812,
767,
784,
784,
789,
809,
794,
798,
721,
753,
853,
856,
955,
872,
911,
887,
874,
763,
730,
678,
700,
698,
660,
698,
699,
662,
641,
670,
672,
640,
666,
662,
638,
640,
646,
674,
648,
603,
629,
616,
634,
632,
622,
653,
681,
639,
683,
616,
634,
592,
573,
625,
545,
579,
544,
581,
562,
549,
524,
595,
509,
596,
539,
523,
531,
508,
565,
521,
499,
520,
514,
462,
510,
438,
475,
456,
460,
492,
468,
445,
453,
481,
475,
448,
401,
416,
439,
451,
418,
426,
421,
467,
406,
408,
392,
419,
419,
399,
425,
431,
380,
373,
332,
365,
386,
411,
360,
404,
379,
378,
356,
372,
360,
350,
309,
356,
386,
385,
353,
348,
360,
339,
337,
332,
337,
321,
294,
346,
305,
332,
301,
299,
300,
297,
265,
270,
294,
296,
286,
287,
289,
285,
266,
303,
253,
241,
233,
261,
249,
269,
275,
244,
253,
236,
233,
250,
234,
227,
222,
237,
228,
222,
236,
193,
227,
237,
216,
210,
235,
217,
239,
217,
210,
209,
204,
213,
191,
204,
192,
216,
206,
180,
186,
180,
158,
160,
187,
194,
172,
154,
169,
167,
180,
180,
159,
179,
168,
140,
149,
153,
158,
148,
152,
131,
151,
136,
145,
145,
122,
148,
142,
142,
157,
123,
136,
121,
108,
121,
136,
112,
126,
127,
100,
95,
101,
137,
121,
113,
108,
123,
107,
88,
114,
108,
116,
94,
92,
89,
100,
102,
104,
81,
101,
89,
94,
91,
105,
86,
89,
74,
75,
60,
76,
103,
87,
72,
85,
75,
82,
78,
73,
68,
75,
66,
88,
68,
67,
78,
61,
59,
60,
61,
54,
57,
62,
56,
47,
56,
48,
54,
55,
53,
52,
55,
46,
49,
40,
56,
53,
41,
42,
50,
37,
52,
43,
37,
42,
44,
41,
46,
33,
48,
36,
30,
36,
36,
31,
46,
37,
39,
30,
32,
26,
32,
39,
29,
32,
20,
25,
29,
24,
21,
25,
18,
18,
14,
21,
20,
17,
20,
22,
24,
20,
21,
20,
18,
22,
8,
29,
15,
21,
18,
16,
15,
23,
14,
12,
16,
9,
12,
16,
9,
15,
11,
13,
8,
11,
10,
5,
11,
11,
6,
11,
9,
11,
7,
6,
9,
4,
4,
5,
5,
7,
5,
5,
5,
6,
2,
7,
2,
2,
1,
3,
3,
3,
0,
4,
1,
2,
2,
2,
1,
2,
1,
2,
1,
1,
0,
0,
0,
1,
0,
0,
1,
1,
1,
0,
0,
1,
0,
0,
0,
0,
0,
1,
1,
1,
0,
0,
0,
0,
0,
1,
1,
2,
1,
0,
0,
1,
0,
0,
0,
0,
0,
1,
0,
0,
0,
0,
1,
0,
0,
0,
0,
0,
0,
0,
0,
1,
0,
0,
0,
0,
0,
0,
0,
0,
0,
0,
0,
0,
0,
0,
0,
0,
0,
0,
0,
0,
0,
0,
0,
0,
0,
0,
0,
0,
0,
0,
0,
0,
0,
0,
0,
0,
1,
0,
0,
0,
0,
0,
0,
0,
0,
0,
0,
0,
0,
0,
0,
0,
0,
0,
0,
0,
0,
0,
0,
0,
0,
0,
0,
0,
0,
0,
0,
0,
0,
0,
0,
0,
0,
0,
0,
1,
0,
0,
0,
0,
0,
0,
0,
0,
0,
1,
0,
0,
0,
0,
0,
0,
0,
0,
0,
0,
0,
0,
0,
0,
0,
0,
0,
0,
0,
0,
0,
0,
0,
0,
0,
0,
0,
0,
0,
0,
0,
0,
0,
0,
0,
0,
0,
0,
0,
0,
0,
0,
0,
0,
0,
0,
0,
0,
0,
0,
0,
0,
0,
0,
0,
0,
0,
0,
0,
0,
0,
0,
0,
0,
0,
0,
0,
0,
0,
0,
0,
0,
0,
0,
0,
0,
0,
0,
0,
0,
1,
0,
0,
0,
0,
0,
0,
0,
0,
0,
0,
0,
0,
0,
0,
0,
0,
0,
0,
0,
0,
0,
0,
0,
0,
0,
0,
1,
0,
0,
0,
0,
0,
0,
0,
0,
0,
0,
0,
0,
0,
0,
0,
0,
0,
0,
0,
0,
0,
0,
0,
0,
0,
0,
0,
0,
0,
0,
0,
0,
0,
0,
0,
0,
0,
0,
0,
0,
0,
1,
0,
0,
0,
0,
0,
0,
0,
0,
0,
0,
0,
0,
0,
0,
0,
0,
0,
0,
0,
0,
0,
0,
0,
0,
0,
0,
0,
0,
0,
0,
0,
0,
0,
0,
0,
0,
1,
0,
0,
0,
0,
0,
0,
0,
0,
0,
0,
0,
0,
0,
0,
0,
0,
0,
0,
0,
0,
0,
0,
0,
0,
0,
0,
0,
0,
0,
0,
0,
0,
0,
0,
0,
0,
0,
0,
0,
0,
0,
0,
0,
0,
0,
0,
0,
0,
0,
0,
0,
0,
0,
0,
0,
0,
0,
0,
0,
0,
0,
0,
0,
0,
0,
0,
0,
0,
0,
0,
0,
0,
0,
0,
0,
0,
0,
0,
0,
0,
0,
0,
0,
0,
0,
0,
0,
0,
0,
0,
0,
0,
0,
0,
0,
0,
0,
0,
0,
0,
0,
0,
0,
0,
0,
0,
0,
0,
0,
0,
0,
0,
0,
0,
0,
0,
0,
0,
0,
0,
0,
0,
0,
0,
0,
0,
0,
0,
0,
0,
0,
0,
1,
0,
0,
0,
0,
0,
0,
0,
0,
0,
0,
0,
0,
0,
0,
0,
0,
0,
0,
0,
0,
0,
0,
0,
0,
0,
0,
0,
0,
0,
0,
0,
0,
0,
0,
0,
0,
0,
0,
0,
0,
0,
0,
0,
0,
0,
0,
0,
0,
0,
0,
0,
0,
0,
0,
0,
0,
0,
0,
0,
0,
0,
0,
0,
0,
0,
0,
0,
0,
0,
0,
0,
0,
0,
0,
0,
0,
0,
0,
0,
0,
0,
0,
0,
0,
0,
0,
0,
0,
0,
0,
0,
0,
0,
0,
0,
0,
0,
0,
0,
0,
0,
0,
0,
0,
0,
0,
0,
0,
0,
0,
0,
0,
0,
0,
0,
0,
0,
0,
0,
0,
0,
0,
0,
0,
0,
0,
0,
0,
0,
0,
0,
0,
0,
0,
0,
0,
0,
0,
0,
0,
0,
0,
0,
0,
0,
0,
0,
0,
0,
0,
0,
0,
0,
0,
0,
0,
0,
0,
0,
0,
0,
0,
0,
0,
0,
0,
0,
0,
0,
0,
0,
0,
0,
0,
0,
0,
0,
0,
0,
0,
0,
0,
0,
0,
0,
0,
0,
0,
0,
0,
0,
0,
0,
0,
0,
0,
0,
0,
0,
0,
0,
0,
0,
0,
0,
0,
0,
0,
0,
0,
0,
0,
0,
0,
0,
0,
0,
0,
0,
0,
0,
0,
0,
0,
0,
0,
0,
0,
0,
0,
0,
0,
0,
0,
0,
0,
0,
#ENDOFDATA   :