File: N132962/Quantification/MMM1/SPI MM1 Barite[3][4].msa
#FORMAT      : EMSA/MAS Spectral Data File
#VERSION     : 1.0
#TITLE       : SPI MM1 Barite[3][all]
#DATE        : 11-MAR-2025
#TIME        : 13:29
#OWNER       : Unknown
#NPOINTS     : 4096
#NCOLUMNS    : 1
#XUNITS      : eV
#YUNITS      : counts
#DATATYPE    : Y
#XPERCHAN    : 9.99778
#OFFSET      : 1.69135
#BEAMKV      : 20
#SIGNALTYPE  : EDS
#ELEVANGLE   : 35
#AZIMANGLE   : 0
#LIVETIME    : 239.869
#REALTIME    : 258.917
#PROBECUR    : 1.02853
#TAUWIND     : 0
#TDEADLYR    : 0
#TACTLYR     : 0.045
#TALWIND     : 0.025
#CHOFFSET    : 0.0
#XLABEL      : Energy (eV)
#YLABEL      : Counts
#XPOSITION   : -0.37308
#YPOSITION   : -4.94878
#ZPOSITION   : 30.9284
#EDSDET      : SD
##SPECIMEN   : SPI MM1 Barite[3][all]
##DET_HASH   : 12273538-fd48-a23f-0a19-f1e6fa85caef
##CALIB_HASH : 6abaa72c-aa41-8738-0be9-f592914732f3
##WORKING    : 15.0 mm
##DET_NAME   : EDAX All
##DET_MODE   : MediumLE
#SPECTRUM    :
24,
27,
12,
48,
452,
1414,
2445,
5112,
12120,
15531,
8816,
4965,
5037,
5816,
8125,
21017,
71908,
137586,
104147,
37983,
16510,
9356,
5953,
5845,
7212,
9570,
10515,
8065,
5255,
4275,
3897,
4584,
5884,
5885,
5811,
5559,
4901,
4380,
4211,
4095,
4245,
4315,
4352,
4425,
4464,
4534,
4690,
4776,
4894,
5123,
5117,
5142,
5117,
5238,
5458,
5515,
5690,
6108,
6513,
6528,
6518,
6145,
5890,
5640,
5554,
5508,
5632,
5795,
5778,
5650,
5704,
6048,
6587,
8829,
15972,
37206,
73477,
93587,
69895,
33471,
13886,
10206,
10709,
9447,
7128,
5666,
5227,
5049,
5028,
5281,
5595,
5578,
5444,
5302,
5017,
5036,
5085,
4767,
4809,
4750,
4875,
4939,
4990,
5060,
5060,
4815,
4708,
4795,
4715,
4637,
4696,
4665,
4596,
4597,
4647,
4651,
4726,
4468,
4387,
4501,
4339,
4300,
4396,
4418,
4402,
4423,
4431,
4451,
4482,
5091,
5798,
6768,
7168,
6660,
5712,
4794,
4366,
4187,
4218,
4171,
4245,
4440,
4689,
5441,
6847,
11383,
23876,
48232,
76033,
86452,
69461,
40764,
18776,
8318,
5041,
4437,
4821,
6678,
12323,
22930,
36238,
43295,
39377,
29610,
19931,
13607,
9573,
6994,
5835,
7480,
10954,
15156,
16879,
14623,
10345,
6501,
4249,
3323,
3221,
3283,
3318,
3921,
4985,
6604,
7836,
7548,
6220,
4656,
3543,
3063,
3251,
3649,
4435,
4727,
4533,
3985,
3265,
3036,
2908,
2737,
2667,
2622,
2495,
2343,
2277,
2271,
2331,
2317,
2272,
2344,
2399,
2456,
2575,
2788,
2480,
2476,
2381,
2295,
2161,
2218,
2105,
2178,
2184,
2215,
2124,
2238,
2246,
2215,
2177,
2157,
2104,
2087,
2168,
2066,
2074,
2079,
2108,
2039,
2114,
2089,
2026,
2082,
2027,
1968,
1949,
1988,
2052,
2074,
2085,
2119,
2086,
1948,
2002,
1936,
1765,
1859,
1889,
1801,
1822,
1865,
1832,
1821,
1814,
1747,
1849,
1793,
1799,
1702,
1772,
1736,
1778,
1752,
1740,
1732,
1672,
1705,
1717,
1711,
1693,
1714,
1576,
1663,
1596,
1649,
1707,
1550,
1527,
1570,
1597,
1549,
1567,
1552,
1609,
1563,
1544,
1547,
1566,
1569,
1581,
1379,
1462,
1481,
1437,
1485,
1378,
1449,
1357,
1425,
1408,
1391,
1481,
1373,
1383,
1435,
1321,
1278,
1461,
1357,
1374,
1331,
1280,
1296,
1372,
1315,
1263,
1292,
1354,
1238,
1234,
1236,
1241,
1252,
1280,
1179,
1176,
1216,
1181,
1199,
1171,
1202,
1124,
1187,
1132,
1189,
1176,
1133,
1145,
1148,
1162,
1086,
1032,
1111,
1103,
1025,
1096,
1071,
1065,
1060,
1027,
1041,
990,
1031,
1002,
1010,
1003,
945,
948,
1027,
965,
1003,
906,
911,
927,
894,
941,
899,
919,
871,
875,
851,
895,
870,
849,
933,
852,
866,
820,
846,
816,
819,
812,
839,
789,
777,
778,
811,
800,
689,
806,
734,
757,
734,
756,
765,
762,
723,
723,
732,
669,
698,
688,
697,
709,
707,
686,
681,
682,
680,
626,
641,
665,
674,
639,
623,
580,
608,
619,
598,
657,
591,
583,
610,
532,
606,
567,
589,
588,
569,
571,
599,
527,
559,
542,
561,
503,
555,
480,
485,
502,
501,
494,
469,
490,
512,
481,
477,
470,
458,
440,
418,
431,
465,
451,
441,
473,
443,
418,
405,
419,
429,
429,
407,
408,
420,
385,
367,
389,
395,
371,
372,
363,
380,
340,
361,
359,
357,
355,
354,
320,
342,
324,
326,
328,
314,
329,
303,
328,
315,
319,
314,
269,
308,
305,
297,
283,
267,
303,
307,
276,
286,
279,
256,
256,
240,
239,
267,
253,
260,
230,
211,
201,
229,
250,
231,
246,
264,
242,
215,
217,
184,
237,
190,
199,
214,
191,
180,
194,
187,
191,
181,
166,
176,
150,
201,
168,
152,
148,
155,
152,
141,
146,
160,
174,
167,
146,
141,
149,
141,
136,
122,
138,
142,
147,
128,
122,
132,
121,
130,
124,
118,
129,
125,
122,
106,
120,
92,
121,
102,
115,
98,
86,
108,
90,
80,
101,
82,
92,
111,
95,
82,
78,
73,
90,
91,
82,
77,
88,
74,
77,
86,
63,
70,
66,
62,
74,
73,
65,
59,
54,
67,
76,
47,
51,
56,
57,
54,
59,
48,
50,
36,
43,
44,
46,
47,
47,
36,
28,
49,
37,
30,
34,
36,
24,
23,
35,
32,
33,
25,
20,
18,
25,
27,
26,
16,
31,
20,
17,
18,
19,
17,
15,
13,
20,
7,
12,
7,
6,
11,
8,
5,
10,
5,
6,
2,
3,
1,
4,
2,
3,
2,
1,
1,
2,
0,
2,
3,
1,
0,
1,
1,
0,
0,
0,
1,
0,
2,
1,
1,
1,
1,
2,
1,
0,
0,
1,
1,
1,
1,
0,
1,
1,
0,
1,
0,
3,
2,
2,
1,
2,
0,
0,
1,
2,
1,
1,
1,
0,
0,
0,
1,
3,
3,
1,
1,
2,
2,
1,
0,
2,
3,
2,
1,
1,
1,
2,
0,
1,
2,
0,
2,
0,
0,
1,
0,
0,
1,
1,
1,
0,
0,
2,
0,
0,
0,
1,
0,
0,
0,
2,
0,
2,
1,
0,
1,
0,
3,
0,
0,
0,
0,
0,
0,
0,
0,
0,
0,
0,
0,
0,
0,
0,
0,
0,
0,
0,
1,
0,
0,
0,
1,
0,
1,
0,
0,
0,
0,
0,
0,
0,
1,
1,
1,
2,
0,
0,
0,
0,
0,
0,
0,
1,
1,
0,
0,
0,
0,
1,
0,
1,
1,
0,
0,
0,
0,
0,
1,
1,
0,
0,
0,
0,
0,
0,
0,
1,
0,
1,
1,
0,
0,
0,
1,
0,
1,
0,
0,
0,
0,
2,
0,
1,
1,
0,
0,
0,
0,
0,
0,
0,
0,
0,
0,
0,
0,
0,
0,
0,
0,
0,
0,
0,
1,
0,
0,
0,
0,
0,
0,
0,
0,
1,
0,
0,
0,
0,
1,
0,
0,
0,
0,
1,
1,
0,
0,
0,
0,
0,
2,
0,
0,
0,
0,
0,
0,
0,
0,
0,
0,
0,
1,
0,
1,
0,
0,
0,
0,
0,
0,
0,
0,
0,
0,
0,
0,
0,
0,
0,
0,
0,
0,
0,
0,
0,
1,
1,
0,
0,
0,
0,
0,
0,
0,
0,
0,
0,
0,
0,
0,
0,
0,
0,
0,
1,
0,
1,
0,
1,
0,
0,
0,
0,
0,
0,
0,
0,
0,
0,
0,
0,
0,
0,
0,
0,
0,
0,
0,
0,
0,
0,
0,
0,
0,
0,
0,
0,
0,
0,
0,
0,
0,
0,
0,
0,
0,
0,
0,
0,
0,
0,
0,
0,
0,
0,
0,
0,
0,
0,
0,
0,
0,
0,
0,
0,
0,
0,
0,
0,
0,
0,
0,
0,
0,
0,
0,
0,
0,
1,
0,
0,
0,
0,
0,
0,
0,
0,
0,
0,
0,
0,
0,
0,
0,
0,
0,
0,
0,
0,
0,
0,
0,
0,
0,
0,
0,
0,
0,
0,
0,
0,
0,
0,
0,
0,
0,
0,
0,
0,
0,
0,
0,
0,
0,
0,
0,
0,
0,
0,
0,
0,
0,
0,
0,
0,
0,
0,
0,
0,
0,
0,
0,
0,
0,
0,
0,
0,
0,
0,
0,
0,
0,
0,
0,
0,
0,
0,
0,
0,
0,
0,
0,
0,
0,
0,
0,
0,
0,
0,
0,
0,
0,
0,
0,
0,
0,
0,
0,
0,
0,
0,
1,
0,
0,
0,
0,
0,
0,
0,
0,
0,
0,
0,
0,
0,
0,
0,
0,
0,
0,
0,
0,
0,
0,
0,
0,
0,
0,
0,
0,
0,
0,
0,
0,
0,
0,
0,
0,
0,
0,
0,
0,
0,
0,
0,
0,
0,
0,
0,
0,
0,
0,
0,
0,
0,
0,
0,
0,
0,
0,
0,
0,
0,
0,
0,
0,
0,
0,
0,
0,
0,
0,
0,
0,
0,
0,
0,
0,
0,
0,
0,
0,
0,
0,
0,
0,
0,
0,
0,
0,
0,
0,
0,
0,
0,
0,
0,
0,
0,
0,
0,
0,
0,
0,
0,
0,
0,
0,
0,
0,
0,
0,
0,
0,
0,
0,
0,
0,
0,
0,
0,
0,
0,
0,
0,
0,
0,
0,
0,
0,
0,
0,
0,
0,
0,
0,
0,
0,
0,
0,
0,
0,
0,
0,
0,
0,
0,
0,
0,
0,
0,
0,
0,
0,
0,
0,
0,
0,
0,
0,
0,
0,
0,
0,
0,
0,
0,
0,
0,
0,
0,
0,
0,
0,
0,
0,
0,
0,
0,
0,
0,
0,
0,
0,
0,
0,
0,
0,
0,
0,
0,
0,
0,
0,
0,
0,
0,
0,
0,
0,
0,
0,
0,
0,
0,
0,
0,
0,
0,
0,
0,
0,
0,
0,
0,
0,
0,
0,
0,
0,
0,
0,
0,
0,
0,
0,
0,
0,
0,
0,
0,
0,
0,
0,
0,
0,
0,
0,
#ENDOFDATA   :