File: N132962/Quantification/MMM1/SPI MM1 Kaersutite[7][4].msa
#FORMAT      : EMSA/MAS Spectral Data File
#VERSION     : 1.0
#TITLE       : SPI MM1dup Kaersutite[7][all]
#DATE        : 12-MAR-2025
#TIME        : 16:28
#OWNER       : Unknown
#NPOINTS     : 4096
#NCOLUMNS    : 1
#XUNITS      : eV
#YUNITS      : counts
#DATATYPE    : Y
#XPERCHAN    : 9.99778
#OFFSET      : 1.69135
#BEAMKV      : 20
#SIGNALTYPE  : EDS
#ELEVANGLE   : 35
#AZIMANGLE   : 0
#LIVETIME    : 239.585
#REALTIME    : 254.193
#PROBECUR    : 1.02709
#TAUWIND     : 0
#TDEADLYR    : 0
#TACTLYR     : 0.045
#TALWIND     : 0.025
#CHOFFSET    : 0.0
#XLABEL      : Energy (eV)
#YLABEL      : Counts
#XPOSITION   : -1.61286
#YPOSITION   : 3.60908
#ZPOSITION   : 31.03608
#EDSDET      : SD
##SPECIMEN   : SPI MM1dup Kaersutite[7][all]
##DET_HASH   : 12273538-fd48-a23f-0a19-f1e6fa85caef
##CALIB_HASH : 6abaa72c-aa41-8738-0be9-f592914732f3
##WORKING    : 15.0 mm
##DET_NAME   : EDAX All
##DET_MODE   : MediumLE
#SPECTRUM    :
15,
20,
8,
14,
73,
273,
806,
2765,
7533,
10510,
6346,
3285,
3333,
3779,
5656,
17342,
65858,
127605,
93668,
25444,
4849,
3341,
5027,
8104,
7755,
4260,
2722,
2408,
2476,
2534,
2700,
2901,
3407,
6019,
10831,
11695,
7573,
4592,
4248,
6758,
19338,
45210,
53567,
31539,
11365,
5058,
4828,
9046,
25335,
48956,
49786,
27411,
10809,
5867,
5264,
11618,
41856,
106045,
144576,
102383,
42130,
15290,
7691,
4406,
3386,
3193,
3033,
3002,
2712,
2845,
2672,
2775,
2688,
2783,
2972,
3053,
3092,
2962,
2885,
2790,
2748,
2833,
2697,
2663,
2772,
2778,
2617,
2804,
2802,
2782,
2714,
2738,
2759,
2700,
2572,
2508,
2517,
2505,
2572,
2662,
2600,
2624,
2535,
2473,
2466,
2519,
2543,
2838,
3542,
5011,
6271,
6399,
4948,
3478,
2677,
2540,
2550,
2675,
3108,
4213,
8210,
17644,
31335,
38957,
32822,
19335,
8383,
3706,
2399,
2289,
2451,
3082,
4387,
5988,
6309,
5391,
3785,
2544,
1985,
1800,
1879,
1841,
1788,
1839,
1814,
1856,
2130,
3272,
5646,
9369,
11807,
11020,
7718,
4606,
2577,
1887,
1671,
1701,
1619,
1671,
1718,
1767,
2133,
2576,
2947,
2901,
2476,
2087,
1653,
1474,
1436,
1480,
1478,
1407,
1462,
1407,
1349,
1419,
1438,
1362,
1475,
1521,
1369,
1323,
1303,
1315,
1325,
1329,
1254,
1253,
1249,
1292,
1232,
1277,
1254,
1375,
1405,
1360,
1316,
1258,
1240,
1160,
1130,
1144,
1186,
1128,
1175,
1277,
1547,
2593,
4966,
8948,
13972,
16992,
15813,
11642,
6832,
3517,
1905,
1249,
1080,
993,
1021,
1030,
1031,
974,
1041,
1023,
1005,
1009,
1096,
1232,
1647,
2142,
2677,
2969,
2669,
2142,
1577,
1237,
965,
920,
857,
832,
874,
826,
841,
863,
892,
853,
827,
827,
831,
798,
743,
779,
780,
743,
787,
725,
782,
741,
714,
698,
715,
687,
709,
739,
724,
745,
680,
704,
674,
722,
701,
730,
658,
706,
600,
692,
657,
667,
628,
654,
666,
628,
574,
588,
590,
611,
656,
624,
607,
585,
578,
567,
601,
561,
554,
554,
570,
576,
512,
572,
559,
526,
527,
545,
515,
537,
503,
549,
524,
526,
469,
522,
522,
493,
497,
505,
499,
445,
478,
478,
463,
489,
438,
467,
446,
467,
456,
490,
459,
421,
427,
445,
448,
446,
417,
454,
410,
458,
382,
403,
445,
388,
406,
412,
421,
405,
384,
370,
379,
420,
362,
396,
360,
377,
387,
373,
350,
364,
356,
334,
365,
344,
333,
333,
328,
311,
322,
323,
312,
331,
313,
303,
289,
299,
305,
285,
317,
299,
328,
309,
293,
271,
293,
296,
275,
291,
286,
268,
250,
292,
272,
270,
260,
252,
250,
285,
219,
230,
247,
250,
248,
269,
246,
260,
264,
244,
260,
245,
198,
205,
212,
219,
204,
241,
201,
192,
219,
216,
205,
202,
192,
178,
200,
193,
190,
206,
174,
197,
183,
207,
178,
191,
172,
195,
160,
188,
170,
188,
162,
206,
164,
168,
139,
155,
147,
149,
172,
147,
162,
160,
152,
136,
123,
121,
125,
138,
145,
135,
153,
141,
121,
133,
123,
131,
146,
145,
111,
110,
128,
98,
125,
105,
118,
128,
110,
101,
89,
101,
121,
110,
114,
88,
120,
92,
90,
105,
91,
89,
89,
92,
95,
99,
88,
92,
94,
66,
71,
82,
90,
79,
86,
79,
82,
72,
68,
67,
76,
74,
71,
71,
57,
74,
82,
75,
61,
72,
64,
61,
72,
59,
55,
54,
62,
76,
53,
68,
60,
70,
62,
61,
50,
77,
48,
50,
52,
64,
52,
43,
51,
58,
48,
60,
59,
65,
47,
50,
43,
50,
41,
44,
43,
41,
36,
44,
33,
37,
36,
29,
46,
34,
39,
36,
30,
36,
29,
40,
36,
37,
29,
31,
36,
36,
21,
29,
29,
23,
24,
27,
29,
27,
36,
31,
21,
22,
15,
24,
13,
19,
20,
19,
35,
18,
24,
20,
23,
15,
19,
20,
17,
19,
20,
23,
15,
19,
18,
15,
15,
13,
11,
12,
16,
8,
8,
15,
16,
14,
12,
19,
10,
10,
12,
16,
8,
7,
6,
10,
13,
10,
8,
10,
6,
8,
5,
11,
7,
4,
3,
3,
6,
6,
9,
5,
5,
6,
6,
4,
1,
5,
5,
2,
2,
1,
3,
0,
3,
3,
1,
2,
1,
0,
4,
1,
1,
1,
0,
1,
1,
1,
0,
0,
1,
0,
0,
0,
0,
0,
0,
0,
1,
1,
0,
0,
0,
0,
0,
0,
2,
0,
0,
0,
0,
0,
0,
1,
0,
0,
0,
0,
0,
0,
1,
0,
0,
0,
0,
0,
0,
0,
0,
0,
0,
0,
1,
0,
0,
0,
0,
0,
0,
0,
0,
0,
0,
0,
0,
0,
0,
0,
0,
0,
0,
0,
0,
0,
0,
0,
0,
0,
0,
0,
0,
0,
0,
0,
0,
1,
0,
1,
0,
1,
0,
0,
0,
0,
0,
0,
0,
0,
0,
0,
0,
0,
0,
0,
0,
0,
0,
0,
0,
0,
0,
0,
0,
0,
0,
1,
0,
0,
0,
1,
0,
0,
0,
0,
0,
0,
0,
0,
0,
0,
0,
0,
0,
0,
0,
0,
0,
0,
0,
0,
0,
0,
0,
1,
0,
0,
0,
0,
1,
0,
0,
0,
0,
0,
0,
0,
0,
0,
0,
0,
0,
0,
0,
0,
0,
0,
0,
0,
0,
0,
0,
0,
0,
0,
0,
0,
0,
0,
0,
0,
0,
0,
0,
0,
0,
0,
0,
0,
0,
0,
0,
0,
0,
0,
0,
0,
0,
0,
0,
0,
0,
0,
0,
0,
0,
0,
0,
0,
0,
0,
0,
0,
0,
0,
0,
0,
0,
0,
0,
0,
0,
1,
0,
0,
0,
0,
0,
0,
0,
0,
0,
0,
0,
0,
0,
0,
0,
0,
0,
0,
0,
0,
0,
0,
0,
0,
0,
0,
0,
0,
0,
0,
0,
0,
0,
0,
0,
0,
0,
0,
0,
0,
0,
0,
0,
0,
0,
0,
0,
0,
0,
0,
0,
0,
0,
0,
0,
0,
0,
0,
0,
0,
0,
0,
0,
0,
0,
0,
0,
0,
0,
0,
0,
0,
0,
0,
0,
0,
0,
0,
0,
0,
0,
0,
0,
0,
0,
0,
0,
0,
0,
0,
0,
0,
0,
0,
0,
0,
0,
0,
0,
0,
0,
0,
0,
0,
0,
0,
0,
0,
0,
0,
0,
0,
0,
0,
0,
0,
0,
0,
0,
0,
0,
0,
0,
0,
0,
0,
0,
0,
0,
0,
0,
0,
0,
0,
0,
0,
0,
0,
0,
0,
0,
0,
0,
0,
0,
0,
0,
0,
0,
0,
0,
0,
0,
0,
0,
0,
0,
0,
0,
0,
0,
0,
0,
0,
0,
0,
0,
0,
0,
0,
0,
0,
0,
0,
0,
0,
0,
0,
0,
0,
0,
0,
0,
0,
0,
0,
0,
0,
0,
0,
0,
0,
0,
0,
0,
0,
0,
0,
0,
0,
0,
0,
0,
0,
0,
0,
0,
0,
0,
0,
0,
0,
0,
0,
0,
0,
0,
0,
0,
0,
0,
0,
0,
0,
0,
0,
0,
0,
0,
0,
0,
0,
0,
0,
0,
0,
0,
0,
0,
0,
0,
0,
0,
0,
0,
0,
0,
0,
0,
0,
0,
0,
0,
0,
0,
0,
0,
0,
0,
0,
0,
0,
0,
0,
0,
0,
0,
0,
0,
0,
0,
0,
0,
0,
0,
0,
0,
0,
0,
0,
0,
0,
0,
0,
0,
0,
0,
0,
0,
0,
0,
0,
0,
0,
0,
0,
0,
0,
0,
0,
0,
0,
0,
0,
0,
0,
0,
0,
0,
0,
0,
0,
0,
0,
0,
0,
0,
0,
0,
0,
0,
0,
0,
0,
0,
0,
0,
0,
0,
0,
0,
0,
0,
0,
0,
0,
0,
0,
0,
0,
0,
0,
0,
0,
0,
0,
0,
0,
0,
0,
0,
0,
0,
0,
0,
0,
0,
0,
0,
0,
0,
0,
0,
0,
0,
0,
0,
0,
0,
0,
0,
0,
0,
0,
0,
0,
0,
0,
0,
0,
0,
0,
0,
0,
0,
0,
0,
0,
0,
0,
0,
0,
0,
0,
0,
0,
0,
0,
0,
0,
0,
0,
0,
0,
0,
0,
0,
0,
0,
0,
0,
0,
0,
0,
0,
0,
0,
0,
0,
0,
0,
0,
0,
0,
0,
0,
0,
0,
0,
0,
0,
0,
0,
0,
0,
0,
0,
0,
0,
0,
0,
0,
0,
0,
0,
0,
0,
0,
0,
0,
0,
0,
0,
0,
0,
0,
0,
0,
0,
0,
0,
0,
0,
0,
0,
0,
0,
0,
0,
0,
0,
0,
0,
0,
0,
0,
0,
0,
0,
0,
#ENDOFDATA   :