File: N132962/Quantification/MMM1/SPI MM1 Andradite[1][4].msa
#FORMAT      : EMSA/MAS Spectral Data File
#VERSION     : 1.0
#TITLE       : SPI MM1 Andradite[1][all]
#DATE        : 11-MAR-2025
#TIME        : 13:08
#OWNER       : Unknown
#NPOINTS     : 4096
#NCOLUMNS    : 1
#XUNITS      : eV
#YUNITS      : counts
#DATATYPE    : Y
#XPERCHAN    : 9.99778
#OFFSET      : 1.69135
#BEAMKV      : 20
#SIGNALTYPE  : EDS
#ELEVANGLE   : 35
#AZIMANGLE   : 0
#LIVETIME    : 240.051
#REALTIME    : 254.628
#PROBECUR    : 1.02699
#TAUWIND     : 0
#TDEADLYR    : 0
#TACTLYR     : 0.045
#TALWIND     : 0.025
#CHOFFSET    : 0.0
#XLABEL      : Energy (eV)
#YLABEL      : Counts
#XPOSITION   : -2.20546
#YPOSITION   : -8.03832
#ZPOSITION   : 30.9284
#EDSDET      : SD
##SPECIMEN   : SPI MM1 Andradite[1][all]
##D2STDCMP   : Andradite,(O:37.7805),(Si:16.5802),(Ca:23.6603),(Fe:21.979),3.86
##DET_HASH   : 12273538-fd48-a23f-0a19-f1e6fa85caef
##CALIB_HASH : 6abaa72c-aa41-8738-0be9-f592914732f3
##WORKING    : 15.0 mm
##DET_NAME   : EDAX All
##DET_MODE   : MediumLE
#SPECTRUM    :
31,
21,
8,
16,
69,
334,
1220,
5024,
16122,
23401,
13607,
5916,
3483,
2867,
3659,
10954,
42455,
82521,
61147,
17182,
4342,
3500,
5186,
9122,
8702,
4667,
2642,
2330,
2369,
2322,
2387,
2506,
2566,
2805,
2879,
3010,
3096,
3200,
3372,
3493,
3518,
3679,
3857,
4068,
4054,
4084,
4434,
5917,
11171,
18454,
18866,
11966,
6617,
5194,
5504,
10054,
32517,
79667,
108005,
77016,
32503,
12727,
7238,
5217,
4834,
4866,
4394,
3790,
3446,
3373,
3306,
3354,
3386,
3436,
3560,
3652,
3648,
3516,
3557,
3476,
3396,
3337,
3213,
3269,
3329,
3310,
3227,
3151,
3280,
3137,
3155,
3113,
3171,
3051,
3030,
3044,
3144,
3110,
2927,
3012,
2917,
2888,
3009,
2928,
2891,
2922,
2855,
2879,
2908,
2838,
2790,
2780,
2722,
2725,
2792,
2791,
3127,
3503,
4468,
8158,
22067,
55533,
103654,
130831,
110079,
62082,
24599,
8201,
3751,
3109,
3789,
6242,
10964,
16008,
17842,
14255,
8509,
4295,
2637,
2005,
2000,
1935,
1979,
1950,
1893,
1811,
1783,
1774,
1903,
1865,
1839,
1838,
1874,
1764,
1856,
1822,
1735,
1706,
1775,
1772,
1630,
1671,
1575,
1642,
1638,
1575,
1612,
1680,
1638,
1623,
1577,
1560,
1576,
1613,
1557,
1546,
1571,
1509,
1531,
1537,
1620,
1625,
1621,
1587,
1503,
1410,
1448,
1362,
1433,
1434,
1362,
1391,
1388,
1499,
1570,
1706,
1832,
1863,
1739,
1601,
1433,
1344,
1297,
1348,
1280,
1330,
1370,
1416,
2042,
3431,
7149,
13307,
20857,
25001,
23482,
17229,
10182,
4880,
2435,
1548,
1194,
1192,
1168,
1117,
1133,
1092,
1104,
1157,
1166,
1291,
1298,
1529,
2080,
2847,
3686,
4052,
3860,
2917,
2111,
1477,
1144,
941,
960,
975,
1025,
958,
983,
1004,
1002,
996,
997,
927,
957,
896,
928,
893,
839,
829,
836,
847,
896,
806,
823,
757,
814,
795,
798,
824,
840,
784,
807,
813,
782,
833,
819,
762,
798,
728,
715,
748,
758,
744,
772,
710,
717,
720,
703,
696,
732,
724,
752,
710,
683,
652,
689,
675,
676,
675,
658,
685,
695,
642,
657,
668,
622,
650,
647,
621,
643,
614,
624,
623,
618,
548,
587,
589,
599,
575,
563,
534,
611,
535,
557,
538,
540,
589,
569,
547,
541,
508,
529,
493,
525,
555,
509,
514,
535,
536,
539,
490,
487,
498,
465,
437,
481,
481,
439,
466,
480,
470,
446,
439,
452,
469,
422,
382,
418,
434,
434,
440,
427,
404,
383,
399,
394,
427,
378,
415,
394,
375,
348,
389,
402,
383,
368,
390,
359,
327,
362,
340,
406,
352,
354,
303,
377,
341,
326,
316,
331,
318,
311,
312,
291,
300,
339,
294,
330,
287,
306,
305,
304,
319,
252,
296,
273,
282,
293,
268,
260,
263,
263,
269,
267,
240,
291,
246,
261,
238,
250,
238,
225,
264,
232,
244,
249,
224,
231,
252,
220,
215,
244,
244,
214,
211,
199,
228,
238,
196,
205,
208,
194,
195,
191,
212,
176,
189,
210,
185,
168,
195,
191,
200,
147,
165,
166,
160,
186,
158,
160,
170,
166,
155,
156,
164,
153,
158,
175,
136,
143,
180,
141,
129,
152,
150,
136,
143,
135,
121,
146,
120,
121,
144,
114,
141,
116,
124,
114,
109,
126,
119,
134,
136,
134,
111,
118,
96,
135,
97,
129,
99,
112,
97,
101,
108,
96,
97,
88,
113,
101,
95,
93,
86,
96,
82,
77,
88,
92,
109,
89,
68,
70,
75,
81,
63,
70,
84,
71,
96,
62,
65,
58,
76,
73,
57,
60,
68,
69,
56,
66,
64,
71,
59,
59,
44,
51,
49,
65,
60,
46,
61,
45,
60,
54,
47,
50,
47,
37,
51,
58,
38,
49,
40,
35,
47,
50,
44,
56,
44,
48,
51,
45,
40,
36,
15,
33,
36,
38,
48,
40,
27,
32,
28,
40,
33,
29,
34,
40,
26,
24,
22,
29,
30,
36,
18,
21,
18,
33,
28,
22,
11,
26,
20,
25,
19,
26,
23,
19,
10,
10,
16,
13,
12,
23,
16,
17,
15,
16,
20,
14,
10,
15,
16,
19,
8,
8,
12,
12,
13,
10,
13,
6,
13,
9,
13,
12,
13,
6,
8,
9,
9,
8,
9,
5,
5,
3,
2,
7,
7,
5,
3,
4,
5,
1,
6,
7,
2,
0,
1,
3,
3,
2,
1,
3,
1,
1,
0,
1,
1,
1,
0,
1,
0,
1,
0,
2,
0,
0,
1,
0,
0,
1,
0,
0,
0,
0,
0,
2,
0,
1,
3,
0,
0,
0,
0,
0,
0,
0,
0,
0,
1,
0,
1,
0,
0,
0,
0,
1,
0,
0,
2,
1,
0,
0,
0,
0,
0,
0,
0,
0,
0,
0,
0,
0,
0,
0,
0,
0,
1,
0,
0,
0,
0,
0,
0,
0,
0,
0,
0,
0,
0,
1,
0,
0,
1,
0,
0,
0,
0,
0,
0,
0,
0,
0,
0,
0,
1,
0,
0,
0,
1,
0,
0,
0,
0,
0,
0,
0,
0,
0,
0,
0,
0,
0,
0,
0,
0,
0,
0,
0,
0,
0,
0,
0,
0,
0,
0,
0,
0,
0,
0,
0,
1,
0,
0,
0,
0,
0,
0,
0,
0,
0,
0,
0,
0,
0,
0,
0,
0,
0,
0,
0,
0,
0,
0,
0,
0,
0,
0,
0,
0,
0,
0,
0,
0,
0,
0,
0,
0,
0,
0,
0,
0,
0,
0,
0,
0,
0,
0,
0,
0,
0,
0,
0,
0,
0,
0,
0,
0,
0,
0,
0,
0,
0,
0,
0,
0,
0,
0,
0,
0,
1,
0,
0,
0,
0,
0,
0,
0,
0,
0,
0,
0,
0,
0,
0,
0,
0,
0,
0,
0,
0,
0,
0,
0,
0,
0,
0,
0,
0,
0,
0,
0,
0,
0,
0,
0,
0,
0,
0,
0,
0,
0,
0,
0,
0,
0,
0,
0,
0,
0,
0,
0,
0,
0,
0,
0,
0,
0,
0,
0,
0,
0,
0,
0,
0,
0,
0,
0,
0,
0,
0,
0,
0,
0,
0,
0,
0,
0,
0,
0,
0,
0,
0,
0,
0,
0,
0,
0,
0,
0,
0,
0,
0,
0,
0,
0,
0,
0,
0,
0,
0,
0,
0,
0,
0,
0,
1,
0,
0,
0,
0,
0,
0,
0,
0,
0,
0,
0,
0,
0,
0,
0,
0,
0,
0,
0,
0,
0,
0,
0,
0,
0,
0,
0,
0,
0,
0,
0,
0,
0,
0,
0,
0,
0,
0,
0,
0,
0,
0,
0,
0,
0,
0,
0,
0,
0,
0,
0,
0,
0,
0,
0,
0,
0,
0,
0,
0,
0,
0,
0,
0,
0,
0,
0,
0,
0,
0,
0,
0,
0,
0,
0,
0,
0,
0,
0,
0,
0,
0,
0,
0,
0,
0,
0,
0,
0,
0,
0,
0,
0,
0,
0,
0,
0,
0,
0,
0,
0,
0,
0,
0,
0,
0,
0,
0,
0,
0,
0,
0,
0,
0,
0,
0,
0,
0,
0,
0,
0,
0,
0,
0,
0,
0,
0,
0,
0,
0,
0,
0,
0,
0,
0,
0,
0,
0,
0,
0,
0,
0,
0,
0,
0,
0,
0,
0,
0,
0,
0,
0,
0,
0,
0,
0,
0,
0,
0,
0,
0,
0,
0,
0,
0,
0,
0,
0,
0,
0,
0,
0,
0,
0,
0,
0,
0,
0,
0,
0,
0,
0,
0,
0,
0,
0,
0,
0,
0,
0,
0,
0,
0,
0,
0,
0,
0,
0,
0,
0,
0,
0,
0,
0,
0,
0,
0,
0,
0,
0,
0,
0,
0,
0,
0,
0,
0,
0,
0,
0,
0,
0,
0,
0,
0,
0,
0,
0,
0,
0,
0,
0,
0,
0,
0,
0,
0,
0,
0,
0,
0,
0,
0,
0,
0,
0,
0,
0,
0,
0,
0,
0,
0,
0,
0,
0,
0,
0,
0,
0,
0,
0,
0,
0,
0,
0,
0,
0,
0,
0,
0,
0,
0,
0,
0,
0,
0,
0,
0,
0,
0,
0,
0,
0,
0,
0,
0,
0,
0,
0,
0,
0,
0,
0,
0,
0,
0,
0,
0,
0,
0,
0,
0,
0,
0,
0,
0,
0,
0,
0,
0,
0,
0,
0,
0,
0,
0,
0,
0,
0,
0,
0,
0,
0,
0,
0,
0,
0,
0,
0,
0,
0,
0,
0,
0,
0,
0,
0,
0,
0,
0,
0,
0,
0,
0,
0,
0,
0,
0,
0,
0,
0,
0,
0,
0,
0,
0,
0,
0,
0,
0,
0,
0,
0,
0,
0,
0,
0,
0,
0,
0,
0,
0,
0,
0,
0,
0,
0,
0,
0,
0,
0,
0,
0,
0,
0,
0,
0,
0,
0,
0,
0,
0,
0,
0,
0,
0,
0,
0,
#ENDOFDATA   :