File: N132962/Quantification/MMM1/SPI MM1 Bustamite[6][4].msa
#FORMAT      : EMSA/MAS Spectral Data File
#VERSION     : 1.0
#TITLE       : SPI MM1 Bustamite[6][all]
#DATE        : 11-MAR-2025
#TIME        : 14:09
#OWNER       : Unknown
#NPOINTS     : 4096
#NCOLUMNS    : 1
#XUNITS      : eV
#YUNITS      : counts
#DATATYPE    : Y
#XPERCHAN    : 9.99778
#OFFSET      : 1.69135
#BEAMKV      : 20
#SIGNALTYPE  : EDS
#ELEVANGLE   : 35
#AZIMANGLE   : 0
#LIVETIME    : 239.983
#REALTIME    : 255.851
#PROBECUR    : 1.02902
#TAUWIND     : 0
#TDEADLYR    : 0
#TACTLYR     : 0.045
#TALWIND     : 0.025
#CHOFFSET    : 0.0
#XLABEL      : Energy (eV)
#YLABEL      : Counts
#XPOSITION   : 2.69669
#YPOSITION   : -2.76913
#ZPOSITION   : 30.9284
#EDSDET      : SD
##SPECIMEN   : SPI MM1 Bustamite[6][all]
##D2STDCMP   : Bustamite,(O:38.8357),(Si:22.7243),(Ca:16.2141),(Mn:22.2259),6.0
##DET_HASH   : 12273538-fd48-a23f-0a19-f1e6fa85caef
##CALIB_HASH : 6abaa72c-aa41-8738-0be9-f592914732f3
##WORKING    : 15.0 mm
##DET_NAME   : EDAX All
##DET_MODE   : MediumLE
#SPECTRUM    :
24,
23,
8,
15,
79,
327,
964,
2848,
8631,
12104,
7597,
4179,
3204,
3336,
4897,
15830,
60462,
118303,
87949,
25781,
9053,
10438,
9388,
7360,
6071,
3608,
2383,
2338,
2413,
2407,
2507,
2537,
2869,
3226,
3560,
3470,
3381,
3284,
3445,
3664,
3829,
4421,
4683,
4360,
4157,
4321,
4375,
4455,
4655,
4943,
5135,
5085,
5288,
5382,
6521,
15469,
56055,
142998,
194294,
137334,
56213,
19627,
9546,
5596,
4274,
3959,
3564,
3359,
3224,
3185,
3141,
3271,
3161,
3307,
3518,
3668,
3539,
3375,
3423,
3281,
3350,
3263,
3234,
3182,
3086,
3120,
3150,
3267,
3206,
3077,
3174,
3130,
3014,
3115,
3092,
2997,
3146,
2987,
2938,
2980,
2961,
2942,
2973,
2949,
2926,
2975,
2773,
2884,
2884,
2910,
2825,
2754,
2773,
2762,
2867,
3020,
3106,
3212,
3653,
5521,
12299,
29264,
53089,
66910,
55951,
32314,
13361,
5167,
3041,
2779,
3200,
4242,
6601,
9329,
10219,
8443,
5522,
3500,
2437,
2351,
2258,
2201,
2137,
2092,
2059,
1965,
2020,
1974,
1984,
1922,
1945,
1846,
1981,
1953,
1918,
1952,
1933,
1904,
1879,
1775,
1851,
1801,
1825,
1811,
1834,
1802,
1849,
1705,
1757,
1769,
1737,
1766,
1632,
1659,
1705,
1593,
1711,
1644,
1802,
1675,
1744,
1707,
1659,
1713,
1614,
1559,
1588,
1567,
1686,
1570,
1769,
2200,
3995,
8664,
18034,
30444,
40004,
39905,
29774,
17588,
8098,
3529,
1967,
1489,
1414,
1415,
1446,
1531,
1688,
2495,
4304,
7315,
11188,
14292,
14877,
13160,
10497,
7559,
5085,
3107,
1994,
1414,
1234,
1140,
1144,
1076,
1097,
1119,
1120,
1177,
1258,
1320,
1491,
1917,
2336,
2458,
2266,
1884,
1497,
1241,
1126,
994,
889,
933,
1000,
1043,
1003,
978,
1025,
970,
1097,
949,
998,
992,
983,
1034,
1012,
943,
899,
864,
874,
854,
907,
876,
826,
873,
829,
824,
849,
841,
862,
806,
844,
819,
855,
764,
740,
793,
764,
772,
754,
739,
724,
792,
768,
829,
893,
881,
935,
914,
876,
785,
746,
704,
741,
670,
666,
690,
747,
647,
725,
671,
641,
658,
669,
677,
629,
650,
630,
644,
581,
654,
631,
544,
624,
592,
598,
638,
602,
650,
650,
611,
626,
591,
586,
571,
550,
551,
537,
559,
566,
569,
526,
556,
551,
585,
550,
545,
508,
487,
495,
538,
498,
497,
512,
474,
502,
449,
490,
459,
523,
467,
462,
427,
466,
447,
480,
425,
465,
468,
470,
461,
466,
395,
423,
406,
408,
423,
401,
418,
369,
359,
414,
405,
404,
428,
402,
388,
380,
387,
340,
362,
334,
378,
350,
341,
354,
363,
316,
362,
344,
328,
328,
324,
342,
307,
347,
339,
292,
317,
321,
303,
328,
304,
325,
294,
282,
291,
297,
275,
268,
297,
317,
258,
287,
323,
275,
278,
253,
246,
255,
266,
278,
263,
254,
214,
234,
240,
246,
255,
242,
239,
244,
223,
224,
209,
241,
219,
228,
232,
219,
226,
222,
225,
226,
216,
212,
212,
222,
176,
203,
214,
187,
173,
197,
184,
173,
159,
150,
172,
159,
175,
176,
172,
157,
182,
149,
175,
170,
147,
159,
135,
160,
147,
147,
142,
150,
147,
143,
143,
151,
150,
151,
141,
140,
130,
128,
128,
134,
132,
113,
117,
120,
119,
125,
127,
136,
106,
112,
111,
117,
113,
109,
128,
108,
94,
103,
105,
103,
87,
86,
99,
116,
93,
85,
101,
75,
73,
80,
91,
83,
74,
92,
96,
90,
72,
80,
62,
86,
74,
77,
80,
73,
67,
83,
73,
59,
82,
59,
74,
66,
62,
65,
64,
64,
58,
51,
66,
58,
51,
68,
64,
50,
56,
44,
57,
57,
51,
48,
48,
55,
57,
48,
46,
52,
52,
41,
55,
35,
45,
35,
35,
55,
50,
35,
36,
45,
42,
43,
38,
28,
28,
22,
38,
27,
35,
29,
32,
35,
30,
27,
27,
31,
16,
23,
26,
30,
24,
28,
18,
16,
30,
25,
23,
18,
20,
23,
15,
25,
16,
21,
20,
19,
16,
11,
17,
24,
16,
14,
14,
13,
12,
19,
10,
16,
16,
11,
10,
11,
7,
12,
7,
7,
6,
8,
7,
5,
10,
4,
4,
6,
7,
7,
5,
5,
5,
8,
7,
2,
4,
9,
3,
5,
5,
3,
5,
2,
7,
3,
1,
1,
1,
2,
1,
0,
1,
2,
4,
0,
1,
0,
1,
0,
0,
0,
1,
0,
0,
0,
0,
1,
0,
0,
0,
0,
0,
0,
0,
0,
0,
0,
0,
1,
0,
0,
0,
0,
0,
0,
0,
0,
1,
0,
0,
2,
0,
0,
0,
0,
0,
1,
0,
0,
1,
1,
0,
0,
0,
0,
0,
0,
0,
0,
0,
1,
0,
0,
0,
1,
0,
0,
0,
2,
0,
0,
0,
0,
0,
0,
0,
0,
0,
0,
0,
0,
0,
0,
0,
0,
0,
0,
0,
0,
0,
1,
0,
0,
0,
0,
0,
1,
0,
0,
0,
0,
0,
0,
0,
0,
0,
1,
0,
0,
0,
0,
0,
0,
0,
0,
0,
0,
0,
0,
0,
0,
0,
0,
1,
0,
0,
0,
0,
0,
0,
0,
0,
0,
0,
0,
0,
0,
0,
0,
0,
0,
0,
0,
0,
1,
0,
0,
0,
0,
0,
0,
0,
0,
0,
0,
0,
0,
1,
0,
0,
0,
0,
0,
0,
0,
0,
0,
0,
0,
0,
0,
0,
0,
0,
0,
0,
0,
0,
0,
0,
0,
0,
0,
0,
0,
0,
0,
0,
0,
0,
0,
0,
0,
0,
0,
0,
0,
0,
0,
0,
0,
0,
0,
0,
0,
0,
0,
0,
0,
0,
0,
0,
0,
0,
0,
0,
0,
0,
0,
0,
0,
0,
0,
0,
0,
0,
0,
0,
0,
0,
0,
0,
0,
0,
0,
0,
0,
0,
0,
0,
0,
0,
0,
0,
0,
0,
0,
0,
0,
0,
0,
0,
0,
0,
0,
1,
0,
0,
0,
0,
0,
0,
0,
0,
0,
0,
0,
0,
0,
0,
0,
0,
0,
0,
0,
0,
0,
0,
0,
0,
0,
0,
0,
0,
0,
0,
0,
0,
0,
0,
0,
0,
0,
0,
0,
0,
0,
0,
0,
0,
0,
0,
0,
0,
0,
0,
0,
0,
0,
0,
0,
0,
0,
0,
0,
0,
0,
0,
0,
0,
0,
0,
0,
0,
0,
0,
0,
0,
0,
0,
0,
0,
0,
0,
0,
0,
0,
0,
0,
0,
0,
0,
0,
0,
0,
0,
0,
0,
0,
0,
0,
0,
0,
0,
0,
0,
0,
0,
0,
0,
0,
0,
0,
0,
0,
0,
0,
0,
0,
0,
0,
0,
0,
0,
0,
0,
0,
0,
0,
0,
0,
0,
0,
0,
0,
0,
0,
0,
0,
0,
0,
0,
0,
0,
0,
0,
0,
0,
0,
0,
0,
0,
0,
0,
0,
0,
0,
0,
0,
0,
0,
0,
0,
0,
0,
0,
0,
0,
0,
0,
0,
0,
0,
0,
0,
0,
0,
0,
0,
0,
0,
0,
0,
0,
0,
0,
0,
0,
0,
0,
0,
0,
0,
0,
0,
0,
0,
0,
0,
0,
0,
0,
0,
0,
0,
0,
0,
0,
0,
0,
0,
0,
0,
0,
0,
0,
0,
0,
0,
0,
0,
0,
0,
0,
0,
0,
0,
0,
0,
0,
0,
0,
0,
0,
0,
0,
0,
0,
0,
0,
0,
0,
0,
0,
0,
0,
0,
0,
0,
0,
0,
0,
0,
0,
0,
0,
0,
0,
0,
0,
0,
0,
0,
0,
0,
0,
0,
0,
0,
0,
0,
0,
0,
0,
0,
0,
0,
0,
0,
0,
0,
0,
0,
0,
0,
0,
0,
0,
0,
0,
0,
0,
0,
0,
0,
0,
0,
0,
0,
0,
0,
0,
0,
0,
0,
0,
0,
0,
0,
0,
0,
0,
0,
0,
0,
0,
0,
0,
0,
0,
0,
0,
0,
0,
0,
0,
0,
0,
0,
0,
0,
0,
0,
0,
0,
0,
0,
0,
0,
0,
0,
0,
0,
0,
0,
0,
0,
0,
0,
0,
0,
0,
0,
0,
0,
0,
0,
0,
0,
0,
0,
0,
0,
0,
0,
0,
0,
0,
0,
0,
0,
0,
0,
0,
0,
0,
0,
0,
0,
0,
0,
0,
0,
0,
0,
0,
0,
0,
0,
0,
0,
0,
0,
0,
0,
0,
0,
0,
0,
0,
0,
0,
0,
0,
0,
0,
0,
0,
0,
0,
0,
0,
0,
0,
0,
0,
0,
0,
0,
0,
0,
0,
0,
0,
0,
0,
0,
0,
0,
0,
0,
0,
0,
0,
0,
0,
0,
0,
0,
0,
0,
0,
0,
0,
0,
0,
0,
0,
0,
0,
0,
0,
#ENDOFDATA   :