File: N132962/Quantification/MMM1/SPI MM1 Dolomite[3][4].msa
#FORMAT      : EMSA/MAS Spectral Data File
#VERSION     : 1.0
#TITLE       : SPI MM1dup Dolomite[3][all]
#DATE        : 12-MAR-2025
#TIME        : 15:48
#OWNER       : Unknown
#NPOINTS     : 4096
#NCOLUMNS    : 1
#XUNITS      : eV
#YUNITS      : counts
#DATATYPE    : Y
#XPERCHAN    : 9.99778
#OFFSET      : 1.69135
#BEAMKV      : 20
#SIGNALTYPE  : EDS
#ELEVANGLE   : 35
#AZIMANGLE   : 0
#LIVETIME    : 239.88
#REALTIME    : 250.736
#PROBECUR    : 1.02695
#TAUWIND     : 0
#TDEADLYR    : 0
#TACTLYR     : 0.045
#TALWIND     : 0.025
#CHOFFSET    : 0.0
#XLABEL      : Energy (eV)
#YLABEL      : Counts
#XPOSITION   : -0.04171
#YPOSITION   : 2.00952
#ZPOSITION   : 31.03608
#EDSDET      : SD
##SPECIMEN   : SPI MM1dup Dolomite[3][all]
##DET_HASH   : 12273538-fd48-a23f-0a19-f1e6fa85caef
##CALIB_HASH : 6abaa72c-aa41-8738-0be9-f592914732f3
##WORKING    : 15.0 mm
##DET_NAME   : EDAX All
##DET_MODE   : MediumLE
#SPECTRUM    :
31,
37,
10,
10,
75,
329,
1320,
6335,
21431,
30108,
15270,
4993,
2653,
2212,
3748,
13401,
53268,
103600,
76842,
20594,
2955,
1388,
1708,
1788,
1780,
1535,
1793,
1873,
1958,
2179,
2141,
2301,
2446,
2609,
2807,
2912,
3145,
3355,
4117,
8358,
28622,
70751,
85518,
49054,
15142,
4711,
3005,
2908,
2942,
3219,
3275,
3122,
3086,
3120,
3107,
3105,
3344,
3700,
3949,
3927,
3685,
3360,
3133,
3357,
3784,
4090,
3663,
3226,
2898,
2947,
2791,
2765,
2854,
2861,
2848,
3044,
2881,
2840,
2920,
2755,
2715,
2667,
2719,
2859,
2617,
2668,
2670,
2790,
2655,
2759,
2505,
2444,
2442,
2444,
2451,
2382,
2324,
2296,
2376,
2370,
2245,
2321,
2249,
2280,
2248,
2261,
2322,
2224,
2198,
2239,
2065,
2083,
2141,
2070,
2017,
2121,
2345,
2649,
3490,
6439,
16900,
43196,
80664,
101869,
86296,
48922,
19046,
6079,
2734,
2309,
3012,
4793,
8364,
12570,
13608,
11008,
6511,
3234,
1958,
1625,
1580,
1463,
1485,
1384,
1331,
1369,
1295,
1305,
1377,
1314,
1339,
1306,
1254,
1229,
1288,
1314,
1264,
1256,
1214,
1241,
1207,
1241,
1224,
1295,
1289,
1209,
1246,
1236,
1163,
1164,
1127,
1130,
1111,
1144,
1090,
1095,
1090,
1115,
1061,
1113,
1054,
1086,
1079,
1049,
1020,
1052,
981,
1027,
1019,
1036,
992,
995,
924,
937,
1023,
990,
1001,
966,
991,
897,
913,
944,
871,
893,
903,
901,
882,
862,
891,
847,
921,
987,
1074,
1074,
1019,
1031,
879,
894,
839,
826,
804,
808,
810,
773,
794,
781,
780,
782,
761,
752,
762,
745,
717,
785,
724,
802,
716,
723,
725,
709,
674,
716,
712,
652,
684,
679,
713,
717,
710,
690,
683,
676,
651,
633,
610,
603,
645,
637,
651,
583,
625,
600,
587,
597,
577,
565,
598,
543,
556,
571,
532,
523,
535,
564,
580,
506,
533,
590,
516,
545,
520,
488,
487,
514,
492,
512,
513,
486,
507,
458,
483,
468,
485,
446,
496,
477,
415,
442,
453,
457,
450,
436,
441,
460,
443,
446,
466,
390,
405,
436,
418,
423,
399,
403,
412,
388,
413,
406,
371,
400,
375,
374,
347,
343,
383,
382,
379,
333,
354,
401,
334,
365,
354,
384,
337,
378,
319,
345,
321,
347,
338,
310,
364,
305,
286,
330,
291,
295,
335,
321,
311,
310,
293,
298,
322,
243,
289,
258,
281,
283,
272,
271,
261,
279,
290,
253,
250,
246,
241,
260,
256,
243,
241,
241,
249,
259,
212,
236,
228,
272,
251,
201,
222,
222,
231,
217,
224,
199,
201,
181,
225,
231,
211,
204,
233,
238,
188,
203,
199,
191,
206,
189,
187,
184,
191,
160,
199,
203,
185,
177,
172,
164,
173,
179,
179,
172,
180,
173,
179,
173,
189,
139,
169,
153,
148,
153,
147,
135,
137,
147,
145,
136,
147,
143,
132,
130,
139,
127,
121,
133,
125,
144,
139,
120,
127,
126,
114,
119,
120,
105,
127,
108,
107,
103,
117,
117,
120,
88,
110,
121,
114,
99,
100,
100,
114,
115,
84,
104,
92,
85,
81,
88,
91,
90,
94,
80,
84,
102,
90,
73,
89,
84,
73,
68,
80,
75,
88,
76,
70,
71,
80,
74,
75,
76,
57,
70,
61,
57,
67,
66,
80,
48,
63,
57,
62,
68,
57,
58,
62,
54,
58,
53,
58,
61,
54,
53,
53,
53,
53,
56,
43,
53,
51,
56,
51,
42,
56,
49,
45,
40,
50,
45,
30,
52,
43,
36,
31,
51,
39,
43,
31,
40,
47,
35,
29,
38,
40,
38,
33,
34,
31,
31,
23,
34,
44,
23,
37,
32,
35,
33,
28,
29,
23,
29,
17,
23,
27,
26,
18,
23,
22,
30,
24,
19,
11,
16,
17,
19,
21,
17,
16,
12,
19,
17,
19,
13,
17,
27,
17,
12,
18,
11,
24,
17,
11,
12,
24,
14,
8,
12,
17,
13,
22,
8,
10,
10,
14,
12,
9,
12,
16,
7,
12,
6,
10,
7,
9,
6,
7,
11,
4,
5,
7,
6,
5,
7,
10,
7,
5,
4,
10,
4,
9,
3,
8,
2,
4,
2,
3,
8,
6,
6,
2,
4,
1,
4,
4,
1,
3,
4,
2,
1,
1,
3,
2,
1,
0,
1,
2,
2,
1,
0,
0,
0,
0,
0,
0,
0,
2,
0,
1,
0,
1,
0,
0,
0,
0,
0,
0,
0,
1,
0,
0,
0,
0,
0,
0,
0,
0,
0,
0,
0,
0,
1,
0,
0,
0,
0,
0,
0,
0,
0,
0,
0,
0,
0,
0,
0,
0,
0,
0,
0,
0,
0,
0,
0,
0,
0,
0,
0,
0,
0,
0,
0,
0,
0,
0,
0,
0,
0,
0,
0,
0,
0,
0,
0,
0,
0,
0,
0,
0,
0,
0,
0,
1,
0,
0,
0,
0,
0,
0,
0,
0,
0,
0,
0,
0,
0,
0,
0,
0,
0,
0,
0,
0,
0,
0,
0,
0,
0,
0,
0,
0,
0,
0,
0,
0,
0,
0,
0,
0,
0,
0,
0,
0,
0,
0,
0,
0,
0,
0,
0,
0,
0,
0,
0,
0,
0,
0,
0,
0,
0,
0,
0,
0,
0,
0,
0,
0,
0,
0,
0,
0,
0,
0,
0,
0,
0,
0,
0,
0,
0,
0,
0,
0,
0,
0,
0,
0,
0,
0,
0,
0,
0,
0,
0,
0,
0,
0,
0,
0,
0,
0,
0,
0,
0,
0,
0,
0,
0,
0,
0,
0,
0,
0,
0,
0,
0,
0,
0,
0,
0,
0,
0,
0,
0,
0,
0,
0,
0,
0,
0,
0,
0,
0,
0,
0,
0,
0,
0,
0,
0,
0,
0,
0,
0,
0,
0,
0,
0,
0,
0,
0,
0,
0,
0,
0,
0,
0,
0,
0,
0,
0,
0,
0,
0,
0,
0,
0,
0,
0,
0,
0,
0,
0,
0,
0,
0,
0,
0,
0,
0,
0,
0,
0,
0,
0,
0,
0,
0,
0,
0,
0,
0,
0,
0,
0,
0,
0,
0,
0,
0,
0,
0,
0,
0,
0,
0,
0,
0,
0,
0,
0,
0,
0,
0,
0,
0,
0,
0,
0,
0,
0,
0,
0,
0,
0,
0,
0,
0,
0,
0,
0,
0,
0,
0,
0,
0,
0,
0,
0,
0,
0,
0,
0,
0,
0,
0,
0,
0,
0,
0,
0,
0,
0,
0,
0,
0,
0,
0,
0,
0,
0,
0,
0,
0,
0,
0,
0,
0,
0,
0,
0,
0,
0,
0,
0,
0,
0,
0,
0,
0,
0,
0,
0,
0,
0,
0,
0,
0,
0,
0,
0,
0,
0,
0,
0,
0,
0,
0,
0,
0,
0,
0,
0,
0,
0,
0,
0,
0,
0,
0,
0,
0,
0,
0,
0,
0,
0,
0,
0,
0,
0,
0,
0,
0,
0,
0,
0,
0,
0,
0,
0,
0,
0,
0,
0,
0,
0,
0,
0,
0,
0,
0,
0,
0,
0,
0,
0,
0,
0,
0,
0,
0,
0,
0,
0,
0,
0,
0,
0,
0,
0,
0,
0,
0,
0,
0,
0,
0,
0,
0,
0,
0,
0,
0,
0,
0,
0,
0,
0,
0,
0,
0,
0,
0,
0,
0,
0,
0,
0,
0,
0,
0,
0,
0,
0,
0,
0,
0,
0,
0,
0,
0,
0,
0,
0,
0,
0,
0,
0,
0,
0,
0,
0,
0,
0,
0,
0,
0,
0,
0,
0,
0,
0,
0,
0,
0,
0,
0,
0,
0,
0,
0,
0,
0,
0,
0,
0,
0,
0,
0,
0,
0,
0,
0,
0,
0,
0,
0,
0,
0,
0,
0,
0,
0,
0,
0,
0,
0,
0,
0,
0,
0,
0,
0,
0,
0,
0,
0,
0,
0,
0,
0,
0,
0,
0,
0,
0,
0,
0,
0,
0,
0,
0,
0,
0,
0,
0,
0,
0,
0,
0,
0,
0,
0,
0,
0,
0,
0,
0,
0,
0,
0,
0,
0,
0,
0,
0,
0,
0,
0,
0,
0,
0,
0,
0,
0,
0,
0,
0,
0,
0,
0,
0,
0,
0,
0,
0,
0,
0,
0,
0,
0,
0,
0,
0,
0,
0,
0,
0,
0,
0,
0,
0,
0,
0,
0,
0,
0,
0,
0,
0,
0,
0,
0,
0,
0,
0,
0,
0,
0,
0,
0,
0,
0,
0,
0,
0,
0,
0,
0,
0,
0,
0,
0,
0,
0,
0,
0,
0,
0,
0,
0,
0,
0,
0,
0,
0,
0,
0,
0,
0,
0,
0,
0,
0,
0,
0,
0,
0,
0,
0,
0,
0,
0,
0,
0,
0,
0,
0,
0,
0,
0,
0,
0,
0,
0,
0,
0,
0,
0,
0,
0,
0,
0,
#ENDOFDATA   :