File: N132962/Quantification/MMM1/SPI MM1 Fluorapatite[6][4].msa
#FORMAT      : EMSA/MAS Spectral Data File
#VERSION     : 1.0
#TITLE       : SPI MM1 Fluorapatite[6][all]
#DATE        : 11-MAR-2025
#TIME        : 14:43
#OWNER       : Unknown
#NPOINTS     : 4096
#NCOLUMNS    : 1
#XUNITS      : eV
#YUNITS      : counts
#DATATYPE    : Y
#XPERCHAN    : 9.99778
#OFFSET      : 1.69135
#BEAMKV      : 20
#SIGNALTYPE  : EDS
#ELEVANGLE   : 35
#AZIMANGLE   : 0
#LIVETIME    : 239.885
#REALTIME    : 255.656
#PROBECUR    : 1.02809
#TAUWIND     : 0
#TDEADLYR    : 0
#TACTLYR     : 0.045
#TALWIND     : 0.025
#CHOFFSET    : 0.0
#XLABEL      : Energy (eV)
#YLABEL      : Counts
#XPOSITION   : -2.68136
#YPOSITION   : 1.89125
#ZPOSITION   : 30.9284
#EDSDET      : SD
##SPECIMEN   : SPI MM1 Fluorapatite[6][all]
##D2STDCMP   : Fluorapatite,(O:35.868),(F:3.5492),(P:23.146),(Ca:37.4368)
##DET_HASH   : 12273538-fd48-a23f-0a19-f1e6fa85caef
##CALIB_HASH : 6abaa72c-aa41-8738-0be9-f592914732f3
##WORKING    : 15.0 mm
##DET_NAME   : EDAX All
##DET_MODE   : MediumLE
#SPECTRUM    :
21,
21,
11,
17,
104,
347,
1055,
3435,
11455,
18566,
13309,
6498,
3510,
2648,
3146,
8345,
30989,
59472,
44309,
12590,
3261,
4404,
8036,
7594,
4023,
2357,
2418,
2530,
2841,
2930,
2979,
2992,
3257,
3700,
4290,
4392,
4010,
3822,
3912,
3923,
4101,
4258,
4232,
4306,
4440,
4535,
4537,
4725,
4789,
4905,
5069,
4981,
5072,
5035,
5020,
5220,
5500,
6231,
6984,
7437,
7681,
7411,
7526,
10315,
19840,
47396,
101974,
138567,
109164,
50469,
18850,
11499,
8939,
5888,
4425,
4323,
4787,
5142,
4570,
3794,
3480,
3362,
3262,
3404,
3424,
3234,
3200,
3176,
3179,
3135,
3095,
3095,
3191,
3008,
3023,
3066,
3011,
3030,
2940,
3049,
2944,
2940,
2888,
2985,
2895,
2937,
2919,
2952,
2885,
2898,
2788,
2734,
2718,
2691,
2721,
2924,
3330,
3802,
5297,
10674,
29367,
76952,
144294,
182464,
153836,
85577,
33103,
10029,
4240,
3459,
4640,
7785,
14473,
21681,
24364,
19287,
11111,
5193,
2675,
2091,
1963,
1842,
1780,
1782,
1760,
1708,
1720,
1744,
1638,
1747,
1647,
1698,
1708,
1657,
1824,
1697,
1770,
1689,
1682,
1725,
1765,
1920,
1907,
1800,
1713,
1600,
1613,
1649,
1669,
1614,
1594,
1640,
1612,
1658,
1729,
1778,
1706,
1646,
1544,
1508,
1484,
1499,
1477,
1408,
1436,
1424,
1468,
1502,
1629,
1688,
1664,
1591,
1579,
1441,
1457,
1388,
1411,
1375,
1386,
1293,
1354,
1358,
1304,
1305,
1282,
1198,
1227,
1280,
1168,
1186,
1234,
1260,
1352,
1375,
1305,
1215,
1210,
1173,
1092,
1114,
1155,
1075,
1114,
1091,
1091,
1012,
986,
1062,
1051,
1058,
1018,
1020,
1023,
1019,
1025,
989,
1031,
957,
943,
987,
957,
909,
945,
953,
1000,
1060,
1088,
1140,
1139,
1030,
995,
926,
914,
946,
871,
908,
858,
890,
863,
906,
888,
783,
816,
798,
842,
811,
796,
784,
753,
836,
825,
776,
764,
771,
807,
801,
735,
797,
767,
757,
753,
738,
705,
691,
761,
730,
680,
733,
680,
681,
719,
680,
682,
684,
695,
635,
656,
667,
696,
664,
641,
618,
649,
613,
631,
592,
605,
597,
605,
592,
556,
617,
513,
575,
595,
560,
574,
552,
580,
555,
551,
596,
511,
547,
569,
547,
501,
551,
539,
486,
517,
519,
504,
493,
474,
551,
528,
546,
463,
496,
502,
468,
427,
478,
436,
481,
452,
479,
421,
495,
430,
464,
444,
403,
439,
394,
408,
417,
406,
412,
419,
394,
406,
397,
439,
397,
398,
404,
407,
395,
388,
386,
380,
400,
347,
352,
352,
385,
355,
342,
344,
346,
357,
354,
359,
325,
374,
315,
323,
318,
296,
318,
354,
309,
289,
307,
298,
278,
300,
315,
340,
275,
261,
276,
290,
283,
297,
288,
285,
259,
270,
290,
284,
263,
234,
260,
259,
298,
255,
262,
268,
244,
226,
235,
265,
245,
233,
231,
213,
245,
225,
197,
226,
200,
209,
220,
203,
202,
178,
218,
202,
212,
204,
181,
189,
179,
182,
178,
192,
200,
186,
176,
158,
163,
182,
176,
154,
151,
186,
173,
143,
145,
141,
152,
177,
166,
157,
152,
160,
183,
169,
169,
164,
153,
144,
145,
152,
166,
136,
137,
122,
119,
122,
125,
126,
100,
118,
130,
120,
116,
116,
127,
104,
117,
113,
96,
123,
112,
114,
78,
102,
97,
106,
80,
96,
99,
97,
94,
112,
95,
92,
86,
70,
86,
84,
89,
76,
77,
78,
87,
78,
76,
66,
72,
96,
83,
73,
75,
88,
84,
56,
65,
74,
60,
71,
79,
62,
57,
61,
48,
53,
49,
64,
63,
66,
57,
58,
52,
55,
60,
57,
47,
58,
56,
55,
49,
36,
49,
55,
45,
57,
40,
40,
45,
30,
42,
33,
43,
30,
36,
37,
35,
36,
34,
41,
35,
33,
41,
25,
34,
41,
25,
35,
38,
42,
27,
23,
35,
27,
30,
25,
19,
21,
23,
23,
20,
23,
17,
28,
22,
14,
23,
22,
15,
29,
27,
21,
21,
23,
12,
21,
22,
15,
13,
13,
13,
9,
12,
17,
13,
13,
11,
14,
15,
11,
16,
15,
13,
10,
12,
15,
6,
11,
6,
8,
7,
10,
6,
7,
10,
3,
5,
6,
5,
6,
4,
4,
4,
6,
6,
2,
3,
2,
3,
2,
3,
4,
3,
1,
3,
1,
1,
0,
1,
1,
1,
1,
0,
0,
0,
0,
0,
0,
0,
0,
0,
0,
1,
0,
0,
0,
1,
0,
0,
0,
0,
0,
0,
0,
1,
0,
0,
0,
0,
1,
0,
0,
0,
0,
0,
1,
0,
0,
0,
0,
0,
0,
0,
0,
0,
0,
0,
0,
0,
0,
0,
0,
0,
1,
0,
0,
1,
2,
0,
0,
0,
0,
0,
0,
0,
0,
0,
0,
0,
1,
0,
0,
0,
0,
0,
0,
1,
0,
0,
0,
0,
0,
0,
0,
0,
0,
0,
1,
0,
0,
0,
0,
0,
1,
0,
0,
0,
0,
0,
0,
0,
0,
0,
0,
1,
0,
0,
0,
0,
0,
0,
0,
0,
0,
0,
0,
0,
0,
0,
0,
0,
0,
1,
0,
0,
0,
0,
0,
0,
0,
0,
0,
0,
0,
0,
0,
0,
0,
0,
0,
0,
0,
0,
0,
0,
0,
0,
0,
0,
0,
0,
0,
0,
0,
0,
0,
0,
0,
0,
0,
0,
0,
0,
0,
0,
0,
0,
0,
0,
0,
0,
0,
0,
0,
0,
0,
0,
0,
0,
0,
0,
0,
0,
0,
0,
0,
0,
0,
0,
0,
0,
0,
0,
0,
0,
0,
0,
0,
0,
0,
0,
0,
0,
0,
0,
0,
0,
0,
0,
0,
0,
0,
0,
0,
0,
0,
0,
0,
0,
0,
0,
0,
0,
0,
0,
0,
0,
0,
0,
0,
0,
0,
0,
0,
0,
0,
0,
0,
0,
0,
0,
0,
0,
0,
0,
0,
0,
0,
0,
0,
0,
0,
0,
0,
0,
0,
0,
0,
0,
0,
0,
0,
0,
0,
0,
0,
0,
0,
0,
0,
0,
0,
0,
0,
0,
0,
0,
0,
0,
0,
0,
0,
0,
0,
0,
0,
0,
0,
0,
0,
0,
0,
0,
0,
0,
0,
0,
0,
0,
0,
0,
0,
0,
0,
0,
0,
0,
0,
0,
0,
0,
0,
0,
0,
0,
0,
0,
0,
0,
0,
0,
0,
0,
0,
0,
0,
0,
0,
0,
0,
0,
0,
0,
0,
0,
0,
0,
0,
0,
0,
0,
0,
0,
0,
0,
0,
0,
0,
0,
0,
0,
0,
0,
0,
0,
0,
0,
0,
0,
0,
0,
0,
0,
0,
0,
0,
0,
0,
0,
0,
0,
0,
0,
0,
0,
0,
0,
0,
0,
0,
0,
0,
0,
0,
0,
0,
0,
0,
0,
0,
0,
0,
0,
0,
0,
0,
0,
0,
0,
0,
0,
0,
0,
0,
0,
0,
0,
0,
0,
0,
0,
0,
0,
0,
0,
0,
0,
0,
0,
0,
0,
0,
0,
0,
0,
0,
0,
0,
0,
0,
0,
0,
0,
0,
0,
0,
0,
0,
0,
0,
0,
0,
0,
0,
0,
0,
0,
0,
0,
0,
0,
0,
0,
0,
0,
0,
0,
0,
0,
0,
0,
0,
0,
0,
0,
0,
0,
0,
0,
0,
0,
0,
0,
0,
0,
0,
0,
0,
0,
0,
0,
0,
0,
0,
0,
0,
0,
0,
0,
0,
0,
0,
0,
0,
0,
0,
0,
0,
0,
0,
0,
0,
0,
0,
0,
0,
0,
0,
0,
0,
0,
0,
0,
0,
0,
0,
0,
0,
0,
0,
0,
0,
0,
0,
0,
0,
0,
0,
0,
0,
0,
0,
0,
0,
0,
0,
0,
0,
0,
0,
0,
0,
0,
0,
0,
0,
0,
0,
0,
0,
0,
0,
0,
0,
0,
0,
0,
0,
0,
0,
0,
0,
0,
0,
0,
0,
0,
0,
0,
0,
0,
0,
0,
0,
0,
0,
0,
0,
0,
0,
0,
0,
0,
0,
0,
0,
0,
0,
0,
0,
0,
0,
0,
0,
0,
0,
0,
0,
0,
0,
0,
0,
0,
0,
0,
0,
0,
0,
0,
0,
0,
0,
0,
0,
0,
0,
0,
0,
0,
0,
0,
0,
0,
0,
0,
0,
0,
0,
0,
0,
0,
0,
0,
0,
0,
0,
0,
0,
0,
0,
0,
0,
0,
0,
0,
0,
0,
0,
0,
0,
0,
0,
0,
0,
0,
0,
0,
0,
0,
0,
0,
0,
0,
0,
0,
0,
0,
0,
0,
0,
0,
0,
0,
0,
0,
0,
0,
0,
0,
0,
0,
0,
0,
0,
0,
0,
0,
0,
0,
0,
0,
0,
0,
0,
0,
0,
0,
0,
0,
0,
0,
#ENDOFDATA   :