File: N132962/Quantification/MMM1/SPI MM1 Andradite[5][4].msa
#FORMAT      : EMSA/MAS Spectral Data File
#VERSION     : 1.0
#TITLE       : SPI MM1 Andradite[5][all]
#DATE        : 11-MAR-2025
#TIME        : 13:12
#OWNER       : Unknown
#NPOINTS     : 4096
#NCOLUMNS    : 1
#XUNITS      : eV
#YUNITS      : counts
#DATATYPE    : Y
#XPERCHAN    : 9.99778
#OFFSET      : 1.69135
#BEAMKV      : 20
#SIGNALTYPE  : EDS
#ELEVANGLE   : 35
#AZIMANGLE   : 0
#LIVETIME    : 239.882
#REALTIME    : 255.401
#PROBECUR    : 1.02699
#TAUWIND     : 0
#TDEADLYR    : 0
#TACTLYR     : 0.045
#TALWIND     : 0.025
#CHOFFSET    : 0.0
#XLABEL      : Energy (eV)
#YLABEL      : Counts
#XPOSITION   : -2.19565
#YPOSITION   : -8.06884
#ZPOSITION   : 30.9284
#EDSDET      : SD
##SPECIMEN   : SPI MM1 Andradite[5][all]
##D2STDCMP   : Andradite,(O:37.7805),(Si:16.5802),(Ca:23.6603),(Fe:21.979),3.86
##DET_HASH   : 12273538-fd48-a23f-0a19-f1e6fa85caef
##CALIB_HASH : 6abaa72c-aa41-8738-0be9-f592914732f3
##WORKING    : 15.0 mm
##DET_NAME   : EDAX All
##DET_MODE   : MediumLE
#SPECTRUM    :
29,
31,
6,
13,
63,
324,
935,
2941,
9071,
13657,
9224,
5006,
3463,
3002,
3929,
11955,
46522,
90171,
66449,
19100,
5470,
4622,
7202,
12858,
12661,
6288,
3062,
2547,
2481,
2536,
2563,
2636,
2837,
2893,
3019,
3058,
3250,
3358,
3495,
3551,
3594,
4002,
4117,
4106,
4286,
4367,
4820,
6606,
13193,
23140,
23640,
14265,
7540,
5708,
5980,
12399,
42258,
106752,
143965,
102593,
42347,
15823,
8359,
5387,
4613,
4629,
4205,
3734,
3452,
3392,
3428,
3368,
3444,
3440,
3571,
3771,
3756,
3560,
3399,
3297,
3389,
3404,
3264,
3383,
3353,
3319,
3265,
3169,
3275,
3212,
3156,
3104,
3202,
3141,
3052,
3151,
3139,
3095,
3058,
3125,
3053,
3016,
3047,
3046,
3105,
3031,
3062,
2979,
2902,
3024,
2925,
2913,
2869,
2903,
2710,
2968,
3181,
3495,
4355,
7511,
19428,
47907,
89391,
113558,
95820,
53899,
21238,
7206,
3402,
3125,
3726,
5783,
9775,
14424,
16059,
12789,
7795,
4063,
2649,
2186,
2078,
2058,
2051,
1925,
2005,
1897,
1906,
1977,
1941,
1943,
1945,
1931,
1880,
1902,
1968,
2024,
1867,
1886,
1895,
1792,
1742,
1763,
1706,
1770,
1785,
1785,
1766,
1715,
1699,
1743,
1623,
1646,
1625,
1694,
1643,
1671,
1656,
1662,
1696,
1705,
1698,
1758,
1719,
1653,
1585,
1558,
1482,
1549,
1470,
1479,
1463,
1434,
1495,
1517,
1630,
1909,
1911,
2008,
1897,
1665,
1584,
1396,
1411,
1378,
1390,
1383,
1445,
1564,
2252,
4246,
9027,
17772,
27491,
33148,
30964,
22836,
12785,
6188,
2941,
1660,
1294,
1274,
1158,
1194,
1140,
1173,
1135,
1236,
1278,
1292,
1484,
1788,
2446,
3477,
4641,
5242,
4764,
3744,
2607,
1697,
1201,
1059,
1000,
947,
1060,
1001,
994,
1053,
1066,
1032,
986,
972,
933,
936,
951,
890,
933,
897,
833,
834,
923,
851,
870,
873,
884,
836,
846,
825,
820,
854,
884,
872,
838,
819,
830,
805,
850,
812,
706,
773,
744,
797,
784,
760,
813,
788,
782,
661,
745,
687,
726,
716,
691,
718,
746,
692,
692,
710,
671,
734,
686,
708,
608,
678,
640,
678,
668,
617,
608,
624,
616,
661,
624,
635,
629,
630,
575,
602,
603,
559,
592,
576,
578,
629,
582,
563,
547,
585,
586,
585,
525,
536,
566,
517,
584,
520,
566,
599,
556,
558,
520,
527,
504,
452,
519,
474,
486,
498,
457,
494,
461,
502,
487,
485,
419,
474,
466,
504,
441,
423,
442,
438,
425,
428,
437,
428,
436,
439,
438,
412,
415,
407,
392,
411,
376,
380,
387,
407,
377,
408,
390,
365,
387,
376,
345,
353,
320,
341,
351,
329,
314,
350,
358,
352,
338,
312,
335,
332,
342,
310,
319,
292,
293,
292,
312,
304,
356,
300,
270,
291,
299,
301,
255,
280,
305,
281,
274,
260,
278,
257,
268,
277,
238,
241,
254,
257,
244,
252,
247,
252,
237,
235,
232,
223,
238,
229,
247,
214,
260,
222,
218,
212,
235,
205,
180,
210,
197,
203,
221,
186,
194,
215,
228,
188,
182,
207,
179,
184,
209,
181,
181,
178,
156,
171,
161,
173,
163,
157,
177,
143,
152,
177,
136,
163,
172,
149,
156,
138,
141,
139,
134,
140,
131,
140,
141,
132,
119,
133,
122,
128,
117,
121,
122,
126,
115,
105,
139,
116,
105,
121,
119,
124,
93,
109,
108,
123,
94,
91,
82,
99,
108,
119,
92,
104,
93,
97,
89,
90,
86,
90,
88,
85,
72,
83,
65,
75,
59,
81,
75,
85,
77,
75,
85,
79,
81,
81,
66,
69,
64,
57,
50,
63,
54,
57,
68,
49,
61,
63,
51,
69,
63,
59,
58,
50,
54,
48,
52,
52,
50,
43,
55,
47,
59,
43,
54,
35,
60,
44,
56,
34,
33,
31,
46,
42,
49,
45,
37,
34,
31,
40,
43,
33,
30,
35,
22,
33,
30,
31,
27,
23,
24,
34,
35,
33,
30,
21,
23,
24,
22,
25,
17,
25,
17,
17,
21,
25,
15,
22,
20,
19,
20,
18,
23,
10,
13,
16,
17,
17,
11,
19,
19,
17,
12,
17,
14,
15,
12,
9,
12,
11,
13,
15,
8,
7,
12,
11,
8,
9,
6,
12,
3,
5,
6,
10,
10,
2,
5,
7,
6,
5,
4,
4,
4,
7,
2,
4,
2,
5,
4,
1,
3,
0,
0,
2,
4,
0,
2,
1,
1,
0,
2,
0,
1,
0,
1,
0,
0,
0,
0,
0,
0,
0,
0,
0,
2,
0,
1,
0,
0,
2,
0,
0,
1,
0,
1,
0,
0,
0,
0,
2,
0,
0,
0,
0,
0,
0,
0,
0,
0,
1,
0,
0,
1,
0,
0,
0,
1,
0,
0,
0,
0,
0,
0,
1,
0,
0,
0,
0,
0,
0,
1,
0,
1,
0,
1,
0,
0,
0,
1,
0,
1,
1,
0,
0,
1,
0,
0,
1,
0,
0,
0,
0,
0,
0,
0,
0,
1,
0,
0,
0,
0,
1,
1,
0,
0,
0,
0,
0,
0,
0,
0,
0,
0,
0,
0,
0,
0,
1,
0,
0,
0,
0,
0,
0,
0,
0,
0,
0,
0,
0,
0,
0,
0,
0,
0,
0,
0,
0,
0,
0,
0,
0,
0,
0,
0,
0,
0,
1,
0,
0,
1,
0,
0,
0,
0,
0,
0,
0,
0,
0,
0,
0,
0,
0,
0,
0,
0,
0,
0,
0,
0,
0,
0,
0,
0,
0,
0,
0,
0,
0,
0,
0,
0,
0,
0,
0,
0,
0,
0,
0,
0,
0,
0,
0,
0,
0,
0,
0,
1,
0,
0,
0,
0,
0,
0,
0,
0,
0,
0,
0,
0,
0,
0,
0,
0,
0,
0,
0,
0,
0,
0,
0,
0,
0,
0,
0,
0,
0,
1,
0,
0,
0,
0,
0,
0,
0,
0,
0,
0,
0,
0,
0,
0,
0,
0,
0,
0,
0,
0,
0,
0,
0,
0,
0,
0,
0,
0,
0,
0,
0,
0,
0,
0,
0,
0,
0,
0,
0,
0,
0,
0,
0,
0,
0,
0,
0,
0,
0,
0,
0,
0,
0,
0,
0,
0,
0,
0,
0,
0,
0,
0,
0,
0,
0,
0,
0,
0,
0,
0,
0,
0,
0,
0,
0,
0,
0,
0,
0,
0,
0,
0,
0,
0,
0,
0,
0,
0,
0,
0,
0,
0,
0,
0,
0,
0,
0,
0,
0,
0,
0,
0,
0,
0,
0,
0,
0,
0,
0,
0,
0,
0,
0,
0,
0,
0,
0,
0,
0,
0,
0,
0,
0,
0,
0,
0,
0,
0,
0,
0,
0,
0,
0,
0,
0,
0,
0,
0,
0,
0,
0,
0,
0,
0,
0,
0,
0,
0,
0,
0,
0,
0,
0,
0,
0,
0,
0,
0,
0,
0,
0,
0,
0,
0,
0,
0,
0,
0,
0,
0,
0,
0,
0,
0,
0,
0,
0,
0,
0,
0,
0,
0,
0,
0,
0,
0,
0,
0,
0,
0,
0,
0,
0,
0,
0,
0,
0,
0,
0,
0,
0,
0,
0,
0,
0,
0,
0,
0,
0,
0,
0,
0,
0,
0,
0,
0,
0,
0,
0,
0,
0,
0,
0,
0,
0,
0,
0,
0,
0,
0,
0,
0,
0,
0,
0,
0,
0,
0,
0,
0,
0,
0,
0,
0,
0,
0,
0,
0,
0,
0,
0,
0,
0,
0,
0,
0,
0,
0,
0,
0,
0,
0,
0,
0,
0,
0,
0,
0,
0,
0,
0,
0,
0,
0,
0,
0,
0,
0,
0,
0,
0,
0,
0,
0,
0,
0,
0,
0,
0,
0,
0,
0,
0,
0,
0,
0,
0,
0,
0,
0,
0,
0,
0,
0,
0,
0,
0,
0,
0,
0,
0,
0,
0,
0,
0,
0,
0,
0,
0,
0,
0,
0,
0,
0,
0,
0,
0,
0,
0,
0,
0,
0,
0,
0,
0,
0,
0,
0,
0,
0,
0,
0,
0,
0,
0,
0,
0,
0,
0,
0,
0,
0,
0,
0,
0,
0,
0,
0,
0,
0,
0,
0,
0,
0,
0,
0,
0,
0,
0,
0,
0,
0,
0,
0,
0,
0,
0,
0,
0,
0,
0,
0,
0,
0,
0,
0,
0,
0,
0,
0,
0,
0,
0,
0,
0,
0,
0,
0,
0,
0,
0,
0,
0,
0,
0,
0,
0,
0,
0,
0,
0,
0,
0,
0,
0,
0,
0,
0,
0,
0,
0,
0,
0,
0,
0,
0,
0,
0,
0,
0,
0,
0,
0,
0,
0,
0,
0,
0,
0,
0,
0,
0,
0,
0,
0,
0,
0,
0,
0,
0,
0,
0,
0,
0,
0,
0,
0,
0,
0,
0,
0,
0,
0,
0,
0,
0,
0,
0,
0,
0,
0,
0,
0,
0,
0,
0,
0,
#ENDOFDATA   :