File: N132962/Quantification/MMM1/SPI MM1 Barite[2][4].msa
#FORMAT      : EMSA/MAS Spectral Data File
#VERSION     : 1.0
#TITLE       : SPI MM1 Barite[2][all]
#DATE        : 11-MAR-2025
#TIME        : 13:27
#OWNER       : Unknown
#NPOINTS     : 4096
#NCOLUMNS    : 1
#XUNITS      : eV
#YUNITS      : counts
#DATATYPE    : Y
#XPERCHAN    : 9.99778
#OFFSET      : 1.69135
#BEAMKV      : 20
#SIGNALTYPE  : EDS
#ELEVANGLE   : 35
#AZIMANGLE   : 0
#LIVETIME    : 239.894
#REALTIME    : 258.916
#PROBECUR    : 1.02853
#TAUWIND     : 0
#TDEADLYR    : 0
#TACTLYR     : 0.045
#TALWIND     : 0.025
#CHOFFSET    : 0.0
#XLABEL      : Energy (eV)
#YLABEL      : Counts
#XPOSITION   : -0.41482
#YPOSITION   : -5.05928
#ZPOSITION   : 30.9284
#EDSDET      : SD
##SPECIMEN   : SPI MM1 Barite[2][all]
##DET_HASH   : 12273538-fd48-a23f-0a19-f1e6fa85caef
##CALIB_HASH : 6abaa72c-aa41-8738-0be9-f592914732f3
##WORKING    : 15.0 mm
##DET_NAME   : EDAX All
##DET_MODE   : MediumLE
#SPECTRUM    :
30,
27,
12,
41,
457,
1416,
2475,
5067,
12117,
15544,
8938,
5137,
5143,
5830,
8120,
21135,
72117,
136384,
104286,
38054,
16301,
9351,
5748,
5622,
7035,
9534,
10736,
7823,
5339,
4284,
4058,
4670,
5749,
5845,
5739,
5338,
4908,
4296,
4102,
4151,
4101,
4246,
4367,
4419,
4482,
4601,
4694,
4739,
4923,
5175,
5220,
5137,
5312,
5107,
5376,
5318,
5687,
6083,
6482,
6520,
6446,
6209,
5745,
5568,
5482,
5575,
5499,
5561,
5549,
5651,
5771,
5952,
6836,
8705,
15941,
37475,
73935,
93000,
70189,
32919,
13820,
10144,
10607,
9481,
7141,
5709,
5071,
5097,
5121,
5211,
5473,
5619,
5419,
5270,
5074,
5056,
4886,
4944,
4782,
4849,
4861,
4946,
5038,
5031,
5055,
4839,
4769,
4804,
4772,
4716,
4706,
4511,
4624,
4652,
4623,
4552,
4571,
4525,
4469,
4426,
4405,
4391,
4431,
4446,
4425,
4525,
4430,
4323,
4592,
4808,
5798,
6903,
7303,
6708,
5604,
4803,
4402,
4130,
4203,
4197,
4282,
4336,
4618,
5417,
6713,
11526,
23960,
48908,
75994,
85728,
69519,
41049,
18651,
8198,
5073,
4457,
4708,
6625,
12121,
23059,
35911,
43435,
39477,
29237,
20035,
13561,
9526,
7033,
6117,
7434,
11067,
15157,
16666,
14644,
10339,
6454,
4362,
3424,
3207,
3260,
3439,
3822,
4984,
6656,
7785,
7596,
6257,
4527,
3393,
3069,
3143,
3661,
4256,
4655,
4448,
3976,
3406,
2967,
2805,
2783,
2690,
2623,
2431,
2348,
2390,
2294,
2364,
2348,
2344,
2314,
2360,
2323,
2548,
2531,
2554,
2453,
2382,
2315,
2210,
2204,
2246,
2151,
2228,
2128,
2280,
2234,
2124,
2226,
2171,
2094,
2159,
2113,
2039,
2069,
2091,
2087,
2073,
2086,
2061,
2076,
2037,
1985,
1976,
2045,
1956,
1990,
2069,
2011,
2025,
2104,
2074,
2069,
1894,
1861,
1909,
1849,
1896,
1843,
1791,
1883,
1845,
1823,
1795,
1771,
1790,
1798,
1791,
1690,
1766,
1749,
1775,
1722,
1792,
1759,
1698,
1668,
1726,
1639,
1727,
1646,
1668,
1611,
1601,
1579,
1682,
1554,
1611,
1491,
1625,
1606,
1564,
1601,
1538,
1536,
1542,
1517,
1561,
1429,
1494,
1508,
1537,
1501,
1418,
1514,
1458,
1477,
1461,
1428,
1455,
1427,
1457,
1432,
1344,
1413,
1411,
1336,
1315,
1325,
1324,
1366,
1311,
1290,
1344,
1263,
1339,
1337,
1324,
1292,
1262,
1247,
1232,
1235,
1221,
1293,
1186,
1217,
1182,
1205,
1070,
1159,
1160,
1108,
1145,
1099,
1165,
1145,
1169,
1112,
1069,
1076,
1013,
1101,
1071,
1094,
1042,
1055,
1040,
1002,
1028,
994,
974,
978,
985,
1000,
1000,
944,
1019,
1024,
981,
951,
936,
976,
928,
875,
926,
949,
947,
888,
887,
879,
914,
841,
896,
828,
836,
804,
867,
818,
805,
840,
796,
854,
873,
792,
823,
761,
746,
811,
790,
745,
796,
783,
746,
728,
690,
669,
716,
703,
693,
706,
704,
698,
727,
646,
667,
669,
619,
643,
672,
663,
650,
622,
674,
628,
628,
588,
629,
614,
594,
568,
590,
560,
571,
562,
583,
574,
543,
549,
571,
570,
523,
512,
530,
543,
509,
521,
514,
515,
491,
467,
430,
523,
444,
477,
466,
437,
420,
458,
461,
397,
452,
458,
469,
424,
434,
419,
456,
419,
434,
436,
410,
384,
389,
423,
365,
360,
368,
376,
369,
353,
340,
348,
362,
383,
358,
349,
335,
344,
327,
338,
324,
335,
330,
282,
368,
316,
318,
312,
279,
289,
304,
264,
307,
299,
260,
256,
271,
286,
270,
256,
254,
241,
287,
248,
240,
255,
245,
250,
207,
240,
243,
220,
250,
211,
255,
227,
244,
225,
198,
211,
223,
205,
225,
203,
200,
207,
177,
219,
197,
186,
172,
185,
165,
154,
189,
175,
166,
154,
136,
172,
182,
179,
154,
164,
166,
149,
137,
143,
127,
131,
140,
143,
158,
137,
133,
146,
134,
145,
146,
119,
110,
101,
123,
112,
131,
114,
115,
104,
133,
107,
87,
114,
100,
109,
90,
112,
94,
89,
88,
88,
79,
100,
67,
105,
86,
80,
72,
65,
64,
60,
65,
83,
77,
68,
61,
58,
69,
60,
78,
47,
55,
54,
48,
44,
49,
49,
55,
64,
46,
39,
34,
39,
40,
41,
33,
33,
42,
30,
39,
25,
27,
24,
31,
34,
41,
29,
23,
21,
23,
31,
21,
29,
22,
19,
21,
16,
19,
13,
17,
18,
15,
21,
14,
8,
15,
6,
6,
11,
10,
7,
8,
10,
8,
9,
6,
6,
2,
3,
0,
3,
1,
2,
0,
1,
1,
1,
0,
5,
2,
3,
2,
2,
1,
1,
1,
1,
1,
1,
2,
1,
2,
5,
0,
4,
0,
2,
0,
0,
1,
1,
1,
3,
2,
0,
1,
0,
1,
2,
1,
1,
2,
1,
0,
1,
2,
0,
0,
0,
3,
0,
0,
0,
1,
1,
1,
2,
2,
2,
0,
2,
1,
0,
2,
0,
1,
0,
0,
2,
1,
0,
0,
0,
2,
0,
0,
0,
0,
0,
0,
1,
0,
2,
0,
0,
1,
2,
1,
0,
0,
1,
0,
0,
0,
1,
1,
0,
0,
0,
1,
0,
2,
0,
0,
0,
1,
0,
0,
0,
0,
0,
0,
0,
1,
0,
0,
0,
0,
0,
0,
0,
0,
0,
1,
1,
0,
0,
0,
1,
0,
0,
0,
0,
1,
0,
0,
1,
0,
0,
0,
1,
0,
0,
0,
0,
0,
0,
0,
0,
0,
0,
0,
0,
0,
0,
1,
0,
0,
0,
1,
1,
1,
0,
0,
0,
0,
1,
0,
0,
0,
0,
0,
0,
0,
0,
0,
0,
0,
1,
0,
0,
1,
0,
0,
0,
1,
0,
1,
1,
0,
0,
0,
0,
0,
0,
0,
0,
0,
0,
0,
0,
0,
0,
0,
1,
0,
0,
0,
0,
0,
0,
0,
0,
0,
0,
0,
0,
0,
0,
0,
0,
0,
0,
0,
0,
1,
0,
0,
0,
0,
0,
0,
0,
0,
0,
0,
0,
0,
0,
0,
0,
0,
0,
0,
0,
0,
1,
0,
0,
0,
0,
0,
0,
0,
0,
0,
0,
0,
0,
0,
1,
0,
0,
0,
0,
0,
0,
0,
0,
0,
0,
0,
0,
0,
0,
0,
1,
0,
0,
0,
0,
0,
0,
0,
0,
0,
1,
0,
0,
0,
0,
0,
0,
0,
0,
0,
0,
0,
0,
0,
0,
0,
0,
1,
0,
0,
0,
0,
0,
0,
0,
0,
0,
0,
0,
0,
0,
0,
0,
0,
0,
0,
0,
1,
0,
0,
0,
0,
0,
0,
0,
0,
0,
0,
0,
0,
0,
0,
0,
0,
0,
0,
0,
0,
0,
0,
0,
0,
0,
0,
0,
0,
0,
0,
0,
0,
0,
0,
0,
0,
0,
0,
0,
0,
0,
0,
0,
0,
0,
0,
0,
0,
0,
0,
0,
0,
0,
0,
0,
0,
0,
0,
0,
0,
0,
0,
0,
0,
0,
0,
0,
0,
0,
0,
0,
0,
0,
0,
0,
0,
0,
0,
0,
0,
0,
0,
0,
0,
0,
0,
0,
0,
0,
0,
0,
0,
0,
0,
0,
0,
0,
0,
0,
0,
0,
0,
0,
0,
0,
0,
0,
0,
0,
0,
0,
0,
0,
0,
0,
0,
0,
0,
0,
0,
0,
0,
0,
0,
0,
0,
0,
0,
0,
0,
0,
0,
0,
0,
0,
0,
0,
0,
0,
0,
0,
0,
0,
0,
0,
0,
0,
0,
0,
0,
0,
0,
0,
0,
0,
0,
0,
0,
0,
0,
0,
0,
0,
0,
0,
0,
0,
0,
0,
0,
0,
0,
0,
0,
0,
0,
0,
0,
0,
0,
0,
0,
0,
0,
0,
0,
0,
0,
0,
0,
0,
0,
0,
0,
0,
0,
0,
0,
0,
0,
0,
0,
0,
0,
0,
0,
0,
0,
0,
0,
0,
0,
0,
0,
0,
0,
0,
0,
0,
0,
0,
0,
0,
0,
0,
0,
0,
0,
0,
0,
0,
0,
0,
0,
0,
0,
0,
0,
0,
0,
0,
0,
0,
0,
0,
0,
0,
0,
0,
0,
0,
0,
0,
0,
0,
0,
0,
0,
0,
0,
0,
0,
0,
0,
0,
0,
0,
0,
0,
0,
0,
0,
0,
0,
0,
0,
0,
0,
0,
0,
0,
0,
0,
0,
0,
0,
0,
0,
0,
0,
0,
0,
0,
0,
0,
0,
0,
0,
0,
0,
0,
0,
0,
0,
0,
0,
0,
0,
0,
0,
0,
0,
0,
0,
0,
0,
0,
0,
0,
0,
0,
0,
0,
0,
0,
0,
0,
0,
0,
0,
0,
0,
0,
0,
0,
0,
0,
0,
0,
0,
0,
0,
0,
0,
0,
0,
0,
0,
0,
0,
0,
0,
0,
0,
0,
0,
0,
0,
0,
0,
0,
0,
0,
0,
0,
0,
0,
0,
0,
0,
0,
0,
0,
#ENDOFDATA   :