File: N132962/Quantification/MMM1/SPI MM1 Dolomite[1][4].msa
#FORMAT      : EMSA/MAS Spectral Data File
#VERSION     : 1.0
#TITLE       : SPI MM1dup Dolomite[1][all]
#DATE        : 12-MAR-2025
#TIME        : 15:46
#OWNER       : Unknown
#NPOINTS     : 4096
#NCOLUMNS    : 1
#XUNITS      : eV
#YUNITS      : counts
#DATATYPE    : Y
#XPERCHAN    : 9.99778
#OFFSET      : 1.69135
#BEAMKV      : 20
#SIGNALTYPE  : EDS
#ELEVANGLE   : 35
#AZIMANGLE   : 0
#LIVETIME    : 239.813
#REALTIME    : 250.663
#PROBECUR    : 1.02695
#TAUWIND     : 0
#TDEADLYR    : 0
#TACTLYR     : 0.045
#TALWIND     : 0.025
#CHOFFSET    : 0.0
#XLABEL      : Energy (eV)
#YLABEL      : Counts
#XPOSITION   : -0.05224
#YPOSITION   : 1.9921
#ZPOSITION   : 31.03608
#EDSDET      : SD
##SPECIMEN   : SPI MM1dup Dolomite[1][all]
##DET_HASH   : 12273538-fd48-a23f-0a19-f1e6fa85caef
##CALIB_HASH : 6abaa72c-aa41-8738-0be9-f592914732f3
##WORKING    : 15.0 mm
##DET_NAME   : EDAX All
##DET_MODE   : MediumLE
#SPECTRUM    :
20,
27,
3,
7,
68,
337,
1263,
6164,
21831,
30134,
15372,
4902,
2563,
2424,
3614,
13312,
52824,
104751,
76922,
20255,
2868,
1326,
1498,
1710,
1666,
1582,
1690,
1853,
1990,
2078,
2193,
2249,
2314,
2592,
2886,
3027,
3128,
3379,
4040,
8484,
28895,
70836,
85222,
48624,
14823,
4550,
3092,
2948,
2966,
3095,
3108,
3057,
3000,
2921,
3059,
3177,
3254,
3633,
3880,
3866,
3596,
3446,
3228,
3429,
3768,
4004,
3709,
3098,
2983,
2863,
2992,
2916,
2914,
2807,
2847,
2912,
2872,
2890,
2727,
2814,
2709,
2738,
2768,
2658,
2657,
2652,
2636,
2587,
2608,
2491,
2401,
2473,
2472,
2428,
2434,
2359,
2491,
2324,
2430,
2366,
2282,
2361,
2366,
2351,
2236,
2275,
2284,
2188,
2287,
2173,
2094,
2067,
2150,
2137,
2136,
2107,
2302,
2658,
3375,
6360,
16818,
43207,
81223,
102986,
86579,
49128,
19085,
6236,
2874,
2325,
2903,
4646,
8410,
12626,
13868,
11158,
6491,
3295,
1990,
1545,
1484,
1407,
1447,
1335,
1345,
1320,
1308,
1309,
1276,
1301,
1272,
1305,
1289,
1298,
1217,
1313,
1221,
1283,
1214,
1212,
1228,
1228,
1222,
1212,
1240,
1252,
1257,
1218,
1188,
1154,
1192,
1130,
1074,
1127,
1129,
1163,
1145,
1104,
1098,
1080,
1071,
1040,
1068,
1032,
1029,
1003,
1005,
1039,
994,
974,
979,
920,
956,
974,
972,
1001,
988,
972,
962,
927,
960,
932,
961,
966,
867,
857,
867,
849,
866,
867,
977,
1003,
1064,
1021,
1106,
1016,
903,
828,
835,
817,
786,
785,
774,
793,
809,
782,
756,
749,
727,
729,
681,
756,
746,
702,
729,
766,
814,
721,
766,
698,
664,
654,
654,
708,
695,
719,
688,
704,
706,
716,
648,
672,
679,
622,
643,
606,
611,
598,
684,
553,
579,
591,
605,
557,
598,
543,
557,
549,
527,
549,
538,
525,
530,
552,
524,
557,
560,
530,
520,
502,
511,
497,
552,
509,
490,
508,
524,
501,
482,
473,
442,
456,
458,
495,
467,
478,
425,
445,
442,
464,
461,
433,
417,
435,
476,
431,
432,
407,
403,
432,
418,
375,
421,
403,
417,
388,
390,
418,
374,
395,
375,
394,
375,
394,
318,
357,
348,
393,
371,
347,
386,
339,
384,
343,
399,
337,
346,
330,
329,
320,
311,
317,
329,
309,
339,
325,
318,
307,
318,
307,
300,
315,
291,
320,
297,
303,
291,
282,
294,
244,
292,
271,
261,
253,
282,
299,
280,
256,
241,
249,
242,
261,
234,
260,
262,
240,
254,
255,
246,
217,
223,
235,
224,
176,
231,
225,
219,
234,
239,
214,
190,
244,
212,
198,
215,
204,
203,
178,
197,
227,
181,
209,
213,
209,
197,
184,
153,
170,
194,
182,
195,
174,
168,
176,
184,
173,
154,
156,
158,
181,
167,
160,
158,
173,
156,
136,
157,
156,
145,
151,
153,
130,
153,
140,
146,
131,
133,
140,
128,
124,
93,
144,
134,
118,
138,
110,
116,
124,
110,
118,
112,
129,
102,
108,
125,
129,
108,
114,
115,
106,
97,
129,
121,
102,
96,
108,
99,
101,
99,
93,
94,
92,
91,
75,
93,
91,
96,
85,
87,
85,
92,
90,
83,
84,
76,
71,
84,
79,
71,
71,
74,
66,
66,
66,
77,
86,
49,
69,
58,
80,
67,
66,
62,
49,
65,
53,
68,
57,
51,
57,
55,
69,
51,
53,
50,
63,
50,
52,
44,
44,
38,
45,
42,
43,
32,
50,
44,
58,
46,
48,
50,
57,
48,
40,
52,
41,
48,
36,
39,
44,
37,
27,
39,
36,
35,
41,
30,
29,
41,
41,
28,
30,
30,
39,
32,
36,
30,
29,
21,
34,
29,
24,
26,
19,
24,
27,
26,
29,
30,
21,
29,
21,
30,
16,
16,
17,
20,
20,
16,
22,
18,
22,
23,
24,
19,
13,
28,
18,
18,
11,
15,
19,
19,
16,
18,
13,
16,
15,
18,
7,
14,
9,
18,
12,
12,
11,
16,
18,
13,
12,
6,
15,
4,
18,
14,
9,
13,
10,
5,
9,
9,
4,
5,
8,
11,
5,
5,
7,
1,
10,
5,
6,
7,
4,
5,
3,
4,
3,
7,
6,
3,
6,
3,
5,
1,
7,
3,
3,
5,
1,
3,
3,
1,
1,
1,
2,
2,
4,
2,
1,
1,
0,
1,
1,
1,
0,
0,
1,
0,
0,
0,
0,
0,
0,
0,
0,
0,
0,
0,
0,
0,
0,
0,
0,
0,
1,
0,
0,
0,
0,
1,
0,
0,
0,
0,
0,
0,
0,
1,
0,
0,
0,
0,
0,
0,
0,
1,
0,
0,
0,
0,
0,
0,
0,
0,
0,
0,
0,
0,
0,
0,
0,
0,
0,
0,
0,
0,
0,
0,
0,
0,
0,
0,
0,
0,
0,
0,
0,
0,
0,
0,
0,
0,
0,
0,
0,
0,
0,
0,
0,
0,
0,
0,
0,
0,
0,
0,
0,
0,
0,
0,
0,
0,
0,
0,
0,
0,
0,
0,
0,
0,
0,
0,
0,
0,
1,
0,
0,
0,
0,
0,
0,
0,
0,
0,
0,
0,
0,
0,
0,
0,
0,
0,
0,
0,
0,
0,
0,
0,
0,
0,
0,
0,
0,
0,
0,
0,
0,
0,
0,
0,
0,
0,
0,
0,
0,
0,
0,
0,
0,
0,
0,
0,
0,
0,
0,
0,
0,
0,
0,
0,
0,
0,
0,
0,
0,
0,
0,
0,
0,
0,
0,
0,
0,
0,
0,
0,
0,
0,
0,
0,
0,
0,
0,
0,
0,
1,
0,
0,
0,
0,
0,
0,
0,
0,
0,
0,
0,
0,
0,
0,
0,
0,
0,
0,
0,
0,
0,
0,
0,
0,
0,
0,
0,
0,
0,
0,
0,
0,
1,
0,
0,
0,
0,
0,
0,
0,
0,
0,
0,
0,
0,
0,
0,
0,
0,
0,
0,
0,
0,
0,
0,
0,
0,
0,
0,
0,
0,
0,
0,
0,
0,
0,
0,
0,
0,
0,
0,
0,
0,
0,
0,
1,
0,
0,
0,
0,
0,
0,
0,
0,
0,
0,
0,
0,
0,
0,
0,
0,
0,
0,
0,
0,
0,
0,
0,
0,
0,
0,
0,
0,
0,
0,
0,
0,
0,
0,
0,
0,
0,
0,
0,
0,
0,
0,
0,
0,
0,
0,
0,
0,
0,
0,
0,
0,
0,
0,
0,
0,
0,
0,
0,
0,
0,
0,
0,
0,
0,
0,
0,
0,
0,
0,
0,
0,
0,
0,
0,
0,
0,
0,
0,
0,
0,
0,
0,
0,
0,
0,
0,
0,
0,
0,
0,
0,
0,
0,
0,
0,
0,
0,
0,
0,
0,
0,
0,
0,
0,
0,
0,
0,
0,
0,
0,
0,
0,
0,
0,
0,
0,
0,
0,
0,
0,
0,
0,
0,
0,
0,
0,
0,
0,
0,
0,
0,
0,
0,
0,
0,
0,
0,
0,
0,
0,
0,
0,
0,
0,
0,
0,
0,
0,
0,
0,
0,
0,
0,
0,
0,
0,
0,
0,
0,
0,
0,
0,
0,
0,
0,
0,
0,
0,
0,
0,
0,
0,
0,
0,
0,
0,
0,
0,
0,
0,
0,
0,
0,
0,
0,
0,
0,
0,
0,
0,
0,
0,
0,
0,
0,
0,
0,
0,
0,
0,
0,
0,
0,
0,
0,
0,
0,
0,
0,
0,
0,
0,
0,
0,
0,
0,
0,
0,
0,
0,
0,
0,
0,
0,
0,
0,
0,
0,
0,
0,
0,
0,
0,
0,
0,
0,
0,
0,
0,
0,
0,
0,
0,
0,
0,
0,
0,
0,
0,
0,
0,
0,
0,
0,
0,
0,
0,
0,
0,
0,
0,
0,
0,
0,
0,
0,
0,
0,
0,
0,
0,
0,
0,
0,
0,
0,
0,
0,
0,
0,
0,
0,
0,
0,
0,
0,
0,
0,
0,
0,
0,
0,
0,
0,
0,
0,
0,
0,
0,
0,
0,
0,
0,
0,
0,
0,
0,
0,
0,
0,
0,
0,
0,
0,
0,
0,
0,
0,
0,
0,
0,
0,
0,
0,
0,
0,
0,
0,
0,
0,
0,
0,
0,
0,
0,
0,
0,
0,
0,
0,
0,
0,
0,
0,
0,
0,
0,
0,
0,
0,
0,
0,
0,
0,
0,
0,
0,
0,
0,
0,
0,
0,
0,
0,
0,
0,
0,
0,
0,
0,
0,
0,
0,
0,
0,
0,
0,
0,
0,
0,
0,
0,
0,
0,
0,
0,
0,
0,
0,
0,
0,
0,
0,
0,
0,
0,
0,
0,
0,
0,
0,
0,
0,
0,
0,
0,
0,
0,
0,
0,
0,
0,
0,
0,
0,
0,
0,
0,
0,
0,
0,
0,
0,
0,
0,
0,
0,
0,
0,
0,
0,
0,
#ENDOFDATA   :