File: N132962/Quantification/MMM1/SPI MM1 Chromite[7][4].msa
#FORMAT      : EMSA/MAS Spectral Data File
#VERSION     : 1.0
#TITLE       : SPI MM1dup Chromite[7][all]
#DATE        : 12-MAR-2025
#TIME        : 14:17
#OWNER       : Unknown
#NPOINTS     : 4096
#NCOLUMNS    : 1
#XUNITS      : eV
#YUNITS      : counts
#DATATYPE    : Y
#XPERCHAN    : 9.99778
#OFFSET      : 1.69135
#BEAMKV      : 20
#SIGNALTYPE  : EDS
#ELEVANGLE   : 35
#AZIMANGLE   : 0
#LIVETIME    : 239.926
#REALTIME    : 256.306
#PROBECUR    : 1.02867
#TAUWIND     : 0
#TDEADLYR    : 0
#TACTLYR     : 0.045
#TALWIND     : 0.025
#CHOFFSET    : 0.0
#XLABEL      : Energy (eV)
#YLABEL      : Counts
#XPOSITION   : 4.2085
#YPOSITION   : -0.2618
#ZPOSITION   : 31.03608
#EDSDET      : SD
##SPECIMEN   : SPI MM1dup Chromite[7][all]
##DET_HASH   : 12273538-fd48-a23f-0a19-f1e6fa85caef
##CALIB_HASH : 6abaa72c-aa41-8738-0be9-f592914732f3
##WORKING    : 15.0 mm
##DET_NAME   : EDAX All
##DET_MODE   : MediumLE
#SPECTRUM    :
21,
28,
15,
11,
83,
324,
997,
3066,
8326,
10921,
6248,
3815,
4087,
5635,
10364,
36802,
130123,
237356,
171892,
50791,
10729,
4248,
4573,
6832,
6766,
3822,
2354,
2304,
2514,
2400,
2295,
2388,
2712,
2986,
3463,
3525,
3461,
3442,
4058,
6847,
20587,
48326,
57956,
33423,
11712,
5094,
4988,
11117,
35513,
71772,
72994,
38215,
13252,
5488,
3904,
3397,
3642,
3839,
4235,
4248,
3911,
3625,
3488,
3298,
3335,
3434,
3462,
3571,
3541,
3402,
3398,
3517,
3407,
3369,
3399,
3371,
3375,
3354,
3390,
3422,
3351,
3403,
3325,
3326,
3294,
3199,
3238,
3302,
3324,
3248,
3406,
3298,
3336,
3193,
3250,
3238,
3153,
3112,
3217,
3076,
3069,
2967,
2979,
3060,
3010,
3007,
2918,
2834,
2857,
2865,
2883,
2849,
2904,
2858,
2831,
2791,
2670,
2661,
2815,
2772,
2862,
2942,
3069,
2996,
2809,
2594,
2637,
2605,
2458,
2540,
2463,
2391,
2542,
2436,
2381,
2404,
2368,
2286,
2290,
2282,
2426,
2490,
2198,
2231,
2224,
2270,
2242,
2279,
2268,
2465,
2520,
2431,
2332,
2223,
2211,
2152,
2129,
2047,
2122,
1982,
1996,
2082,
1993,
2178,
2300,
2296,
2207,
2104,
1938,
1855,
1985,
2024,
2004,
2109,
2367,
3346,
6629,
16433,
36531,
64794,
83597,
81522,
57827,
30810,
12826,
4910,
2416,
1840,
1767,
1693,
1741,
1721,
1878,
2159,
2938,
4739,
7543,
11124,
12592,
11402,
8175,
4835,
2725,
1734,
1462,
1361,
1310,
1473,
1777,
2835,
5529,
10127,
15423,
18595,
17676,
13113,
7685,
4005,
2047,
1420,
1267,
1244,
1146,
1253,
1222,
1265,
1179,
1237,
1200,
1300,
1451,
1557,
1940,
2506,
3169,
3358,
3147,
2483,
1906,
1379,
1123,
1027,
1101,
1012,
1035,
1029,
1071,
1083,
1193,
1175,
1207,
1120,
1072,
981,
934,
939,
954,
923,
857,
917,
880,
888,
847,
834,
842,
911,
889,
873,
845,
844,
819,
804,
828,
801,
850,
834,
847,
806,
858,
836,
724,
790,
770,
802,
784,
788,
798,
771,
795,
813,
762,
724,
691,
742,
754,
716,
645,
679,
736,
662,
695,
699,
611,
694,
666,
662,
665,
674,
675,
642,
625,
660,
656,
593,
626,
632,
648,
650,
596,
625,
643,
629,
588,
590,
638,
592,
640,
558,
549,
562,
561,
538,
529,
524,
574,
517,
521,
549,
513,
584,
547,
509,
514,
544,
535,
530,
511,
480,
521,
515,
511,
503,
473,
484,
506,
476,
473,
471,
466,
518,
484,
543,
498,
462,
451,
464,
430,
395,
460,
416,
404,
421,
454,
407,
409,
461,
381,
405,
418,
425,
416,
368,
371,
359,
370,
366,
376,
364,
370,
333,
358,
350,
374,
358,
353,
338,
307,
368,
314,
299,
325,
342,
353,
293,
297,
304,
344,
342,
295,
312,
297,
305,
299,
293,
255,
292,
293,
298,
285,
287,
250,
254,
248,
228,
252,
267,
274,
238,
247,
260,
256,
238,
250,
239,
246,
226,
233,
247,
231,
258,
231,
233,
212,
235,
215,
192,
227,
220,
203,
199,
212,
209,
188,
200,
181,
181,
186,
178,
177,
200,
196,
185,
179,
167,
181,
186,
171,
179,
152,
168,
166,
153,
153,
166,
185,
159,
136,
169,
130,
169,
139,
146,
131,
128,
132,
146,
129,
134,
123,
135,
133,
100,
142,
139,
124,
116,
119,
108,
114,
127,
123,
101,
98,
118,
111,
129,
109,
123,
120,
105,
108,
100,
93,
102,
91,
82,
84,
87,
93,
78,
73,
86,
74,
83,
78,
87,
74,
82,
82,
92,
69,
82,
65,
70,
76,
84,
69,
80,
56,
70,
67,
76,
64,
58,
69,
62,
56,
72,
66,
62,
53,
57,
59,
68,
69,
51,
50,
56,
48,
47,
45,
40,
57,
53,
62,
47,
37,
49,
42,
49,
38,
44,
38,
39,
41,
34,
31,
37,
41,
34,
32,
34,
37,
31,
32,
38,
30,
22,
22,
34,
30,
37,
23,
26,
29,
39,
35,
22,
14,
20,
27,
24,
27,
18,
21,
23,
26,
15,
15,
21,
21,
25,
14,
15,
19,
27,
18,
14,
8,
16,
13,
17,
9,
22,
13,
13,
16,
11,
10,
14,
12,
6,
15,
5,
8,
8,
6,
12,
7,
9,
4,
8,
16,
8,
7,
2,
3,
11,
2,
4,
4,
4,
4,
6,
4,
4,
2,
1,
3,
1,
4,
3,
1,
2,
1,
2,
0,
1,
0,
0,
0,
1,
0,
0,
1,
2,
0,
0,
1,
0,
0,
0,
0,
0,
0,
0,
0,
1,
0,
0,
0,
0,
0,
1,
1,
0,
0,
0,
0,
1,
1,
0,
1,
1,
0,
0,
0,
0,
0,
0,
1,
0,
0,
0,
0,
1,
0,
0,
1,
0,
1,
2,
0,
0,
0,
0,
0,
1,
1,
0,
0,
0,
0,
0,
0,
0,
0,
0,
0,
0,
1,
0,
0,
1,
0,
1,
0,
0,
0,
0,
0,
0,
1,
0,
0,
0,
0,
0,
0,
0,
0,
0,
0,
0,
0,
0,
0,
0,
0,
0,
0,
0,
0,
0,
0,
1,
0,
0,
1,
0,
0,
0,
0,
0,
0,
0,
0,
0,
0,
0,
0,
0,
0,
0,
0,
0,
0,
0,
0,
0,
0,
0,
0,
0,
0,
0,
0,
0,
0,
0,
0,
0,
1,
0,
0,
0,
0,
0,
0,
0,
0,
0,
1,
0,
0,
0,
0,
0,
0,
0,
1,
0,
0,
1,
0,
0,
0,
0,
0,
0,
0,
0,
0,
0,
0,
0,
0,
0,
0,
0,
0,
0,
0,
0,
0,
0,
0,
0,
0,
0,
0,
0,
0,
0,
0,
0,
0,
0,
0,
0,
0,
0,
0,
0,
0,
0,
0,
0,
0,
0,
0,
0,
0,
1,
0,
0,
0,
0,
0,
0,
0,
0,
0,
0,
0,
0,
0,
0,
0,
0,
0,
0,
0,
0,
0,
0,
0,
0,
0,
0,
0,
0,
0,
0,
0,
0,
0,
0,
0,
0,
0,
0,
0,
0,
0,
0,
0,
0,
0,
0,
0,
0,
0,
0,
0,
0,
0,
0,
0,
0,
0,
0,
0,
0,
0,
0,
0,
0,
0,
0,
1,
0,
0,
0,
0,
0,
0,
0,
0,
0,
0,
0,
0,
0,
0,
0,
0,
0,
0,
0,
0,
1,
0,
0,
0,
0,
0,
0,
0,
0,
0,
0,
0,
0,
0,
0,
0,
0,
0,
0,
0,
0,
0,
0,
0,
0,
0,
0,
0,
0,
0,
0,
0,
0,
0,
0,
0,
0,
0,
0,
0,
0,
0,
0,
0,
0,
0,
0,
0,
0,
0,
0,
0,
0,
0,
0,
0,
0,
0,
0,
0,
0,
0,
0,
0,
0,
0,
0,
0,
0,
0,
0,
0,
0,
0,
0,
0,
0,
0,
0,
0,
0,
0,
0,
0,
0,
0,
0,
0,
0,
0,
0,
0,
0,
0,
0,
0,
0,
0,
0,
0,
0,
0,
0,
0,
0,
0,
0,
0,
0,
0,
0,
0,
0,
0,
0,
0,
0,
0,
0,
0,
0,
0,
0,
0,
0,
0,
0,
0,
0,
0,
0,
0,
0,
0,
0,
0,
0,
0,
0,
0,
0,
0,
0,
0,
0,
0,
0,
0,
0,
0,
0,
0,
0,
0,
0,
0,
0,
0,
0,
0,
0,
0,
0,
0,
0,
0,
0,
0,
0,
0,
0,
0,
0,
0,
0,
0,
0,
0,
0,
0,
0,
0,
0,
0,
0,
0,
0,
0,
0,
0,
0,
0,
0,
0,
0,
0,
0,
0,
0,
0,
0,
0,
0,
0,
0,
0,
0,
0,
0,
0,
0,
0,
0,
0,
0,
0,
0,
0,
0,
0,
0,
0,
0,
0,
0,
0,
0,
0,
0,
0,
0,
0,
0,
0,
0,
0,
0,
0,
0,
0,
0,
0,
0,
0,
0,
0,
0,
0,
0,
0,
0,
0,
0,
0,
0,
0,
0,
0,
0,
0,
0,
0,
0,
0,
0,
0,
0,
0,
0,
0,
0,
0,
0,
0,
0,
0,
0,
0,
0,
0,
0,
0,
0,
0,
0,
0,
0,
0,
0,
0,
0,
0,
0,
0,
0,
0,
0,
0,
0,
0,
0,
0,
0,
0,
0,
0,
0,
0,
0,
0,
0,
0,
0,
0,
0,
0,
0,
0,
0,
0,
0,
0,
0,
0,
0,
0,
0,
0,
0,
0,
0,
0,
0,
0,
0,
0,
0,
0,
0,
0,
0,
0,
0,
0,
0,
0,
0,
0,
0,
0,
0,
0,
0,
0,
0,
0,
0,
0,
0,
0,
0,
0,
0,
0,
0,
0,
0,
0,
0,
0,
0,
0,
0,
0,
0,
0,
0,
0,
0,
0,
0,
0,
0,
0,
0,
0,
0,
0,
0,
0,
0,
0,
0,
0,
0,
#ENDOFDATA   :