File: N132962/Quantification/MMM1/SPI MM1 Chlorite[7][4].msa
#FORMAT      : EMSA/MAS Spectral Data File
#VERSION     : 1.0
#TITLE       : SPI MM1dup Chlorite[7][all]
#DATE        : 12-MAR-2025
#TIME        : 14:26
#OWNER       : Unknown
#NPOINTS     : 4096
#NCOLUMNS    : 1
#XUNITS      : eV
#YUNITS      : counts
#DATATYPE    : Y
#XPERCHAN    : 9.99778
#OFFSET      : 1.69135
#BEAMKV      : 20
#SIGNALTYPE  : EDS
#ELEVANGLE   : 35
#AZIMANGLE   : 0
#LIVETIME    : 239.7522
#REALTIME    : 254.576
#PROBECUR    : 1.02867
#TAUWIND     : 0
#TDEADLYR    : 0
#TACTLYR     : 0.045
#TALWIND     : 0.025
#CHOFFSET    : 0.0
#XLABEL      : Energy (eV)
#YLABEL      : Counts
#XPOSITION   : 6.59435
#YPOSITION   : 0.08379
#ZPOSITION   : 31.03608
#EDSDET      : SD
##SPECIMEN   : SPI MM1dup Chlorite[7][all]
##DET_HASH   : 12273538-fd48-a23f-0a19-f1e6fa85caef
##CALIB_HASH : 6abaa72c-aa41-8738-0be9-f592914732f3
##WORKING    : 15.0 mm
##DET_NAME   : EDAX All
##DET_MODE   : MediumLE
#SPECTRUM    :
21,
24,
6,
15,
80,
296,
840,
2601,
7415,
9759,
5220,
2646,
2952,
3970,
7523,
29574,
122823,
241896,
177682,
45921,
5872,
2262,
2937,
4117,
3751,
2755,
2306,
2408,
2696,
2871,
2702,
2759,
2971,
3301,
3872,
4088,
4006,
4390,
5457,
13064,
50089,
125022,
152413,
84580,
24795,
6467,
4330,
9132,
28939,
57694,
58416,
30925,
10798,
4759,
4008,
7969,
28374,
71885,
97587,
69306,
28471,
10533,
5365,
3184,
2395,
2206,
2269,
2349,
2308,
2125,
2161,
2043,
2148,
2253,
2297,
2465,
2432,
2361,
2266,
2207,
2222,
2162,
2185,
2313,
2351,
2168,
2202,
2183,
2079,
2161,
2179,
2172,
2137,
2147,
2099,
2018,
2019,
2042,
2166,
2184,
2116,
2173,
1972,
1904,
1973,
2033,
1852,
1955,
1983,
1905,
1959,
1846,
1798,
1821,
1840,
1794,
1834,
1769,
1735,
1758,
1713,
1658,
1753,
1755,
1754,
1660,
1675,
1607,
1578,
1587,
1606,
1635,
1597,
1564,
1599,
1500,
1516,
1531,
1497,
1491,
1449,
1454,
1468,
1509,
1515,
1447,
1445,
1378,
1437,
1376,
1361,
1422,
1374,
1354,
1331,
1275,
1343,
1377,
1355,
1228,
1254,
1262,
1248,
1294,
1250,
1309,
1256,
1199,
1190,
1192,
1151,
1145,
1112,
1159,
1160,
1232,
1328,
1673,
2534,
3544,
4216,
4215,
3224,
2229,
1485,
1154,
1069,
1069,
1017,
1017,
988,
1072,
1019,
997,
944,
1090,
1260,
1383,
1448,
1336,
1223,
1010,
916,
932,
913,
888,
948,
882,
1032,
1256,
1900,
3204,
4432,
5095,
4854,
3724,
2427,
1452,
1033,
866,
822,
857,
775,
822,
800,
777,
786,
797,
785,
777,
828,
819,
1001,
1126,
1188,
1349,
1193,
1089,
892,
711,
719,
715,
663,
672,
664,
691,
737,
790,
882,
878,
867,
788,
720,
652,
663,
581,
623,
619,
653,
600,
577,
592,
581,
542,
532,
572,
624,
553,
541,
543,
551,
572,
551,
547,
579,
571,
581,
503,
555,
545,
525,
524,
561,
505,
464,
488,
476,
458,
465,
468,
451,
416,
474,
454,
443,
429,
483,
449,
453,
445,
458,
431,
449,
412,
408,
376,
409,
406,
412,
391,
418,
402,
397,
390,
419,
385,
435,
403,
429,
398,
407,
381,
378,
390,
356,
349,
364,
370,
331,
338,
315,
325,
340,
357,
318,
324,
346,
320,
363,
317,
328,
331,
324,
314,
315,
275,
316,
316,
307,
327,
294,
319,
313,
287,
280,
287,
304,
278,
259,
268,
258,
268,
242,
264,
274,
262,
275,
259,
269,
223,
252,
251,
253,
253,
251,
232,
241,
247,
217,
222,
237,
206,
210,
228,
245,
207,
225,
218,
214,
202,
213,
196,
208,
209,
200,
182,
184,
209,
204,
204,
184,
200,
171,
188,
180,
193,
191,
167,
176,
171,
189,
173,
175,
148,
177,
170,
170,
165,
168,
166,
150,
150,
153,
153,
154,
136,
124,
149,
150,
121,
160,
132,
124,
153,
147,
144,
135,
126,
127,
131,
132,
104,
123,
121,
140,
134,
113,
108,
109,
118,
107,
107,
95,
119,
116,
99,
109,
96,
107,
95,
112,
95,
107,
98,
111,
84,
95,
89,
93,
96,
95,
83,
83,
81,
95,
101,
76,
67,
77,
75,
80,
88,
77,
91,
79,
83,
90,
72,
74,
66,
79,
68,
67,
88,
71,
67,
63,
70,
77,
72,
43,
60,
64,
67,
53,
63,
49,
43,
54,
51,
66,
61,
48,
53,
49,
67,
52,
53,
49,
57,
45,
65,
52,
53,
43,
50,
49,
51,
38,
61,
36,
33,
46,
41,
31,
47,
31,
38,
37,
28,
35,
32,
37,
41,
37,
39,
38,
34,
34,
34,
29,
27,
34,
24,
36,
30,
29,
26,
24,
21,
24,
26,
30,
23,
23,
36,
24,
23,
27,
25,
22,
27,
18,
19,
27,
32,
18,
19,
23,
17,
13,
25,
23,
15,
17,
11,
17,
16,
18,
21,
11,
21,
12,
19,
14,
20,
15,
9,
8,
17,
17,
13,
10,
11,
9,
6,
10,
12,
13,
13,
15,
9,
7,
11,
9,
10,
7,
8,
12,
7,
15,
7,
8,
4,
7,
8,
8,
3,
3,
3,
5,
6,
5,
8,
2,
4,
3,
5,
6,
1,
6,
1,
6,
0,
5,
1,
4,
2,
1,
1,
1,
2,
0,
3,
2,
0,
2,
2,
1,
1,
1,
0,
1,
2,
0,
0,
0,
0,
1,
0,
0,
0,
0,
0,
0,
0,
0,
0,
2,
0,
0,
0,
0,
0,
0,
0,
0,
0,
0,
0,
0,
0,
1,
0,
0,
0,
0,
0,
1,
0,
0,
0,
0,
0,
0,
0,
0,
0,
0,
0,
0,
0,
0,
0,
0,
0,
0,
0,
0,
0,
0,
0,
0,
0,
0,
0,
0,
0,
0,
0,
0,
1,
0,
0,
0,
0,
0,
0,
0,
0,
0,
0,
0,
0,
0,
0,
0,
0,
0,
0,
0,
0,
0,
0,
0,
0,
0,
0,
0,
0,
0,
0,
0,
0,
0,
0,
0,
0,
0,
0,
0,
0,
0,
0,
0,
0,
0,
0,
0,
0,
0,
0,
0,
0,
0,
0,
0,
0,
0,
0,
0,
0,
0,
0,
0,
0,
0,
0,
0,
0,
0,
0,
0,
0,
0,
0,
0,
0,
0,
0,
0,
0,
0,
0,
0,
0,
0,
0,
0,
0,
0,
0,
0,
0,
0,
0,
0,
0,
0,
0,
1,
0,
0,
0,
0,
0,
0,
0,
0,
0,
0,
0,
0,
0,
0,
0,
0,
0,
0,
0,
0,
0,
0,
0,
0,
0,
0,
0,
0,
0,
0,
0,
0,
0,
0,
0,
0,
0,
0,
0,
0,
0,
0,
0,
0,
0,
0,
0,
0,
0,
0,
0,
0,
0,
0,
0,
0,
0,
0,
0,
0,
0,
0,
0,
0,
0,
0,
0,
0,
0,
0,
0,
0,
0,
0,
0,
0,
0,
0,
0,
0,
0,
0,
0,
0,
0,
0,
0,
0,
0,
0,
0,
0,
0,
0,
0,
0,
0,
0,
0,
0,
0,
0,
0,
1,
0,
0,
0,
0,
0,
0,
0,
0,
0,
0,
0,
0,
0,
0,
0,
0,
0,
0,
0,
0,
0,
0,
0,
0,
0,
0,
0,
0,
0,
0,
0,
0,
0,
0,
1,
0,
0,
0,
0,
0,
0,
0,
0,
0,
0,
0,
0,
0,
0,
0,
0,
0,
0,
0,
0,
0,
0,
0,
0,
0,
0,
0,
0,
0,
0,
0,
0,
0,
0,
0,
0,
0,
0,
0,
0,
0,
0,
0,
0,
0,
0,
0,
0,
0,
0,
0,
0,
0,
0,
0,
0,
0,
0,
0,
0,
0,
0,
0,
0,
0,
0,
0,
0,
0,
0,
0,
0,
0,
0,
0,
0,
0,
0,
0,
0,
0,
0,
0,
0,
0,
0,
0,
0,
0,
0,
0,
0,
0,
0,
0,
0,
0,
0,
0,
0,
0,
0,
0,
0,
0,
0,
0,
0,
0,
0,
0,
0,
0,
0,
0,
0,
0,
0,
0,
0,
0,
0,
0,
0,
0,
0,
0,
0,
0,
0,
0,
0,
0,
0,
0,
0,
0,
0,
0,
0,
0,
0,
0,
0,
0,
0,
0,
0,
0,
0,
0,
0,
0,
0,
0,
0,
0,
0,
0,
0,
0,
0,
0,
0,
0,
0,
0,
0,
0,
0,
0,
0,
0,
0,
0,
0,
0,
0,
0,
0,
0,
0,
0,
0,
0,
0,
0,
0,
0,
0,
0,
0,
0,
0,
0,
0,
0,
0,
0,
0,
0,
0,
0,
0,
0,
0,
0,
0,
0,
0,
0,
0,
0,
0,
0,
0,
0,
0,
0,
0,
0,
0,
0,
0,
0,
0,
0,
0,
0,
0,
0,
0,
0,
0,
0,
0,
0,
0,
0,
0,
0,
0,
0,
0,
0,
0,
0,
0,
0,
0,
0,
0,
0,
0,
0,
0,
0,
0,
0,
0,
0,
0,
0,
0,
0,
0,
0,
0,
0,
0,
0,
0,
0,
0,
0,
0,
0,
0,
0,
0,
0,
0,
0,
0,
0,
0,
0,
0,
0,
0,
0,
0,
0,
0,
0,
0,
0,
0,
0,
0,
0,
0,
0,
0,
0,
0,
0,
0,
0,
0,
0,
0,
0,
0,
0,
0,
0,
0,
0,
0,
0,
0,
0,
0,
0,
0,
0,
0,
0,
0,
0,
0,
0,
0,
0,
0,
0,
0,
0,
0,
0,
0,
0,
0,
0,
0,
0,
0,
0,
0,
0,
0,
0,
0,
0,
0,
0,
0,
0,
0,
0,
0,
0,
0,
0,
0,
0,
0,
0,
0,
0,
0,
0,
0,
0,
0,
0,
0,
0,
0,
0,
0,
0,
0,
0,
0,
0,
0,
0,
0,
0,
0,
0,
0,
0,
0,
#ENDOFDATA   :