File: N132962/Quantification/MMM1/SPI MM1 Calcite[0][4].msa
#FORMAT      : EMSA/MAS Spectral Data File
#VERSION     : 1.0
#TITLE       : SPI MM1 Calcite[0][all]
#DATE        : 11-MAR-2025
#TIME        : 14:11
#OWNER       : Unknown
#NPOINTS     : 4096
#NCOLUMNS    : 1
#XUNITS      : eV
#YUNITS      : counts
#DATATYPE    : Y
#XPERCHAN    : 9.99778
#OFFSET      : 1.69135
#BEAMKV      : 20
#SIGNALTYPE  : EDS
#ELEVANGLE   : 35
#AZIMANGLE   : 0
#LIVETIME    : 239.791
#REALTIME    : 251.95
#PROBECUR    : 1.02902
#TAUWIND     : 0
#TDEADLYR    : 0
#TACTLYR     : 0.045
#TALWIND     : 0.025
#CHOFFSET    : 0.0
#XLABEL      : Energy (eV)
#YLABEL      : Counts
#XPOSITION   : 0.2767
#YPOSITION   : -2.60628
#ZPOSITION   : 30.9284
#EDSDET      : SD
##SPECIMEN   : SPI MM1 Calcite[0][all]
##D2STDCMP   : Calcite,(C:12.0003),(O:47.9565),(Ca:40.0432),5.0
##DET_HASH   : 12273538-fd48-a23f-0a19-f1e6fa85caef
##CALIB_HASH : 6abaa72c-aa41-8738-0be9-f592914732f3
##WORKING    : 15.0 mm
##DET_NAME   : EDAX All
##DET_MODE   : MediumLE
#SPECTRUM    :
25,
38,
9,
12,
108,
465,
1865,
8489,
30056,
42845,
23391,
7808,
3444,
2250,
2855,
8719,
34169,
65950,
49049,
13455,
2430,
1238,
1390,
1534,
1717,
1653,
1782,
1862,
2155,
2244,
2283,
2402,
2482,
2675,
2582,
2791,
2813,
2921,
3120,
3072,
3245,
3394,
3489,
3729,
3660,
3686,
3793,
3895,
3970,
4239,
4011,
4130,
4195,
3961,
3963,
4234,
4246,
4432,
4638,
4704,
4542,
4360,
4283,
4450,
5330,
5745,
5064,
4108,
3754,
3584,
3613,
3608,
3601,
3550,
3588,
3703,
3726,
3642,
3481,
3382,
3228,
3270,
3250,
3206,
3320,
3189,
3094,
3124,
3018,
2970,
2978,
2884,
2991,
2860,
2874,
2868,
2802,
2794,
2927,
2907,
2736,
2837,
2780,
2692,
2769,
2713,
2732,
2614,
2703,
2560,
2691,
2603,
2481,
2539,
2416,
2661,
3106,
3665,
5105,
10707,
30504,
80046,
150392,
190306,
159214,
90202,
34418,
10302,
3990,
3306,
4435,
7944,
14527,
22137,
24649,
19462,
11272,
5051,
2429,
1766,
1641,
1604,
1521,
1503,
1429,
1474,
1424,
1462,
1462,
1422,
1418,
1460,
1458,
1436,
1399,
1344,
1407,
1380,
1332,
1296,
1356,
1350,
1370,
1339,
1300,
1295,
1329,
1304,
1213,
1303,
1296,
1273,
1249,
1276,
1231,
1303,
1225,
1318,
1200,
1273,
1242,
1221,
1166,
1215,
1204,
1201,
1157,
1182,
1123,
1118,
1086,
1133,
1146,
1147,
1114,
1097,
1162,
1115,
1062,
1145,
1006,
1048,
1003,
1019,
988,
1022,
1030,
1026,
956,
1040,
1017,
1081,
1051,
1099,
1052,
959,
983,
928,
980,
943,
910,
908,
876,
848,
861,
853,
865,
891,
891,
913,
851,
848,
894,
831,
862,
832,
828,
820,
887,
802,
812,
781,
793,
822,
852,
928,
943,
937,
971,
871,
847,
770,
750,
735,
732,
731,
758,
747,
798,
745,
691,
731,
664,
702,
683,
687,
684,
668,
650,
633,
635,
669,
641,
644,
665,
608,
628,
625,
614,
639,
596,
588,
605,
591,
604,
577,
593,
588,
557,
621,
554,
562,
585,
555,
522,
538,
532,
563,
533,
564,
532,
542,
540,
521,
531,
503,
506,
490,
481,
473,
462,
491,
477,
471,
469,
497,
460,
492,
464,
483,
438,
473,
475,
470,
462,
395,
460,
440,
423,
468,
426,
461,
397,
444,
428,
405,
378,
427,
369,
379,
385,
410,
354,
375,
352,
345,
371,
370,
394,
353,
371,
344,
324,
321,
349,
297,
343,
382,
367,
346,
352,
351,
326,
331,
320,
342,
325,
339,
317,
296,
332,
339,
310,
296,
285,
312,
324,
288,
291,
255,
302,
265,
276,
243,
292,
281,
278,
280,
294,
264,
281,
258,
250,
266,
238,
265,
258,
232,
226,
263,
254,
203,
255,
247,
220,
245,
223,
200,
201,
205,
217,
222,
187,
195,
228,
217,
178,
176,
209,
188,
186,
187,
196,
211,
187,
186,
179,
175,
172,
148,
177,
174,
176,
159,
184,
168,
151,
177,
164,
163,
167,
163,
160,
141,
151,
156,
146,
139,
172,
142,
158,
134,
149,
146,
146,
133,
140,
145,
131,
130,
110,
126,
129,
124,
134,
129,
126,
141,
112,
122,
123,
116,
132,
133,
118,
100,
112,
116,
95,
83,
87,
104,
117,
104,
100,
101,
114,
89,
103,
94,
98,
80,
83,
83,
86,
81,
90,
90,
80,
87,
86,
91,
75,
89,
79,
78,
69,
78,
74,
79,
68,
63,
75,
83,
67,
65,
70,
56,
67,
75,
55,
60,
59,
62,
51,
60,
73,
51,
46,
65,
64,
59,
48,
50,
51,
62,
50,
42,
48,
47,
61,
43,
37,
43,
44,
32,
43,
41,
47,
44,
49,
35,
38,
30,
39,
36,
32,
34,
37,
40,
29,
20,
36,
33,
32,
30,
32,
28,
30,
20,
30,
33,
25,
27,
36,
24,
24,
31,
36,
23,
22,
18,
26,
25,
23,
25,
15,
24,
16,
25,
16,
23,
13,
15,
15,
17,
17,
23,
9,
17,
17,
13,
14,
17,
14,
11,
15,
17,
13,
8,
16,
15,
16,
15,
16,
13,
14,
8,
10,
13,
7,
10,
8,
10,
10,
8,
7,
4,
1,
9,
6,
13,
3,
6,
2,
6,
6,
7,
4,
8,
8,
7,
5,
7,
2,
3,
5,
3,
3,
2,
2,
4,
3,
2,
3,
2,
1,
2,
2,
1,
2,
2,
0,
1,
0,
0,
0,
0,
0,
0,
1,
1,
1,
0,
0,
0,
0,
0,
0,
0,
0,
0,
0,
0,
0,
0,
0,
0,
1,
0,
0,
0,
0,
0,
0,
0,
0,
0,
0,
0,
1,
0,
0,
0,
0,
0,
0,
0,
0,
0,
0,
0,
0,
0,
0,
1,
1,
0,
0,
0,
1,
0,
0,
0,
1,
0,
0,
0,
0,
0,
0,
0,
0,
0,
0,
0,
0,
0,
0,
0,
0,
0,
0,
0,
0,
0,
0,
0,
0,
0,
0,
0,
0,
0,
1,
0,
0,
0,
0,
0,
0,
0,
0,
0,
0,
0,
0,
0,
0,
0,
0,
0,
0,
0,
0,
0,
0,
0,
0,
0,
0,
1,
0,
0,
0,
0,
0,
0,
0,
0,
0,
0,
0,
0,
0,
0,
0,
0,
0,
0,
0,
0,
0,
0,
0,
0,
0,
0,
0,
0,
0,
0,
0,
0,
0,
0,
0,
0,
0,
0,
0,
0,
0,
0,
0,
0,
0,
0,
0,
0,
0,
0,
0,
1,
0,
0,
0,
0,
0,
0,
0,
0,
0,
0,
0,
0,
0,
0,
0,
0,
0,
0,
0,
0,
0,
0,
0,
0,
0,
0,
0,
0,
0,
0,
0,
0,
0,
0,
0,
0,
0,
0,
0,
0,
0,
0,
0,
0,
0,
0,
0,
0,
0,
0,
0,
0,
0,
0,
0,
0,
0,
0,
0,
0,
0,
1,
0,
0,
0,
0,
0,
0,
0,
0,
0,
0,
0,
0,
0,
0,
0,
0,
0,
0,
0,
0,
0,
0,
0,
0,
0,
0,
0,
0,
0,
0,
0,
0,
0,
0,
0,
0,
0,
0,
0,
0,
0,
0,
0,
0,
0,
0,
0,
0,
0,
0,
0,
0,
0,
0,
0,
0,
0,
0,
0,
0,
0,
0,
0,
0,
0,
0,
0,
0,
0,
0,
0,
0,
0,
0,
0,
0,
0,
0,
0,
0,
0,
0,
0,
0,
0,
0,
0,
0,
0,
0,
0,
0,
0,
0,
0,
0,
0,
0,
0,
0,
0,
0,
0,
0,
0,
0,
0,
0,
0,
0,
0,
0,
0,
0,
0,
0,
0,
0,
0,
0,
0,
0,
0,
0,
0,
0,
0,
0,
0,
0,
0,
0,
0,
0,
0,
0,
0,
0,
0,
0,
0,
0,
0,
0,
0,
0,
0,
0,
0,
0,
0,
0,
0,
0,
0,
0,
0,
0,
0,
0,
0,
0,
0,
0,
0,
0,
0,
0,
0,
0,
0,
0,
0,
0,
0,
0,
0,
0,
0,
0,
0,
0,
0,
0,
0,
0,
0,
0,
0,
0,
0,
0,
0,
0,
0,
0,
0,
0,
0,
0,
0,
0,
0,
0,
0,
0,
0,
0,
0,
0,
0,
0,
0,
0,
0,
0,
0,
0,
0,
0,
0,
0,
0,
0,
0,
0,
0,
0,
0,
0,
0,
0,
0,
0,
0,
0,
0,
0,
0,
0,
0,
0,
0,
0,
0,
0,
0,
0,
0,
0,
0,
0,
0,
0,
0,
0,
0,
0,
0,
0,
0,
0,
0,
0,
0,
0,
0,
0,
0,
0,
0,
0,
0,
0,
0,
0,
0,
0,
0,
0,
0,
0,
0,
0,
0,
0,
0,
0,
0,
0,
0,
0,
0,
0,
0,
0,
0,
0,
0,
0,
0,
0,
0,
0,
0,
0,
0,
0,
0,
0,
0,
0,
0,
0,
0,
0,
0,
0,
0,
0,
0,
0,
0,
0,
0,
0,
0,
0,
0,
0,
0,
0,
0,
0,
0,
0,
0,
0,
0,
0,
0,
0,
0,
0,
0,
0,
0,
0,
0,
0,
0,
0,
0,
0,
0,
0,
0,
0,
0,
0,
0,
0,
0,
0,
0,
0,
0,
0,
0,
0,
0,
0,
0,
0,
0,
0,
0,
0,
0,
0,
0,
0,
0,
0,
0,
0,
0,
0,
0,
0,
0,
0,
0,
0,
0,
0,
0,
0,
0,
0,
0,
0,
0,
0,
0,
0,
0,
0,
0,
0,
0,
0,
0,
0,
0,
0,
0,
0,
0,
0,
0,
0,
0,
0,
0,
0,
0,
0,
0,
0,
0,
0,
0,
0,
0,
0,
0,
0,
0,
0,
0,
0,
0,
0,
0,
0,
0,
0,
0,
0,
0,
0,
0,
0,
0,
0,
0,
0,
0,
0,
0,
0,
0,
0,
0,
0,
0,
0,
0,
0,
#ENDOFDATA   :