File: N132962/Quantification/MMM1/SPI MM1 Almandine[2][4].msa
#FORMAT      : EMSA/MAS Spectral Data File
#VERSION     : 1.0
#TITLE       : SPI MM1 Almandine[2][all]
#DATE        : 11-MAR-2025
#TIME        : 13:00
#OWNER       : Unknown
#NPOINTS     : 4096
#NCOLUMNS    : 1
#XUNITS      : eV
#YUNITS      : counts
#DATATYPE    : Y
#XPERCHAN    : 9.99778
#OFFSET      : 1.69135
#BEAMKV      : 20
#SIGNALTYPE  : EDS
#ELEVANGLE   : 35
#AZIMANGLE   : 0
#LIVETIME    : 239.849
#REALTIME    : 255.276
#PROBECUR    : 1.02699
#TAUWIND     : 0
#TDEADLYR    : 0
#TACTLYR     : 0.045
#TALWIND     : 0.025
#CHOFFSET    : 0.0
#XLABEL      : Energy (eV)
#YLABEL      : Counts
#XPOSITION   : 0.42364
#YPOSITION   : -7.88032
#ZPOSITION   : 30.9284
#EDSDET      : SD
##SPECIMEN   : SPI MM1 Almandine[2][all]
##D2STDCMP   : Almandine,(O:38.5719),(Al:10.8416),(Si:16.9275),(Fe:33.6591),4.05
##DET_HASH   : 12273538-fd48-a23f-0a19-f1e6fa85caef
##CALIB_HASH : 6abaa72c-aa41-8738-0be9-f592914732f3
##WORKING    : 15.0 mm
##DET_NAME   : EDAX All
##DET_MODE   : MediumLE
#SPECTRUM    :
28,
36,
11,
17,
83,
288,
876,
2624,
7465,
10010,
5803,
3121,
2929,
3734,
6243,
22887,
90526,
176917,
129996,
35209,
7351,
5425,
7925,
14125,
14096,
6985,
3185,
2546,
2451,
2536,
2485,
2638,
2779,
2997,
3293,
3502,
3463,
3646,
3960,
6124,
15574,
35045,
41900,
24899,
9456,
5102,
5562,
12549,
40331,
80616,
82329,
43445,
15229,
6520,
5446,
11060,
39566,
99025,
134572,
95098,
39094,
13895,
7130,
4191,
3084,
2836,
2953,
3008,
2856,
2797,
2665,
2827,
2835,
2839,
3085,
3119,
3069,
2914,
2862,
2777,
2873,
2684,
2767,
2744,
2769,
2658,
2687,
2836,
2706,
2763,
2583,
2723,
2655,
2576,
2704,
2591,
2719,
2626,
2697,
2661,
2596,
2605,
2522,
2505,
2489,
2591,
2572,
2597,
2657,
2579,
2480,
2431,
2365,
2458,
2320,
2451,
2465,
2445,
2466,
2950,
4221,
7824,
12599,
15294,
13322,
8280,
4468,
2719,
2266,
2311,
2280,
2555,
3045,
3327,
3729,
3345,
2680,
2270,
1992,
2037,
1963,
1888,
1961,
1882,
1930,
1879,
1905,
1807,
1946,
1859,
1839,
1855,
1948,
1839,
1839,
1917,
1805,
1833,
1724,
1659,
1707,
1740,
1627,
1636,
1662,
1720,
1693,
1605,
1573,
1516,
1512,
1605,
1564,
1561,
1531,
1462,
1547,
1440,
1552,
1528,
1620,
1455,
1578,
1436,
1463,
1424,
1388,
1332,
1365,
1310,
1311,
1322,
1397,
1473,
1746,
2045,
2305,
2330,
1939,
1628,
1408,
1386,
1266,
1367,
1254,
1285,
1344,
1504,
2257,
4301,
9205,
18194,
28788,
35208,
33175,
24144,
13765,
6551,
2986,
1689,
1232,
1088,
1126,
1112,
1060,
1086,
1130,
1097,
1121,
1226,
1404,
1798,
2451,
3684,
4841,
5352,
4980,
3752,
2455,
1732,
1146,
995,
904,
897,
887,
874,
899,
923,
905,
879,
835,
868,
823,
861,
876,
841,
790,
773,
779,
749,
779,
831,
806,
824,
795,
741,
788,
763,
714,
734,
705,
793,
772,
700,
667,
712,
707,
664,
726,
726,
667,
649,
694,
664,
692,
694,
671,
660,
660,
640,
624,
623,
643,
595,
621,
608,
602,
659,
585,
632,
598,
589,
577,
548,
533,
571,
571,
569,
574,
547,
567,
539,
531,
558,
536,
553,
538,
532,
517,
507,
526,
477,
490,
534,
508,
439,
493,
481,
495,
489,
451,
476,
469,
472,
477,
487,
426,
496,
460,
458,
455,
442,
444,
444,
456,
424,
388,
421,
390,
430,
421,
361,
409,
391,
391,
388,
385,
416,
406,
385,
381,
367,
368,
363,
350,
397,
380,
362,
356,
349,
374,
340,
343,
290,
378,
361,
317,
327,
354,
322,
350,
311,
316,
294,
324,
339,
343,
339,
298,
307,
305,
285,
292,
281,
291,
285,
297,
250,
273,
261,
273,
277,
269,
284,
264,
267,
268,
238,
259,
230,
262,
245,
236,
254,
237,
230,
229,
247,
235,
223,
235,
226,
205,
205,
237,
202,
208,
234,
242,
212,
209,
205,
223,
172,
192,
202,
195,
201,
181,
204,
185,
199,
188,
178,
179,
177,
182,
160,
196,
160,
180,
167,
178,
148,
162,
166,
131,
149,
159,
160,
175,
156,
151,
145,
133,
142,
151,
140,
126,
143,
145,
134,
151,
112,
122,
125,
109,
116,
119,
132,
138,
119,
127,
113,
105,
113,
119,
83,
103,
112,
124,
95,
112,
94,
111,
95,
106,
116,
103,
96,
86,
90,
89,
80,
89,
83,
98,
80,
86,
91,
74,
97,
75,
62,
71,
77,
77,
86,
82,
78,
71,
94,
70,
66,
70,
89,
70,
51,
58,
77,
67,
60,
56,
73,
59,
53,
57,
56,
57,
56,
52,
53,
50,
66,
59,
49,
53,
45,
62,
62,
39,
40,
49,
40,
58,
27,
51,
37,
47,
41,
47,
36,
31,
40,
45,
35,
30,
52,
37,
27,
29,
29,
27,
32,
38,
34,
27,
27,
34,
25,
20,
27,
30,
32,
34,
31,
26,
36,
28,
30,
21,
25,
32,
25,
23,
22,
21,
23,
25,
26,
31,
15,
23,
17,
17,
25,
14,
16,
19,
15,
20,
15,
13,
12,
13,
15,
13,
12,
7,
10,
13,
9,
13,
14,
11,
11,
16,
10,
9,
12,
14,
8,
6,
6,
9,
4,
10,
5,
8,
9,
6,
6,
10,
4,
3,
4,
8,
6,
3,
10,
6,
3,
4,
6,
4,
1,
0,
1,
3,
0,
1,
0,
1,
0,
1,
2,
0,
0,
0,
0,
0,
0,
1,
1,
2,
1,
0,
1,
0,
0,
0,
1,
0,
1,
1,
1,
0,
0,
0,
1,
0,
0,
0,
0,
0,
1,
0,
0,
0,
0,
1,
1,
0,
0,
1,
0,
0,
0,
1,
0,
0,
0,
0,
0,
0,
0,
0,
1,
0,
0,
0,
1,
0,
0,
0,
0,
0,
0,
0,
0,
0,
0,
0,
0,
0,
0,
0,
0,
0,
0,
0,
0,
0,
0,
0,
0,
0,
0,
0,
0,
0,
0,
0,
1,
0,
0,
0,
0,
0,
0,
1,
0,
0,
0,
1,
0,
0,
0,
0,
0,
0,
0,
0,
0,
0,
0,
0,
0,
0,
0,
0,
0,
0,
0,
0,
0,
0,
1,
0,
0,
0,
0,
0,
0,
0,
0,
0,
0,
0,
0,
0,
0,
0,
0,
0,
0,
0,
0,
0,
0,
0,
0,
0,
0,
0,
0,
0,
0,
0,
0,
0,
0,
0,
0,
0,
0,
0,
0,
0,
0,
0,
0,
1,
0,
0,
0,
0,
0,
0,
0,
0,
0,
0,
1,
0,
0,
0,
0,
0,
0,
0,
0,
0,
0,
0,
0,
0,
0,
0,
0,
0,
0,
0,
0,
0,
0,
0,
0,
0,
0,
0,
0,
0,
0,
0,
0,
0,
0,
0,
0,
0,
0,
0,
0,
0,
0,
0,
0,
0,
0,
1,
0,
0,
0,
0,
0,
0,
0,
0,
0,
0,
0,
0,
0,
0,
0,
0,
0,
0,
0,
0,
0,
0,
0,
0,
0,
0,
0,
0,
0,
0,
0,
0,
0,
0,
0,
0,
0,
0,
0,
0,
0,
0,
0,
0,
0,
0,
0,
0,
0,
0,
0,
0,
0,
0,
0,
0,
0,
0,
0,
0,
0,
0,
0,
0,
0,
0,
0,
0,
0,
0,
0,
0,
0,
0,
0,
0,
0,
0,
0,
0,
0,
0,
0,
0,
0,
0,
0,
0,
0,
0,
0,
0,
0,
0,
0,
0,
0,
0,
0,
0,
0,
0,
0,
0,
0,
0,
0,
0,
0,
0,
0,
0,
0,
0,
0,
0,
0,
0,
0,
0,
0,
0,
0,
0,
0,
0,
0,
0,
0,
0,
0,
0,
0,
0,
0,
0,
0,
0,
0,
0,
0,
0,
0,
0,
0,
0,
0,
0,
0,
0,
0,
0,
0,
0,
0,
0,
0,
0,
0,
0,
0,
0,
0,
0,
0,
0,
0,
0,
0,
0,
0,
0,
0,
0,
0,
0,
0,
0,
0,
0,
0,
0,
0,
0,
0,
0,
0,
0,
0,
0,
0,
0,
0,
0,
0,
0,
0,
0,
0,
0,
0,
0,
0,
0,
0,
0,
0,
0,
0,
0,
0,
0,
0,
0,
0,
0,
0,
0,
0,
0,
0,
0,
0,
0,
0,
0,
0,
0,
0,
0,
0,
0,
0,
0,
0,
0,
0,
0,
0,
0,
0,
0,
0,
0,
0,
0,
0,
0,
0,
0,
0,
0,
0,
0,
0,
0,
0,
0,
0,
0,
0,
0,
0,
0,
0,
0,
0,
0,
0,
0,
0,
0,
0,
0,
0,
0,
0,
0,
0,
0,
0,
0,
0,
0,
0,
0,
0,
0,
0,
0,
0,
0,
0,
0,
0,
0,
0,
0,
0,
0,
0,
0,
0,
0,
0,
0,
0,
0,
0,
0,
0,
0,
0,
0,
0,
0,
0,
0,
0,
0,
0,
0,
0,
0,
0,
0,
0,
0,
0,
0,
0,
0,
0,
0,
0,
0,
0,
0,
0,
0,
0,
0,
0,
0,
0,
0,
0,
0,
0,
0,
0,
0,
0,
0,
0,
0,
0,
0,
0,
0,
0,
0,
0,
0,
0,
0,
0,
0,
0,
0,
0,
0,
0,
0,
0,
0,
0,
0,
0,
0,
0,
0,
0,
0,
0,
0,
0,
0,
0,
0,
0,
0,
0,
0,
0,
0,
0,
0,
0,
0,
0,
0,
0,
0,
0,
0,
0,
0,
0,
0,
0,
0,
0,
0,
0,
0,
0,
0,
0,
0,
0,
0,
0,
0,
0,
0,
0,
0,
0,
0,
0,
0,
0,
0,
0,
0,
0,
0,
0,
0,
0,
0,
0,
0,
0,
0,
0,
0,
0,
0,
0,
0,
0,
0,
0,
0,
0,
0,
0,
0,
0,
0,
0,
0,
0,
0,
0,
0,
0,
0,
0,
0,
0,
0,
0,
#ENDOFDATA   :