File: N132962/Quantification/MMM1/SPI MM1 Calcite[6][4].msa
#FORMAT      : EMSA/MAS Spectral Data File
#VERSION     : 1.0
#TITLE       : SPI MM1 Calcite[6][all]
#DATE        : 11-MAR-2025
#TIME        : 14:18
#OWNER       : Unknown
#NPOINTS     : 4096
#NCOLUMNS    : 1
#XUNITS      : eV
#YUNITS      : counts
#DATATYPE    : Y
#XPERCHAN    : 9.99778
#OFFSET      : 1.69135
#BEAMKV      : 20
#SIGNALTYPE  : EDS
#ELEVANGLE   : 35
#AZIMANGLE   : 0
#LIVETIME    : 239.904
#REALTIME    : 252.199
#PROBECUR    : 1.02902
#TAUWIND     : 0
#TDEADLYR    : 0
#TACTLYR     : 0.045
#TALWIND     : 0.025
#CHOFFSET    : 0.0
#XLABEL      : Energy (eV)
#YLABEL      : Counts
#XPOSITION   : 0.12263
#YPOSITION   : -2.95603
#ZPOSITION   : 30.9284
#EDSDET      : SD
##SPECIMEN   : SPI MM1 Calcite[6][all]
##D2STDCMP   : Calcite,(C:12.0003),(O:47.9565),(Ca:40.0432),5.0
##DET_HASH   : 12273538-fd48-a23f-0a19-f1e6fa85caef
##CALIB_HASH : 6abaa72c-aa41-8738-0be9-f592914732f3
##WORKING    : 15.0 mm
##DET_NAME   : EDAX All
##DET_MODE   : MediumLE
#SPECTRUM    :
37,
32,
12,
15,
96,
481,
1802,
8656,
29994,
42838,
23359,
7692,
3469,
2159,
2835,
8859,
34917,
68598,
50612,
13870,
2399,
1322,
1474,
1592,
1696,
1694,
1766,
1886,
2070,
2095,
2147,
2303,
2282,
2540,
2712,
2795,
2861,
3138,
3151,
3190,
3188,
3432,
3554,
3544,
3615,
3686,
3857,
3819,
3892,
4038,
4161,
4032,
4060,
4023,
4012,
4124,
4201,
4453,
4740,
4626,
4504,
4358,
4239,
4544,
5458,
5840,
5132,
4177,
3751,
3595,
3709,
3553,
3488,
3488,
3593,
3613,
3754,
3542,
3551,
3438,
3348,
3383,
3231,
3246,
3178,
3148,
3091,
3183,
2917,
3174,
3093,
3078,
3017,
2978,
2944,
2901,
2832,
2944,
2801,
2852,
2846,
2854,
2818,
2829,
2741,
2843,
2732,
2739,
2714,
2686,
2607,
2501,
2450,
2522,
2524,
2647,
2947,
3703,
5177,
10792,
31236,
80875,
152110,
192603,
161571,
90528,
34866,
10633,
3985,
3316,
4317,
7915,
14721,
22243,
24712,
19816,
11290,
5100,
2450,
1817,
1658,
1685,
1567,
1539,
1500,
1401,
1368,
1412,
1451,
1461,
1538,
1485,
1448,
1382,
1452,
1426,
1377,
1386,
1311,
1393,
1436,
1351,
1342,
1316,
1309,
1273,
1301,
1367,
1343,
1333,
1279,
1295,
1245,
1273,
1267,
1241,
1197,
1261,
1268,
1251,
1202,
1239,
1197,
1207,
1219,
1133,
1189,
1155,
1126,
1198,
1134,
1143,
1141,
1121,
1247,
1179,
1272,
1200,
1158,
1094,
1036,
1056,
1063,
1034,
1025,
1073,
1098,
1032,
1051,
1008,
1019,
1029,
1060,
1112,
1082,
1092,
1006,
988,
982,
906,
874,
984,
874,
882,
914,
942,
886,
910,
828,
870,
844,
873,
859,
874,
877,
817,
874,
876,
900,
820,
832,
811,
828,
827,
890,
891,
951,
977,
945,
873,
804,
757,
741,
821,
781,
749,
754,
781,
778,
751,
737,
703,
704,
653,
660,
643,
660,
679,
640,
673,
668,
688,
634,
644,
681,
677,
674,
620,
665,
643,
595,
597,
612,
624,
598,
566,
567,
610,
616,
577,
583,
575,
579,
583,
580,
572,
533,
547,
544,
520,
573,
533,
524,
510,
519,
565,
500,
571,
528,
497,
521,
452,
492,
499,
491,
504,
505,
425,
495,
449,
451,
463,
459,
488,
452,
427,
460,
409,
397,
448,
406,
446,
448,
443,
409,
412,
429,
403,
406,
421,
393,
427,
437,
373,
371,
385,
397,
350,
377,
399,
335,
376,
360,
374,
380,
354,
358,
370,
336,
352,
336,
319,
323,
327,
343,
327,
317,
288,
331,
306,
317,
292,
317,
298,
315,
302,
306,
302,
290,
286,
257,
292,
310,
264,
275,
289,
279,
269,
266,
268,
269,
247,
261,
269,
236,
244,
253,
255,
250,
232,
237,
216,
229,
246,
215,
236,
201,
254,
219,
215,
217,
237,
218,
223,
222,
218,
210,
224,
206,
197,
192,
207,
187,
189,
190,
178,
182,
179,
187,
209,
193,
197,
189,
194,
195,
167,
183,
192,
171,
160,
169,
166,
139,
185,
138,
148,
138,
158,
136,
141,
147,
151,
155,
156,
146,
125,
161,
142,
148,
127,
119,
138,
122,
119,
97,
129,
115,
105,
112,
126,
139,
116,
132,
135,
114,
97,
118,
80,
104,
101,
106,
93,
103,
99,
107,
111,
110,
83,
95,
99,
82,
95,
75,
73,
93,
80,
65,
78,
80,
90,
96,
82,
80,
70,
76,
73,
75,
78,
77,
67,
81,
81,
66,
68,
77,
56,
72,
61,
56,
74,
60,
67,
53,
77,
60,
64,
58,
46,
62,
47,
57,
60,
40,
56,
58,
37,
50,
33,
51,
55,
43,
49,
48,
44,
47,
38,
44,
40,
42,
43,
32,
38,
30,
37,
39,
48,
34,
43,
44,
37,
35,
35,
27,
25,
33,
35,
37,
28,
27,
26,
29,
19,
32,
35,
38,
27,
22,
35,
30,
31,
27,
29,
31,
16,
35,
33,
20,
20,
21,
22,
17,
23,
15,
24,
20,
19,
24,
22,
17,
12,
21,
21,
15,
15,
16,
19,
11,
16,
25,
16,
13,
13,
7,
16,
12,
10,
8,
10,
13,
8,
10,
8,
10,
12,
9,
12,
10,
16,
14,
15,
6,
8,
7,
10,
6,
11,
7,
6,
5,
5,
4,
4,
6,
5,
3,
7,
6,
0,
2,
1,
5,
2,
4,
0,
0,
3,
3,
0,
2,
1,
0,
2,
0,
2,
0,
1,
0,
0,
0,
0,
1,
0,
1,
0,
1,
0,
0,
1,
0,
0,
0,
2,
0,
1,
0,
0,
0,
0,
0,
0,
0,
0,
0,
0,
0,
0,
0,
0,
0,
0,
0,
0,
0,
0,
0,
0,
0,
2,
0,
0,
1,
1,
0,
0,
0,
0,
0,
0,
0,
0,
1,
0,
0,
0,
0,
1,
0,
0,
0,
0,
1,
0,
0,
0,
0,
0,
0,
0,
0,
0,
0,
0,
0,
0,
0,
0,
0,
0,
0,
0,
0,
0,
0,
1,
0,
0,
0,
0,
0,
0,
0,
0,
0,
0,
0,
0,
0,
0,
0,
0,
0,
0,
0,
0,
0,
0,
0,
0,
0,
0,
0,
0,
0,
0,
0,
0,
0,
0,
0,
0,
0,
0,
0,
0,
0,
0,
0,
0,
0,
0,
0,
0,
0,
0,
0,
0,
0,
0,
0,
0,
0,
0,
0,
0,
0,
0,
0,
0,
0,
0,
0,
0,
0,
0,
0,
0,
0,
0,
0,
0,
0,
0,
0,
0,
1,
0,
0,
0,
0,
0,
0,
0,
0,
0,
0,
0,
0,
0,
0,
0,
0,
0,
0,
0,
0,
0,
0,
0,
0,
0,
0,
0,
0,
1,
0,
0,
0,
0,
0,
0,
0,
0,
0,
0,
0,
0,
0,
0,
0,
0,
0,
0,
0,
0,
0,
0,
0,
0,
0,
0,
0,
0,
0,
0,
0,
0,
0,
0,
0,
0,
0,
0,
0,
0,
0,
0,
0,
0,
0,
0,
0,
0,
0,
0,
0,
0,
0,
0,
0,
0,
0,
0,
0,
0,
0,
0,
0,
0,
0,
0,
0,
1,
0,
0,
0,
0,
0,
0,
0,
0,
0,
0,
0,
0,
0,
0,
0,
0,
0,
0,
0,
0,
0,
0,
0,
0,
0,
0,
0,
0,
0,
0,
0,
0,
0,
0,
0,
0,
0,
0,
0,
0,
0,
0,
0,
0,
0,
0,
0,
0,
0,
0,
0,
0,
0,
0,
0,
0,
0,
0,
0,
0,
0,
0,
0,
0,
0,
0,
0,
0,
0,
0,
0,
0,
0,
0,
0,
0,
0,
0,
0,
0,
0,
0,
0,
0,
0,
0,
0,
0,
0,
0,
0,
0,
0,
0,
0,
0,
0,
0,
0,
0,
0,
0,
0,
0,
0,
0,
0,
0,
0,
0,
0,
0,
0,
0,
0,
0,
0,
0,
0,
0,
0,
0,
0,
0,
0,
0,
0,
0,
0,
0,
0,
0,
0,
0,
0,
0,
0,
0,
0,
0,
0,
0,
0,
0,
0,
0,
0,
0,
0,
0,
0,
0,
0,
0,
0,
0,
0,
0,
0,
0,
0,
0,
0,
0,
0,
0,
0,
0,
0,
0,
0,
0,
0,
0,
0,
0,
0,
0,
0,
0,
0,
0,
0,
0,
0,
0,
0,
0,
0,
0,
0,
0,
0,
0,
0,
0,
0,
0,
0,
0,
0,
0,
0,
0,
0,
0,
0,
0,
0,
0,
0,
0,
0,
0,
0,
0,
0,
0,
0,
0,
0,
0,
0,
0,
0,
0,
0,
0,
0,
0,
0,
0,
0,
0,
0,
0,
0,
0,
0,
0,
0,
0,
0,
0,
0,
0,
0,
0,
0,
0,
0,
0,
0,
0,
0,
0,
0,
0,
0,
0,
0,
0,
0,
0,
0,
0,
0,
0,
0,
0,
0,
0,
0,
0,
0,
0,
0,
0,
0,
0,
0,
0,
0,
0,
0,
0,
0,
0,
0,
0,
0,
0,
0,
0,
0,
0,
0,
0,
0,
0,
0,
0,
0,
0,
0,
0,
0,
0,
0,
0,
0,
0,
0,
0,
0,
0,
0,
0,
0,
0,
0,
0,
0,
0,
0,
0,
0,
0,
0,
0,
0,
0,
0,
0,
0,
0,
0,
0,
0,
0,
0,
0,
0,
0,
0,
0,
0,
0,
0,
0,
0,
0,
0,
0,
0,
0,
0,
0,
0,
0,
0,
0,
0,
0,
0,
0,
0,
0,
0,
0,
0,
0,
0,
0,
0,
0,
0,
0,
0,
0,
0,
0,
0,
0,
0,
0,
0,
0,
0,
0,
0,
0,
0,
0,
0,
0,
0,
0,
0,
0,
0,
0,
0,
0,
0,
0,
0,
0,
0,
0,
0,
0,
0,
0,
0,
0,
0,
0,
0,
0,
0,
0,
0,
0,
0,
0,
0,
0,
0,
0,
0,
0,
0,
0,
#ENDOFDATA   :