File: N132962/Quantification/MMM1/SPI MM1 Bustamite[2][4].msa
#FORMAT      : EMSA/MAS Spectral Data File
#VERSION     : 1.0
#TITLE       : SPI MM1 Bustamite[2][all]
#DATE        : 11-MAR-2025
#TIME        : 14:05
#OWNER       : Unknown
#NPOINTS     : 4096
#NCOLUMNS    : 1
#XUNITS      : eV
#YUNITS      : counts
#DATATYPE    : Y
#XPERCHAN    : 9.99778
#OFFSET      : 1.69135
#BEAMKV      : 20
#SIGNALTYPE  : EDS
#ELEVANGLE   : 35
#AZIMANGLE   : 0
#LIVETIME    : 239.863
#REALTIME    : 255.724
#PROBECUR    : 1.02902
#TAUWIND     : 0
#TDEADLYR    : 0
#TACTLYR     : 0.045
#TALWIND     : 0.025
#CHOFFSET    : 0.0
#XLABEL      : Energy (eV)
#YLABEL      : Counts
#XPOSITION   : 2.6935
#YPOSITION   : -2.67485
#ZPOSITION   : 30.9284
#EDSDET      : SD
##SPECIMEN   : SPI MM1 Bustamite[2][all]
##D2STDCMP   : Bustamite,(O:38.8357),(Si:22.7243),(Ca:16.2141),(Mn:22.2259),6.0
##DET_HASH   : 12273538-fd48-a23f-0a19-f1e6fa85caef
##CALIB_HASH : 6abaa72c-aa41-8738-0be9-f592914732f3
##WORKING    : 15.0 mm
##DET_NAME   : EDAX All
##DET_MODE   : MediumLE
#SPECTRUM    :
18,
24,
14,
12,
59,
315,
868,
3032,
8444,
12031,
7595,
4105,
3080,
3160,
4830,
15837,
60302,
118127,
88489,
25919,
8952,
10703,
9444,
7365,
5995,
3635,
2363,
2289,
2415,
2486,
2518,
2528,
2838,
3389,
3627,
3551,
3242,
3342,
3387,
3581,
3892,
4438,
4686,
4361,
4133,
4125,
4278,
4467,
4789,
4930,
5065,
5177,
5222,
5385,
6590,
15166,
56636,
143289,
193926,
136896,
56217,
19668,
9488,
5520,
4075,
3890,
3762,
3392,
3245,
3218,
3170,
3211,
3380,
3330,
3569,
3638,
3619,
3569,
3304,
3241,
3227,
3270,
3260,
3219,
3215,
3115,
3118,
3221,
3137,
3143,
3130,
2996,
3045,
3086,
3037,
3046,
2994,
3096,
3004,
2913,
2940,
2870,
2987,
2890,
2897,
2905,
2859,
2869,
2870,
2822,
2793,
2849,
2749,
2727,
2797,
2872,
3035,
3312,
3575,
5500,
12380,
29114,
53553,
66838,
56152,
31998,
13151,
5175,
3064,
2834,
3191,
4363,
6653,
9398,
10183,
8324,
5481,
3464,
2603,
2374,
2232,
2207,
2102,
2011,
2034,
1922,
1989,
1962,
1955,
1963,
1929,
2039,
1915,
1904,
1941,
1885,
1987,
1926,
1891,
1861,
1824,
1868,
1762,
1775,
1797,
1800,
1795,
1789,
1837,
1738,
1689,
1731,
1629,
1713,
1621,
1659,
1708,
1693,
1722,
1757,
1722,
1748,
1763,
1647,
1633,
1638,
1628,
1640,
1604,
1656,
1831,
2192,
3962,
8391,
17877,
30596,
39836,
39951,
29683,
17390,
8182,
3488,
1903,
1548,
1393,
1440,
1335,
1431,
1698,
2558,
4196,
7408,
11244,
14213,
14680,
13113,
10550,
7490,
5168,
3209,
1996,
1403,
1198,
1152,
1116,
1130,
1144,
1123,
1076,
1204,
1257,
1321,
1556,
1915,
2296,
2428,
2456,
1899,
1593,
1298,
1122,
1031,
997,
1024,
940,
999,
980,
971,
1060,
1009,
1023,
984,
924,
998,
1003,
1075,
930,
967,
940,
877,
873,
874,
881,
873,
835,
902,
828,
840,
827,
842,
874,
816,
845,
835,
800,
807,
842,
743,
777,
792,
741,
744,
773,
791,
776,
779,
896,
938,
892,
886,
828,
759,
778,
721,
706,
690,
726,
693,
641,
715,
667,
676,
638,
665,
651,
672,
668,
655,
625,
663,
644,
588,
685,
619,
572,
645,
635,
622,
598,
683,
612,
639,
611,
556,
550,
538,
592,
601,
581,
575,
584,
561,
579,
497,
515,
543,
490,
560,
502,
515,
496,
536,
490,
492,
484,
469,
468,
474,
494,
480,
484,
496,
456,
430,
436,
473,
434,
462,
476,
452,
478,
393,
443,
418,
417,
437,
423,
423,
406,
408,
382,
389,
399,
369,
400,
407,
403,
375,
382,
349,
386,
393,
377,
400,
374,
354,
337,
351,
373,
392,
382,
334,
346,
328,
296,
355,
342,
336,
303,
335,
306,
303,
292,
306,
293,
315,
322,
321,
315,
295,
295,
290,
295,
287,
266,
267,
260,
262,
259,
272,
246,
252,
258,
247,
257,
232,
245,
216,
223,
238,
234,
235,
222,
221,
235,
223,
219,
223,
237,
203,
192,
212,
199,
216,
185,
226,
197,
189,
194,
182,
201,
204,
199,
201,
184,
196,
185,
167,
185,
170,
168,
204,
162,
168,
185,
159,
147,
150,
166,
155,
166,
161,
176,
145,
138,
150,
125,
163,
171,
128,
149,
134,
148,
127,
130,
124,
121,
130,
137,
135,
134,
112,
120,
117,
140,
108,
108,
92,
94,
89,
102,
98,
98,
98,
99,
113,
90,
79,
92,
104,
89,
80,
97,
87,
73,
99,
97,
95,
87,
88,
86,
75,
81,
93,
66,
86,
72,
86,
67,
93,
76,
67,
62,
69,
66,
70,
68,
72,
72,
56,
72,
46,
57,
58,
62,
62,
66,
74,
63,
54,
59,
46,
51,
50,
59,
49,
47,
53,
58,
42,
59,
37,
37,
56,
56,
44,
46,
44,
38,
47,
41,
48,
37,
33,
28,
38,
40,
25,
37,
36,
33,
33,
37,
35,
37,
27,
32,
32,
21,
24,
29,
27,
29,
19,
25,
20,
28,
22,
25,
15,
25,
26,
21,
24,
17,
27,
19,
21,
19,
21,
20,
20,
29,
17,
19,
25,
16,
5,
21,
20,
15,
21,
13,
13,
15,
8,
16,
8,
15,
16,
10,
10,
9,
6,
7,
10,
10,
12,
6,
9,
8,
12,
7,
4,
10,
6,
8,
4,
7,
9,
4,
3,
6,
7,
7,
4,
3,
3,
3,
6,
4,
1,
1,
0,
1,
0,
0,
0,
0,
0,
1,
0,
1,
1,
1,
0,
0,
1,
1,
1,
0,
0,
0,
0,
1,
0,
0,
1,
0,
0,
1,
0,
0,
2,
0,
0,
1,
0,
0,
0,
1,
0,
0,
0,
0,
0,
1,
0,
0,
0,
0,
0,
0,
0,
0,
0,
0,
1,
0,
0,
1,
1,
0,
0,
1,
1,
0,
1,
1,
0,
1,
0,
0,
0,
0,
0,
1,
0,
0,
0,
0,
0,
0,
0,
0,
0,
1,
1,
0,
0,
0,
0,
0,
0,
0,
0,
0,
0,
0,
0,
0,
0,
0,
0,
0,
1,
0,
0,
0,
0,
0,
0,
0,
0,
0,
0,
0,
0,
0,
0,
0,
0,
0,
0,
0,
0,
0,
0,
1,
0,
0,
0,
0,
0,
0,
0,
0,
0,
0,
0,
0,
0,
0,
0,
0,
0,
0,
0,
0,
0,
0,
0,
0,
1,
0,
0,
0,
1,
0,
0,
0,
0,
0,
0,
0,
0,
0,
0,
0,
0,
0,
0,
0,
0,
0,
0,
0,
0,
0,
0,
0,
0,
0,
0,
0,
0,
0,
0,
0,
0,
0,
0,
0,
0,
0,
0,
0,
0,
0,
0,
0,
0,
0,
0,
0,
0,
0,
0,
0,
0,
0,
0,
0,
0,
1,
0,
0,
0,
0,
0,
0,
0,
0,
0,
0,
0,
0,
0,
0,
0,
0,
0,
1,
0,
0,
0,
0,
0,
0,
0,
0,
0,
0,
1,
0,
0,
0,
0,
0,
0,
0,
0,
0,
0,
0,
0,
0,
0,
0,
0,
0,
0,
0,
0,
0,
0,
0,
0,
0,
0,
0,
0,
0,
0,
0,
0,
0,
0,
0,
0,
0,
0,
0,
0,
0,
0,
0,
0,
0,
0,
0,
0,
0,
0,
0,
0,
0,
0,
0,
0,
0,
0,
0,
0,
0,
0,
0,
0,
0,
0,
0,
0,
0,
0,
0,
0,
0,
0,
0,
0,
0,
0,
0,
0,
0,
0,
0,
0,
0,
0,
0,
0,
0,
0,
0,
0,
0,
0,
0,
0,
0,
0,
0,
0,
0,
0,
0,
0,
0,
0,
0,
0,
0,
0,
0,
0,
0,
0,
0,
0,
0,
0,
0,
0,
0,
0,
0,
0,
0,
0,
0,
0,
0,
0,
0,
0,
0,
0,
0,
0,
0,
0,
0,
0,
0,
0,
0,
0,
0,
0,
0,
0,
0,
0,
0,
0,
0,
0,
0,
0,
0,
0,
0,
0,
0,
0,
0,
0,
0,
0,
0,
0,
0,
0,
0,
0,
0,
0,
0,
0,
0,
0,
0,
0,
0,
0,
0,
0,
0,
0,
0,
0,
0,
0,
0,
0,
0,
0,
0,
0,
0,
0,
0,
0,
0,
0,
0,
0,
0,
0,
0,
0,
0,
0,
0,
0,
0,
0,
0,
0,
0,
0,
0,
0,
0,
0,
0,
0,
0,
0,
0,
0,
0,
0,
0,
0,
0,
0,
0,
0,
0,
0,
0,
0,
0,
0,
0,
0,
0,
0,
0,
0,
0,
0,
0,
0,
0,
0,
0,
0,
0,
0,
0,
0,
0,
0,
0,
0,
0,
0,
0,
0,
0,
0,
0,
0,
0,
0,
0,
0,
0,
0,
0,
0,
0,
0,
0,
0,
0,
0,
0,
0,
0,
0,
0,
0,
0,
0,
0,
0,
0,
0,
0,
0,
0,
0,
0,
0,
0,
0,
0,
0,
0,
0,
0,
0,
0,
0,
0,
0,
0,
0,
0,
0,
0,
0,
0,
0,
0,
0,
0,
0,
0,
0,
0,
0,
0,
0,
0,
0,
0,
0,
0,
0,
0,
0,
0,
0,
0,
0,
0,
0,
0,
0,
0,
0,
0,
0,
0,
0,
0,
0,
0,
0,
0,
0,
0,
0,
0,
0,
0,
0,
0,
0,
0,
0,
0,
0,
0,
0,
0,
0,
0,
0,
0,
0,
0,
0,
0,
0,
0,
0,
0,
0,
0,
0,
0,
0,
0,
0,
0,
0,
0,
0,
0,
0,
0,
0,
0,
0,
0,
0,
0,
0,
0,
0,
0,
0,
0,
0,
0,
0,
0,
0,
0,
0,
0,
0,
0,
0,
0,
0,
0,
0,
0,
0,
0,
0,
0,
0,
0,
0,
0,
0,
0,
0,
0,
0,
0,
0,
0,
0,
0,
0,
0,
0,
0,
0,
0,
0,
0,
0,
0,
0,
0,
0,
#ENDOFDATA   :