File: N132962/Quantification/MMM1/SPI MM1 Fluorapatite[5][4].msa
#FORMAT      : EMSA/MAS Spectral Data File
#VERSION     : 1.0
#TITLE       : SPI MM1 Fluorapatite[5][all]
#DATE        : 11-MAR-2025
#TIME        : 14:41
#OWNER       : Unknown
#NPOINTS     : 4096
#NCOLUMNS    : 1
#XUNITS      : eV
#YUNITS      : counts
#DATATYPE    : Y
#XPERCHAN    : 9.99778
#OFFSET      : 1.69135
#BEAMKV      : 20
#SIGNALTYPE  : EDS
#ELEVANGLE   : 35
#AZIMANGLE   : 0
#LIVETIME    : 239.877
#REALTIME    : 255.658
#PROBECUR    : 1.02809
#TAUWIND     : 0
#TDEADLYR    : 0
#TACTLYR     : 0.045
#TALWIND     : 0.025
#CHOFFSET    : 0.0
#XLABEL      : Energy (eV)
#YLABEL      : Counts
#XPOSITION   : -2.63368
#YPOSITION   : 1.85075
#ZPOSITION   : 30.9284
#EDSDET      : SD
##SPECIMEN   : SPI MM1 Fluorapatite[5][all]
##D2STDCMP   : Fluorapatite,(O:35.868),(F:3.5492),(P:23.146),(Ca:37.4368)
##DET_HASH   : 12273538-fd48-a23f-0a19-f1e6fa85caef
##CALIB_HASH : 6abaa72c-aa41-8738-0be9-f592914732f3
##WORKING    : 15.0 mm
##DET_NAME   : EDAX All
##DET_MODE   : MediumLE
#SPECTRUM    :
18,
30,
15,
26,
89,
357,
1060,
3398,
11299,
18810,
13503,
6455,
3504,
2633,
3087,
8258,
30233,
59614,
44398,
12542,
3396,
4581,
8124,
7547,
3980,
2418,
2257,
2558,
2826,
2972,
2984,
3036,
3159,
3551,
4279,
4475,
4070,
3795,
3809,
3881,
4064,
4115,
4306,
4273,
4517,
4520,
4699,
4890,
4826,
4956,
5103,
5187,
5126,
5017,
5023,
5235,
5487,
6277,
6849,
7403,
7663,
7228,
7603,
10237,
19732,
47812,
101730,
139390,
109082,
50037,
18926,
11623,
8983,
6211,
4440,
4307,
4773,
5057,
4432,
3864,
3307,
3342,
3309,
3351,
3365,
3303,
3184,
3157,
3172,
3077,
3054,
3115,
3107,
3082,
3014,
3061,
3052,
3031,
2926,
2990,
3051,
3010,
2923,
2921,
3004,
2946,
2957,
2960,
2963,
2901,
2861,
2724,
2718,
2769,
2799,
2778,
3204,
3818,
5229,
10431,
29579,
76778,
144978,
182155,
153880,
86372,
33349,
10319,
4188,
3494,
4445,
7887,
14402,
21414,
24359,
19159,
11007,
5311,
2624,
1996,
1901,
1846,
1865,
1795,
1760,
1752,
1754,
1718,
1679,
1751,
1690,
1659,
1692,
1739,
1818,
1729,
1755,
1705,
1765,
1772,
1831,
1926,
1888,
1701,
1760,
1647,
1623,
1593,
1709,
1602,
1619,
1539,
1614,
1639,
1769,
1758,
1667,
1612,
1509,
1517,
1569,
1490,
1434,
1455,
1465,
1449,
1487,
1501,
1635,
1689,
1705,
1696,
1529,
1507,
1361,
1386,
1364,
1302,
1370,
1311,
1315,
1316,
1316,
1310,
1269,
1200,
1175,
1213,
1180,
1222,
1307,
1314,
1295,
1272,
1251,
1279,
1142,
1153,
1180,
1133,
1146,
1129,
1166,
1095,
1121,
1039,
1011,
1036,
1028,
1052,
1064,
1024,
1053,
1017,
1055,
1023,
996,
1008,
931,
983,
978,
937,
981,
1013,
1010,
1036,
1135,
1120,
1027,
1007,
991,
925,
911,
932,
930,
885,
901,
867,
903,
907,
873,
865,
878,
804,
828,
844,
851,
806,
758,
782,
820,
821,
750,
777,
753,
797,
810,
749,
754,
738,
776,
698,
750,
709,
741,
756,
753,
671,
726,
675,
661,
703,
653,
713,
666,
656,
637,
666,
625,
642,
653,
642,
651,
616,
587,
664,
618,
669,
591,
610,
605,
583,
602,
582,
564,
549,
539,
607,
567,
570,
578,
518,
555,
501,
523,
542,
532,
512,
527,
555,
566,
530,
535,
474,
524,
485,
523,
510,
463,
484,
465,
503,
476,
451,
466,
458,
464,
470,
447,
452,
477,
457,
396,
436,
421,
456,
415,
449,
458,
441,
415,
436,
356,
386,
410,
404,
373,
372,
415,
391,
398,
367,
390,
367,
379,
354,
362,
346,
364,
347,
361,
330,
333,
342,
326,
340,
324,
326,
333,
301,
317,
309,
314,
329,
315,
307,
300,
319,
325,
308,
296,
278,
292,
285,
282,
305,
299,
253,
298,
271,
258,
255,
256,
248,
266,
255,
264,
265,
234,
265,
255,
231,
250,
212,
232,
244,
237,
215,
245,
221,
239,
200,
215,
201,
240,
199,
223,
202,
216,
205,
242,
187,
191,
194,
199,
182,
211,
187,
178,
190,
173,
186,
176,
188,
180,
171,
174,
189,
187,
150,
171,
150,
183,
159,
138,
149,
158,
166,
141,
157,
161,
188,
163,
142,
153,
136,
149,
154,
147,
146,
138,
117,
131,
118,
115,
133,
140,
128,
114,
120,
116,
115,
112,
110,
124,
109,
99,
127,
129,
106,
108,
100,
85,
91,
87,
91,
105,
84,
104,
81,
98,
86,
77,
84,
102,
97,
83,
85,
77,
63,
66,
72,
73,
59,
91,
85,
61,
71,
75,
69,
66,
60,
71,
67,
60,
69,
66,
74,
48,
70,
67,
74,
62,
57,
56,
73,
56,
53,
41,
63,
58,
43,
43,
49,
45,
49,
54,
52,
45,
43,
46,
41,
37,
43,
36,
30,
39,
38,
37,
28,
42,
32,
43,
31,
33,
24,
40,
28,
35,
29,
26,
32,
27,
22,
28,
35,
21,
26,
21,
30,
29,
23,
24,
33,
28,
28,
32,
21,
27,
23,
25,
20,
21,
17,
25,
24,
12,
16,
24,
18,
10,
8,
11,
10,
18,
19,
17,
14,
13,
15,
9,
14,
11,
8,
11,
14,
16,
8,
7,
5,
11,
10,
7,
13,
8,
9,
9,
6,
5,
8,
9,
5,
6,
1,
6,
2,
4,
6,
0,
4,
5,
7,
4,
6,
3,
3,
3,
4,
3,
6,
0,
1,
1,
2,
0,
1,
2,
1,
2,
1,
2,
0,
1,
0,
0,
0,
0,
1,
1,
1,
0,
0,
0,
0,
0,
0,
1,
2,
0,
0,
0,
1,
0,
0,
0,
0,
0,
0,
0,
0,
2,
0,
1,
0,
0,
1,
0,
1,
0,
0,
1,
1,
0,
1,
0,
0,
0,
0,
0,
1,
0,
0,
0,
0,
0,
0,
0,
0,
0,
0,
1,
0,
0,
0,
0,
0,
0,
0,
0,
0,
0,
0,
0,
0,
0,
0,
0,
0,
0,
0,
0,
0,
0,
0,
0,
0,
0,
0,
0,
0,
0,
0,
0,
0,
0,
0,
0,
0,
0,
0,
0,
0,
0,
0,
0,
0,
0,
0,
1,
0,
0,
0,
0,
0,
0,
0,
0,
0,
0,
0,
1,
0,
0,
0,
0,
0,
1,
0,
0,
0,
0,
0,
0,
0,
0,
0,
0,
0,
0,
0,
0,
0,
0,
0,
0,
0,
0,
0,
0,
0,
0,
0,
0,
0,
0,
0,
0,
0,
0,
0,
0,
0,
0,
0,
0,
0,
0,
0,
0,
0,
0,
0,
0,
0,
0,
0,
0,
0,
0,
0,
0,
0,
0,
0,
0,
0,
0,
0,
0,
0,
0,
0,
0,
0,
0,
0,
0,
0,
0,
0,
0,
0,
0,
0,
0,
0,
0,
0,
0,
0,
0,
0,
0,
0,
0,
0,
0,
0,
0,
0,
0,
0,
0,
0,
0,
0,
0,
0,
0,
0,
0,
0,
0,
0,
0,
0,
0,
0,
0,
0,
0,
0,
0,
0,
0,
0,
0,
0,
0,
0,
0,
0,
0,
0,
0,
0,
0,
0,
1,
0,
0,
0,
0,
0,
0,
0,
0,
0,
0,
0,
0,
0,
0,
0,
0,
0,
0,
0,
0,
0,
0,
0,
0,
0,
0,
0,
0,
0,
0,
0,
0,
0,
0,
0,
0,
0,
0,
0,
0,
0,
0,
0,
0,
0,
0,
0,
0,
0,
0,
0,
0,
0,
0,
0,
0,
0,
0,
0,
0,
0,
0,
0,
0,
0,
0,
0,
0,
0,
0,
0,
0,
0,
0,
0,
0,
0,
0,
0,
0,
0,
0,
0,
0,
0,
0,
0,
0,
0,
0,
0,
0,
0,
0,
0,
0,
0,
0,
0,
0,
0,
0,
0,
0,
0,
0,
0,
0,
0,
0,
0,
0,
0,
0,
0,
0,
0,
0,
0,
0,
0,
0,
0,
0,
0,
0,
0,
0,
0,
0,
0,
0,
0,
0,
0,
0,
0,
0,
0,
0,
0,
0,
0,
0,
0,
0,
0,
0,
0,
0,
0,
0,
0,
0,
0,
0,
0,
0,
0,
0,
0,
0,
0,
0,
0,
0,
0,
0,
0,
0,
0,
0,
0,
0,
0,
0,
0,
0,
0,
0,
0,
0,
0,
0,
0,
0,
0,
0,
0,
0,
0,
0,
0,
0,
0,
0,
0,
0,
0,
0,
0,
0,
0,
0,
0,
0,
0,
0,
0,
0,
0,
0,
0,
0,
0,
0,
0,
0,
0,
0,
0,
0,
0,
0,
0,
0,
0,
0,
0,
0,
0,
0,
0,
0,
0,
0,
0,
0,
0,
0,
0,
0,
0,
0,
0,
0,
0,
0,
0,
0,
0,
0,
0,
0,
0,
0,
0,
0,
0,
0,
0,
0,
0,
0,
0,
0,
0,
0,
0,
0,
0,
0,
0,
0,
0,
0,
0,
0,
0,
0,
0,
0,
0,
0,
0,
0,
0,
0,
0,
0,
0,
0,
0,
0,
0,
0,
0,
0,
0,
0,
0,
0,
0,
0,
0,
0,
0,
0,
0,
0,
0,
0,
0,
0,
0,
0,
0,
0,
0,
0,
0,
0,
0,
0,
0,
0,
0,
0,
0,
0,
0,
0,
0,
0,
0,
0,
0,
0,
0,
0,
0,
0,
0,
0,
0,
0,
0,
0,
0,
0,
0,
0,
0,
0,
0,
0,
0,
0,
0,
0,
0,
0,
0,
0,
0,
0,
0,
0,
0,
0,
0,
0,
0,
0,
0,
0,
0,
0,
0,
0,
0,
0,
0,
0,
0,
0,
0,
0,
0,
0,
0,
0,
0,
0,
0,
0,
0,
0,
0,
0,
0,
0,
0,
0,
0,
0,
0,
0,
0,
0,
0,
0,
0,
0,
0,
0,
0,
0,
0,
0,
0,
0,
0,
0,
0,
0,
0,
0,
0,
0,
0,
0,
0,
0,
0,
0,
0,
#ENDOFDATA   :