File: N132962/Quantification/MMM1/SPI MM1 Benitoite[6][4].msa
#FORMAT      : EMSA/MAS Spectral Data File
#VERSION     : 1.0
#TITLE       : SPI MM1 Benitoite[6][all]
#DATE        : 11-MAR-2025
#TIME        : 13:23
#OWNER       : Unknown
#NPOINTS     : 4096
#NCOLUMNS    : 1
#XUNITS      : eV
#YUNITS      : counts
#DATATYPE    : Y
#XPERCHAN    : 9.99778
#OFFSET      : 1.69135
#BEAMKV      : 20
#SIGNALTYPE  : EDS
#ELEVANGLE   : 35
#AZIMANGLE   : 0
#LIVETIME    : 239.898
#REALTIME    : 256.805
#PROBECUR    : 1.02853
#TAUWIND     : 0
#TDEADLYR    : 0
#TACTLYR     : 0.045
#TALWIND     : 0.025
#CHOFFSET    : 0.0
#XLABEL      : Energy (eV)
#YLABEL      : Counts
#XPOSITION   : -3.34096
#YPOSITION   : -4.90603
#ZPOSITION   : 30.9284
#EDSDET      : SD
##SPECIMEN   : SPI MM1 Benitoite[6][all]
##D2STDCMP   : Benitoite,(O:34.828),(Si:20.3791),(Ti:11.5776),(Ba:33.2153)
##DET_HASH   : 12273538-fd48-a23f-0a19-f1e6fa85caef
##CALIB_HASH : 6abaa72c-aa41-8738-0be9-f592914732f3
##WORKING    : 15.0 mm
##DET_NAME   : EDAX All
##DET_MODE   : MediumLE
#SPECTRUM    :
15,
32,
12,
20,
115,
406,
1232,
3694,
9836,
12846,
7492,
5210,
7155,
9636,
12129,
22979,
67125,
124152,
91408,
27732,
8111,
4566,
3505,
3445,
4251,
5456,
6084,
5328,
3913,
3363,
3449,
3982,
4591,
4817,
4781,
4659,
4297,
3882,
3876,
3839,
3863,
4008,
4147,
4195,
4383,
4510,
4612,
4754,
5073,
5153,
5521,
5418,
5422,
5646,
6600,
13644,
46352,
113976,
154611,
109585,
46168,
17197,
9066,
5502,
4171,
3807,
3879,
3941,
4010,
4074,
4072,
3925,
4233,
4169,
4338,
4321,
4230,
4169,
4249,
3985,
4107,
4094,
4025,
3989,
4012,
4082,
4002,
4097,
4110,
4154,
4369,
4684,
4456,
4348,
4050,
3875,
3954,
3967,
3864,
3864,
3902,
4015,
4047,
3938,
3938,
3911,
3915,
3776,
3705,
3785,
3856,
3646,
3698,
3748,
3811,
3755,
3649,
3821,
3638,
3503,
3433,
3410,
3395,
3418,
3388,
3461,
3334,
3471,
3570,
3584,
4074,
4720,
4876,
4564,
4069,
3550,
3293,
3218,
3137,
3169,
3139,
3261,
3462,
3862,
4835,
7658,
15920,
33661,
57958,
77721,
78516,
60950,
35490,
16438,
7303,
4089,
3584,
4419,
7461,
13430,
20711,
25532,
24378,
21053,
16763,
13246,
9534,
6164,
4594,
4763,
6510,
8700,
9531,
8291,
6066,
4017,
2903,
2488,
2403,
2322,
2396,
2717,
3373,
4274,
4894,
4717,
4094,
3107,
2500,
2173,
2356,
2615,
2837,
3146,
2997,
2669,
2444,
2187,
2055,
2034,
1995,
1930,
1858,
1815,
1818,
1846,
1845,
1936,
1926,
1898,
1875,
1940,
2010,
1976,
2004,
1810,
1785,
1754,
1776,
1666,
1709,
1632,
1626,
1607,
1596,
1560,
1589,
1654,
1648,
1592,
1630,
1595,
1586,
1593,
1636,
1597,
1576,
1498,
1530,
1528,
1498,
1531,
1486,
1451,
1490,
1513,
1451,
1455,
1582,
1588,
1506,
1519,
1502,
1391,
1373,
1382,
1308,
1334,
1347,
1390,
1391,
1306,
1312,
1259,
1295,
1241,
1272,
1274,
1327,
1251,
1256,
1222,
1206,
1246,
1266,
1242,
1315,
1182,
1232,
1206,
1211,
1212,
1136,
1102,
1132,
1184,
1158,
1146,
1167,
1076,
1125,
1156,
1090,
1097,
1169,
1119,
1140,
1106,
1092,
1045,
1113,
1081,
1046,
997,
1042,
1024,
1025,
977,
963,
1005,
993,
1009,
1035,
983,
965,
969,
977,
963,
946,
943,
987,
969,
927,
882,
983,
932,
935,
900,
941,
881,
907,
888,
877,
858,
841,
850,
868,
835,
841,
821,
847,
809,
790,
811,
779,
723,
801,
759,
786,
742,
767,
783,
722,
820,
737,
721,
757,
756,
727,
689,
697,
677,
694,
738,
684,
653,
730,
655,
683,
676,
650,
665,
640,
664,
630,
579,
622,
605,
577,
647,
630,
576,
563,
652,
620,
563,
594,
598,
572,
571,
582,
608,
605,
568,
566,
538,
565,
515,
548,
540,
494,
528,
509,
523,
484,
542,
535,
478,
454,
459,
484,
409,
447,
439,
487,
458,
431,
464,
450,
491,
464,
430,
438,
398,
431,
384,
390,
407,
377,
404,
399,
361,
379,
392,
394,
385,
358,
336,
409,
400,
377,
349,
338,
351,
330,
375,
352,
345,
335,
340,
337,
332,
329,
323,
313,
341,
338,
321,
297,
299,
316,
312,
292,
264,
302,
273,
270,
295,
267,
261,
276,
282,
280,
240,
272,
248,
252,
258,
268,
252,
255,
244,
254,
261,
229,
211,
220,
236,
259,
227,
226,
200,
199,
226,
182,
199,
197,
216,
201,
182,
192,
186,
179,
195,
215,
187,
173,
183,
167,
154,
162,
145,
145,
144,
175,
188,
183,
170,
148,
145,
182,
170,
151,
153,
147,
111,
161,
152,
114,
124,
139,
142,
142,
126,
115,
132,
126,
115,
134,
121,
114,
118,
113,
108,
116,
103,
124,
96,
103,
101,
113,
84,
104,
107,
98,
94,
94,
92,
81,
117,
83,
110,
87,
81,
88,
85,
79,
98,
83,
82,
77,
74,
76,
64,
77,
85,
69,
66,
88,
64,
82,
56,
67,
56,
66,
50,
62,
42,
40,
63,
56,
60,
43,
50,
47,
41,
39,
43,
39,
41,
38,
45,
40,
42,
38,
49,
28,
34,
51,
40,
46,
35,
33,
35,
27,
34,
33,
27,
28,
24,
25,
19,
23,
29,
19,
25,
22,
22,
29,
28,
24,
22,
21,
15,
21,
19,
26,
21,
11,
12,
9,
15,
13,
11,
16,
11,
10,
9,
9,
8,
7,
7,
11,
6,
11,
7,
8,
5,
6,
3,
5,
5,
2,
6,
1,
3,
1,
2,
1,
1,
1,
2,
1,
2,
1,
0,
0,
0,
0,
0,
1,
1,
1,
1,
0,
1,
0,
1,
0,
2,
2,
1,
1,
0,
0,
0,
0,
1,
1,
0,
0,
0,
0,
1,
1,
0,
0,
1,
2,
1,
1,
2,
1,
0,
0,
1,
1,
0,
0,
0,
1,
0,
0,
0,
0,
0,
1,
0,
0,
0,
0,
0,
1,
0,
0,
0,
0,
1,
0,
0,
0,
0,
2,
0,
0,
2,
1,
0,
0,
0,
0,
1,
0,
0,
0,
0,
0,
0,
1,
0,
1,
1,
1,
0,
0,
0,
0,
1,
0,
0,
0,
0,
0,
1,
0,
0,
0,
1,
1,
0,
0,
0,
0,
0,
0,
0,
1,
0,
0,
0,
0,
0,
0,
0,
0,
0,
0,
0,
0,
1,
0,
1,
0,
0,
0,
0,
0,
1,
0,
0,
0,
0,
1,
0,
0,
0,
0,
0,
0,
0,
0,
0,
0,
0,
0,
0,
0,
2,
0,
1,
0,
0,
0,
0,
0,
0,
0,
0,
1,
0,
0,
1,
1,
0,
0,
0,
0,
0,
0,
0,
0,
0,
1,
0,
0,
0,
1,
0,
0,
0,
0,
0,
0,
0,
0,
0,
0,
0,
0,
0,
0,
0,
0,
0,
0,
0,
0,
0,
0,
1,
0,
0,
0,
0,
0,
0,
0,
0,
0,
0,
0,
0,
1,
0,
0,
0,
0,
0,
0,
0,
0,
0,
0,
0,
0,
0,
0,
0,
0,
0,
0,
1,
0,
0,
0,
0,
0,
0,
0,
0,
0,
0,
0,
0,
0,
0,
0,
0,
0,
0,
0,
1,
0,
0,
0,
0,
0,
0,
0,
0,
0,
0,
0,
0,
0,
0,
0,
0,
0,
0,
0,
0,
0,
0,
0,
0,
0,
0,
0,
0,
0,
0,
0,
0,
0,
0,
0,
0,
0,
0,
0,
0,
0,
0,
0,
0,
0,
0,
0,
0,
0,
0,
0,
0,
0,
0,
0,
0,
0,
0,
0,
0,
0,
0,
0,
0,
0,
0,
0,
0,
0,
0,
0,
0,
0,
0,
0,
0,
0,
0,
0,
0,
0,
0,
0,
0,
0,
0,
0,
0,
0,
0,
0,
0,
0,
0,
0,
0,
0,
0,
0,
0,
0,
0,
0,
0,
0,
0,
0,
0,
0,
0,
0,
0,
0,
0,
0,
0,
0,
0,
0,
0,
0,
0,
0,
0,
0,
0,
0,
0,
0,
0,
0,
0,
0,
0,
0,
0,
0,
0,
0,
0,
0,
0,
0,
0,
0,
0,
0,
0,
0,
0,
0,
0,
0,
0,
0,
0,
0,
0,
0,
0,
0,
0,
0,
0,
0,
0,
0,
0,
0,
0,
0,
0,
0,
0,
0,
0,
0,
0,
0,
0,
0,
0,
0,
0,
0,
0,
0,
0,
0,
0,
0,
0,
0,
0,
0,
0,
0,
0,
0,
0,
0,
0,
0,
0,
0,
0,
0,
0,
0,
0,
0,
0,
0,
0,
0,
0,
0,
0,
0,
0,
0,
0,
0,
0,
0,
0,
0,
0,
0,
0,
0,
0,
0,
0,
0,
0,
0,
0,
0,
0,
0,
0,
0,
0,
0,
0,
0,
0,
0,
0,
0,
0,
0,
0,
0,
0,
0,
0,
0,
0,
0,
0,
0,
0,
0,
0,
0,
0,
0,
0,
0,
0,
0,
0,
0,
0,
0,
0,
0,
0,
0,
0,
0,
0,
0,
0,
0,
0,
0,
0,
0,
0,
0,
0,
0,
0,
0,
0,
0,
0,
0,
0,
0,
0,
0,
0,
0,
0,
0,
0,
0,
0,
0,
0,
0,
0,
0,
0,
0,
0,
0,
0,
0,
0,
0,
0,
0,
0,
0,
0,
0,
0,
0,
0,
0,
0,
0,
0,
0,
0,
0,
0,
0,
0,
0,
0,
0,
0,
0,
0,
0,
0,
0,
0,
0,
0,
0,
0,
0,
0,
0,
0,
0,
0,
0,
0,
0,
0,
0,
0,
0,
0,
0,
0,
0,
0,
0,
0,
0,
0,
0,
0,
0,
0,
0,
0,
0,
0,
0,
0,
0,
0,
0,
0,
0,
0,
0,
0,
0,
0,
0,
0,
0,
0,
0,
0,
0,
0,
0,
0,
0,
0,
0,
0,
0,
0,
0,
0,
0,
0,
0,
0,
0,
0,
0,
0,
0,
0,
0,
0,
0,
0,
0,
0,
#ENDOFDATA   :