File: N132962/Quantification/MMM1/SPI MM1 Dolomite[7][4].msa
#FORMAT      : EMSA/MAS Spectral Data File
#VERSION     : 1.0
#TITLE       : SPI MM1dup Dolomite[7][all]
#DATE        : 12-MAR-2025
#TIME        : 15:53
#OWNER       : Unknown
#NPOINTS     : 4096
#NCOLUMNS    : 1
#XUNITS      : eV
#YUNITS      : counts
#DATATYPE    : Y
#XPERCHAN    : 9.99778
#OFFSET      : 1.69135
#BEAMKV      : 20
#SIGNALTYPE  : EDS
#ELEVANGLE   : 35
#AZIMANGLE   : 0
#LIVETIME    : 239.914
#REALTIME    : 250.79
#PROBECUR    : 1.02695
#TAUWIND     : 0
#TDEADLYR    : 0
#TACTLYR     : 0.045
#TALWIND     : 0.025
#CHOFFSET    : 0.0
#XLABEL      : Energy (eV)
#YLABEL      : Counts
#XPOSITION   : -0.11612
#YPOSITION   : 1.98936
#ZPOSITION   : 31.03608
#EDSDET      : SD
##SPECIMEN   : SPI MM1dup Dolomite[7][all]
##DET_HASH   : 12273538-fd48-a23f-0a19-f1e6fa85caef
##CALIB_HASH : 6abaa72c-aa41-8738-0be9-f592914732f3
##WORKING    : 15.0 mm
##DET_NAME   : EDAX All
##DET_MODE   : MediumLE
#SPECTRUM    :
24,
17,
13,
7,
75,
331,
1320,
6292,
21636,
30192,
15427,
5013,
2601,
2291,
3755,
13520,
53972,
105016,
77312,
20788,
2969,
1313,
1373,
1587,
1571,
1650,
1733,
1826,
2071,
2110,
2181,
2264,
2348,
2606,
2841,
2984,
3138,
3460,
4106,
8390,
29532,
71983,
86641,
49108,
15245,
4521,
3018,
2861,
2931,
2994,
3146,
3050,
3138,
3116,
3122,
3193,
3237,
3565,
3705,
3829,
3601,
3447,
3200,
3453,
3742,
4059,
3687,
3155,
2885,
2906,
2922,
2753,
2848,
2866,
2937,
2839,
2880,
2896,
2769,
2810,
2751,
2731,
2720,
2659,
2733,
2638,
2625,
2634,
2650,
2429,
2546,
2459,
2388,
2529,
2405,
2339,
2313,
2361,
2334,
2358,
2331,
2328,
2286,
2285,
2158,
2209,
2252,
2207,
2196,
2202,
2122,
2075,
2062,
2036,
2143,
2111,
2382,
2667,
3467,
6388,
16915,
42768,
80223,
101813,
85954,
48655,
19110,
6107,
2854,
2441,
2993,
4820,
8446,
12339,
13738,
11013,
6722,
3348,
1983,
1602,
1525,
1534,
1442,
1286,
1299,
1319,
1421,
1329,
1405,
1297,
1350,
1359,
1322,
1348,
1193,
1249,
1267,
1200,
1247,
1270,
1208,
1247,
1225,
1323,
1250,
1312,
1240,
1215,
1152,
1248,
1135,
1172,
1128,
1154,
1126,
1119,
1078,
1094,
1092,
1100,
1089,
1068,
1053,
1054,
1009,
1022,
1030,
998,
982,
1017,
977,
1035,
1012,
1003,
1007,
990,
1043,
973,
952,
876,
934,
878,
877,
852,
905,
883,
851,
895,
865,
903,
909,
946,
1033,
1094,
1058,
1022,
919,
890,
830,
779,
804,
797,
757,
763,
794,
736,
787,
743,
755,
793,
709,
703,
724,
750,
784,
708,
759,
728,
676,
707,
686,
670,
716,
680,
724,
694,
732,
717,
718,
676,
726,
670,
636,
671,
626,
654,
626,
597,
580,
581,
587,
589,
583,
618,
530,
584,
568,
526,
568,
519,
544,
603,
530,
538,
545,
572,
544,
550,
492,
540,
511,
470,
537,
490,
485,
501,
465,
513,
466,
489,
514,
467,
467,
466,
429,
467,
430,
463,
448,
440,
421,
466,
417,
449,
431,
421,
373,
448,
424,
414,
417,
365,
399,
406,
398,
355,
370,
387,
392,
392,
410,
387,
405,
365,
350,
367,
378,
335,
339,
379,
353,
337,
343,
376,
353,
318,
302,
372,
358,
302,
308,
324,
342,
303,
327,
302,
306,
313,
332,
303,
323,
289,
335,
333,
276,
288,
299,
292,
317,
267,
266,
262,
274,
271,
264,
250,
292,
271,
277,
281,
278,
255,
252,
269,
264,
240,
234,
209,
224,
223,
226,
220,
212,
229,
209,
216,
233,
208,
220,
220,
227,
225,
203,
214,
208,
183,
165,
189,
203,
186,
189,
204,
177,
181,
189,
180,
181,
200,
216,
210,
167,
176,
186,
173,
178,
177,
163,
172,
161,
149,
184,
140,
149,
182,
145,
141,
132,
145,
147,
146,
168,
146,
150,
136,
127,
157,
133,
140,
144,
145,
149,
120,
133,
138,
98,
134,
128,
125,
113,
123,
126,
104,
110,
109,
100,
123,
111,
117,
95,
95,
104,
108,
91,
101,
112,
88,
91,
119,
103,
97,
94,
99,
91,
92,
79,
83,
87,
82,
82,
82,
99,
78,
78,
82,
74,
70,
86,
76,
65,
75,
58,
72,
70,
55,
77,
62,
72,
83,
64,
58,
66,
70,
61,
82,
54,
56,
52,
59,
77,
54,
62,
61,
61,
46,
40,
47,
43,
54,
50,
60,
45,
42,
48,
60,
38,
40,
46,
42,
50,
46,
40,
34,
47,
58,
47,
37,
40,
38,
43,
40,
38,
34,
34,
40,
27,
46,
40,
40,
34,
26,
28,
32,
33,
41,
28,
19,
35,
30,
26,
20,
24,
33,
31,
31,
24,
26,
20,
25,
22,
25,
25,
28,
19,
26,
19,
16,
23,
19,
16,
16,
16,
26,
22,
13,
13,
21,
21,
13,
14,
18,
13,
10,
14,
11,
9,
8,
15,
14,
11,
13,
13,
12,
8,
11,
3,
18,
7,
9,
12,
13,
11,
11,
19,
12,
7,
10,
9,
10,
5,
10,
8,
9,
7,
8,
6,
4,
5,
6,
4,
9,
4,
5,
5,
1,
5,
10,
4,
5,
6,
5,
8,
2,
5,
4,
3,
2,
2,
3,
6,
1,
2,
1,
2,
4,
2,
0,
2,
3,
1,
0,
1,
0,
0,
0,
3,
0,
0,
1,
0,
0,
0,
0,
0,
0,
0,
1,
0,
2,
1,
0,
0,
0,
0,
0,
0,
0,
0,
0,
0,
0,
1,
0,
0,
0,
0,
0,
0,
0,
1,
0,
0,
0,
0,
0,
0,
0,
0,
0,
0,
0,
0,
0,
1,
0,
0,
0,
0,
0,
0,
0,
1,
0,
0,
0,
0,
1,
0,
0,
0,
0,
0,
0,
0,
1,
1,
0,
0,
0,
0,
1,
0,
0,
0,
0,
0,
0,
0,
0,
0,
0,
0,
0,
1,
0,
0,
0,
0,
0,
0,
0,
0,
0,
0,
0,
0,
0,
0,
0,
0,
0,
0,
0,
0,
1,
0,
0,
0,
0,
0,
0,
0,
0,
0,
0,
0,
0,
0,
0,
0,
0,
0,
0,
0,
0,
0,
0,
0,
0,
0,
0,
0,
0,
0,
0,
0,
0,
0,
0,
0,
0,
0,
0,
0,
0,
0,
0,
0,
0,
0,
0,
0,
0,
0,
0,
0,
0,
0,
0,
0,
0,
0,
0,
0,
0,
0,
0,
0,
0,
0,
0,
0,
0,
0,
0,
0,
0,
0,
1,
0,
0,
0,
0,
0,
0,
0,
0,
0,
0,
0,
0,
0,
0,
0,
0,
0,
0,
0,
0,
0,
0,
0,
0,
0,
0,
0,
0,
0,
0,
0,
0,
0,
0,
0,
0,
0,
0,
0,
0,
0,
0,
0,
0,
0,
0,
0,
0,
0,
0,
0,
0,
0,
0,
0,
0,
0,
0,
0,
0,
0,
0,
0,
0,
0,
0,
0,
0,
0,
0,
0,
0,
0,
0,
0,
0,
0,
0,
0,
0,
0,
0,
0,
0,
0,
0,
0,
0,
0,
0,
0,
0,
0,
0,
0,
0,
0,
0,
0,
0,
0,
0,
0,
0,
0,
0,
0,
0,
0,
0,
0,
0,
0,
0,
0,
0,
0,
0,
0,
0,
0,
0,
0,
0,
0,
0,
0,
0,
0,
0,
0,
0,
0,
0,
0,
0,
0,
0,
0,
0,
0,
0,
0,
0,
0,
0,
0,
0,
0,
0,
0,
0,
0,
0,
0,
0,
0,
0,
0,
0,
0,
0,
0,
0,
0,
0,
0,
0,
0,
0,
0,
0,
0,
0,
0,
0,
0,
0,
0,
0,
0,
0,
0,
0,
0,
0,
0,
0,
0,
0,
0,
0,
0,
0,
0,
0,
0,
0,
0,
0,
0,
0,
0,
0,
0,
0,
0,
0,
0,
0,
0,
0,
0,
0,
0,
0,
0,
0,
0,
0,
0,
0,
0,
0,
0,
0,
0,
0,
0,
0,
0,
0,
0,
0,
0,
0,
0,
0,
0,
0,
0,
0,
0,
0,
0,
0,
0,
0,
0,
0,
0,
0,
0,
0,
0,
0,
0,
0,
0,
0,
0,
0,
0,
0,
0,
0,
0,
0,
0,
0,
0,
0,
0,
0,
0,
0,
0,
0,
0,
0,
0,
0,
0,
0,
0,
0,
0,
0,
0,
0,
0,
0,
0,
0,
0,
0,
0,
0,
0,
0,
0,
0,
0,
0,
0,
0,
0,
0,
0,
0,
0,
0,
0,
0,
0,
0,
0,
0,
0,
0,
0,
0,
0,
0,
0,
0,
0,
0,
0,
0,
0,
0,
0,
0,
0,
0,
0,
0,
0,
0,
0,
0,
0,
0,
0,
0,
0,
0,
0,
0,
0,
0,
0,
0,
0,
0,
0,
0,
0,
0,
0,
0,
0,
0,
0,
0,
0,
0,
0,
0,
0,
0,
0,
0,
0,
0,
0,
0,
0,
0,
0,
0,
0,
0,
0,
0,
0,
0,
0,
0,
0,
0,
0,
0,
0,
0,
0,
0,
0,
0,
0,
0,
0,
0,
0,
0,
0,
0,
0,
0,
0,
0,
0,
0,
0,
0,
0,
0,
0,
0,
0,
0,
0,
0,
0,
0,
0,
0,
0,
0,
0,
0,
0,
0,
0,
0,
0,
0,
0,
0,
0,
0,
0,
0,
0,
0,
0,
0,
0,
0,
0,
0,
0,
0,
0,
0,
0,
0,
0,
0,
0,
0,
0,
0,
0,
0,
0,
0,
0,
0,
0,
0,
0,
0,
0,
0,
0,
0,
0,
0,
0,
0,
0,
0,
0,
0,
0,
0,
0,
0,
0,
0,
0,
0,
0,
0,
0,
0,
0,
0,
0,
0,
0,
0,
0,
0,
0,
0,
0,
0,
0,
0,
0,
0,
0,
0,
0,
0,
#ENDOFDATA   :