File: N132962/Quantification/MMM1/SPI MM1 Benitoite[2][4].msa
#FORMAT      : EMSA/MAS Spectral Data File
#VERSION     : 1.0
#TITLE       : SPI MM1 Benitoite[2][all]
#DATE        : 11-MAR-2025
#TIME        : 13:18
#OWNER       : Unknown
#NPOINTS     : 4096
#NCOLUMNS    : 1
#XUNITS      : eV
#YUNITS      : counts
#DATATYPE    : Y
#XPERCHAN    : 9.99778
#OFFSET      : 1.69135
#BEAMKV      : 20
#SIGNALTYPE  : EDS
#ELEVANGLE   : 35
#AZIMANGLE   : 0
#LIVETIME    : 239.857
#REALTIME    : 256.75
#PROBECUR    : 1.02699
#TAUWIND     : 0
#TDEADLYR    : 0
#TACTLYR     : 0.045
#TALWIND     : 0.025
#CHOFFSET    : 0.0
#XLABEL      : Energy (eV)
#YLABEL      : Counts
#XPOSITION   : -3.21888
#YPOSITION   : -4.9419
#ZPOSITION   : 30.9284
#EDSDET      : SD
##SPECIMEN   : SPI MM1 Benitoite[2][all]
##D2STDCMP   : Benitoite,(O:34.828),(Si:20.3791),(Ti:11.5776),(Ba:33.2153)
##DET_HASH   : 12273538-fd48-a23f-0a19-f1e6fa85caef
##CALIB_HASH : 6abaa72c-aa41-8738-0be9-f592914732f3
##WORKING    : 15.0 mm
##DET_NAME   : EDAX All
##DET_MODE   : MediumLE
#SPECTRUM    :
25,
21,
8,
19,
120,
404,
1284,
3705,
9901,
12972,
7526,
5204,
7261,
9783,
12189,
23023,
66611,
123502,
91758,
27604,
8148,
4564,
3345,
3549,
4068,
5397,
6107,
5246,
3977,
3403,
3369,
3827,
4674,
4750,
4588,
4554,
4220,
3949,
3855,
3816,
3828,
4075,
4204,
4281,
4285,
4521,
4661,
4815,
4961,
5314,
5464,
5447,
5427,
5544,
6413,
13510,
46428,
114893,
154875,
109832,
46046,
17183,
9016,
5624,
4226,
3857,
3842,
3939,
3891,
3922,
3865,
4114,
4052,
4150,
4165,
4363,
4201,
4164,
4162,
4046,
4138,
4080,
4156,
4126,
4052,
4082,
4046,
4055,
4220,
4178,
4427,
4584,
4616,
4336,
4092,
3948,
3914,
3828,
3833,
3800,
3815,
3896,
3995,
3993,
4031,
3929,
3838,
3816,
3822,
3767,
3783,
3670,
3745,
3731,
3748,
3701,
3664,
3697,
3665,
3541,
3414,
3520,
3416,
3430,
3403,
3367,
3417,
3448,
3436,
3674,
4195,
4769,
4883,
4462,
4002,
3615,
3210,
3200,
3207,
3080,
3066,
3369,
3444,
4019,
4909,
7601,
15766,
33508,
58069,
78191,
79530,
60814,
35597,
16388,
7153,
4070,
3618,
4448,
7503,
13621,
20741,
25068,
24251,
20754,
17006,
12985,
9399,
6505,
4684,
4731,
6420,
8566,
9635,
8599,
6012,
4078,
2887,
2495,
2312,
2299,
2472,
2671,
3417,
4251,
4771,
4773,
3985,
3166,
2399,
2224,
2320,
2696,
2957,
3108,
2989,
2645,
2392,
2206,
2085,
2047,
2079,
1929,
1853,
1858,
1859,
1819,
1789,
1849,
1920,
1895,
1947,
1929,
1942,
2002,
2006,
1910,
1818,
1754,
1751,
1738,
1645,
1680,
1657,
1604,
1606,
1599,
1630,
1574,
1618,
1559,
1714,
1551,
1497,
1551,
1528,
1589,
1509,
1513,
1551,
1531,
1561,
1495,
1442,
1462,
1451,
1531,
1494,
1498,
1515,
1519,
1528,
1454,
1439,
1443,
1381,
1367,
1371,
1407,
1350,
1307,
1343,
1306,
1324,
1271,
1311,
1346,
1284,
1255,
1241,
1259,
1299,
1261,
1204,
1275,
1274,
1262,
1185,
1219,
1198,
1145,
1162,
1150,
1168,
1198,
1183,
1163,
1165,
1133,
1163,
1097,
1081,
1117,
1094,
1167,
1102,
1094,
1056,
1149,
1082,
1076,
1096,
1023,
1104,
1071,
1057,
1021,
1013,
990,
1083,
1009,
933,
1020,
1036,
1017,
948,
907,
1023,
970,
905,
994,
988,
925,
965,
896,
956,
930,
892,
903,
826,
903,
904,
850,
865,
849,
890,
886,
861,
819,
848,
855,
880,
784,
803,
822,
800,
757,
783,
780,
743,
763,
760,
729,
789,
706,
726,
745,
748,
761,
732,
730,
705,
731,
717,
668,
639,
767,
645,
654,
690,
659,
609,
654,
642,
631,
674,
615,
641,
612,
584,
648,
609,
615,
601,
562,
582,
605,
566,
543,
610,
562,
541,
589,
546,
553,
565,
567,
535,
556,
497,
527,
548,
471,
478,
515,
488,
527,
502,
483,
479,
536,
455,
510,
444,
433,
407,
460,
441,
438,
405,
424,
423,
409,
453,
438,
430,
433,
397,
412,
403,
386,
420,
372,
395,
353,
387,
392,
403,
362,
371,
358,
356,
372,
333,
324,
343,
364,
336,
334,
366,
300,
375,
369,
344,
300,
321,
333,
312,
286,
286,
285,
290,
310,
309,
285,
276,
285,
273,
299,
279,
296,
279,
282,
277,
262,
268,
244,
259,
228,
256,
227,
235,
271,
212,
227,
233,
242,
240,
224,
248,
208,
220,
225,
183,
230,
195,
203,
238,
193,
204,
183,
201,
198,
179,
181,
180,
188,
184,
179,
189,
184,
145,
172,
186,
173,
156,
148,
168,
167,
167,
170,
142,
164,
143,
122,
135,
148,
137,
132,
134,
131,
116,
142,
129,
124,
126,
143,
138,
127,
114,
112,
120,
108,
96,
108,
109,
117,
117,
98,
92,
121,
111,
109,
87,
91,
105,
90,
96,
83,
72,
90,
92,
85,
64,
98,
91,
80,
72,
77,
79,
88,
79,
78,
56,
82,
70,
62,
56,
65,
65,
63,
67,
65,
54,
76,
52,
58,
49,
59,
56,
64,
56,
54,
43,
59,
54,
44,
59,
48,
38,
49,
43,
52,
43,
36,
45,
24,
39,
39,
36,
33,
42,
40,
29,
25,
39,
43,
29,
29,
21,
23,
42,
23,
37,
20,
16,
21,
26,
40,
18,
21,
22,
21,
28,
13,
19,
31,
11,
17,
17,
14,
20,
9,
12,
6,
13,
13,
12,
12,
7,
9,
7,
4,
12,
8,
11,
4,
8,
4,
6,
3,
4,
3,
3,
2,
4,
2,
1,
4,
0,
0,
2,
0,
1,
0,
1,
2,
1,
1,
0,
0,
3,
1,
0,
2,
0,
1,
0,
0,
0,
0,
0,
1,
1,
0,
0,
0,
2,
0,
1,
0,
0,
1,
1,
0,
1,
1,
0,
0,
2,
2,
0,
0,
0,
0,
0,
0,
0,
0,
0,
0,
1,
0,
0,
0,
1,
0,
1,
1,
0,
0,
0,
1,
1,
0,
0,
0,
0,
1,
1,
1,
1,
2,
0,
0,
1,
0,
0,
1,
1,
0,
1,
1,
0,
0,
1,
0,
1,
1,
0,
0,
0,
0,
0,
0,
0,
0,
0,
0,
0,
0,
0,
0,
0,
2,
0,
0,
0,
0,
0,
0,
0,
0,
1,
0,
0,
0,
0,
0,
0,
0,
0,
0,
0,
0,
0,
1,
0,
0,
0,
1,
0,
0,
0,
0,
0,
0,
1,
0,
0,
0,
0,
0,
1,
0,
1,
0,
0,
0,
0,
0,
0,
0,
0,
0,
0,
0,
0,
0,
0,
0,
0,
0,
0,
1,
1,
0,
0,
0,
0,
0,
0,
0,
0,
1,
0,
0,
0,
1,
0,
0,
0,
0,
0,
0,
0,
0,
0,
0,
0,
0,
0,
0,
1,
0,
0,
0,
0,
0,
0,
0,
0,
0,
0,
0,
0,
1,
0,
0,
0,
0,
0,
0,
0,
0,
0,
1,
1,
0,
0,
0,
0,
0,
0,
0,
0,
0,
0,
0,
0,
0,
0,
0,
0,
0,
0,
0,
0,
0,
0,
0,
0,
0,
0,
0,
0,
0,
0,
0,
0,
0,
0,
0,
0,
1,
0,
0,
0,
0,
0,
0,
0,
0,
0,
0,
0,
0,
0,
0,
0,
0,
0,
0,
0,
0,
0,
0,
0,
0,
0,
0,
0,
0,
0,
0,
0,
0,
0,
0,
0,
0,
0,
0,
0,
0,
0,
1,
0,
0,
0,
0,
0,
0,
0,
0,
0,
0,
0,
0,
0,
0,
0,
0,
0,
0,
0,
0,
0,
0,
0,
0,
0,
0,
0,
0,
0,
0,
0,
0,
0,
0,
0,
0,
0,
0,
0,
0,
0,
0,
0,
0,
0,
0,
0,
1,
0,
0,
0,
0,
0,
0,
0,
0,
0,
0,
0,
0,
0,
0,
0,
0,
0,
0,
0,
0,
0,
0,
0,
0,
0,
0,
0,
0,
0,
0,
0,
0,
0,
0,
0,
0,
0,
0,
0,
0,
0,
0,
0,
0,
0,
0,
0,
0,
0,
0,
0,
0,
0,
0,
0,
0,
0,
0,
0,
0,
0,
0,
0,
0,
0,
0,
0,
0,
0,
0,
0,
0,
0,
0,
0,
0,
0,
0,
0,
0,
0,
0,
0,
0,
0,
0,
0,
0,
0,
0,
0,
0,
0,
0,
0,
0,
0,
0,
0,
0,
0,
0,
0,
0,
0,
0,
0,
0,
0,
0,
0,
0,
0,
0,
0,
0,
0,
0,
0,
0,
0,
0,
0,
0,
0,
0,
0,
0,
0,
0,
0,
0,
0,
0,
0,
0,
0,
0,
0,
0,
0,
0,
0,
0,
0,
0,
0,
0,
0,
0,
0,
0,
0,
0,
0,
0,
0,
0,
0,
0,
0,
0,
0,
0,
0,
0,
0,
0,
0,
0,
0,
0,
0,
0,
0,
0,
0,
0,
0,
0,
0,
0,
0,
0,
0,
0,
0,
0,
0,
0,
0,
0,
0,
0,
0,
0,
0,
0,
0,
0,
0,
0,
0,
0,
0,
0,
0,
0,
0,
0,
0,
0,
0,
0,
0,
0,
0,
0,
0,
0,
0,
0,
0,
0,
0,
0,
0,
0,
0,
0,
0,
0,
0,
0,
0,
0,
0,
0,
0,
0,
0,
0,
0,
0,
0,
0,
0,
0,
0,
0,
0,
0,
0,
0,
0,
0,
0,
0,
0,
0,
0,
0,
0,
0,
0,
0,
0,
0,
0,
0,
0,
0,
0,
0,
0,
0,
0,
0,
0,
0,
0,
0,
0,
0,
0,
0,
0,
0,
0,
0,
0,
0,
0,
0,
0,
0,
0,
0,
0,
0,
0,
0,
0,
0,
0,
0,
0,
0,
0,
0,
0,
0,
0,
0,
0,
0,
0,
0,
0,
0,
0,
0,
0,
0,
0,
0,
0,
0,
0,
0,
0,
0,
0,
0,
0,
0,
0,
0,
0,
0,
0,
0,
0,
0,
0,
0,
0,
0,
0,
0,
0,
0,
#ENDOFDATA   :