File: N132962/Quantification/MMM1/SPI MM1 Anhydrite[0][4].msa
#FORMAT      : EMSA/MAS Spectral Data File
#VERSION     : 1.0
#TITLE       : SPI MM1 Anhydrite[0][all]
#DATE        : 11-MAR-2025
#TIME        : 13:44
#OWNER       : Unknown
#NPOINTS     : 4096
#NCOLUMNS    : 1
#XUNITS      : eV
#YUNITS      : counts
#DATATYPE    : Y
#XPERCHAN    : 9.99778
#OFFSET      : 1.69135
#BEAMKV      : 20
#SIGNALTYPE  : EDS
#ELEVANGLE   : 35
#AZIMANGLE   : 0
#LIVETIME    : 239.835
#REALTIME    : 255.022
#PROBECUR    : 1.02853
#TAUWIND     : 0
#TDEADLYR    : 0
#TACTLYR     : 0.045
#TALWIND     : 0.025
#CHOFFSET    : 0.0
#XLABEL      : Energy (eV)
#YLABEL      : Counts
#XPOSITION   : 4.93669
#YPOSITION   : -5.04917
#ZPOSITION   : 30.9284
#EDSDET      : SD
##SPECIMEN   : SPI MM1 Anhydrite[0][all]
##D2STDCMP   : Anhydrite,(O:47.0085),(S:23.5529),(Ca:29.4387),5.0
##DET_HASH   : 12273538-fd48-a23f-0a19-f1e6fa85caef
##CALIB_HASH : 6abaa72c-aa41-8738-0be9-f592914732f3
##WORKING    : 15.0 mm
##DET_NAME   : EDAX All
##DET_MODE   : MediumLE
#SPECTRUM    :
29,
33,
6,
47,
329,
828,
1222,
2717,
8141,
12360,
8420,
4582,
2920,
2429,
3261,
10294,
39726,
78109,
59933,
19336,
4511,
1986,
1776,
2151,
2402,
2319,
2340,
2575,
2603,
2637,
2644,
2738,
2923,
3032,
3139,
3390,
3433,
3503,
3697,
3780,
3865,
4011,
4086,
4222,
4278,
4346,
4411,
4546,
4587,
4820,
4898,
4779,
4621,
4758,
4720,
4854,
4925,
5247,
5932,
6755,
7277,
7029,
6042,
5823,
6044,
5976,
5534,
4786,
4514,
4503,
4554,
4851,
6513,
10475,
25118,
68570,
142483,
181599,
135389,
60210,
20439,
13156,
13655,
11203,
7039,
4113,
3034,
2800,
2782,
2700,
2612,
2672,
2711,
2848,
2770,
2886,
2628,
2612,
2703,
2712,
2594,
2698,
2541,
2527,
2583,
2596,
2668,
2566,
2609,
2460,
2440,
2485,
2353,
2474,
2425,
2596,
2760,
3242,
4165,
8069,
21814,
55136,
103928,
131825,
111224,
62546,
24194,
8008,
3474,
2924,
3742,
6037,
10790,
16020,
17963,
14216,
8552,
4210,
2370,
1967,
1786,
1742,
1755,
1717,
1658,
1665,
1592,
1660,
1701,
1717,
1620,
1649,
1719,
1761,
1737,
1740,
1666,
1553,
1457,
1588,
1527,
1567,
1520,
1433,
1531,
1504,
1463,
1470,
1476,
1500,
1490,
1442,
1401,
1472,
1446,
1357,
1368,
1376,
1432,
1329,
1375,
1387,
1340,
1322,
1381,
1294,
1276,
1253,
1303,
1266,
1239,
1266,
1238,
1271,
1284,
1311,
1195,
1266,
1271,
1367,
1419,
1397,
1317,
1264,
1188,
1175,
1151,
1172,
1196,
1127,
1165,
1291,
1248,
1244,
1270,
1173,
1111,
1089,
1066,
1043,
1027,
1042,
1072,
1058,
993,
1027,
995,
944,
979,
940,
963,
927,
1029,
948,
946,
940,
920,
896,
892,
942,
937,
881,
904,
904,
920,
955,
920,
997,
959,
936,
909,
849,
829,
806,
849,
855,
828,
784,
813,
794,
777,
779,
799,
806,
739,
739,
701,
754,
786,
811,
728,
765,
725,
699,
724,
716,
695,
695,
692,
687,
681,
664,
643,
699,
610,
696,
657,
633,
676,
692,
648,
654,
666,
617,
618,
622,
584,
647,
568,
586,
616,
596,
612,
547,
525,
609,
602,
601,
579,
550,
574,
549,
533,
550,
556,
543,
493,
509,
535,
535,
531,
466,
526,
535,
459,
494,
498,
504,
421,
514,
485,
479,
466,
476,
453,
457,
465,
467,
415,
458,
476,
447,
474,
464,
483,
402,
483,
418,
390,
390,
434,
425,
449,
395,
409,
396,
389,
405,
372,
390,
415,
438,
425,
372,
395,
378,
354,
357,
319,
378,
335,
355,
333,
365,
331,
321,
315,
344,
358,
297,
332,
325,
317,
346,
321,
262,
321,
286,
320,
337,
307,
311,
301,
300,
305,
295,
297,
281,
259,
282,
290,
270,
280,
270,
268,
267,
276,
268,
222,
264,
232,
261,
243,
272,
276,
251,
202,
225,
225,
248,
247,
202,
245,
215,
212,
221,
238,
214,
228,
204,
189,
212,
192,
174,
183,
204,
206,
193,
175,
185,
168,
190,
174,
186,
188,
187,
182,
173,
158,
159,
159,
151,
163,
166,
146,
144,
158,
161,
149,
157,
135,
150,
143,
147,
149,
148,
168,
151,
125,
159,
167,
150,
150,
138,
132,
141,
127,
114,
110,
112,
124,
116,
116,
119,
120,
112,
102,
119,
113,
93,
110,
95,
107,
99,
88,
113,
96,
92,
82,
106,
90,
93,
78,
100,
95,
95,
101,
88,
103,
98,
83,
86,
78,
81,
99,
80,
79,
67,
73,
76,
62,
83,
81,
71,
80,
75,
83,
76,
74,
74,
58,
64,
68,
53,
65,
62,
53,
46,
56,
45,
48,
58,
47,
44,
52,
45,
60,
56,
47,
43,
35,
49,
46,
51,
48,
50,
41,
43,
40,
47,
57,
35,
28,
31,
39,
38,
38,
35,
40,
32,
35,
35,
39,
37,
26,
43,
32,
32,
33,
30,
23,
26,
25,
36,
31,
31,
20,
26,
24,
24,
24,
32,
26,
24,
24,
23,
19,
21,
22,
24,
14,
22,
21,
12,
22,
14,
12,
15,
25,
20,
18,
11,
15,
10,
14,
12,
11,
13,
12,
8,
14,
10,
14,
5,
11,
16,
3,
17,
9,
8,
8,
6,
8,
11,
8,
6,
11,
11,
11,
10,
2,
5,
2,
6,
5,
5,
2,
6,
5,
9,
7,
5,
3,
5,
1,
3,
6,
1,
1,
1,
2,
0,
5,
0,
1,
0,
1,
0,
0,
0,
0,
1,
0,
0,
0,
0,
0,
0,
0,
1,
0,
1,
1,
0,
0,
0,
0,
0,
0,
0,
0,
0,
0,
0,
0,
0,
0,
0,
0,
0,
1,
0,
0,
0,
0,
0,
0,
0,
0,
0,
0,
0,
0,
0,
0,
0,
0,
0,
0,
0,
1,
0,
0,
0,
0,
0,
0,
0,
1,
1,
0,
0,
0,
0,
0,
1,
0,
0,
0,
0,
0,
0,
0,
0,
0,
0,
1,
0,
0,
0,
1,
0,
0,
0,
0,
0,
0,
0,
1,
0,
0,
0,
0,
0,
0,
0,
0,
0,
0,
0,
0,
1,
0,
0,
0,
0,
1,
0,
0,
0,
0,
0,
0,
0,
0,
0,
0,
0,
0,
0,
0,
0,
0,
0,
0,
0,
0,
0,
0,
0,
0,
0,
0,
0,
0,
0,
0,
0,
1,
0,
0,
0,
0,
0,
0,
0,
0,
0,
0,
1,
0,
0,
0,
1,
1,
0,
0,
0,
0,
0,
0,
0,
0,
0,
0,
0,
1,
0,
0,
0,
0,
0,
0,
1,
0,
0,
0,
0,
0,
0,
0,
0,
0,
0,
0,
0,
0,
0,
0,
0,
1,
0,
0,
0,
0,
0,
0,
0,
0,
0,
0,
0,
0,
0,
0,
0,
0,
0,
0,
0,
0,
0,
0,
0,
0,
0,
0,
0,
0,
0,
0,
0,
0,
0,
0,
0,
0,
0,
0,
0,
0,
0,
0,
0,
0,
0,
0,
0,
0,
0,
0,
0,
0,
0,
0,
0,
0,
0,
0,
0,
0,
0,
1,
0,
0,
0,
0,
0,
0,
0,
0,
0,
0,
0,
0,
0,
0,
0,
0,
0,
0,
0,
0,
0,
0,
0,
0,
0,
0,
0,
0,
0,
0,
0,
0,
0,
0,
0,
0,
0,
0,
0,
0,
0,
0,
0,
0,
0,
0,
0,
0,
0,
0,
0,
0,
0,
0,
0,
0,
0,
0,
0,
0,
0,
0,
0,
0,
0,
0,
0,
0,
0,
0,
0,
0,
0,
0,
0,
0,
0,
0,
0,
0,
0,
0,
0,
0,
0,
0,
0,
0,
0,
0,
0,
0,
0,
0,
0,
0,
0,
0,
0,
0,
0,
0,
0,
0,
0,
0,
0,
0,
0,
0,
0,
0,
0,
0,
0,
0,
0,
0,
0,
0,
0,
0,
0,
0,
0,
0,
0,
0,
0,
0,
0,
0,
0,
0,
0,
0,
0,
0,
0,
0,
0,
0,
0,
0,
0,
0,
0,
0,
0,
0,
0,
0,
0,
0,
0,
0,
0,
0,
0,
0,
0,
0,
0,
0,
0,
0,
0,
0,
0,
0,
0,
0,
0,
0,
0,
0,
0,
0,
0,
0,
0,
0,
0,
0,
0,
0,
0,
0,
0,
0,
0,
0,
0,
0,
0,
0,
0,
0,
0,
0,
0,
0,
0,
0,
0,
0,
0,
0,
0,
0,
0,
0,
0,
0,
0,
0,
0,
0,
0,
0,
0,
0,
0,
0,
0,
0,
0,
0,
0,
0,
0,
0,
0,
0,
0,
0,
0,
0,
0,
0,
0,
0,
0,
0,
0,
0,
0,
0,
0,
0,
0,
0,
0,
0,
0,
0,
0,
0,
0,
0,
0,
0,
0,
0,
0,
0,
0,
0,
0,
0,
0,
0,
0,
0,
0,
0,
0,
0,
0,
0,
0,
0,
0,
0,
0,
0,
0,
0,
0,
0,
0,
0,
0,
0,
0,
0,
0,
0,
0,
0,
0,
0,
0,
0,
0,
0,
0,
0,
0,
0,
0,
0,
0,
0,
0,
0,
0,
0,
0,
0,
0,
0,
0,
0,
0,
0,
0,
0,
0,
0,
0,
0,
0,
0,
0,
0,
0,
0,
0,
0,
0,
0,
0,
0,
0,
0,
0,
0,
0,
0,
0,
0,
0,
0,
0,
0,
0,
0,
0,
0,
0,
0,
0,
0,
0,
0,
0,
0,
0,
0,
0,
0,
0,
0,
0,
0,
0,
0,
0,
0,
0,
0,
0,
0,
0,
0,
0,
0,
0,
0,
0,
0,
0,
0,
0,
0,
0,
0,
0,
0,
0,
0,
0,
0,
0,
0,
0,
0,
0,
0,
0,
0,
0,
0,
0,
0,
0,
0,
0,
0,
0,
0,
0,
0,
0,
0,
0,
0,
0,
0,
0,
0,
0,
0,
0,
0,
0,
0,
0,
0,
0,
0,
0,
#ENDOFDATA   :