File: N132962/Quantification/MMM1/SPI MM1 Albite[3][4].msa
#FORMAT      : EMSA/MAS Spectral Data File
#VERSION     : 1.0
#TITLE       : SPI MM1 Albite[3][all]
#DATE        : 11-MAR-2025
#TIME        : 12:52
#OWNER       : Unknown
#NPOINTS     : 4096
#NCOLUMNS    : 1
#XUNITS      : eV
#YUNITS      : counts
#DATATYPE    : Y
#XPERCHAN    : 9.99778
#OFFSET      : 1.69135
#BEAMKV      : 20
#SIGNALTYPE  : EDS
#ELEVANGLE   : 35
#AZIMANGLE   : 0
#LIVETIME    : 239.854
#REALTIME    : 255.975
#PROBECUR    : 1.02699
#TAUWIND     : 0
#TDEADLYR    : 0
#TACTLYR     : 0.045
#TALWIND     : 0.025
#CHOFFSET    : 0.0
#XLABEL      : Energy (eV)
#YLABEL      : Counts
#XPOSITION   : 3.48227
#YPOSITION   : -7.10068
#ZPOSITION   : 30.9284
#EDSDET      : SD
##SPECIMEN   : SPI MM1 Albite[3][all]
##D2STDCMP   : Albite,(O:48.8112),(Na:8.7674),(Al:10.2897),(Si:32.1316)
##DET_HASH   : 12273538-fd48-a23f-0a19-f1e6fa85caef
##CALIB_HASH : 6abaa72c-aa41-8738-0be9-f592914732f3
##WORKING    : 15.0 mm
##DET_NAME   : EDAX All
##DET_MODE   : MediumLE
#SPECTRUM    :
27,
39,
20,
19,
87,
275,
784,
2396,
6648,
8802,
4741,
2430,
2524,
3403,
6511,
25162,
101612,
197591,
145369,
38986,
4982,
1804,
1850,
2029,
2179,
2234,
2313,
2596,
2747,
2961,
3096,
3771,
6792,
20571,
47162,
53036,
26835,
8043,
3808,
3303,
3385,
3528,
3744,
3905,
4208,
4456,
5661,
13575,
42920,
84221,
85793,
46019,
16485,
7515,
6659,
18877,
73742,
189898,
257553,
183434,
73931,
24249,
10363,
4871,
2659,
2136,
2294,
2216,
2182,
2089,
2044,
2069,
2119,
2294,
2571,
2829,
2827,
2501,
2186,
2255,
2198,
2201,
2198,
2177,
2146,
2114,
2119,
2089,
2028,
2138,
2113,
2144,
2227,
2259,
2158,
2156,
2065,
1957,
2073,
2002,
1986,
1970,
2013,
2031,
2036,
1995,
2116,
2221,
2360,
2471,
2494,
2454,
2354,
2116,
2071,
2147,
2255,
2196,
2037,
1912,
1941,
1957,
2127,
2188,
1961,
1960,
1793,
1714,
1635,
1635,
1599,
1719,
1608,
1655,
1587,
1576,
1657,
1537,
1556,
1525,
1529,
1524,
1551,
1497,
1525,
1513,
1424,
1479,
1440,
1417,
1381,
1407,
1404,
1346,
1374,
1403,
1347,
1334,
1358,
1295,
1352,
1302,
1305,
1275,
1257,
1289,
1286,
1308,
1273,
1183,
1208,
1201,
1188,
1187,
1152,
1186,
1239,
1193,
1138,
1124,
1081,
1113,
1122,
1089,
1078,
1049,
1120,
1063,
1093,
1048,
1016,
1086,
1030,
1038,
1023,
988,
1013,
1020,
1070,
960,
961,
990,
1046,
961,
918,
906,
946,
916,
959,
893,
935,
922,
1007,
1025,
981,
919,
905,
863,
830,
885,
860,
767,
819,
807,
808,
804,
816,
800,
778,
790,
809,
793,
731,
775,
737,
747,
765,
726,
692,
734,
754,
697,
743,
727,
719,
715,
761,
715,
685,
690,
711,
707,
659,
613,
662,
665,
680,
612,
615,
592,
625,
599,
638,
612,
584,
558,
608,
607,
619,
579,
584,
566,
558,
598,
559,
587,
574,
557,
542,
548,
533,
530,
523,
536,
510,
481,
519,
460,
477,
510,
502,
486,
491,
487,
497,
498,
470,
434,
444,
439,
462,
429,
435,
470,
470,
453,
442,
449,
420,
472,
433,
407,
424,
444,
397,
434,
424,
419,
374,
445,
376,
395,
387,
409,
403,
375,
379,
375,
392,
391,
402,
416,
340,
373,
361,
356,
315,
374,
348,
348,
320,
335,
337,
321,
331,
317,
314,
313,
313,
316,
303,
320,
299,
299,
298,
267,
308,
320,
300,
296,
301,
287,
237,
285,
275,
264,
287,
240,
260,
291,
264,
238,
245,
272,
277,
241,
259,
248,
223,
233,
242,
266,
229,
216,
231,
216,
217,
244,
239,
228,
218,
226,
218,
187,
236,
212,
193,
192,
226,
184,
211,
197,
204,
220,
190,
195,
207,
205,
194,
184,
185,
181,
146,
186,
181,
187,
151,
203,
153,
165,
187,
169,
169,
157,
171,
136,
158,
142,
158,
169,
175,
147,
177,
146,
133,
142,
153,
153,
126,
125,
143,
130,
153,
117,
124,
129,
116,
153,
125,
124,
123,
134,
104,
126,
105,
113,
93,
121,
99,
123,
120,
109,
110,
109,
122,
114,
120,
101,
101,
109,
103,
99,
89,
96,
90,
87,
95,
90,
87,
97,
74,
87,
79,
74,
59,
80,
79,
75,
91,
60,
76,
75,
71,
69,
79,
67,
74,
73,
62,
82,
66,
76,
69,
63,
56,
75,
66,
60,
67,
59,
56,
72,
57,
45,
47,
51,
61,
45,
51,
62,
54,
48,
48,
55,
51,
47,
50,
53,
56,
49,
43,
29,
51,
32,
53,
33,
54,
47,
48,
45,
27,
31,
42,
46,
36,
38,
37,
38,
34,
30,
35,
42,
46,
32,
32,
22,
31,
29,
25,
31,
26,
32,
33,
36,
23,
30,
26,
28,
16,
28,
18,
23,
18,
20,
24,
27,
26,
17,
28,
14,
21,
15,
26,
15,
19,
19,
23,
17,
16,
15,
18,
24,
16,
20,
18,
17,
13,
11,
12,
7,
13,
11,
17,
14,
9,
17,
10,
11,
13,
13,
12,
7,
9,
12,
13,
11,
9,
8,
10,
8,
9,
6,
12,
7,
14,
9,
9,
7,
6,
7,
8,
12,
9,
4,
4,
7,
5,
6,
4,
4,
5,
1,
8,
0,
2,
2,
2,
3,
2,
4,
1,
1,
1,
4,
0,
0,
1,
3,
1,
2,
1,
1,
0,
2,
0,
0,
1,
0,
1,
0,
0,
0,
0,
0,
0,
0,
0,
0,
0,
1,
0,
1,
0,
0,
0,
0,
0,
0,
0,
0,
0,
0,
0,
1,
0,
0,
0,
0,
0,
0,
0,
0,
0,
0,
0,
0,
0,
0,
0,
0,
0,
0,
0,
0,
0,
0,
0,
0,
1,
0,
0,
0,
0,
0,
0,
0,
1,
0,
0,
0,
0,
0,
0,
0,
0,
0,
0,
0,
0,
0,
0,
0,
0,
0,
0,
0,
0,
0,
0,
0,
0,
0,
0,
0,
0,
0,
0,
0,
0,
0,
0,
0,
0,
0,
0,
0,
0,
0,
0,
0,
0,
0,
0,
0,
0,
0,
0,
0,
0,
0,
0,
0,
0,
0,
0,
0,
0,
0,
0,
0,
0,
0,
0,
0,
0,
0,
0,
0,
0,
0,
0,
0,
0,
0,
0,
0,
0,
0,
0,
0,
0,
0,
0,
0,
0,
0,
0,
0,
0,
0,
0,
0,
0,
0,
0,
0,
0,
0,
0,
0,
0,
0,
0,
0,
0,
0,
0,
0,
0,
0,
0,
0,
0,
0,
0,
0,
0,
0,
0,
0,
0,
0,
0,
0,
0,
0,
0,
0,
0,
0,
0,
0,
0,
0,
0,
0,
0,
0,
0,
0,
0,
0,
0,
0,
0,
0,
0,
0,
0,
0,
0,
0,
0,
0,
0,
0,
0,
0,
0,
0,
0,
0,
0,
0,
0,
0,
0,
0,
0,
0,
0,
0,
0,
0,
0,
0,
0,
0,
0,
0,
0,
0,
0,
0,
0,
0,
0,
0,
0,
0,
0,
0,
0,
0,
0,
0,
0,
0,
0,
0,
0,
0,
0,
0,
0,
0,
0,
0,
0,
0,
0,
0,
0,
0,
0,
0,
0,
0,
0,
0,
0,
0,
0,
0,
0,
0,
0,
0,
0,
0,
0,
0,
0,
0,
0,
0,
0,
0,
0,
1,
0,
0,
0,
0,
0,
0,
0,
0,
0,
0,
0,
0,
0,
0,
0,
0,
0,
0,
0,
0,
0,
0,
0,
0,
0,
0,
0,
0,
0,
0,
0,
0,
0,
0,
0,
0,
0,
0,
0,
0,
0,
0,
0,
0,
0,
0,
0,
0,
0,
0,
0,
0,
0,
0,
0,
0,
0,
0,
0,
0,
0,
0,
0,
0,
0,
0,
0,
0,
0,
0,
0,
0,
0,
0,
0,
0,
0,
0,
0,
0,
0,
0,
0,
0,
0,
0,
0,
0,
0,
0,
0,
0,
0,
0,
0,
0,
0,
0,
0,
0,
0,
0,
0,
0,
0,
0,
0,
0,
0,
0,
0,
0,
0,
0,
0,
0,
0,
0,
0,
0,
0,
0,
0,
0,
0,
0,
0,
0,
0,
0,
0,
0,
0,
0,
0,
0,
0,
0,
0,
0,
0,
0,
0,
0,
0,
0,
0,
0,
0,
0,
0,
0,
0,
0,
0,
0,
0,
0,
0,
0,
0,
0,
0,
0,
0,
0,
0,
0,
0,
0,
0,
0,
0,
0,
0,
0,
0,
0,
0,
0,
0,
0,
0,
0,
0,
0,
0,
0,
0,
0,
0,
0,
0,
0,
0,
0,
0,
0,
0,
0,
0,
0,
0,
0,
0,
0,
0,
0,
0,
0,
0,
0,
0,
0,
0,
0,
0,
0,
0,
0,
0,
0,
0,
0,
0,
0,
0,
0,
0,
0,
0,
0,
0,
0,
0,
0,
0,
0,
0,
0,
0,
0,
0,
0,
0,
0,
0,
0,
0,
0,
0,
0,
0,
0,
0,
0,
0,
0,
0,
0,
0,
0,
0,
0,
0,
0,
0,
0,
0,
0,
0,
0,
0,
0,
0,
0,
0,
0,
0,
0,
0,
0,
0,
0,
0,
0,
0,
0,
0,
0,
0,
0,
0,
0,
0,
0,
0,
0,
0,
0,
0,
0,
0,
0,
0,
0,
0,
0,
0,
0,
0,
0,
0,
0,
0,
0,
0,
0,
0,
0,
0,
0,
0,
0,
0,
0,
0,
0,
0,
0,
0,
0,
0,
0,
0,
0,
0,
0,
0,
0,
0,
0,
0,
0,
0,
0,
0,
0,
0,
0,
0,
0,
0,
0,
0,
0,
0,
0,
0,
0,
0,
0,
0,
0,
0,
0,
0,
0,
0,
0,
0,
0,
0,
0,
0,
0,
0,
0,
0,
0,
0,
0,
0,
0,
0,
0,
0,
0,
0,
0,
0,
0,
0,
0,
0,
0,
#ENDOFDATA   :