File: N132962/Quantification/MMM1/SPI MM1 Jadeite[1][4].msa
#FORMAT      : EMSA/MAS Spectral Data File
#VERSION     : 1.0
#TITLE       : SPI MM1dup Jadeite[1][all]
#DATE        : 12-MAR-2025
#TIME        : 16:30
#OWNER       : Unknown
#NPOINTS     : 4096
#NCOLUMNS    : 1
#XUNITS      : eV
#YUNITS      : counts
#DATATYPE    : Y
#XPERCHAN    : 9.99778
#OFFSET      : 1.69135
#BEAMKV      : 20
#SIGNALTYPE  : EDS
#ELEVANGLE   : 35
#AZIMANGLE   : 0
#LIVETIME    : 239.778
#REALTIME    : 255.53
#PROBECUR    : 1.02709
#TAUWIND     : 0
#TDEADLYR    : 0
#TACTLYR     : 0.045
#TALWIND     : 0.025
#CHOFFSET    : 0.0
#XLABEL      : Energy (eV)
#YLABEL      : Counts
#XPOSITION   : 0.97132
#YPOSITION   : 4.47306
#ZPOSITION   : 31.03608
#EDSDET      : SD
##SPECIMEN   : SPI MM1dup Jadeite[1][all]
##D2STDCMP   : Jadeite,(O:47.4904),(Na:11.3733),(Al:13.348),(Si:27.7883),5.0
##DET_HASH   : 12273538-fd48-a23f-0a19-f1e6fa85caef
##CALIB_HASH : 6abaa72c-aa41-8738-0be9-f592914732f3
##WORKING    : 15.0 mm
##DET_NAME   : EDAX All
##DET_MODE   : MediumLE
#SPECTRUM    :
30,
20,
9,
9,
71,
279,
778,
2423,
6715,
8642,
4664,
2382,
2619,
3374,
6288,
24615,
100912,
197525,
143974,
37609,
4826,
1803,
1746,
2071,
2165,
2202,
2293,
2458,
2832,
3055,
3381,
4040,
8034,
26225,
61633,
69011,
33949,
9612,
3762,
3369,
3804,
4343,
4904,
4444,
4388,
4444,
5882,
15080,
50489,
102068,
103886,
54571,
18357,
7255,
5882,
14947,
60288,
156221,
213653,
150595,
59880,
20161,
9113,
4290,
2582,
2253,
2335,
2357,
2209,
2214,
2082,
2111,
2090,
2258,
2576,
2529,
2655,
2413,
2309,
2113,
2116,
2126,
2102,
2122,
2115,
2249,
2208,
2128,
2078,
2070,
2068,
2159,
2198,
2223,
2209,
2110,
2044,
2087,
2105,
2000,
2030,
1948,
2040,
1985,
1970,
2010,
2084,
2113,
2187,
2085,
1975,
1966,
1839,
1931,
1890,
2064,
2028,
2048,
1993,
1998,
1943,
2120,
2453,
2666,
2436,
2147,
1816,
1709,
1669,
1648,
1611,
1674,
1749,
1673,
1677,
1597,
1601,
1595,
1495,
1506,
1495,
1443,
1511,
1378,
1432,
1459,
1512,
1469,
1493,
1438,
1406,
1413,
1411,
1389,
1333,
1338,
1356,
1363,
1340,
1316,
1293,
1313,
1270,
1350,
1257,
1311,
1236,
1285,
1191,
1237,
1252,
1252,
1182,
1194,
1199,
1137,
1186,
1186,
1112,
1174,
1159,
1120,
1129,
1095,
1094,
1093,
1058,
1071,
1059,
1055,
1020,
1032,
1022,
954,
1039,
1016,
1010,
995,
938,
970,
950,
979,
924,
981,
950,
907,
916,
944,
885,
880,
975,
1008,
1048,
1042,
1065,
1021,
936,
915,
842,
835,
839,
843,
842,
839,
791,
779,
787,
774,
800,
827,
713,
751,
783,
820,
768,
857,
719,
727,
742,
740,
732,
737,
697,
677,
676,
718,
711,
675,
735,
693,
715,
745,
650,
647,
693,
694,
639,
621,
620,
623,
616,
594,
626,
579,
614,
592,
615,
548,
553,
591,
572,
588,
572,
539,
549,
549,
566,
540,
547,
541,
549,
526,
525,
539,
509,
524,
509,
542,
497,
503,
507,
483,
494,
467,
472,
475,
432,
473,
464,
453,
471,
450,
429,
443,
455,
426,
457,
415,
455,
403,
427,
432,
440,
428,
410,
441,
429,
398,
409,
414,
378,
388,
407,
421,
395,
398,
405,
375,
382,
382,
379,
356,
358,
347,
379,
330,
359,
356,
331,
344,
334,
349,
321,
359,
292,
316,
338,
335,
315,
326,
318,
286,
304,
291,
323,
324,
294,
311,
283,
302,
295,
300,
265,
273,
280,
263,
267,
234,
246,
271,
273,
269,
246,
209,
229,
253,
228,
242,
241,
226,
245,
232,
256,
250,
242,
234,
237,
212,
234,
222,
199,
235,
216,
207,
217,
191,
201,
217,
206,
206,
202,
180,
178,
189,
177,
199,
200,
175,
184,
195,
182,
170,
173,
168,
180,
181,
182,
178,
162,
175,
154,
169,
172,
157,
153,
156,
154,
185,
138,
170,
144,
167,
149,
135,
141,
154,
168,
125,
145,
138,
164,
129,
123,
128,
138,
141,
133,
135,
121,
116,
106,
130,
129,
123,
120,
133,
93,
95,
103,
108,
99,
112,
117,
110,
124,
110,
101,
98,
89,
103,
87,
78,
103,
99,
97,
99,
87,
84,
95,
91,
78,
78,
89,
88,
91,
79,
79,
101,
83,
81,
65,
82,
79,
83,
67,
72,
75,
74,
75,
65,
72,
77,
60,
52,
57,
56,
64,
62,
63,
58,
64,
45,
56,
56,
68,
61,
53,
60,
53,
53,
40,
59,
40,
49,
54,
52,
49,
39,
34,
50,
47,
43,
49,
47,
48,
41,
39,
48,
36,
38,
35,
35,
52,
33,
42,
31,
35,
42,
36,
48,
47,
34,
38,
25,
31,
42,
39,
36,
29,
33,
32,
19,
23,
38,
21,
32,
21,
26,
33,
23,
25,
28,
26,
20,
24,
17,
18,
19,
22,
17,
28,
26,
15,
21,
34,
21,
19,
15,
20,
26,
14,
11,
15,
16,
22,
19,
11,
8,
15,
12,
15,
15,
14,
10,
12,
20,
12,
14,
10,
12,
12,
13,
13,
11,
6,
9,
2,
6,
11,
4,
11,
11,
12,
11,
12,
6,
6,
5,
6,
10,
6,
11,
5,
7,
7,
2,
4,
6,
3,
2,
5,
4,
1,
4,
2,
3,
3,
1,
0,
1,
2,
2,
4,
2,
2,
0,
2,
1,
2,
0,
1,
0,
0,
1,
0,
0,
0,
0,
0,
0,
0,
0,
0,
0,
0,
0,
0,
0,
1,
0,
0,
0,
0,
0,
1,
0,
0,
0,
0,
0,
0,
0,
0,
0,
0,
0,
0,
0,
0,
0,
0,
0,
0,
0,
0,
0,
0,
0,
1,
0,
0,
0,
0,
0,
0,
0,
0,
0,
0,
0,
0,
0,
0,
0,
0,
0,
0,
0,
0,
0,
0,
1,
0,
0,
0,
0,
0,
0,
0,
0,
0,
0,
0,
0,
0,
0,
1,
0,
1,
0,
0,
0,
0,
0,
0,
0,
0,
0,
0,
0,
0,
0,
0,
0,
0,
0,
0,
0,
0,
0,
0,
0,
0,
0,
0,
0,
0,
0,
0,
0,
0,
0,
0,
0,
0,
0,
0,
0,
0,
0,
0,
0,
0,
0,
0,
0,
0,
0,
0,
0,
0,
0,
0,
0,
0,
0,
0,
0,
0,
0,
0,
0,
0,
0,
0,
0,
0,
0,
0,
0,
0,
0,
0,
0,
0,
0,
0,
0,
0,
0,
0,
0,
0,
0,
0,
0,
0,
0,
0,
0,
0,
0,
0,
0,
0,
0,
0,
0,
0,
0,
0,
0,
0,
0,
0,
0,
0,
0,
0,
0,
0,
0,
0,
0,
0,
0,
0,
0,
0,
0,
0,
0,
0,
0,
0,
0,
0,
0,
0,
0,
0,
0,
0,
0,
0,
0,
0,
0,
0,
0,
0,
0,
0,
0,
0,
0,
0,
0,
0,
0,
0,
0,
0,
0,
0,
0,
0,
0,
0,
0,
0,
0,
0,
0,
0,
0,
0,
0,
0,
0,
0,
0,
0,
0,
0,
0,
0,
0,
0,
0,
0,
0,
0,
0,
0,
0,
0,
0,
0,
0,
0,
0,
0,
0,
0,
0,
0,
0,
0,
0,
0,
0,
0,
0,
0,
0,
0,
0,
0,
0,
0,
0,
0,
0,
0,
0,
0,
0,
0,
0,
0,
0,
0,
0,
0,
0,
0,
0,
0,
0,
0,
0,
0,
0,
0,
0,
0,
0,
0,
0,
0,
0,
0,
0,
0,
0,
0,
0,
0,
0,
0,
0,
0,
0,
0,
0,
0,
0,
0,
0,
0,
0,
0,
0,
0,
0,
0,
0,
0,
0,
0,
0,
0,
0,
0,
0,
0,
0,
0,
0,
0,
0,
0,
0,
0,
0,
0,
0,
0,
0,
0,
0,
0,
0,
0,
0,
0,
0,
0,
0,
0,
0,
0,
0,
0,
0,
0,
0,
0,
0,
0,
0,
0,
0,
0,
0,
0,
0,
0,
0,
0,
0,
0,
0,
0,
0,
0,
0,
0,
0,
0,
0,
0,
0,
0,
0,
0,
0,
0,
0,
0,
0,
0,
0,
0,
0,
0,
0,
0,
0,
0,
0,
0,
0,
0,
0,
0,
0,
0,
0,
0,
0,
0,
0,
0,
0,
0,
0,
0,
0,
0,
0,
0,
0,
0,
0,
0,
0,
0,
0,
0,
0,
0,
0,
0,
0,
0,
0,
0,
0,
0,
0,
0,
0,
0,
0,
0,
0,
0,
0,
0,
0,
0,
0,
0,
0,
0,
0,
0,
0,
0,
0,
0,
0,
0,
0,
0,
0,
0,
0,
0,
0,
0,
0,
0,
0,
0,
0,
0,
0,
0,
0,
0,
0,
0,
0,
0,
0,
0,
0,
0,
0,
0,
0,
0,
0,
0,
0,
0,
0,
0,
0,
0,
0,
0,
0,
0,
0,
0,
0,
0,
0,
0,
0,
0,
0,
0,
0,
0,
0,
0,
0,
0,
0,
0,
0,
0,
0,
0,
0,
0,
0,
0,
0,
0,
0,
0,
0,
0,
0,
0,
0,
0,
0,
0,
0,
0,
0,
0,
0,
0,
0,
0,
0,
0,
0,
0,
0,
0,
0,
0,
0,
0,
0,
0,
0,
0,
0,
0,
0,
0,
0,
0,
0,
0,
0,
0,
0,
0,
0,
0,
0,
0,
0,
0,
0,
0,
0,
0,
0,
0,
0,
0,
0,
0,
0,
0,
0,
0,
0,
0,
0,
0,
0,
0,
0,
0,
0,
0,
0,
0,
0,
0,
0,
0,
0,
0,
0,
0,
0,
0,
0,
0,
0,
0,
0,
0,
0,
0,
0,
0,
0,
0,
0,
0,
0,
0,
0,
0,
0,
0,
0,
0,
0,
0,
0,
0,
0,
0,
0,
0,
0,
0,
0,
0,
0,
0,
0,
0,
0,
0,
0,
0,
0,
0,
0,
#ENDOFDATA   :