File: N132962/Quantification/MMM1/SPI MM1 Almandine[6][4].msa
#FORMAT      : EMSA/MAS Spectral Data File
#VERSION     : 1.0
#TITLE       : SPI MM1 Almandine[6][all]
#DATE        : 11-MAR-2025
#TIME        : 13:04
#OWNER       : Unknown
#NPOINTS     : 4096
#NCOLUMNS    : 1
#XUNITS      : eV
#YUNITS      : counts
#DATATYPE    : Y
#XPERCHAN    : 9.99778
#OFFSET      : 1.69135
#BEAMKV      : 20
#SIGNALTYPE  : EDS
#ELEVANGLE   : 35
#AZIMANGLE   : 0
#LIVETIME    : 239.84
#REALTIME    : 255.272
#PROBECUR    : 1.02699
#TAUWIND     : 0
#TDEADLYR    : 0
#TACTLYR     : 0.045
#TALWIND     : 0.025
#CHOFFSET    : 0.0
#XLABEL      : Energy (eV)
#YLABEL      : Counts
#XPOSITION   : 0.35175
#YPOSITION   : -7.84719
#ZPOSITION   : 30.9284
#EDSDET      : SD
##SPECIMEN   : SPI MM1 Almandine[6][all]
##D2STDCMP   : Almandine,(O:38.5719),(Al:10.8416),(Si:16.9275),(Fe:33.6591),4.05
##DET_HASH   : 12273538-fd48-a23f-0a19-f1e6fa85caef
##CALIB_HASH : 6abaa72c-aa41-8738-0be9-f592914732f3
##WORKING    : 15.0 mm
##DET_NAME   : EDAX All
##DET_MODE   : MediumLE
#SPECTRUM    :
30,
28,
6,
16,
76,
277,
885,
2610,
7492,
10134,
5778,
3025,
3052,
3773,
6317,
22810,
91321,
176588,
129277,
34964,
7346,
5360,
8021,
14044,
14061,
6952,
3162,
2499,
2532,
2361,
2540,
2614,
2814,
3074,
3314,
3444,
3373,
3538,
3968,
5795,
15833,
34947,
41993,
24980,
9682,
5250,
5679,
12882,
39952,
80624,
81608,
43212,
15023,
6434,
5290,
10908,
39005,
99084,
134601,
95225,
39085,
14450,
7014,
4243,
3042,
2917,
2997,
2975,
2828,
2781,
2677,
2671,
2702,
2833,
3031,
3118,
3090,
2917,
2737,
2751,
2771,
2855,
2846,
2640,
2780,
2725,
2785,
2731,
2740,
2716,
2688,
2682,
2735,
2712,
2586,
2571,
2609,
2577,
2667,
2637,
2720,
2614,
2599,
2538,
2615,
2566,
2576,
2584,
2653,
2551,
2439,
2316,
2410,
2365,
2363,
2428,
2477,
2548,
2499,
2880,
4312,
7758,
12724,
15580,
13229,
8442,
4413,
2752,
2199,
2269,
2255,
2482,
2975,
3620,
3652,
3321,
2758,
2279,
2084,
2011,
1954,
1942,
1964,
1901,
1877,
1865,
1839,
1939,
1824,
1934,
1940,
1890,
1898,
1883,
1933,
1824,
1948,
1832,
1725,
1734,
1671,
1682,
1645,
1620,
1684,
1598,
1597,
1577,
1590,
1566,
1522,
1588,
1518,
1567,
1502,
1512,
1475,
1563,
1517,
1533,
1509,
1505,
1547,
1419,
1413,
1484,
1445,
1369,
1333,
1393,
1317,
1385,
1368,
1534,
1655,
2053,
2279,
2140,
1968,
1657,
1427,
1293,
1281,
1278,
1286,
1320,
1471,
1515,
2194,
4316,
9595,
18421,
28410,
35387,
32942,
24322,
13867,
6466,
2938,
1621,
1209,
1118,
1087,
1065,
1058,
1122,
1088,
1094,
1180,
1249,
1379,
1729,
2514,
3739,
4758,
5279,
5011,
3596,
2553,
1658,
1127,
944,
869,
816,
875,
854,
872,
889,
833,
892,
944,
865,
893,
875,
855,
839,
889,
799,
796,
810,
828,
806,
772,
810,
749,
749,
724,
765,
751,
784,
692,
778,
791,
802,
764,
753,
695,
687,
723,
649,
691,
668,
683,
687,
661,
657,
700,
677,
686,
651,
654,
673,
628,
680,
630,
631,
652,
606,
600,
581,
594,
589,
544,
597,
568,
568,
615,
613,
537,
581,
555,
579,
548,
581,
539,
492,
556,
552,
512,
516,
511,
518,
501,
489,
476,
507,
489,
522,
478,
499,
487,
474,
454,
480,
492,
419,
468,
469,
503,
471,
451,
422,
442,
470,
453,
405,
391,
410,
379,
432,
428,
405,
412,
406,
382,
380,
378,
373,
388,
377,
385,
360,
400,
333,
350,
375,
358,
370,
351,
364,
383,
322,
364,
380,
322,
345,
352,
314,
334,
346,
339,
322,
343,
318,
313,
327,
320,
337,
327,
296,
300,
289,
303,
297,
313,
264,
325,
291,
238,
269,
270,
270,
285,
267,
270,
252,
240,
242,
248,
257,
240,
249,
250,
240,
229,
253,
228,
233,
229,
224,
235,
236,
243,
230,
207,
250,
192,
221,
236,
199,
241,
189,
210,
168,
194,
175,
171,
191,
193,
160,
169,
193,
186,
184,
184,
199,
187,
183,
176,
174,
183,
161,
159,
157,
155,
136,
135,
156,
176,
160,
170,
154,
132,
159,
142,
155,
149,
149,
139,
164,
148,
131,
138,
138,
129,
135,
133,
120,
134,
105,
128,
110,
114,
100,
118,
135,
129,
112,
117,
132,
112,
98,
119,
128,
109,
105,
93,
108,
110,
88,
92,
91,
107,
86,
79,
105,
81,
91,
80,
83,
67,
79,
93,
61,
87,
79,
90,
65,
75,
72,
57,
76,
74,
69,
75,
73,
67,
62,
56,
56,
64,
64,
61,
60,
52,
63,
66,
57,
54,
52,
51,
53,
73,
39,
58,
56,
60,
46,
43,
42,
48,
32,
45,
41,
37,
45,
40,
47,
38,
35,
45,
36,
45,
34,
42,
42,
39,
35,
26,
38,
45,
34,
39,
33,
32,
33,
28,
22,
28,
23,
30,
37,
27,
26,
23,
23,
26,
32,
34,
23,
15,
35,
28,
23,
26,
18,
21,
21,
23,
21,
16,
23,
18,
32,
18,
13,
15,
15,
21,
19,
14,
17,
12,
14,
18,
13,
17,
20,
11,
12,
12,
12,
5,
11,
13,
15,
9,
12,
8,
15,
4,
12,
10,
6,
7,
5,
8,
8,
11,
4,
2,
8,
9,
4,
2,
3,
3,
4,
2,
9,
0,
4,
2,
5,
7,
5,
0,
1,
0,
1,
1,
2,
1,
0,
0,
1,
2,
1,
2,
1,
0,
0,
1,
0,
0,
0,
0,
1,
0,
1,
1,
0,
0,
0,
1,
3,
0,
0,
0,
0,
0,
0,
0,
0,
0,
0,
0,
0,
0,
2,
0,
0,
0,
0,
0,
0,
0,
0,
0,
0,
0,
0,
0,
1,
0,
0,
0,
0,
0,
0,
0,
0,
0,
0,
0,
0,
0,
0,
0,
1,
0,
0,
0,
0,
0,
1,
0,
0,
0,
0,
0,
2,
0,
0,
0,
0,
0,
0,
1,
0,
0,
1,
0,
0,
0,
0,
0,
0,
0,
0,
0,
0,
0,
0,
0,
0,
0,
0,
0,
0,
0,
0,
0,
0,
0,
0,
0,
0,
0,
0,
0,
0,
0,
0,
0,
0,
0,
0,
0,
0,
0,
0,
0,
0,
0,
0,
0,
0,
0,
0,
0,
0,
0,
0,
0,
0,
0,
0,
0,
0,
0,
0,
0,
0,
0,
0,
0,
0,
0,
0,
0,
0,
0,
0,
0,
0,
0,
0,
0,
0,
0,
0,
0,
1,
1,
0,
0,
0,
0,
0,
0,
0,
0,
0,
0,
0,
0,
0,
0,
1,
0,
0,
0,
0,
0,
0,
0,
0,
0,
0,
0,
0,
0,
1,
0,
0,
0,
0,
0,
0,
0,
0,
0,
0,
0,
0,
0,
0,
0,
0,
0,
0,
0,
0,
0,
0,
0,
0,
0,
0,
0,
0,
0,
0,
0,
0,
0,
0,
0,
0,
0,
0,
0,
0,
0,
0,
1,
0,
0,
0,
0,
0,
0,
0,
0,
0,
0,
0,
0,
0,
0,
0,
0,
0,
0,
0,
0,
0,
0,
0,
0,
0,
0,
0,
0,
0,
0,
0,
0,
0,
0,
0,
0,
0,
0,
0,
0,
0,
0,
0,
0,
0,
0,
0,
0,
0,
0,
0,
0,
0,
0,
0,
0,
0,
0,
0,
0,
0,
0,
0,
0,
0,
0,
0,
0,
0,
0,
0,
0,
0,
0,
0,
0,
0,
0,
0,
0,
0,
0,
0,
0,
0,
0,
0,
0,
0,
0,
0,
0,
0,
0,
0,
0,
0,
0,
0,
0,
0,
0,
0,
0,
0,
0,
0,
0,
0,
0,
0,
0,
0,
0,
0,
0,
0,
0,
0,
0,
0,
0,
0,
0,
0,
0,
0,
0,
0,
0,
0,
0,
0,
0,
0,
0,
0,
0,
0,
0,
0,
0,
0,
0,
0,
0,
0,
0,
0,
0,
0,
0,
0,
0,
0,
0,
0,
0,
0,
0,
0,
0,
0,
0,
0,
0,
0,
0,
0,
0,
0,
0,
0,
0,
0,
0,
0,
0,
0,
0,
0,
0,
0,
0,
0,
0,
0,
0,
0,
0,
0,
0,
1,
0,
0,
0,
0,
0,
0,
0,
0,
0,
0,
0,
0,
0,
0,
0,
0,
0,
0,
0,
0,
0,
0,
0,
0,
0,
0,
0,
0,
0,
0,
0,
0,
0,
0,
0,
0,
0,
0,
0,
0,
0,
0,
0,
0,
0,
0,
0,
0,
0,
0,
0,
0,
0,
0,
0,
0,
0,
0,
0,
0,
0,
0,
0,
0,
0,
0,
0,
0,
0,
0,
0,
0,
0,
0,
0,
0,
0,
0,
0,
0,
0,
0,
0,
0,
0,
0,
0,
0,
0,
0,
0,
0,
0,
0,
0,
0,
0,
0,
0,
0,
0,
0,
0,
0,
0,
0,
0,
0,
0,
0,
0,
0,
0,
0,
0,
0,
0,
0,
0,
0,
0,
0,
0,
0,
0,
0,
0,
0,
0,
0,
0,
0,
0,
0,
0,
0,
0,
0,
0,
0,
0,
0,
0,
0,
0,
0,
0,
0,
0,
0,
0,
0,
0,
0,
0,
0,
0,
0,
0,
0,
0,
0,
0,
0,
0,
0,
0,
0,
0,
0,
0,
0,
0,
0,
0,
0,
0,
0,
0,
0,
0,
0,
0,
0,
0,
0,
0,
0,
0,
0,
0,
0,
0,
0,
0,
0,
0,
0,
0,
0,
0,
0,
0,
0,
0,
0,
0,
0,
0,
0,
0,
0,
0,
0,
0,
0,
0,
0,
0,
0,
0,
0,
0,
0,
0,
0,
0,
0,
0,
0,
0,
0,
0,
0,
0,
0,
0,
0,
0,
0,
0,
0,
0,
0,
0,
0,
0,
0,
0,
0,
0,
0,
0,
0,
0,
0,
0,
0,
0,
0,
0,
0,
0,
0,
0,
0,
#ENDOFDATA   :