File: N132962/Quantification/MMM1/SPI MM1 Kyanite[3][4].msa
#FORMAT      : EMSA/MAS Spectral Data File
#VERSION     : 1.0
#TITLE       : SPI MM1dup Kyanite[3][all]
#DATE        : 12-MAR-2025
#TIME        : 16:14
#OWNER       : Unknown
#NPOINTS     : 4096
#NCOLUMNS    : 1
#XUNITS      : eV
#YUNITS      : counts
#DATATYPE    : Y
#XPERCHAN    : 9.99778
#OFFSET      : 1.69135
#BEAMKV      : 20
#SIGNALTYPE  : EDS
#ELEVANGLE   : 35
#AZIMANGLE   : 0
#LIVETIME    : 239.745
#REALTIME    : 256.557
#PROBECUR    : 1.02709
#TAUWIND     : 0
#TDEADLYR    : 0
#TACTLYR     : 0.045
#TALWIND     : 0.025
#CHOFFSET    : 0.0
#XLABEL      : Energy (eV)
#YLABEL      : Counts
#XPOSITION   : -4.24201
#YPOSITION   : 4.11521
#ZPOSITION   : 31.03608
#EDSDET      : SD
##SPECIMEN   : SPI MM1dup Kyanite[3][all]
##DET_HASH   : 12273538-fd48-a23f-0a19-f1e6fa85caef
##CALIB_HASH : 6abaa72c-aa41-8738-0be9-f592914732f3
##WORKING    : 15.0 mm
##DET_NAME   : EDAX All
##DET_MODE   : MediumLE
#SPECTRUM    :
22,
24,
8,
18,
77,
291,
852,
2311,
6605,
8611,
4717,
2343,
2522,
3457,
6383,
25722,
104240,
204293,
150724,
38637,
4912,
1732,
1797,
2065,
2058,
2034,
2179,
2359,
2533,
2780,
2824,
2907,
3154,
3485,
3833,
3945,
3919,
3909,
3896,
4164,
4379,
4787,
4949,
5278,
5787,
6557,
10581,
37621,
140624,
291773,
296318,
151033,
44583,
11748,
5383,
9014,
32450,
82498,
113647,
79859,
33090,
11416,
5670,
3238,
2375,
2367,
2736,
3083,
2566,
2269,
2223,
2064,
2106,
2201,
2311,
2478,
2338,
2357,
2147,
2081,
2148,
2097,
2041,
2134,
2104,
2197,
2207,
2209,
2166,
2184,
2148,
2135,
2096,
2082,
2108,
2031,
2150,
2256,
2566,
2651,
2606,
2400,
2139,
2048,
1999,
2006,
2206,
2274,
2267,
2229,
2094,
1943,
1854,
1887,
1895,
1889,
1975,
1835,
1770,
1860,
1774,
1736,
1756,
1679,
1748,
1686,
1683,
1681,
1693,
1760,
1611,
1629,
1621,
1586,
1562,
1614,
1548,
1557,
1560,
1527,
1555,
1492,
1497,
1554,
1457,
1501,
1497,
1536,
1476,
1410,
1405,
1405,
1402,
1414,
1387,
1412,
1377,
1309,
1336,
1367,
1340,
1268,
1283,
1271,
1294,
1347,
1259,
1240,
1208,
1218,
1215,
1216,
1179,
1151,
1246,
1135,
1178,
1162,
1159,
1188,
1187,
1217,
1181,
1153,
1102,
1040,
1143,
1059,
1044,
1078,
1067,
1038,
1057,
1031,
1044,
976,
1027,
1037,
969,
989,
958,
992,
962,
922,
991,
983,
941,
1001,
902,
905,
1000,
1019,
1102,
1169,
1196,
1091,
989,
902,
881,
811,
876,
835,
819,
834,
853,
767,
768,
797,
784,
807,
760,
784,
760,
823,
746,
775,
754,
787,
728,
740,
736,
669,
675,
668,
704,
731,
721,
692,
710,
736,
743,
680,
651,
668,
650,
613,
656,
580,
559,
638,
620,
626,
597,
597,
612,
597,
611,
532,
565,
584,
556,
571,
615,
594,
627,
577,
529,
537,
544,
540,
523,
499,
534,
514,
527,
507,
535,
511,
510,
515,
473,
487,
477,
464,
498,
483,
500,
441,
438,
458,
452,
409,
464,
437,
453,
446,
468,
447,
429,
399,
430,
454,
446,
418,
449,
412,
451,
395,
386,
410,
409,
411,
398,
374,
387,
384,
369,
371,
379,
376,
342,
373,
395,
347,
359,
371,
367,
362,
337,
343,
339,
328,
323,
364,
309,
327,
310,
310,
353,
338,
314,
315,
298,
334,
321,
318,
302,
322,
307,
291,
304,
296,
276,
323,
287,
297,
262,
273,
261,
253,
280,
263,
280,
258,
275,
267,
246,
211,
261,
244,
232,
228,
223,
234,
249,
243,
238,
238,
245,
209,
192,
237,
227,
201,
233,
223,
236,
213,
221,
206,
175,
197,
200,
193,
193,
201,
190,
191,
186,
191,
189,
163,
193,
171,
204,
193,
178,
163,
173,
173,
173,
156,
167,
143,
176,
142,
157,
152,
152,
151,
135,
170,
125,
141,
168,
165,
109,
128,
151,
148,
154,
131,
133,
137,
126,
125,
116,
138,
165,
142,
126,
109,
111,
139,
116,
118,
120,
131,
100,
118,
114,
94,
103,
104,
102,
105,
108,
87,
98,
116,
103,
103,
78,
95,
113,
111,
106,
108,
90,
93,
75,
75,
90,
96,
87,
72,
88,
77,
73,
64,
68,
68,
72,
70,
80,
69,
66,
75,
71,
71,
61,
66,
67,
54,
62,
64,
67,
69,
64,
43,
57,
58,
58,
48,
48,
51,
57,
46,
60,
64,
49,
58,
48,
45,
52,
51,
51,
39,
37,
45,
41,
42,
45,
57,
39,
54,
48,
46,
52,
50,
38,
28,
40,
40,
41,
37,
45,
31,
27,
36,
40,
35,
35,
31,
35,
31,
35,
21,
29,
25,
26,
31,
29,
23,
36,
22,
27,
30,
25,
29,
25,
22,
23,
22,
21,
28,
22,
12,
21,
23,
22,
23,
24,
14,
24,
19,
20,
17,
11,
18,
17,
19,
14,
15,
17,
16,
11,
23,
18,
20,
17,
12,
15,
15,
17,
14,
13,
7,
16,
12,
13,
9,
12,
14,
12,
8,
7,
8,
7,
7,
11,
13,
3,
5,
7,
11,
7,
8,
7,
4,
9,
4,
9,
10,
5,
1,
8,
7,
7,
5,
5,
8,
6,
4,
6,
3,
1,
2,
4,
2,
1,
1,
2,
3,
0,
3,
1,
0,
2,
0,
2,
2,
1,
1,
0,
1,
1,
0,
1,
0,
0,
0,
0,
1,
0,
1,
1,
0,
0,
0,
0,
0,
0,
0,
2,
0,
0,
0,
0,
0,
0,
0,
0,
0,
0,
2,
0,
0,
0,
0,
0,
0,
0,
1,
0,
0,
0,
0,
0,
0,
0,
0,
0,
1,
0,
0,
0,
0,
0,
0,
0,
0,
0,
0,
0,
0,
0,
0,
0,
0,
1,
0,
0,
0,
0,
0,
0,
0,
0,
0,
0,
0,
0,
0,
0,
0,
0,
0,
0,
0,
0,
0,
0,
0,
0,
0,
0,
0,
0,
0,
0,
0,
0,
0,
0,
0,
0,
0,
0,
0,
0,
0,
0,
0,
0,
0,
0,
0,
0,
0,
0,
0,
0,
0,
0,
0,
0,
0,
0,
0,
0,
0,
0,
0,
0,
0,
0,
0,
0,
0,
0,
0,
0,
0,
0,
0,
0,
0,
0,
0,
0,
0,
0,
0,
0,
0,
0,
0,
0,
0,
0,
0,
0,
0,
0,
0,
0,
0,
0,
0,
0,
0,
0,
1,
0,
0,
0,
0,
0,
0,
0,
0,
0,
0,
0,
0,
0,
0,
0,
0,
0,
0,
0,
0,
0,
0,
0,
0,
0,
0,
0,
0,
0,
0,
0,
0,
0,
0,
0,
0,
0,
0,
0,
0,
0,
0,
0,
0,
0,
0,
0,
0,
0,
0,
0,
0,
0,
0,
0,
0,
0,
0,
0,
0,
0,
0,
0,
0,
0,
0,
0,
0,
0,
0,
0,
0,
0,
0,
0,
0,
0,
0,
0,
0,
0,
0,
0,
0,
0,
0,
0,
0,
0,
0,
0,
0,
0,
0,
0,
0,
0,
0,
0,
0,
0,
0,
0,
0,
0,
0,
0,
0,
0,
0,
0,
0,
0,
0,
0,
0,
0,
0,
0,
0,
0,
0,
0,
0,
0,
0,
0,
0,
0,
0,
0,
0,
0,
0,
0,
0,
0,
0,
0,
0,
0,
0,
0,
0,
0,
0,
0,
0,
0,
0,
0,
0,
0,
0,
0,
0,
0,
0,
0,
0,
0,
0,
0,
0,
0,
0,
0,
0,
0,
0,
0,
0,
0,
0,
0,
0,
0,
0,
0,
0,
0,
0,
0,
0,
0,
0,
0,
0,
0,
0,
0,
0,
0,
0,
0,
0,
0,
0,
0,
0,
0,
0,
0,
0,
0,
0,
0,
0,
0,
0,
0,
0,
0,
0,
0,
0,
0,
0,
0,
0,
0,
0,
0,
0,
0,
0,
0,
0,
0,
0,
0,
0,
0,
0,
0,
0,
0,
0,
0,
0,
0,
0,
0,
0,
0,
0,
0,
0,
0,
0,
0,
0,
0,
0,
0,
0,
0,
0,
0,
0,
0,
0,
0,
0,
0,
0,
0,
0,
0,
0,
0,
0,
0,
0,
0,
0,
0,
0,
0,
0,
0,
0,
0,
0,
0,
0,
0,
0,
0,
0,
0,
0,
0,
0,
0,
0,
0,
0,
0,
0,
0,
0,
0,
0,
0,
0,
0,
0,
0,
0,
0,
0,
0,
0,
0,
0,
0,
0,
0,
0,
0,
0,
0,
0,
0,
0,
0,
0,
0,
0,
0,
0,
0,
0,
0,
0,
0,
0,
0,
0,
0,
0,
0,
0,
0,
0,
0,
0,
0,
0,
0,
0,
0,
0,
0,
0,
0,
0,
0,
0,
0,
0,
0,
0,
0,
0,
0,
0,
0,
0,
0,
0,
0,
0,
0,
0,
0,
0,
0,
0,
0,
0,
0,
0,
0,
0,
0,
0,
0,
0,
0,
0,
0,
0,
0,
0,
0,
0,
0,
0,
0,
0,
0,
0,
0,
0,
0,
0,
0,
0,
0,
0,
0,
0,
0,
0,
0,
0,
0,
0,
0,
0,
0,
0,
0,
0,
0,
0,
0,
0,
0,
0,
0,
0,
0,
0,
0,
0,
0,
0,
0,
0,
0,
0,
0,
0,
0,
0,
0,
0,
0,
0,
0,
0,
0,
0,
0,
0,
0,
0,
0,
0,
0,
0,
0,
0,
0,
0,
0,
0,
0,
0,
0,
0,
0,
0,
0,
0,
0,
0,
0,
0,
0,
0,
0,
0,
0,
0,
0,
0,
0,
0,
0,
0,
0,
0,
0,
0,
0,
0,
0,
0,
0,
0,
0,
0,
0,
0,
0,
0,
0,
0,
0,
0,
0,
0,
0,
0,
0,
0,
0,
0,
0,
0,
0,
0,
0,
0,
0,
0,
0,
0,
#ENDOFDATA   :