File: N132962/Quantification/MMM1/SPI MM1 Chromite[6][4].msa
#FORMAT      : EMSA/MAS Spectral Data File
#VERSION     : 1.0
#TITLE       : SPI MM1dup Chromite[6][all]
#DATE        : 12-MAR-2025
#TIME        : 14:15
#OWNER       : Unknown
#NPOINTS     : 4096
#NCOLUMNS    : 1
#XUNITS      : eV
#YUNITS      : counts
#DATATYPE    : Y
#XPERCHAN    : 9.99778
#OFFSET      : 1.69135
#BEAMKV      : 20
#SIGNALTYPE  : EDS
#ELEVANGLE   : 35
#AZIMANGLE   : 0
#LIVETIME    : 239.606
#REALTIME    : 255.97
#PROBECUR    : 1.02867
#TAUWIND     : 0
#TDEADLYR    : 0
#TACTLYR     : 0.045
#TALWIND     : 0.025
#CHOFFSET    : 0.0
#XLABEL      : Energy (eV)
#YLABEL      : Counts
#XPOSITION   : 4.20765
#YPOSITION   : -0.19539
#ZPOSITION   : 31.03608
#EDSDET      : SD
##SPECIMEN   : SPI MM1dup Chromite[6][all]
##DET_HASH   : 12273538-fd48-a23f-0a19-f1e6fa85caef
##CALIB_HASH : 6abaa72c-aa41-8738-0be9-f592914732f3
##WORKING    : 15.0 mm
##DET_NAME   : EDAX All
##DET_MODE   : MediumLE
#SPECTRUM    :
12,
30,
11,
19,
98,
339,
1010,
3127,
8432,
10722,
6466,
3804,
4165,
5491,
10538,
36614,
129812,
236354,
171285,
51209,
10947,
4232,
4449,
7031,
6768,
3942,
2336,
2182,
2410,
2478,
2402,
2412,
2713,
2969,
3386,
3394,
3460,
3420,
4041,
6846,
20453,
47869,
58112,
33552,
11459,
5168,
5012,
11353,
35451,
70689,
72264,
37838,
13045,
5495,
3766,
3439,
3621,
3871,
4072,
4069,
3943,
3671,
3518,
3245,
3336,
3494,
3511,
3534,
3508,
3454,
3351,
3416,
3419,
3407,
3318,
3448,
3330,
3401,
3317,
3261,
3313,
3399,
3266,
3363,
3375,
3332,
3459,
3447,
3522,
3307,
3347,
3227,
3174,
3132,
3179,
3163,
3166,
3091,
3135,
3114,
3065,
3068,
3086,
2932,
3051,
2872,
2918,
2894,
2888,
2865,
2860,
2752,
2767,
2753,
2803,
2756,
2715,
2760,
2650,
2839,
2804,
3071,
3097,
3090,
2923,
2695,
2507,
2463,
2547,
2512,
2521,
2445,
2453,
2484,
2463,
2361,
2378,
2433,
2344,
2350,
2352,
2322,
2323,
2163,
2239,
2224,
2228,
2213,
2324,
2397,
2436,
2352,
2352,
2212,
2162,
2207,
2157,
2012,
2050,
1966,
2065,
2010,
2102,
2120,
2227,
2253,
2241,
2054,
2067,
1897,
1921,
2025,
2056,
2035,
2383,
3232,
6603,
16210,
36622,
64058,
84388,
81432,
58168,
30920,
12923,
4939,
2372,
1852,
1777,
1714,
1758,
1720,
1839,
2145,
3004,
4754,
7683,
11088,
12413,
11549,
8143,
4825,
2715,
1800,
1442,
1334,
1357,
1371,
1769,
2888,
5514,
10099,
15546,
18894,
17643,
12994,
7698,
3939,
2160,
1504,
1218,
1197,
1150,
1166,
1206,
1167,
1198,
1209,
1246,
1294,
1392,
1613,
2022,
2500,
3114,
3401,
3124,
2505,
1805,
1401,
1168,
1001,
1026,
992,
982,
1003,
1087,
1103,
1140,
1197,
1156,
1042,
1044,
962,
964,
937,
952,
902,
874,
873,
880,
889,
875,
889,
846,
891,
901,
900,
847,
851,
832,
829,
862,
823,
820,
827,
849,
803,
803,
780,
790,
795,
821,
784,
774,
766,
841,
758,
758,
785,
761,
705,
766,
712,
702,
708,
697,
720,
691,
660,
709,
697,
685,
727,
688,
686,
674,
646,
651,
646,
609,
646,
625,
629,
609,
661,
614,
583,
630,
646,
599,
578,
600,
649,
591,
589,
572,
554,
564,
594,
626,
557,
539,
584,
560,
516,
550,
509,
534,
547,
507,
507,
518,
517,
493,
500,
498,
466,
505,
491,
530,
500,
437,
478,
509,
479,
485,
497,
504,
495,
504,
498,
475,
466,
465,
471,
449,
456,
452,
412,
415,
438,
396,
435,
400,
428,
442,
380,
378,
415,
366,
388,
372,
336,
373,
379,
372,
310,
375,
345,
348,
375,
350,
359,
309,
394,
362,
304,
329,
312,
304,
318,
345,
297,
334,
323,
282,
301,
283,
319,
310,
275,
311,
277,
322,
271,
282,
260,
255,
276,
248,
292,
269,
272,
254,
264,
237,
249,
265,
266,
255,
237,
255,
219,
242,
238,
233,
230,
230,
207,
242,
209,
235,
190,
209,
212,
222,
230,
184,
210,
207,
180,
197,
190,
207,
216,
203,
189,
213,
178,
172,
189,
170,
184,
189,
178,
149,
185,
173,
157,
157,
164,
161,
153,
157,
154,
156,
150,
125,
148,
152,
144,
155,
160,
140,
127,
141,
154,
123,
133,
127,
134,
124,
129,
119,
120,
110,
119,
110,
121,
131,
109,
110,
100,
117,
99,
126,
101,
105,
96,
112,
88,
99,
99,
90,
97,
88,
99,
92,
105,
100,
84,
91,
104,
83,
79,
79,
77,
67,
77,
73,
67,
70,
82,
77,
55,
69,
69,
75,
67,
83,
66,
56,
70,
70,
80,
56,
79,
57,
59,
63,
72,
71,
51,
45,
52,
50,
54,
56,
56,
57,
48,
49,
56,
41,
39,
47,
44,
46,
44,
37,
34,
40,
40,
40,
29,
39,
52,
47,
33,
38,
37,
28,
36,
29,
24,
33,
25,
29,
42,
34,
33,
34,
28,
22,
31,
20,
29,
25,
17,
21,
25,
24,
16,
22,
29,
19,
22,
16,
17,
22,
22,
15,
23,
29,
13,
17,
13,
21,
13,
8,
11,
12,
27,
14,
17,
8,
19,
8,
13,
10,
19,
14,
7,
12,
8,
11,
4,
7,
11,
4,
6,
7,
12,
9,
7,
11,
5,
3,
6,
5,
8,
2,
3,
6,
5,
3,
6,
3,
2,
2,
4,
1,
1,
1,
0,
0,
1,
0,
0,
1,
0,
1,
1,
0,
1,
1,
2,
0,
0,
1,
1,
0,
1,
0,
2,
1,
0,
0,
0,
0,
0,
0,
0,
0,
0,
0,
1,
1,
0,
0,
1,
0,
1,
0,
0,
2,
0,
1,
0,
1,
0,
0,
0,
0,
0,
0,
1,
1,
0,
0,
0,
1,
0,
0,
1,
0,
1,
0,
1,
0,
0,
0,
0,
0,
0,
1,
1,
0,
0,
0,
0,
0,
0,
0,
0,
2,
0,
1,
0,
1,
0,
0,
0,
0,
0,
0,
0,
0,
0,
0,
0,
0,
0,
0,
0,
0,
0,
0,
0,
0,
0,
0,
0,
0,
1,
0,
0,
2,
0,
0,
0,
1,
0,
1,
0,
0,
1,
0,
0,
0,
1,
0,
0,
1,
0,
0,
0,
0,
0,
0,
0,
0,
0,
0,
0,
0,
0,
1,
0,
0,
0,
0,
0,
0,
0,
0,
0,
0,
0,
0,
0,
0,
0,
0,
0,
0,
0,
0,
0,
0,
0,
0,
0,
0,
0,
0,
0,
0,
0,
0,
0,
0,
0,
0,
0,
0,
0,
0,
0,
0,
0,
0,
0,
0,
0,
0,
0,
0,
0,
0,
0,
0,
0,
0,
0,
0,
0,
0,
0,
0,
0,
0,
0,
0,
0,
0,
0,
0,
0,
0,
0,
0,
0,
0,
0,
0,
0,
0,
0,
0,
0,
0,
0,
0,
0,
0,
0,
0,
0,
0,
0,
0,
0,
0,
0,
0,
0,
0,
0,
0,
0,
0,
0,
0,
0,
0,
0,
0,
0,
0,
0,
0,
0,
0,
0,
0,
1,
0,
0,
0,
0,
0,
0,
0,
0,
0,
0,
0,
0,
0,
0,
0,
0,
0,
0,
0,
0,
0,
0,
0,
0,
0,
0,
0,
0,
0,
0,
0,
0,
0,
0,
0,
0,
0,
0,
0,
0,
0,
0,
0,
0,
0,
0,
0,
0,
0,
0,
0,
0,
0,
0,
0,
0,
0,
0,
0,
0,
0,
0,
0,
0,
0,
0,
0,
0,
0,
0,
0,
0,
0,
0,
0,
0,
0,
0,
0,
0,
0,
0,
0,
0,
0,
0,
0,
0,
0,
0,
0,
0,
0,
0,
0,
0,
0,
0,
0,
0,
0,
0,
0,
0,
0,
0,
0,
0,
0,
0,
0,
0,
0,
0,
0,
0,
0,
0,
0,
0,
0,
0,
0,
0,
0,
0,
0,
0,
0,
0,
0,
0,
0,
0,
0,
0,
0,
0,
0,
0,
0,
0,
0,
0,
0,
0,
0,
0,
0,
0,
0,
0,
0,
0,
0,
0,
0,
0,
0,
0,
0,
0,
0,
0,
0,
0,
0,
0,
0,
0,
0,
0,
0,
0,
0,
0,
0,
0,
0,
0,
0,
0,
0,
0,
0,
0,
0,
0,
0,
0,
0,
0,
0,
0,
0,
0,
0,
0,
0,
0,
0,
0,
0,
0,
0,
0,
0,
0,
0,
0,
0,
0,
0,
0,
0,
0,
0,
0,
0,
0,
0,
0,
0,
0,
0,
0,
0,
0,
0,
0,
0,
0,
0,
0,
0,
0,
0,
0,
0,
0,
0,
0,
0,
0,
0,
0,
0,
0,
0,
0,
0,
0,
0,
0,
0,
0,
0,
0,
0,
0,
0,
0,
0,
0,
0,
0,
0,
0,
0,
0,
0,
0,
0,
0,
0,
0,
0,
0,
0,
0,
0,
0,
0,
0,
0,
0,
0,
0,
0,
0,
0,
0,
0,
0,
0,
0,
0,
0,
0,
0,
0,
0,
0,
0,
0,
0,
0,
0,
0,
0,
0,
0,
0,
0,
0,
0,
0,
0,
0,
0,
0,
0,
0,
0,
0,
0,
0,
0,
0,
0,
0,
0,
0,
0,
0,
0,
0,
0,
0,
0,
0,
0,
0,
0,
0,
0,
0,
0,
0,
0,
0,
0,
0,
0,
0,
0,
0,
0,
0,
0,
0,
0,
0,
0,
0,
0,
0,
0,
0,
0,
0,
0,
0,
0,
0,
0,
0,
0,
0,
0,
0,
0,
0,
0,
0,
0,
0,
0,
0,
0,
0,
0,
0,
0,
0,
0,
0,
0,
0,
0,
0,
0,
0,
0,
0,
0,
0,
0,
0,
0,
0,
0,
0,
0,
0,
0,
0,
0,
0,
0,
0,
0,
0,
0,
0,
0,
0,
0,
0,
0,
0,
0,
0,
0,
0,
0,
0,
0,
#ENDOFDATA   :