File: N132962/Quantification/MMM1/SPI MM1 Chalcopyrite[1][4].msa
#FORMAT      : EMSA/MAS Spectral Data File
#VERSION     : 1.0
#TITLE       : SPI MM1 Chalcopyrite[1][all]
#DATE        : 11-MAR-2025
#TIME        : 14:28
#OWNER       : Unknown
#NPOINTS     : 4096
#NCOLUMNS    : 1
#XUNITS      : eV
#YUNITS      : counts
#DATATYPE    : Y
#XPERCHAN    : 9.99778
#OFFSET      : 1.69135
#BEAMKV      : 20
#SIGNALTYPE  : EDS
#ELEVANGLE   : 35
#AZIMANGLE   : 0
#LIVETIME    : 239.622
#REALTIME    : 258.226
#PROBECUR    : 1.02809
#TAUWIND     : 0
#TDEADLYR    : 0
#TACTLYR     : 0.045
#TALWIND     : 0.025
#CHOFFSET    : 0.0
#XLABEL      : Energy (eV)
#YLABEL      : Counts
#XPOSITION   : -4.90794
#YPOSITION   : -3.78586
#ZPOSITION   : 30.9284
#EDSDET      : SD
##SPECIMEN   : SPI MM1 Chalcopyrite[1][all]
##D2STDCMP   : Chalcopyrite,(S:34.9407),(Fe:30.4314),(Cu:34.6279),4.2
##DET_HASH   : 12273538-fd48-a23f-0a19-f1e6fa85caef
##CALIB_HASH : 6abaa72c-aa41-8738-0be9-f592914732f3
##WORKING    : 15.0 mm
##DET_NAME   : EDAX All
##DET_MODE   : MediumLE
#SPECTRUM    :
25,
27,
7,
34,
193,
513,
1045,
3024,
8683,
11640,
5964,
2736,
2736,
2982,
3197,
3765,
5046,
7542,
10107,
13373,
15918,
16128,
22590,
36687,
32692,
15834,
9914,
10772,
10551,
20418,
53440,
76789,
51061,
17434,
5898,
3899,
3291,
3032,
3200,
3197,
3456,
3629,
3658,
3789,
3885,
4036,
4175,
4247,
4236,
4483,
4602,
4660,
4561,
4532,
4713,
4882,
5049,
5330,
5617,
5466,
5351,
5089,
4869,
4666,
4549,
4740,
4806,
4942,
5009,
5018,
5072,
5397,
7252,
12368,
29365,
79370,
162608,
203307,
148174,
65067,
22974,
16840,
18660,
15785,
9778,
5267,
3732,
3256,
3280,
3324,
3326,
3377,
3365,
3271,
3302,
3359,
3389,
3323,
3304,
3315,
3362,
3271,
3333,
3351,
3316,
3286,
3369,
3369,
3494,
3350,
3361,
3312,
3072,
3257,
3139,
3253,
3154,
3270,
3098,
3123,
3064,
3098,
3096,
3068,
3062,
2998,
2979,
3024,
3010,
2951,
2950,
2977,
2936,
2917,
2917,
2858,
2891,
2841,
2949,
2912,
2866,
2773,
2858,
2838,
2822,
2797,
2756,
2787,
2788,
2722,
2814,
2826,
2776,
3005,
3030,
3117,
3040,
2783,
2661,
2669,
2756,
2579,
2556,
2484,
2582,
2517,
2457,
2403,
2488,
2485,
2481,
2416,
2354,
2457,
2372,
2402,
2469,
2385,
2387,
2438,
2325,
2345,
2322,
2351,
2303,
2262,
2258,
2230,
2344,
2166,
2137,
2215,
2112,
2170,
2171,
2161,
2100,
2148,
2103,
2164,
2227,
2078,
2183,
2114,
2165,
2236,
2348,
2616,
3791,
7496,
16347,
32285,
50195,
61372,
57078,
41340,
23619,
11003,
4809,
2664,
2084,
1957,
1856,
1893,
1947,
1865,
1943,
1944,
1975,
2013,
2330,
2837,
4378,
6547,
8436,
9547,
8736,
6648,
4403,
2734,
1960,
1615,
1476,
1503,
1420,
1470,
1467,
1466,
1500,
1538,
1535,
1478,
1438,
1401,
1400,
1359,
1356,
1411,
1393,
1443,
1503,
1633,
2150,
3822,
7453,
14250,
23146,
31488,
33963,
30107,
21229,
12832,
6490,
3238,
1895,
1413,
1270,
1244,
1299,
1293,
1238,
1185,
1257,
1214,
1228,
1198,
1245,
1294,
1265,
1384,
1453,
1546,
1807,
2437,
3296,
4499,
5480,
5373,
4769,
3641,
2492,
1687,
1259,
1102,
974,
952,
939,
891,
957,
952,
886,
966,
935,
907,
916,
935,
904,
875,
930,
886,
895,
889,
901,
893,
853,
893,
885,
844,
837,
857,
813,
858,
829,
845,
847,
862,
768,
796,
819,
872,
783,
832,
815,
789,
851,
844,
837,
804,
755,
729,
741,
741,
795,
651,
682,
691,
757,
723,
689,
670,
686,
664,
686,
680,
675,
693,
697,
647,
603,
665,
631,
642,
616,
650,
628,
642,
641,
639,
601,
566,
571,
614,
624,
569,
596,
606,
531,
599,
596,
592,
536,
524,
544,
557,
596,
552,
567,
510,
516,
523,
516,
512,
496,
521,
518,
479,
534,
487,
488,
455,
473,
472,
466,
470,
511,
453,
455,
425,
438,
428,
451,
467,
409,
379,
401,
446,
431,
450,
403,
440,
388,
435,
360,
416,
377,
402,
351,
366,
356,
328,
390,
390,
339,
372,
343,
363,
337,
383,
331,
300,
346,
343,
302,
273,
273,
316,
326,
286,
298,
281,
298,
297,
286,
309,
314,
275,
287,
287,
274,
275,
258,
238,
273,
245,
285,
270,
239,
263,
242,
219,
272,
248,
283,
256,
250,
258,
239,
231,
233,
223,
215,
213,
223,
231,
219,
225,
212,
188,
203,
206,
204,
211,
176,
192,
185,
166,
179,
171,
170,
208,
171,
168,
176,
168,
153,
169,
156,
181,
153,
167,
170,
143,
144,
134,
161,
141,
153,
136,
145,
137,
121,
133,
153,
129,
119,
136,
150,
131,
127,
132,
114,
119,
121,
117,
120,
110,
112,
112,
107,
110,
98,
83,
106,
97,
110,
93,
95,
100,
87,
73,
83,
100,
80,
89,
91,
93,
94,
78,
88,
83,
84,
88,
71,
80,
80,
80,
60,
69,
59,
60,
79,
65,
54,
54,
51,
58,
63,
56,
56,
52,
57,
67,
55,
50,
45,
51,
54,
44,
44,
62,
47,
52,
44,
35,
47,
34,
35,
45,
40,
35,
34,
34,
37,
29,
28,
26,
38,
31,
27,
32,
32,
30,
33,
32,
25,
22,
30,
20,
24,
23,
24,
21,
18,
20,
22,
11,
19,
14,
16,
18,
13,
16,
9,
13,
12,
11,
10,
15,
11,
7,
8,
5,
18,
8,
5,
8,
6,
7,
4,
7,
7,
4,
4,
6,
4,
2,
2,
2,
1,
0,
2,
1,
5,
3,
1,
1,
1,
4,
1,
1,
1,
1,
1,
1,
1,
1,
0,
2,
0,
0,
2,
0,
0,
0,
2,
0,
2,
2,
2,
2,
0,
1,
1,
2,
1,
0,
0,
0,
1,
0,
1,
1,
1,
0,
0,
2,
1,
1,
1,
3,
1,
0,
2,
0,
3,
1,
1,
2,
0,
1,
1,
2,
2,
1,
1,
0,
1,
0,
0,
0,
1,
0,
2,
0,
1,
0,
2,
0,
0,
0,
2,
0,
0,
1,
0,
0,
0,
1,
1,
0,
0,
0,
0,
0,
0,
0,
0,
0,
0,
1,
0,
0,
1,
1,
0,
1,
1,
2,
0,
0,
0,
1,
1,
1,
0,
0,
1,
0,
0,
0,
0,
0,
1,
1,
0,
0,
0,
1,
0,
1,
1,
1,
0,
1,
0,
0,
0,
0,
0,
0,
0,
1,
0,
1,
0,
0,
1,
1,
1,
1,
0,
0,
1,
2,
0,
0,
0,
0,
0,
0,
0,
0,
0,
0,
0,
0,
0,
0,
0,
0,
0,
0,
0,
0,
0,
0,
0,
0,
0,
0,
0,
0,
0,
0,
0,
0,
1,
0,
0,
0,
0,
0,
0,
0,
0,
0,
0,
0,
0,
0,
0,
0,
1,
0,
0,
0,
1,
0,
0,
0,
0,
1,
0,
0,
0,
0,
0,
0,
0,
0,
0,
0,
0,
0,
0,
0,
0,
1,
0,
0,
0,
0,
0,
0,
1,
0,
0,
0,
1,
0,
0,
0,
0,
0,
0,
0,
0,
0,
0,
0,
0,
1,
0,
0,
0,
0,
0,
1,
0,
0,
0,
0,
0,
0,
0,
0,
0,
0,
1,
0,
0,
0,
0,
0,
0,
0,
0,
0,
0,
0,
0,
0,
0,
0,
0,
0,
0,
0,
0,
0,
0,
0,
0,
0,
0,
0,
0,
0,
0,
0,
0,
0,
0,
0,
0,
0,
0,
0,
0,
0,
0,
0,
0,
0,
0,
0,
0,
0,
0,
0,
0,
0,
0,
0,
0,
0,
0,
0,
0,
0,
0,
0,
0,
0,
0,
0,
0,
0,
0,
0,
0,
0,
0,
0,
0,
0,
0,
0,
0,
0,
0,
0,
0,
0,
0,
0,
0,
0,
0,
0,
0,
0,
0,
0,
0,
0,
0,
0,
0,
0,
0,
0,
0,
0,
0,
0,
0,
0,
0,
0,
0,
0,
0,
0,
0,
0,
0,
0,
0,
0,
0,
0,
0,
0,
0,
0,
0,
0,
0,
0,
0,
0,
0,
0,
0,
0,
0,
0,
0,
0,
0,
0,
0,
0,
0,
0,
0,
0,
0,
0,
0,
0,
0,
0,
0,
0,
0,
0,
0,
0,
0,
0,
0,
0,
0,
0,
0,
0,
0,
0,
0,
0,
0,
0,
0,
0,
0,
0,
0,
0,
0,
0,
0,
0,
0,
0,
0,
0,
0,
0,
0,
0,
0,
0,
0,
0,
0,
0,
0,
0,
0,
0,
0,
0,
0,
0,
0,
0,
0,
0,
0,
0,
0,
0,
0,
0,
0,
0,
0,
0,
0,
0,
0,
0,
0,
0,
0,
0,
0,
0,
0,
0,
0,
0,
0,
0,
0,
0,
0,
0,
0,
0,
0,
0,
0,
0,
0,
0,
0,
0,
0,
0,
0,
0,
0,
0,
0,
0,
0,
0,
0,
0,
0,
0,
0,
0,
0,
0,
0,
0,
0,
0,
0,
0,
0,
0,
0,
0,
0,
0,
0,
0,
0,
0,
0,
0,
0,
0,
0,
0,
0,
0,
0,
0,
0,
0,
0,
0,
0,
0,
0,
0,
0,
0,
0,
0,
0,
0,
0,
0,
0,
0,
0,
0,
0,
0,
0,
0,
0,
0,
0,
0,
0,
0,
0,
0,
0,
0,
0,
0,
0,
0,
0,
0,
0,
0,
0,
0,
0,
0,
0,
0,
0,
0,
0,
0,
0,
0,
0,
0,
0,
0,
0,
0,
0,
0,
0,
0,
0,
0,
0,
0,
0,
0,
0,
0,
0,
0,
0,
0,
0,
0,
0,
0,
0,
0,
0,
0,
0,
0,
0,
0,
0,
0,
0,
0,
0,
0,
0,
0,
0,
0,
0,
0,
0,
0,
0,
0,
0,
0,
0,
0,
0,
0,
0,
0,
0,
0,
0,
0,
0,
0,
0,
0,
0,
0,
0,
0,
0,
0,
0,
0,
0,
0,
0,
0,
#ENDOFDATA   :