File: N132962/Quantification/MMM1/SPI MM1 Chlorite[5][4].msa
#FORMAT      : EMSA/MAS Spectral Data File
#VERSION     : 1.0
#TITLE       : SPI MM1dup Chlorite[5][all]
#DATE        : 12-MAR-2025
#TIME        : 14:23
#OWNER       : Unknown
#NPOINTS     : 4096
#NCOLUMNS    : 1
#XUNITS      : eV
#YUNITS      : counts
#DATATYPE    : Y
#XPERCHAN    : 9.99778
#OFFSET      : 1.69135
#BEAMKV      : 20
#SIGNALTYPE  : EDS
#ELEVANGLE   : 35
#AZIMANGLE   : 0
#LIVETIME    : 239.7977
#REALTIME    : 254.63
#PROBECUR    : 1.02867
#TAUWIND     : 0
#TDEADLYR    : 0
#TACTLYR     : 0.045
#TALWIND     : 0.025
#CHOFFSET    : 0.0
#XLABEL      : Energy (eV)
#YLABEL      : Counts
#XPOSITION   : 6.37367
#YPOSITION   : -0.13273
#ZPOSITION   : 31.03608
#EDSDET      : SD
##SPECIMEN   : SPI MM1dup Chlorite[5][all]
##DET_HASH   : 12273538-fd48-a23f-0a19-f1e6fa85caef
##CALIB_HASH : 6abaa72c-aa41-8738-0be9-f592914732f3
##WORKING    : 15.0 mm
##DET_NAME   : EDAX All
##DET_MODE   : MediumLE
#SPECTRUM    :
24,
19,
6,
12,
70,
287,
844,
2545,
7164,
9877,
5255,
2698,
2924,
4029,
7454,
29748,
123311,
242685,
178734,
45929,
5929,
2385,
3003,
4161,
4113,
2673,
2343,
2373,
2787,
2795,
2735,
2691,
2966,
3291,
3761,
3993,
4176,
4404,
5450,
12851,
49634,
125147,
151155,
85308,
24978,
6378,
4313,
9228,
28596,
57131,
58252,
30851,
11032,
4824,
3922,
8139,
28357,
71553,
98361,
69229,
28756,
10595,
5364,
3179,
2370,
2204,
2397,
2350,
2288,
2146,
2150,
2140,
2208,
2297,
2472,
2458,
2449,
2311,
2253,
2164,
2163,
2189,
2267,
2297,
2275,
2279,
2186,
2150,
2189,
2157,
2160,
2226,
2119,
2087,
1956,
2013,
2018,
2078,
2100,
2151,
2236,
2143,
2063,
1938,
1970,
1895,
1883,
1908,
1904,
1899,
1962,
1871,
1854,
1819,
1826,
1857,
1744,
1794,
1794,
1718,
1714,
1671,
1659,
1775,
1698,
1745,
1682,
1675,
1623,
1544,
1500,
1624,
1529,
1511,
1502,
1551,
1557,
1537,
1492,
1447,
1416,
1521,
1471,
1386,
1388,
1416,
1409,
1377,
1383,
1398,
1364,
1419,
1301,
1376,
1351,
1369,
1289,
1242,
1305,
1375,
1253,
1260,
1216,
1271,
1273,
1184,
1278,
1244,
1186,
1188,
1063,
1182,
1177,
1192,
1145,
1224,
1352,
1709,
2525,
3472,
4381,
4048,
3292,
2146,
1542,
1141,
1031,
1010,
974,
1072,
967,
1076,
974,
986,
1058,
1129,
1247,
1313,
1380,
1291,
1223,
1040,
981,
911,
938,
853,
901,
867,
995,
1270,
1924,
3059,
4584,
5466,
4905,
3785,
2463,
1619,
1005,
865,
800,
787,
808,
733,
794,
804,
788,
738,
772,
789,
753,
854,
982,
1111,
1109,
1335,
1183,
1119,
901,
769,
757,
709,
650,
659,
700,
733,
741,
804,
797,
912,
861,
785,
730,
646,
628,
608,
611,
608,
610,
580,
553,
561,
556,
591,
577,
568,
596,
534,
536,
490,
532,
528,
570,
569,
587,
535,
544,
610,
524,
481,
478,
515,
497,
521,
490,
484,
488,
503,
502,
490,
522,
431,
467,
436,
463,
427,
473,
450,
452,
461,
471,
421,
383,
407,
436,
449,
400,
414,
410,
443,
400,
404,
375,
418,
379,
371,
392,
372,
338,
357,
369,
344,
371,
412,
359,
352,
359,
363,
369,
327,
366,
365,
351,
340,
349,
340,
361,
327,
302,
314,
362,
319,
266,
294,
319,
326,
315,
331,
304,
287,
289,
297,
310,
303,
324,
280,
283,
261,
271,
285,
306,
267,
266,
265,
254,
252,
274,
220,
242,
250,
268,
263,
242,
236,
250,
239,
218,
215,
203,
223,
211,
231,
217,
240,
230,
222,
242,
219,
206,
212,
224,
205,
224,
200,
200,
182,
166,
196,
167,
210,
214,
204,
191,
182,
182,
176,
184,
196,
196,
189,
158,
186,
170,
163,
168,
152,
162,
178,
165,
166,
154,
152,
125,
141,
166,
143,
145,
152,
124,
169,
130,
151,
155,
119,
142,
131,
108,
131,
141,
134,
132,
120,
109,
134,
130,
123,
126,
125,
115,
110,
95,
103,
109,
125,
109,
114,
141,
92,
104,
107,
99,
102,
106,
101,
90,
88,
92,
98,
109,
89,
103,
84,
109,
93,
103,
88,
96,
90,
73,
94,
62,
82,
87,
72,
72,
87,
62,
64,
80,
80,
61,
65,
67,
57,
64,
63,
66,
67,
69,
76,
61,
66,
65,
50,
47,
55,
53,
52,
64,
57,
63,
46,
54,
54,
64,
47,
64,
44,
55,
63,
50,
46,
59,
46,
35,
43,
39,
55,
45,
39,
40,
36,
47,
36,
34,
32,
42,
44,
30,
28,
33,
29,
32,
44,
31,
45,
37,
35,
30,
25,
25,
33,
30,
24,
36,
23,
22,
21,
22,
30,
29,
30,
28,
22,
28,
16,
33,
26,
17,
25,
21,
24,
20,
23,
19,
20,
12,
20,
22,
19,
17,
11,
19,
23,
15,
15,
15,
13,
16,
12,
15,
12,
15,
13,
12,
14,
9,
9,
11,
12,
9,
9,
17,
14,
18,
12,
10,
11,
14,
13,
13,
7,
13,
13,
9,
5,
10,
8,
11,
10,
11,
9,
9,
11,
10,
6,
3,
4,
8,
4,
4,
6,
7,
7,
3,
4,
9,
5,
4,
1,
4,
2,
4,
4,
2,
0,
3,
1,
2,
2,
3,
0,
2,
2,
1,
1,
2,
1,
2,
0,
0,
1,
1,
0,
0,
0,
0,
1,
0,
0,
0,
0,
0,
0,
0,
0,
0,
1,
0,
0,
0,
0,
0,
0,
1,
0,
0,
0,
0,
0,
0,
0,
0,
1,
0,
0,
0,
0,
0,
0,
0,
0,
0,
0,
0,
0,
0,
0,
0,
0,
0,
0,
0,
0,
0,
0,
0,
0,
0,
0,
0,
0,
0,
0,
0,
0,
0,
0,
0,
0,
0,
0,
1,
1,
0,
0,
0,
0,
0,
0,
0,
0,
0,
0,
0,
0,
0,
0,
0,
0,
0,
0,
0,
0,
0,
0,
0,
0,
0,
0,
0,
0,
0,
0,
0,
0,
0,
0,
0,
0,
0,
0,
0,
0,
0,
0,
0,
0,
0,
0,
0,
0,
0,
0,
0,
0,
0,
0,
0,
0,
0,
0,
0,
0,
0,
0,
0,
0,
0,
0,
0,
0,
0,
0,
0,
0,
0,
0,
0,
0,
0,
0,
0,
0,
0,
0,
0,
0,
0,
0,
0,
0,
0,
0,
0,
0,
0,
0,
0,
0,
0,
0,
0,
0,
0,
0,
0,
0,
0,
0,
0,
0,
0,
0,
0,
0,
0,
0,
0,
0,
0,
0,
0,
0,
0,
0,
0,
0,
0,
0,
0,
0,
0,
0,
0,
0,
0,
0,
0,
0,
0,
0,
0,
0,
0,
0,
0,
0,
0,
0,
0,
0,
0,
0,
0,
0,
0,
0,
0,
0,
1,
0,
0,
0,
0,
0,
0,
0,
0,
0,
0,
0,
0,
0,
0,
0,
0,
0,
0,
0,
0,
0,
0,
0,
0,
0,
0,
0,
0,
0,
0,
0,
0,
0,
0,
0,
0,
0,
0,
0,
0,
0,
0,
0,
0,
0,
0,
0,
0,
0,
0,
0,
0,
0,
0,
0,
0,
0,
0,
0,
0,
0,
0,
0,
0,
0,
0,
0,
0,
0,
0,
0,
0,
0,
0,
0,
0,
0,
0,
0,
0,
0,
0,
0,
0,
0,
0,
0,
0,
0,
0,
0,
0,
0,
0,
0,
0,
0,
0,
0,
0,
0,
0,
0,
0,
0,
0,
0,
0,
0,
0,
0,
0,
0,
0,
0,
0,
0,
0,
0,
0,
1,
0,
0,
0,
0,
0,
0,
0,
0,
0,
0,
0,
0,
0,
0,
0,
0,
0,
0,
0,
0,
0,
0,
0,
0,
0,
0,
0,
0,
0,
0,
0,
0,
0,
0,
0,
0,
0,
0,
0,
0,
0,
0,
0,
0,
0,
0,
0,
0,
0,
0,
0,
0,
0,
0,
0,
0,
0,
0,
0,
0,
0,
0,
0,
0,
0,
0,
0,
0,
0,
0,
0,
0,
0,
0,
0,
0,
0,
0,
0,
0,
0,
0,
0,
0,
0,
0,
0,
0,
0,
0,
0,
0,
0,
0,
0,
0,
0,
0,
0,
0,
0,
0,
0,
0,
0,
0,
0,
0,
0,
0,
0,
0,
0,
0,
0,
0,
0,
0,
0,
0,
0,
0,
0,
0,
0,
0,
0,
0,
0,
0,
0,
0,
0,
0,
0,
0,
0,
0,
0,
0,
0,
0,
0,
0,
0,
0,
0,
0,
0,
0,
0,
0,
0,
0,
0,
0,
0,
0,
0,
0,
0,
0,
0,
0,
0,
0,
0,
0,
0,
0,
0,
0,
0,
0,
0,
0,
0,
0,
0,
0,
0,
0,
0,
0,
0,
0,
0,
0,
0,
0,
0,
0,
0,
0,
0,
0,
0,
0,
0,
0,
0,
0,
0,
0,
0,
0,
0,
0,
0,
0,
0,
0,
0,
0,
0,
0,
0,
0,
0,
0,
0,
0,
0,
0,
0,
0,
0,
0,
0,
0,
0,
0,
0,
0,
0,
0,
0,
0,
0,
0,
0,
0,
0,
0,
0,
0,
0,
0,
0,
0,
0,
0,
0,
0,
0,
0,
0,
0,
0,
0,
0,
0,
0,
0,
0,
0,
0,
0,
0,
0,
0,
0,
0,
0,
0,
0,
0,
0,
0,
0,
0,
0,
0,
0,
0,
0,
0,
0,
0,
0,
0,
0,
0,
0,
0,
0,
0,
0,
0,
0,
0,
0,
0,
0,
0,
0,
0,
0,
0,
0,
0,
0,
0,
0,
0,
0,
0,
0,
0,
0,
0,
0,
0,
0,
0,
0,
0,
0,
0,
0,
0,
0,
0,
0,
0,
0,
0,
0,
0,
0,
0,
0,
0,
0,
0,
0,
0,
0,
0,
0,
0,
0,
0,
0,
#ENDOFDATA   :