File: N132962/Quantification/MMM1/SPI MM1 Chromite[5][4].msa
#FORMAT      : EMSA/MAS Spectral Data File
#VERSION     : 1.0
#TITLE       : SPI MM1dup Chromite[5][all]
#DATE        : 12-MAR-2025
#TIME        : 14:14
#OWNER       : Unknown
#NPOINTS     : 4096
#NCOLUMNS    : 1
#XUNITS      : eV
#YUNITS      : counts
#DATATYPE    : Y
#XPERCHAN    : 9.99778
#OFFSET      : 1.69135
#BEAMKV      : 20
#SIGNALTYPE  : EDS
#ELEVANGLE   : 35
#AZIMANGLE   : 0
#LIVETIME    : 239.786
#REALTIME    : 256.168
#PROBECUR    : 1.02867
#TAUWIND     : 0
#TDEADLYR    : 0
#TACTLYR     : 0.045
#TALWIND     : 0.025
#CHOFFSET    : 0.0
#XLABEL      : Energy (eV)
#YLABEL      : Counts
#XPOSITION   : 4.21453
#YPOSITION   : -0.23224
#ZPOSITION   : 31.03608
#EDSDET      : SD
##SPECIMEN   : SPI MM1dup Chromite[5][all]
##DET_HASH   : 12273538-fd48-a23f-0a19-f1e6fa85caef
##CALIB_HASH : 6abaa72c-aa41-8738-0be9-f592914732f3
##WORKING    : 15.0 mm
##DET_NAME   : EDAX All
##DET_MODE   : MediumLE
#SPECTRUM    :
38,
27,
8,
16,
98,
352,
1085,
3096,
8250,
10725,
6307,
3692,
4215,
5513,
10701,
36967,
130247,
236698,
171666,
51702,
10971,
4275,
4463,
6953,
6737,
3877,
2470,
2306,
2542,
2459,
2438,
2406,
2708,
2915,
3313,
3536,
3507,
3552,
3994,
6985,
20583,
48469,
57709,
33524,
11836,
5036,
4995,
11406,
36024,
71093,
72369,
38518,
13039,
5534,
3844,
3509,
3578,
3767,
4046,
4226,
3885,
3786,
3497,
3289,
3329,
3383,
3533,
3644,
3484,
3486,
3305,
3288,
3377,
3505,
3401,
3357,
3341,
3383,
3383,
3358,
3359,
3305,
3379,
3340,
3320,
3360,
3272,
3335,
3345,
3317,
3217,
3295,
3283,
3198,
3315,
3217,
3061,
3007,
2994,
3171,
2970,
2971,
3021,
2917,
2979,
2981,
2849,
2868,
2889,
2948,
2916,
2886,
2885,
2731,
2738,
2753,
2646,
2712,
2643,
2756,
2868,
3022,
3035,
3033,
2815,
2729,
2525,
2704,
2508,
2441,
2420,
2529,
2436,
2409,
2374,
2413,
2409,
2458,
2415,
2356,
2381,
2364,
2285,
2244,
2207,
2270,
2126,
2198,
2272,
2330,
2478,
2392,
2298,
2267,
2167,
2113,
2130,
2130,
2067,
1978,
2037,
1998,
2002,
2095,
2176,
2263,
2239,
2161,
1999,
1926,
1963,
1953,
1982,
2183,
2429,
3254,
6593,
16256,
36891,
64617,
84292,
81013,
58019,
30761,
13014,
4916,
2418,
1770,
1718,
1795,
1769,
1767,
1965,
2151,
3001,
4851,
7760,
10962,
12569,
11478,
8053,
4777,
2726,
1834,
1384,
1356,
1330,
1370,
1735,
2911,
5512,
9921,
15293,
18560,
17655,
12631,
7614,
3933,
2098,
1484,
1265,
1198,
1237,
1208,
1242,
1205,
1194,
1242,
1235,
1237,
1319,
1580,
1980,
2424,
3027,
3347,
3131,
2453,
1858,
1369,
1138,
1050,
942,
1031,
1017,
1020,
1011,
1134,
1181,
1208,
1195,
1083,
1007,
931,
983,
904,
949,
931,
928,
870,
921,
917,
906,
827,
912,
855,
882,
881,
892,
930,
868,
866,
811,
849,
868,
837,
832,
831,
755,
841,
786,
816,
746,
774,
746,
773,
781,
775,
805,
768,
783,
744,
703,
775,
697,
742,
680,
689,
726,
683,
687,
734,
660,
695,
686,
715,
638,
666,
662,
650,
698,
627,
593,
629,
627,
611,
688,
602,
624,
587,
567,
615,
562,
619,
589,
558,
554,
602,
542,
578,
591,
548,
584,
589,
528,
591,
522,
559,
537,
530,
518,
518,
534,
571,
482,
474,
547,
490,
495,
517,
514,
463,
463,
485,
495,
479,
450,
460,
457,
462,
479,
507,
467,
512,
457,
453,
452,
430,
453,
418,
468,
417,
447,
426,
392,
401,
380,
427,
410,
388,
371,
379,
360,
386,
378,
359,
365,
381,
379,
363,
346,
327,
365,
343,
362,
326,
309,
353,
377,
314,
294,
369,
340,
310,
305,
291,
323,
304,
313,
308,
289,
315,
286,
274,
285,
286,
250,
269,
271,
255,
250,
266,
255,
250,
221,
275,
257,
256,
226,
246,
262,
229,
251,
232,
227,
236,
220,
202,
219,
222,
217,
236,
239,
228,
207,
223,
200,
219,
207,
214,
192,
184,
184,
195,
181,
183,
144,
176,
190,
169,
171,
166,
184,
171,
190,
170,
172,
164,
173,
163,
153,
167,
162,
160,
158,
157,
132,
142,
133,
151,
157,
150,
145,
147,
121,
125,
140,
145,
138,
123,
132,
126,
140,
103,
139,
93,
112,
116,
133,
101,
110,
112,
98,
116,
120,
99,
98,
114,
108,
98,
121,
106,
89,
98,
103,
92,
93,
94,
77,
97,
87,
87,
70,
78,
98,
77,
90,
76,
80,
73,
86,
73,
76,
87,
81,
80,
89,
72,
85,
60,
76,
63,
62,
61,
74,
58,
66,
73,
65,
80,
67,
54,
63,
47,
62,
51,
48,
40,
45,
40,
58,
56,
49,
44,
40,
54,
38,
46,
50,
48,
44,
43,
49,
33,
42,
48,
43,
38,
41,
41,
44,
48,
45,
41,
34,
31,
40,
32,
35,
38,
33,
28,
35,
26,
31,
42,
30,
17,
31,
31,
26,
34,
22,
21,
20,
25,
20,
25,
22,
28,
20,
13,
23,
14,
21,
20,
12,
18,
13,
5,
15,
13,
13,
11,
14,
15,
13,
7,
11,
14,
18,
10,
11,
12,
9,
9,
6,
13,
11,
11,
7,
7,
8,
9,
4,
13,
6,
5,
5,
5,
5,
8,
8,
7,
3,
2,
5,
3,
3,
1,
0,
2,
4,
2,
1,
1,
0,
1,
2,
0,
1,
1,
1,
0,
1,
0,
0,
0,
0,
0,
0,
0,
1,
0,
0,
1,
1,
0,
0,
1,
0,
0,
0,
0,
0,
0,
0,
0,
0,
0,
0,
0,
0,
0,
0,
0,
1,
1,
0,
0,
0,
0,
0,
0,
0,
0,
0,
0,
2,
0,
0,
0,
0,
0,
1,
1,
0,
0,
1,
0,
0,
0,
1,
0,
0,
0,
0,
1,
0,
0,
0,
0,
0,
0,
0,
0,
0,
0,
1,
0,
0,
0,
0,
0,
0,
0,
0,
0,
1,
0,
0,
1,
1,
0,
0,
0,
0,
0,
1,
0,
1,
0,
0,
0,
0,
0,
0,
0,
0,
0,
0,
0,
1,
0,
0,
0,
0,
0,
0,
0,
0,
0,
0,
0,
0,
0,
1,
0,
0,
0,
0,
0,
0,
0,
0,
0,
0,
1,
0,
0,
1,
0,
0,
0,
0,
0,
0,
0,
0,
0,
0,
1,
1,
0,
0,
1,
0,
0,
0,
0,
0,
1,
0,
0,
0,
0,
0,
0,
0,
0,
0,
0,
0,
0,
0,
0,
0,
0,
0,
0,
0,
0,
0,
0,
0,
0,
0,
0,
0,
0,
0,
0,
0,
0,
0,
0,
0,
0,
0,
0,
0,
0,
0,
0,
0,
0,
0,
0,
0,
0,
0,
0,
0,
0,
0,
0,
0,
0,
0,
0,
0,
0,
0,
0,
0,
0,
0,
1,
0,
0,
0,
0,
0,
0,
0,
0,
0,
0,
0,
0,
0,
0,
0,
0,
0,
0,
0,
0,
0,
0,
0,
0,
0,
0,
0,
0,
0,
0,
0,
0,
0,
0,
0,
0,
0,
0,
0,
0,
0,
0,
0,
0,
0,
0,
0,
0,
0,
0,
0,
0,
0,
0,
0,
0,
0,
0,
0,
0,
0,
0,
0,
0,
0,
0,
0,
1,
0,
0,
0,
0,
0,
0,
1,
0,
0,
0,
0,
0,
0,
0,
0,
0,
0,
0,
0,
0,
0,
0,
0,
0,
0,
0,
0,
0,
0,
0,
0,
0,
0,
0,
0,
0,
0,
0,
0,
0,
0,
0,
0,
0,
0,
0,
0,
0,
0,
0,
0,
0,
0,
0,
0,
0,
0,
0,
0,
0,
0,
0,
0,
0,
0,
0,
0,
0,
0,
0,
0,
0,
0,
0,
0,
0,
0,
0,
0,
0,
0,
0,
0,
0,
0,
0,
0,
0,
0,
0,
0,
0,
0,
0,
0,
0,
0,
0,
0,
0,
0,
0,
0,
0,
0,
0,
0,
0,
0,
0,
0,
0,
0,
0,
0,
0,
0,
0,
0,
0,
0,
0,
0,
0,
0,
0,
0,
0,
0,
0,
0,
0,
0,
0,
0,
0,
0,
0,
0,
0,
0,
0,
0,
0,
0,
0,
0,
0,
0,
0,
0,
0,
0,
0,
0,
0,
0,
0,
0,
0,
0,
0,
0,
0,
0,
0,
0,
0,
0,
0,
0,
0,
0,
0,
0,
0,
0,
0,
0,
0,
0,
0,
0,
0,
0,
0,
0,
0,
0,
0,
0,
0,
0,
0,
0,
0,
0,
0,
0,
0,
0,
0,
0,
0,
0,
0,
0,
0,
0,
0,
0,
0,
0,
0,
0,
0,
0,
0,
0,
0,
0,
0,
0,
0,
0,
0,
0,
0,
0,
0,
0,
0,
0,
0,
0,
0,
0,
0,
0,
0,
0,
0,
0,
0,
0,
0,
0,
0,
0,
0,
0,
0,
0,
0,
0,
0,
0,
0,
0,
0,
0,
0,
0,
0,
0,
0,
0,
0,
0,
0,
0,
0,
0,
0,
0,
0,
0,
0,
0,
0,
0,
0,
0,
0,
0,
0,
0,
0,
0,
0,
0,
0,
0,
0,
0,
0,
0,
0,
0,
0,
0,
0,
0,
0,
0,
0,
0,
0,
0,
0,
0,
0,
0,
0,
0,
0,
0,
0,
0,
0,
0,
0,
0,
0,
0,
0,
0,
0,
0,
0,
0,
0,
0,
0,
0,
0,
0,
0,
0,
0,
0,
0,
0,
0,
0,
0,
0,
0,
0,
0,
0,
0,
0,
0,
0,
0,
0,
0,
0,
0,
0,
0,
0,
0,
0,
0,
0,
0,
0,
0,
0,
0,
0,
0,
0,
0,
0,
0,
0,
0,
0,
0,
0,
0,
0,
0,
0,
0,
0,
0,
0,
0,
0,
0,
0,
0,
0,
0,
0,
0,
#ENDOFDATA   :