File: N132962/Quantification/MMM1/SPI MM1 Chalcopyrite[7][4].msa
#FORMAT      : EMSA/MAS Spectral Data File
#VERSION     : 1.0
#TITLE       : SPI MM1 Chalcopyrite[7][all]
#DATE        : 11-MAR-2025
#TIME        : 14:35
#OWNER       : Unknown
#NPOINTS     : 4096
#NCOLUMNS    : 1
#XUNITS      : eV
#YUNITS      : counts
#DATATYPE    : Y
#XPERCHAN    : 9.99778
#OFFSET      : 1.69135
#BEAMKV      : 20
#SIGNALTYPE  : EDS
#ELEVANGLE   : 35
#AZIMANGLE   : 0
#LIVETIME    : 239.787
#REALTIME    : 260.339
#PROBECUR    : 1.02809
#TAUWIND     : 0
#TDEADLYR    : 0
#TACTLYR     : 0.045
#TALWIND     : 0.025
#CHOFFSET    : 0.0
#XLABEL      : Energy (eV)
#YLABEL      : Counts
#XPOSITION   : -4.86857
#YPOSITION   : -3.8453
#ZPOSITION   : 30.9284
#EDSDET      : SD
##SPECIMEN   : SPI MM1 Chalcopyrite[7][all]
##D2STDCMP   : Chalcopyrite,(S:34.9407),(Fe:30.4314),(Cu:34.6279),4.2
##DET_HASH   : 12273538-fd48-a23f-0a19-f1e6fa85caef
##CALIB_HASH : 6abaa72c-aa41-8738-0be9-f592914732f3
##WORKING    : 15.0 mm
##DET_NAME   : EDAX All
##DET_MODE   : MediumLE
#SPECTRUM    :
21,
30,
11,
31,
191,
533,
1132,
3303,
9470,
11901,
6200,
2873,
2585,
2981,
3170,
3868,
4899,
6906,
10544,
14738,
17689,
17620,
24670,
40557,
35856,
17264,
10893,
11668,
11611,
22415,
58029,
83989,
55864,
18811,
6301,
4159,
3574,
3382,
3475,
3519,
3689,
3930,
4018,
4106,
4375,
4346,
4621,
4770,
4797,
4873,
5164,
5071,
5187,
5134,
5259,
5286,
5586,
5812,
6287,
6287,
5998,
5794,
5360,
5305,
5346,
5333,
5500,
5536,
5699,
5682,
5851,
6326,
8381,
14206,
33248,
91417,
185894,
232722,
169764,
74145,
26605,
18948,
21378,
17908,
10857,
5970,
4085,
3790,
3787,
3719,
3661,
3711,
3877,
3879,
3796,
3690,
3893,
3748,
3793,
3935,
3916,
3781,
3807,
3774,
3800,
3853,
3830,
3807,
3951,
3849,
3838,
3691,
3626,
3707,
3617,
3605,
3505,
3548,
3476,
3485,
3632,
3525,
3423,
3477,
3534,
3429,
3373,
3288,
3373,
3435,
3339,
3322,
3405,
3375,
3209,
3378,
3263,
3284,
3293,
3170,
3228,
3140,
3056,
3081,
3077,
3080,
3032,
3080,
3080,
3065,
3042,
3109,
3207,
3338,
3549,
3428,
3282,
3126,
3011,
2848,
2881,
2917,
2760,
2848,
2856,
2794,
2732,
2742,
2723,
2654,
2645,
2758,
2711,
2670,
2599,
2774,
2621,
2602,
2639,
2647,
2600,
2624,
2628,
2520,
2445,
2476,
2369,
2414,
2457,
2350,
2341,
2451,
2338,
2281,
2335,
2345,
2338,
2384,
2292,
2372,
2292,
2374,
2310,
2301,
2322,
2281,
2381,
2776,
4107,
8062,
17394,
33951,
53438,
64509,
61369,
43730,
24844,
11662,
5241,
2891,
2131,
2063,
2023,
1972,
1998,
1947,
1831,
2006,
2136,
2098,
2406,
3104,
4670,
6701,
8915,
9941,
9116,
6885,
4709,
2997,
2120,
1794,
1649,
1648,
1613,
1661,
1695,
1668,
1657,
1621,
1626,
1585,
1533,
1536,
1509,
1485,
1537,
1551,
1543,
1516,
1595,
1777,
2423,
4037,
8305,
15466,
24978,
33608,
37108,
32670,
23168,
13631,
7080,
3439,
1975,
1561,
1396,
1317,
1313,
1285,
1243,
1294,
1246,
1290,
1323,
1325,
1333,
1365,
1310,
1419,
1565,
1584,
1902,
2557,
3528,
4905,
5538,
5776,
4993,
3824,
2677,
1823,
1366,
1136,
1051,
1103,
999,
995,
985,
1060,
1017,
1025,
1039,
1002,
1015,
1076,
991,
948,
976,
977,
1003,
967,
890,
935,
897,
957,
941,
935,
926,
848,
942,
871,
921,
888,
936,
940,
881,
888,
867,
874,
884,
932,
834,
888,
906,
946,
913,
878,
842,
818,
817,
813,
734,
809,
774,
751,
723,
723,
774,
742,
762,
747,
767,
710,
671,
689,
640,
712,
697,
686,
713,
668,
708,
659,
702,
656,
621,
657,
663,
657,
601,
635,
631,
584,
594,
590,
609,
651,
599,
586,
587,
604,
625,
580,
541,
576,
545,
553,
511,
525,
560,
526,
528,
536,
549,
515,
507,
534,
491,
512,
471,
450,
495,
445,
487,
449,
480,
445,
447,
461,
481,
448,
453,
467,
449,
464,
451,
485,
437,
450,
434,
419,
404,
375,
396,
433,
366,
381,
393,
367,
357,
408,
355,
359,
352,
387,
351,
354,
364,
379,
326,
328,
313,
324,
326,
311,
298,
296,
363,
321,
296,
308,
354,
313,
301,
291,
290,
311,
311,
306,
289,
283,
296,
275,
287,
245,
248,
280,
324,
271,
262,
249,
245,
258,
254,
234,
262,
238,
248,
215,
245,
243,
231,
229,
217,
208,
225,
195,
186,
217,
204,
192,
218,
199,
183,
199,
183,
203,
178,
183,
184,
185,
170,
173,
172,
165,
152,
161,
183,
170,
157,
165,
156,
159,
144,
154,
141,
137,
137,
137,
147,
142,
133,
135,
165,
133,
168,
130,
118,
133,
113,
141,
125,
104,
121,
114,
129,
119,
92,
96,
98,
91,
99,
99,
108,
116,
94,
104,
118,
95,
100,
95,
90,
80,
86,
89,
82,
75,
95,
74,
87,
96,
73,
76,
73,
93,
63,
55,
68,
85,
79,
64,
74,
82,
67,
66,
68,
58,
77,
55,
54,
58,
59,
57,
59,
55,
44,
44,
67,
53,
41,
44,
40,
36,
46,
32,
53,
45,
42,
41,
37,
37,
34,
43,
40,
43,
32,
22,
30,
23,
28,
33,
25,
28,
37,
28,
24,
21,
29,
20,
19,
27,
20,
21,
22,
17,
23,
13,
14,
16,
21,
17,
23,
16,
14,
17,
13,
19,
11,
12,
9,
11,
20,
8,
13,
2,
8,
4,
3,
3,
3,
5,
5,
1,
3,
0,
2,
6,
1,
2,
2,
1,
4,
1,
3,
1,
3,
3,
1,
0,
0,
2,
3,
2,
4,
0,
0,
1,
1,
2,
2,
1,
1,
0,
1,
2,
0,
0,
1,
4,
0,
2,
0,
1,
3,
0,
2,
1,
1,
1,
1,
0,
0,
1,
0,
2,
0,
0,
0,
0,
0,
0,
1,
0,
1,
0,
2,
0,
1,
0,
0,
0,
0,
0,
1,
0,
0,
0,
3,
1,
1,
0,
2,
1,
0,
0,
2,
0,
0,
1,
0,
1,
0,
1,
0,
0,
1,
0,
1,
0,
1,
0,
0,
0,
0,
0,
0,
1,
0,
0,
1,
0,
0,
0,
0,
0,
0,
2,
1,
1,
0,
2,
0,
0,
0,
0,
0,
1,
0,
2,
0,
0,
0,
0,
1,
0,
0,
1,
0,
1,
0,
0,
2,
2,
0,
1,
0,
0,
0,
0,
0,
0,
1,
0,
0,
1,
0,
1,
0,
2,
0,
0,
1,
0,
0,
2,
0,
0,
1,
2,
1,
0,
0,
1,
0,
0,
0,
1,
0,
0,
0,
1,
0,
0,
0,
0,
0,
0,
1,
0,
0,
1,
0,
0,
0,
0,
0,
0,
0,
0,
0,
0,
0,
0,
0,
1,
0,
0,
1,
1,
0,
1,
0,
1,
0,
0,
0,
1,
0,
0,
0,
0,
1,
0,
0,
0,
0,
2,
0,
1,
0,
0,
0,
0,
1,
0,
0,
0,
0,
0,
0,
0,
0,
0,
0,
0,
0,
0,
0,
0,
0,
0,
1,
0,
0,
0,
0,
0,
0,
0,
0,
0,
0,
0,
0,
0,
0,
0,
0,
0,
0,
1,
0,
0,
0,
0,
0,
0,
1,
0,
0,
0,
0,
0,
0,
0,
0,
0,
0,
0,
0,
0,
0,
0,
0,
0,
0,
0,
0,
0,
0,
0,
0,
0,
0,
0,
0,
0,
0,
0,
0,
0,
0,
0,
0,
0,
0,
0,
0,
0,
0,
0,
0,
0,
0,
0,
0,
0,
0,
0,
0,
1,
0,
0,
0,
0,
0,
0,
0,
0,
0,
0,
0,
0,
0,
0,
0,
0,
0,
0,
0,
0,
0,
0,
0,
0,
0,
0,
0,
0,
0,
0,
0,
0,
0,
0,
0,
0,
0,
0,
0,
0,
0,
0,
0,
0,
0,
0,
0,
0,
0,
0,
0,
0,
0,
0,
0,
0,
0,
0,
0,
0,
0,
0,
0,
0,
0,
0,
0,
0,
0,
0,
0,
0,
0,
0,
0,
0,
0,
0,
0,
0,
0,
0,
0,
0,
0,
0,
0,
0,
0,
0,
0,
0,
0,
0,
0,
0,
0,
0,
0,
0,
0,
0,
0,
0,
0,
0,
0,
0,
0,
0,
0,
0,
0,
0,
0,
0,
0,
0,
0,
0,
0,
0,
0,
0,
0,
0,
0,
0,
0,
0,
0,
0,
0,
0,
0,
0,
0,
0,
0,
0,
0,
0,
0,
0,
0,
0,
0,
0,
0,
0,
0,
0,
0,
0,
0,
0,
0,
0,
0,
0,
0,
0,
0,
0,
0,
0,
0,
0,
0,
0,
0,
0,
0,
0,
0,
0,
0,
0,
0,
0,
0,
0,
0,
0,
0,
0,
0,
0,
0,
0,
0,
0,
0,
0,
0,
0,
0,
0,
0,
0,
0,
0,
0,
0,
0,
0,
0,
0,
0,
0,
0,
0,
0,
0,
0,
0,
0,
0,
0,
0,
0,
0,
0,
0,
0,
0,
0,
0,
0,
0,
0,
0,
0,
0,
0,
0,
0,
0,
0,
0,
0,
0,
0,
0,
0,
0,
0,
0,
0,
0,
0,
0,
0,
0,
0,
0,
0,
0,
0,
0,
0,
0,
0,
0,
0,
0,
0,
0,
0,
0,
0,
0,
0,
0,
0,
0,
0,
0,
0,
0,
0,
0,
0,
0,
0,
0,
0,
0,
0,
0,
0,
0,
0,
0,
0,
0,
0,
0,
0,
0,
0,
0,
0,
0,
0,
0,
0,
0,
0,
0,
0,
0,
0,
0,
0,
0,
0,
0,
0,
0,
0,
0,
0,
0,
0,
0,
0,
0,
0,
0,
0,
0,
0,
0,
0,
0,
0,
0,
0,
0,
0,
0,
0,
0,
0,
0,
0,
0,
0,
0,
0,
0,
0,
0,
0,
0,
0,
0,
0,
0,
0,
0,
0,
0,
0,
0,
0,
0,
0,
0,
0,
0,
0,
0,
#ENDOFDATA   :