File: N132962/Quantification/MMM1/SPI MM1 Fluorapatite[4][4].msa
#FORMAT      : EMSA/MAS Spectral Data File
#VERSION     : 1.0
#TITLE       : SPI MM1 Fluorapatite[4][all]
#DATE        : 11-MAR-2025
#TIME        : 14:40
#OWNER       : Unknown
#NPOINTS     : 4096
#NCOLUMNS    : 1
#XUNITS      : eV
#YUNITS      : counts
#DATATYPE    : Y
#XPERCHAN    : 9.99778
#OFFSET      : 1.69135
#BEAMKV      : 20
#SIGNALTYPE  : EDS
#ELEVANGLE   : 35
#AZIMANGLE   : 0
#LIVETIME    : 239.87
#REALTIME    : 255.656
#PROBECUR    : 1.02809
#TAUWIND     : 0
#TDEADLYR    : 0
#TACTLYR     : 0.045
#TALWIND     : 0.025
#CHOFFSET    : 0.0
#XLABEL      : Energy (eV)
#YLABEL      : Counts
#XPOSITION   : -2.60014
#YPOSITION   : 1.91266
#ZPOSITION   : 30.9284
#EDSDET      : SD
##SPECIMEN   : SPI MM1 Fluorapatite[4][all]
##D2STDCMP   : Fluorapatite,(O:35.868),(F:3.5492),(P:23.146),(Ca:37.4368)
##DET_HASH   : 12273538-fd48-a23f-0a19-f1e6fa85caef
##CALIB_HASH : 6abaa72c-aa41-8738-0be9-f592914732f3
##WORKING    : 15.0 mm
##DET_NAME   : EDAX All
##DET_MODE   : MediumLE
#SPECTRUM    :
14,
25,
9,
20,
112,
418,
1024,
3494,
11357,
18404,
13289,
6724,
3614,
2584,
3039,
8341,
30614,
59365,
44132,
12329,
3389,
4674,
8082,
7596,
4034,
2532,
2318,
2550,
2784,
2977,
2876,
2981,
3184,
3617,
4430,
4410,
4078,
3787,
3839,
3948,
4141,
4138,
4342,
4358,
4368,
4648,
4653,
4732,
4829,
5122,
5050,
5042,
5194,
4935,
4945,
5186,
5504,
6335,
7013,
7374,
7737,
7379,
7393,
10227,
19610,
47980,
102079,
139478,
108962,
50205,
19125,
11598,
8894,
6170,
4465,
4219,
4702,
4904,
4535,
3829,
3391,
3352,
3400,
3252,
3327,
3349,
3215,
3150,
3185,
3195,
3016,
3162,
3058,
3074,
3105,
3048,
3015,
2969,
3021,
2942,
2980,
3017,
2899,
2841,
3035,
2941,
2812,
2880,
2871,
2852,
2847,
2788,
2686,
2670,
2807,
2839,
3164,
3938,
5140,
10392,
29668,
77430,
144200,
183591,
153794,
85947,
33234,
10306,
4192,
3413,
4481,
7803,
14455,
21844,
24214,
19143,
10971,
5263,
2677,
1974,
1918,
1867,
1799,
1809,
1761,
1701,
1635,
1636,
1694,
1648,
1686,
1608,
1654,
1697,
1706,
1812,
1742,
1812,
1796,
1792,
1793,
1832,
1913,
1740,
1664,
1608,
1611,
1607,
1608,
1650,
1598,
1547,
1571,
1601,
1716,
1726,
1655,
1599,
1600,
1458,
1473,
1443,
1498,
1488,
1325,
1401,
1439,
1605,
1587,
1663,
1647,
1652,
1586,
1463,
1399,
1331,
1266,
1332,
1414,
1376,
1344,
1350,
1363,
1347,
1259,
1231,
1228,
1233,
1220,
1259,
1204,
1233,
1288,
1324,
1255,
1268,
1181,
1141,
1121,
1113,
1121,
1120,
1094,
1018,
1068,
1088,
1106,
1044,
1022,
1055,
1043,
1031,
1062,
1026,
1068,
1051,
990,
1007,
997,
1011,
918,
1023,
962,
1001,
1058,
1077,
1054,
1081,
1069,
1052,
946,
953,
892,
881,
842,
878,
949,
917,
808,
865,
847,
850,
835,
874,
834,
783,
780,
809,
808,
751,
749,
809,
774,
766,
751,
777,
756,
724,
762,
722,
731,
741,
715,
704,
753,
715,
667,
736,
688,
680,
685,
700,
727,
706,
630,
657,
641,
680,
639,
603,
668,
652,
639,
627,
627,
629,
649,
587,
627,
641,
609,
646,
583,
590,
563,
561,
584,
605,
614,
565,
537,
589,
550,
531,
544,
525,
545,
558,
542,
529,
526,
523,
496,
525,
465,
496,
525,
502,
494,
475,
457,
483,
462,
470,
449,
431,
440,
461,
473,
438,
461,
479,
422,
464,
474,
461,
417,
409,
448,
383,
443,
392,
401,
429,
416,
429,
428,
377,
365,
417,
354,
383,
384,
385,
325,
348,
348,
340,
385,
348,
351,
337,
326,
342,
351,
345,
332,
347,
325,
353,
330,
322,
307,
312,
316,
310,
315,
316,
300,
285,
289,
295,
284,
280,
331,
297,
282,
282,
274,
258,
260,
275,
263,
269,
301,
237,
251,
243,
268,
232,
256,
256,
230,
261,
240,
231,
236,
264,
220,
205,
230,
244,
222,
195,
241,
206,
219,
208,
202,
222,
205,
199,
198,
195,
200,
203,
179,
192,
201,
198,
161,
172,
175,
171,
169,
182,
169,
167,
172,
168,
184,
147,
150,
148,
183,
141,
155,
143,
158,
159,
155,
168,
201,
129,
145,
136,
133,
135,
139,
128,
132,
117,
112,
150,
139,
135,
131,
103,
131,
115,
115,
114,
99,
117,
96,
103,
101,
109,
107,
115,
98,
100,
96,
102,
112,
104,
81,
92,
94,
101,
95,
96,
79,
75,
92,
86,
65,
85,
81,
78,
85,
83,
80,
80,
76,
85,
62,
79,
67,
74,
73,
87,
64,
53,
77,
69,
71,
63,
81,
71,
69,
61,
64,
54,
65,
50,
52,
54,
47,
64,
46,
61,
42,
58,
47,
62,
47,
51,
45,
52,
35,
34,
38,
36,
45,
36,
40,
45,
40,
28,
30,
32,
48,
34,
37,
37,
24,
41,
25,
38,
27,
30,
30,
26,
23,
26,
25,
23,
21,
24,
27,
33,
22,
28,
23,
37,
23,
26,
20,
23,
16,
24,
24,
23,
15,
21,
19,
18,
17,
20,
11,
17,
16,
20,
11,
15,
8,
21,
12,
13,
12,
9,
7,
19,
9,
15,
13,
15,
12,
17,
8,
9,
6,
6,
10,
11,
11,
5,
7,
8,
3,
4,
4,
9,
3,
4,
3,
3,
1,
6,
4,
4,
5,
3,
1,
5,
1,
2,
4,
5,
1,
0,
2,
1,
0,
1,
3,
0,
0,
0,
0,
1,
1,
0,
0,
1,
0,
0,
1,
1,
0,
2,
0,
1,
0,
1,
1,
0,
0,
0,
1,
0,
0,
0,
0,
0,
0,
0,
0,
0,
0,
1,
0,
1,
0,
0,
0,
1,
0,
0,
0,
1,
0,
1,
0,
0,
0,
0,
0,
0,
0,
0,
0,
0,
1,
1,
0,
0,
0,
0,
0,
0,
1,
0,
0,
0,
0,
0,
0,
0,
0,
0,
0,
0,
0,
0,
0,
0,
0,
0,
0,
0,
0,
0,
0,
0,
0,
0,
0,
0,
0,
0,
0,
0,
0,
0,
0,
0,
0,
0,
1,
0,
0,
0,
0,
0,
1,
0,
0,
0,
0,
0,
0,
0,
0,
0,
0,
0,
0,
0,
0,
0,
0,
0,
0,
0,
0,
0,
0,
0,
0,
0,
0,
0,
0,
0,
0,
0,
0,
0,
0,
0,
0,
0,
0,
0,
0,
0,
0,
0,
0,
0,
0,
0,
0,
0,
0,
0,
0,
0,
0,
0,
0,
0,
1,
0,
0,
0,
0,
0,
0,
0,
0,
0,
0,
0,
0,
0,
0,
0,
0,
0,
0,
0,
0,
0,
0,
0,
1,
0,
0,
0,
0,
0,
0,
0,
0,
0,
0,
0,
0,
0,
0,
0,
0,
0,
0,
0,
0,
0,
0,
0,
0,
0,
0,
0,
0,
0,
0,
0,
0,
0,
0,
0,
0,
0,
0,
0,
0,
0,
0,
0,
0,
0,
0,
0,
0,
0,
0,
0,
0,
0,
0,
0,
0,
0,
0,
0,
0,
0,
0,
0,
0,
0,
0,
0,
0,
0,
0,
0,
0,
0,
0,
0,
0,
0,
0,
0,
0,
0,
0,
0,
0,
0,
0,
0,
0,
0,
0,
1,
0,
0,
0,
0,
0,
0,
0,
0,
0,
0,
0,
0,
0,
0,
0,
0,
0,
0,
0,
0,
0,
0,
0,
0,
0,
0,
0,
0,
0,
0,
0,
0,
0,
0,
0,
1,
0,
0,
0,
0,
0,
0,
0,
0,
0,
0,
0,
0,
0,
0,
0,
0,
0,
0,
0,
0,
0,
0,
0,
0,
0,
0,
0,
0,
0,
0,
0,
0,
0,
0,
0,
0,
0,
0,
0,
0,
0,
0,
0,
0,
0,
0,
0,
0,
0,
0,
0,
0,
0,
0,
0,
0,
0,
0,
0,
0,
0,
0,
0,
0,
0,
0,
0,
0,
0,
0,
0,
0,
0,
0,
0,
0,
0,
0,
0,
0,
0,
0,
0,
0,
0,
0,
0,
0,
0,
0,
0,
0,
0,
0,
0,
0,
0,
0,
0,
0,
0,
0,
0,
0,
0,
0,
0,
0,
0,
0,
0,
0,
0,
0,
0,
0,
0,
0,
0,
0,
0,
0,
0,
0,
0,
0,
0,
0,
0,
0,
0,
0,
0,
0,
0,
0,
0,
0,
0,
0,
0,
0,
0,
0,
0,
0,
0,
0,
0,
0,
0,
0,
0,
0,
0,
0,
0,
0,
0,
0,
0,
0,
0,
0,
0,
0,
0,
0,
0,
0,
0,
0,
0,
0,
0,
0,
0,
0,
0,
0,
0,
0,
0,
0,
0,
0,
0,
0,
0,
0,
0,
0,
0,
0,
0,
0,
0,
0,
0,
0,
0,
0,
0,
0,
0,
0,
0,
0,
0,
0,
0,
0,
0,
0,
0,
0,
0,
0,
0,
0,
0,
0,
0,
0,
0,
0,
0,
0,
0,
0,
0,
0,
0,
0,
0,
0,
0,
0,
0,
0,
0,
0,
0,
0,
0,
0,
0,
0,
0,
0,
0,
0,
0,
0,
0,
0,
0,
0,
0,
0,
0,
0,
0,
0,
0,
0,
0,
0,
0,
0,
0,
0,
0,
0,
0,
0,
0,
0,
0,
0,
0,
0,
0,
0,
0,
0,
0,
0,
0,
0,
0,
0,
0,
0,
0,
0,
0,
0,
0,
0,
0,
0,
0,
0,
0,
0,
0,
0,
0,
0,
0,
0,
0,
0,
0,
0,
0,
0,
0,
0,
0,
0,
0,
0,
0,
0,
0,
0,
0,
0,
0,
0,
0,
0,
0,
0,
0,
0,
0,
0,
0,
0,
0,
0,
0,
0,
0,
0,
0,
0,
0,
0,
0,
0,
0,
0,
0,
0,
0,
0,
0,
0,
0,
0,
0,
0,
0,
0,
0,
0,
0,
0,
0,
0,
0,
0,
0,
0,
0,
0,
#ENDOFDATA   :