File: N132962/Quantification/MMM1/SPI MM1 Calcite[4][4].msa
#FORMAT      : EMSA/MAS Spectral Data File
#VERSION     : 1.0
#TITLE       : SPI MM1 Calcite[4][all]
#DATE        : 11-MAR-2025
#TIME        : 14:16
#OWNER       : Unknown
#NPOINTS     : 4096
#NCOLUMNS    : 1
#XUNITS      : eV
#YUNITS      : counts
#DATATYPE    : Y
#XPERCHAN    : 9.99778
#OFFSET      : 1.69135
#BEAMKV      : 20
#SIGNALTYPE  : EDS
#ELEVANGLE   : 35
#AZIMANGLE   : 0
#LIVETIME    : 239.919
#REALTIME    : 252.201
#PROBECUR    : 1.02902
#TAUWIND     : 0
#TDEADLYR    : 0
#TACTLYR     : 0.045
#TALWIND     : 0.025
#CHOFFSET    : 0.0
#XLABEL      : Energy (eV)
#YLABEL      : Counts
#XPOSITION   : 0.11014
#YPOSITION   : -2.95603
#ZPOSITION   : 30.9284
#EDSDET      : SD
##SPECIMEN   : SPI MM1 Calcite[4][all]
##D2STDCMP   : Calcite,(C:12.0003),(O:47.9565),(Ca:40.0432),5.0
##DET_HASH   : 12273538-fd48-a23f-0a19-f1e6fa85caef
##CALIB_HASH : 6abaa72c-aa41-8738-0be9-f592914732f3
##WORKING    : 15.0 mm
##DET_NAME   : EDAX All
##DET_MODE   : MediumLE
#SPECTRUM    :
28,
46,
7,
18,
108,
470,
1854,
8711,
30016,
43195,
23339,
7828,
3388,
2175,
2874,
9123,
35331,
67841,
50516,
13920,
2371,
1352,
1492,
1574,
1672,
1711,
1794,
1888,
2055,
2115,
2251,
2293,
2275,
2534,
2684,
2881,
2990,
3049,
3101,
3259,
3354,
3391,
3581,
3566,
3609,
3691,
3747,
3984,
4032,
4165,
4100,
4016,
4201,
4052,
4046,
4027,
4322,
4559,
4746,
4622,
4532,
4293,
4136,
4535,
5331,
5773,
5170,
4226,
3679,
3709,
3626,
3517,
3544,
3543,
3484,
3772,
3836,
3574,
3503,
3295,
3373,
3279,
3213,
3178,
3146,
3113,
3151,
3052,
3124,
3041,
3004,
3031,
3057,
2992,
2922,
2920,
2828,
3057,
2884,
2854,
2818,
2763,
2696,
2745,
2766,
2606,
2790,
2732,
2722,
2675,
2664,
2526,
2537,
2538,
2600,
2711,
3023,
3713,
5391,
10854,
31307,
80309,
151785,
192223,
160966,
90264,
34702,
10492,
4127,
3211,
4433,
7950,
14704,
22330,
24496,
19601,
11052,
5085,
2491,
1797,
1638,
1621,
1605,
1551,
1493,
1500,
1460,
1492,
1446,
1525,
1476,
1483,
1491,
1483,
1364,
1413,
1391,
1369,
1428,
1392,
1453,
1335,
1378,
1298,
1379,
1286,
1329,
1316,
1239,
1319,
1244,
1260,
1273,
1297,
1194,
1264,
1234,
1247,
1316,
1189,
1259,
1264,
1198,
1229,
1175,
1216,
1165,
1186,
1133,
1169,
1164,
1173,
1142,
1111,
1200,
1197,
1234,
1186,
1127,
1137,
1100,
1094,
1035,
1052,
1047,
1022,
940,
1058,
1019,
1080,
1045,
1014,
1124,
1040,
1053,
1034,
1015,
950,
974,
939,
932,
873,
902,
919,
886,
895,
815,
848,
809,
841,
869,
825,
798,
896,
866,
844,
862,
880,
863,
847,
790,
835,
781,
818,
855,
933,
998,
942,
922,
889,
817,
825,
758,
768,
766,
790,
798,
729,
753,
696,
727,
739,
691,
705,
656,
661,
655,
653,
647,
726,
627,
677,
653,
665,
603,
623,
611,
636,
598,
603,
659,
589,
605,
583,
602,
593,
575,
583,
584,
564,
575,
552,
590,
552,
568,
501,
542,
561,
526,
522,
479,
519,
500,
538,
505,
504,
531,
503,
525,
498,
526,
475,
516,
474,
470,
469,
505,
463,
452,
449,
464,
426,
458,
415,
430,
439,
455,
493,
419,
418,
430,
445,
449,
413,
439,
358,
410,
391,
393,
404,
425,
373,
413,
354,
387,
370,
372,
388,
394,
370,
364,
353,
334,
357,
369,
338,
387,
366,
335,
351,
346,
368,
322,
342,
314,
311,
326,
341,
309,
301,
297,
314,
321,
310,
289,
274,
292,
279,
286,
294,
268,
273,
269,
287,
270,
242,
261,
255,
245,
280,
254,
249,
260,
273,
259,
267,
235,
226,
223,
247,
253,
261,
209,
217,
226,
212,
226,
240,
216,
216,
216,
243,
217,
219,
214,
216,
190,
214,
206,
175,
205,
201,
187,
192,
228,
191,
189,
211,
196,
168,
189,
163,
174,
171,
157,
174,
167,
174,
173,
177,
170,
163,
162,
146,
157,
148,
157,
160,
132,
164,
140,
145,
136,
163,
129,
141,
134,
121,
133,
154,
134,
139,
128,
134,
113,
119,
120,
118,
110,
117,
95,
113,
105,
101,
118,
110,
92,
104,
114,
101,
89,
112,
116,
115,
117,
101,
102,
90,
107,
100,
98,
102,
90,
81,
83,
78,
97,
104,
77,
85,
76,
81,
88,
79,
66,
75,
81,
89,
72,
80,
70,
68,
61,
82,
61,
70,
56,
69,
59,
67,
70,
74,
61,
60,
69,
62,
58,
57,
74,
56,
52,
47,
54,
57,
42,
62,
48,
46,
54,
51,
50,
42,
44,
51,
54,
54,
46,
41,
38,
39,
34,
36,
38,
40,
34,
33,
43,
40,
40,
46,
42,
32,
43,
21,
48,
34,
45,
36,
30,
34,
35,
25,
29,
37,
31,
28,
18,
23,
30,
27,
32,
21,
31,
29,
22,
27,
22,
19,
19,
20,
23,
12,
34,
17,
21,
8,
21,
18,
21,
19,
11,
17,
20,
19,
19,
15,
8,
12,
12,
12,
13,
9,
13,
7,
9,
13,
11,
8,
11,
13,
9,
6,
9,
12,
16,
12,
10,
6,
11,
6,
6,
6,
5,
10,
6,
9,
3,
7,
7,
5,
8,
1,
2,
6,
9,
5,
5,
1,
2,
2,
2,
4,
2,
0,
1,
5,
3,
2,
0,
1,
3,
2,
0,
0,
0,
0,
1,
0,
0,
0,
0,
0,
0,
1,
0,
0,
0,
0,
0,
0,
0,
0,
1,
0,
0,
0,
1,
0,
0,
0,
0,
0,
0,
1,
0,
1,
1,
0,
0,
0,
0,
0,
0,
0,
0,
0,
0,
1,
0,
0,
1,
0,
0,
0,
0,
0,
0,
0,
0,
0,
1,
0,
0,
0,
0,
0,
0,
0,
0,
0,
0,
0,
0,
1,
0,
0,
0,
1,
0,
0,
1,
0,
0,
0,
0,
0,
0,
0,
0,
0,
0,
0,
1,
0,
1,
0,
1,
0,
0,
0,
0,
1,
0,
0,
0,
0,
0,
0,
1,
0,
0,
0,
0,
0,
0,
0,
0,
0,
0,
0,
0,
0,
0,
0,
0,
0,
0,
0,
0,
0,
1,
0,
0,
0,
0,
0,
0,
0,
0,
0,
0,
0,
0,
0,
0,
0,
0,
0,
0,
0,
0,
1,
0,
0,
0,
0,
0,
0,
0,
0,
0,
0,
0,
0,
0,
0,
0,
1,
0,
0,
0,
0,
0,
0,
0,
0,
0,
0,
0,
0,
0,
0,
0,
0,
0,
0,
0,
0,
0,
0,
0,
0,
0,
0,
0,
0,
0,
0,
0,
0,
0,
0,
0,
0,
0,
0,
0,
0,
0,
0,
0,
0,
0,
0,
0,
0,
0,
0,
0,
0,
0,
0,
0,
0,
0,
0,
0,
0,
0,
0,
0,
0,
0,
0,
0,
0,
0,
0,
0,
1,
0,
0,
0,
0,
0,
0,
0,
0,
0,
0,
0,
0,
0,
0,
0,
0,
0,
0,
0,
0,
0,
0,
0,
0,
0,
0,
0,
0,
0,
0,
0,
0,
0,
0,
0,
0,
0,
0,
0,
0,
0,
0,
0,
0,
0,
0,
0,
0,
0,
0,
0,
0,
0,
0,
0,
0,
0,
0,
0,
0,
0,
0,
0,
0,
0,
0,
0,
0,
0,
1,
0,
0,
0,
0,
0,
0,
0,
0,
0,
0,
0,
0,
0,
0,
0,
0,
0,
0,
0,
0,
0,
0,
0,
0,
0,
0,
0,
0,
0,
0,
0,
0,
0,
0,
0,
0,
0,
0,
0,
0,
0,
0,
0,
0,
0,
0,
0,
0,
0,
0,
0,
0,
0,
0,
0,
0,
0,
0,
0,
0,
0,
0,
0,
0,
0,
0,
0,
0,
0,
0,
0,
0,
0,
0,
0,
0,
0,
0,
0,
0,
0,
0,
0,
0,
0,
0,
0,
0,
0,
0,
0,
0,
0,
0,
0,
0,
0,
0,
0,
0,
0,
0,
0,
0,
0,
0,
0,
0,
0,
0,
0,
0,
0,
0,
0,
0,
0,
0,
0,
0,
0,
0,
0,
0,
0,
0,
0,
0,
0,
0,
0,
0,
0,
0,
0,
0,
0,
0,
0,
0,
0,
0,
0,
0,
0,
0,
0,
0,
0,
0,
0,
0,
0,
0,
0,
0,
0,
0,
0,
0,
0,
0,
0,
0,
0,
0,
0,
0,
0,
0,
0,
0,
0,
0,
0,
0,
0,
0,
0,
0,
0,
0,
0,
0,
0,
0,
0,
0,
0,
0,
0,
0,
0,
0,
0,
0,
0,
0,
0,
0,
0,
0,
0,
0,
0,
0,
0,
0,
0,
0,
0,
0,
0,
0,
0,
0,
0,
0,
0,
0,
0,
0,
0,
0,
0,
0,
0,
0,
0,
0,
0,
0,
0,
0,
0,
0,
0,
0,
0,
0,
0,
0,
0,
0,
0,
0,
0,
0,
0,
0,
0,
0,
0,
0,
0,
0,
0,
0,
0,
0,
0,
0,
0,
0,
0,
0,
0,
0,
0,
0,
0,
0,
0,
0,
0,
0,
0,
0,
0,
0,
0,
0,
0,
0,
0,
0,
0,
0,
0,
0,
0,
0,
0,
0,
0,
0,
0,
0,
0,
0,
0,
0,
0,
0,
0,
0,
0,
0,
0,
0,
0,
0,
0,
0,
0,
0,
0,
0,
0,
0,
0,
0,
0,
0,
0,
0,
0,
0,
0,
0,
0,
0,
0,
0,
0,
0,
0,
0,
0,
0,
0,
0,
0,
0,
0,
0,
0,
0,
0,
0,
0,
0,
0,
0,
0,
0,
0,
0,
0,
0,
0,
0,
0,
0,
0,
0,
0,
0,
0,
0,
0,
0,
0,
0,
0,
0,
0,
0,
0,
0,
0,
0,
0,
0,
0,
0,
0,
0,
0,
0,
0,
0,
0,
0,
0,
0,
#ENDOFDATA   :