File: N132962/Quantification/MMM1/SPI MM1 Barite[5][4].msa
#FORMAT      : EMSA/MAS Spectral Data File
#VERSION     : 1.0
#TITLE       : SPI MM1 Barite[5][all]
#DATE        : 11-MAR-2025
#TIME        : 13:31
#OWNER       : Unknown
#NPOINTS     : 4096
#NCOLUMNS    : 1
#XUNITS      : eV
#YUNITS      : counts
#DATATYPE    : Y
#XPERCHAN    : 9.99778
#OFFSET      : 1.69135
#BEAMKV      : 20
#SIGNALTYPE  : EDS
#ELEVANGLE   : 35
#AZIMANGLE   : 0
#LIVETIME    : 239.8755
#REALTIME    : 258.922
#PROBECUR    : 1.02853
#TAUWIND     : 0
#TDEADLYR    : 0
#TACTLYR     : 0.045
#TALWIND     : 0.025
#CHOFFSET    : 0.0
#XLABEL      : Energy (eV)
#YLABEL      : Counts
#XPOSITION   : -0.394
#YPOSITION   : -5.07933
#ZPOSITION   : 30.9284
#EDSDET      : SD
##SPECIMEN   : SPI MM1 Barite[5][all]
##DET_HASH   : 12273538-fd48-a23f-0a19-f1e6fa85caef
##CALIB_HASH : 6abaa72c-aa41-8738-0be9-f592914732f3
##WORKING    : 15.0 mm
##DET_NAME   : EDAX All
##DET_MODE   : MediumLE
#SPECTRUM    :
26,
25,
18,
56,
405,
1437,
2465,
5032,
12060,
15524,
8870,
5090,
5206,
5784,
8151,
20798,
72150,
137953,
104881,
38124,
16481,
9228,
5963,
5519,
7015,
9589,
10565,
8011,
5307,
4071,
3990,
4589,
5751,
5914,
5825,
5607,
4852,
4358,
4081,
4126,
4155,
4406,
4272,
4525,
4526,
4504,
4758,
4900,
4874,
5168,
5221,
5172,
5348,
5355,
5294,
5592,
5715,
6118,
6322,
6530,
6524,
6296,
5681,
5390,
5296,
5437,
5559,
5637,
5612,
5765,
5677,
6213,
6725,
8897,
16108,
37395,
73690,
92781,
69776,
33144,
14015,
10393,
10248,
9538,
7086,
5676,
5139,
4906,
5031,
5314,
5562,
5531,
5358,
5258,
5134,
4920,
4944,
4793,
4893,
4760,
4901,
4870,
5086,
5001,
5118,
4936,
4873,
4794,
4805,
4627,
4574,
4675,
4744,
4710,
4583,
4592,
4545,
4513,
4520,
4443,
4532,
4304,
4436,
4520,
4386,
4391,
4490,
4317,
4502,
5016,
5843,
6875,
7331,
6789,
5703,
4847,
4362,
4356,
4143,
4101,
4132,
4291,
4707,
5562,
6804,
11495,
24022,
48226,
75786,
86333,
69613,
41051,
18739,
8422,
4994,
4472,
4738,
6622,
12418,
22710,
35989,
43143,
39647,
29443,
20134,
13661,
9475,
6863,
6186,
7432,
10984,
15131,
16720,
14741,
10261,
6340,
4319,
3476,
3265,
3238,
3331,
3681,
4986,
6652,
7972,
7884,
6424,
4643,
3444,
3074,
3174,
3780,
4289,
4815,
4494,
3920,
3258,
3037,
2824,
2856,
2756,
2465,
2413,
2434,
2325,
2373,
2311,
2254,
2293,
2282,
2261,
2407,
2634,
2570,
2583,
2525,
2452,
2288,
2207,
2243,
2210,
2168,
2243,
2138,
2229,
2175,
2134,
2197,
2225,
2088,
2183,
2043,
2091,
2001,
2050,
2090,
2089,
2002,
2088,
2096,
2006,
2024,
2006,
2048,
1984,
2039,
1985,
2043,
2180,
2110,
2020,
2053,
1864,
1908,
1901,
1899,
1875,
1834,
1789,
1810,
1824,
1813,
1712,
1895,
1845,
1700,
1823,
1756,
1738,
1785,
1748,
1751,
1663,
1694,
1749,
1664,
1722,
1648,
1630,
1674,
1676,
1598,
1629,
1650,
1591,
1545,
1595,
1622,
1539,
1583,
1498,
1571,
1497,
1530,
1511,
1539,
1539,
1552,
1516,
1503,
1372,
1476,
1527,
1496,
1458,
1422,
1425,
1433,
1406,
1393,
1385,
1409,
1406,
1354,
1368,
1357,
1393,
1301,
1300,
1329,
1336,
1371,
1337,
1341,
1270,
1319,
1314,
1348,
1248,
1232,
1238,
1206,
1257,
1268,
1193,
1190,
1236,
1168,
1154,
1187,
1245,
1177,
1193,
1147,
1156,
1174,
1142,
1140,
1115,
1124,
1077,
1134,
1031,
1073,
1020,
1103,
1058,
1021,
1080,
1007,
1034,
1025,
1015,
959,
977,
1016,
1011,
928,
984,
987,
971,
934,
972,
987,
938,
885,
881,
861,
944,
848,
887,
896,
875,
823,
893,
824,
887,
853,
888,
831,
789,
791,
813,
855,
750,
739,
798,
819,
780,
767,
750,
764,
735,
721,
709,
737,
755,
720,
733,
739,
712,
708,
685,
703,
697,
622,
691,
688,
639,
674,
633,
642,
651,
628,
637,
612,
630,
584,
622,
613,
644,
598,
591,
578,
578,
604,
539,
566,
549,
578,
528,
525,
545,
492,
502,
490,
478,
532,
495,
488,
503,
520,
473,
475,
423,
484,
438,
463,
450,
464,
434,
438,
468,
439,
426,
423,
410,
417,
444,
425,
410,
365,
380,
396,
372,
369,
400,
393,
411,
372,
380,
350,
368,
375,
350,
368,
336,
361,
359,
340,
320,
334,
355,
317,
301,
292,
293,
279,
329,
326,
274,
326,
298,
279,
297,
251,
251,
285,
299,
289,
241,
282,
296,
242,
255,
224,
245,
255,
251,
244,
215,
255,
235,
218,
230,
205,
194,
183,
195,
197,
216,
218,
196,
218,
211,
183,
201,
176,
183,
225,
177,
185,
183,
183,
183,
175,
149,
143,
145,
160,
152,
163,
151,
145,
144,
155,
127,
137,
134,
125,
154,
174,
140,
142,
121,
133,
153,
133,
143,
114,
132,
133,
100,
117,
110,
106,
119,
113,
92,
88,
107,
112,
88,
86,
102,
94,
84,
87,
106,
77,
77,
91,
71,
90,
89,
74,
74,
65,
70,
71,
83,
71,
79,
69,
63,
80,
74,
51,
59,
45,
51,
60,
52,
58,
48,
59,
49,
49,
52,
53,
46,
42,
42,
44,
34,
44,
45,
34,
40,
40,
34,
40,
39,
44,
32,
36,
31,
42,
36,
24,
16,
12,
29,
17,
25,
16,
20,
20,
19,
18,
11,
9,
12,
14,
7,
7,
6,
4,
8,
3,
7,
10,
5,
4,
6,
2,
1,
3,
2,
2,
2,
1,
2,
0,
2,
0,
3,
3,
1,
1,
1,
0,
2,
1,
1,
1,
6,
2,
1,
1,
1,
0,
1,
1,
2,
0,
0,
0,
0,
2,
0,
1,
2,
0,
3,
0,
0,
0,
1,
0,
2,
2,
0,
4,
3,
4,
0,
1,
1,
0,
1,
2,
1,
0,
0,
4,
0,
0,
1,
0,
0,
1,
1,
0,
0,
0,
1,
2,
1,
0,
2,
1,
1,
1,
0,
0,
1,
0,
0,
0,
2,
0,
1,
1,
1,
2,
1,
1,
0,
0,
2,
0,
0,
0,
1,
1,
0,
1,
0,
0,
0,
1,
0,
0,
1,
0,
1,
0,
2,
0,
0,
2,
1,
0,
0,
0,
0,
0,
1,
1,
1,
1,
0,
1,
0,
0,
0,
0,
1,
1,
0,
1,
1,
1,
0,
0,
0,
0,
0,
0,
0,
0,
1,
0,
0,
0,
0,
1,
0,
0,
0,
0,
1,
0,
0,
0,
0,
0,
0,
0,
0,
0,
1,
0,
0,
1,
2,
1,
0,
0,
0,
0,
0,
0,
0,
0,
0,
0,
1,
0,
1,
0,
0,
0,
0,
0,
0,
1,
0,
0,
1,
1,
0,
0,
1,
0,
0,
0,
0,
1,
1,
0,
0,
0,
1,
0,
0,
0,
0,
0,
1,
0,
0,
0,
0,
0,
0,
0,
0,
0,
1,
0,
0,
0,
0,
0,
0,
0,
0,
0,
0,
0,
0,
0,
0,
0,
0,
0,
0,
0,
0,
0,
0,
0,
0,
0,
0,
0,
0,
0,
0,
0,
1,
0,
0,
1,
1,
0,
0,
0,
0,
0,
0,
2,
0,
0,
0,
0,
0,
0,
0,
0,
0,
0,
1,
0,
0,
0,
0,
0,
0,
0,
0,
0,
0,
0,
0,
0,
0,
0,
0,
0,
0,
0,
0,
0,
0,
0,
0,
0,
0,
0,
0,
0,
0,
0,
0,
0,
0,
0,
0,
1,
0,
0,
0,
0,
0,
0,
0,
0,
0,
0,
0,
0,
0,
0,
0,
0,
0,
0,
0,
0,
0,
0,
0,
0,
0,
0,
0,
0,
0,
0,
0,
0,
0,
0,
0,
0,
0,
0,
0,
0,
0,
0,
0,
0,
0,
0,
0,
0,
1,
0,
0,
0,
0,
0,
0,
0,
0,
0,
0,
0,
0,
0,
0,
0,
0,
0,
0,
0,
0,
0,
0,
0,
0,
0,
0,
0,
0,
0,
0,
0,
0,
0,
0,
0,
0,
0,
0,
0,
0,
0,
0,
0,
0,
0,
0,
0,
1,
0,
0,
0,
0,
0,
0,
0,
0,
0,
0,
0,
0,
0,
0,
0,
0,
0,
0,
0,
0,
0,
0,
0,
0,
0,
0,
0,
0,
0,
0,
0,
0,
0,
0,
0,
0,
0,
0,
0,
0,
0,
0,
0,
0,
0,
0,
0,
0,
0,
0,
0,
0,
0,
0,
0,
0,
0,
0,
0,
0,
0,
0,
0,
0,
0,
0,
0,
0,
0,
0,
0,
0,
0,
0,
0,
0,
0,
0,
0,
0,
0,
0,
0,
0,
0,
0,
0,
0,
0,
0,
0,
0,
0,
0,
0,
0,
0,
0,
0,
0,
0,
0,
0,
0,
0,
0,
0,
0,
0,
0,
0,
0,
0,
0,
0,
0,
0,
0,
0,
0,
0,
0,
0,
0,
0,
0,
0,
0,
0,
0,
0,
0,
0,
0,
0,
0,
0,
0,
0,
0,
0,
0,
0,
0,
0,
0,
0,
0,
0,
0,
0,
0,
0,
0,
0,
0,
0,
0,
0,
0,
0,
0,
0,
0,
0,
0,
0,
0,
0,
0,
0,
0,
0,
0,
0,
0,
0,
0,
0,
0,
0,
0,
0,
0,
0,
0,
0,
0,
0,
0,
0,
0,
0,
0,
0,
0,
0,
0,
0,
0,
0,
0,
0,
0,
0,
0,
0,
0,
0,
0,
0,
0,
0,
0,
0,
0,
0,
0,
0,
0,
0,
0,
0,
0,
0,
0,
0,
0,
0,
0,
0,
0,
0,
0,
0,
0,
0,
0,
0,
0,
0,
0,
0,
0,
0,
0,
0,
0,
0,
0,
0,
0,
0,
0,
0,
0,
0,
0,
0,
0,
0,
0,
0,
0,
0,
0,
0,
0,
0,
0,
0,
0,
0,
0,
0,
0,
0,
0,
0,
0,
0,
0,
0,
0,
0,
0,
0,
#ENDOFDATA   :