File: N132962/Quantification/MMM1/SPI MM1 Cryolite[2][4].msa
#FORMAT      : EMSA/MAS Spectral Data File
#VERSION     : 1.0
#TITLE       : SPI MM1dup Cryolite[2][all]
#DATE        : 12-MAR-2025
#TIME        : 13:42
#OWNER       : Unknown
#NPOINTS     : 4096
#NCOLUMNS    : 1
#XUNITS      : eV
#YUNITS      : counts
#DATATYPE    : Y
#XPERCHAN    : 9.99778
#OFFSET      : 1.69135
#BEAMKV      : 20
#SIGNALTYPE  : EDS
#ELEVANGLE   : 35
#AZIMANGLE   : 0
#LIVETIME    : 240.163
#REALTIME    : 258.665
#PROBECUR    : 1.02627
#TAUWIND     : 0
#TDEADLYR    : 0
#TACTLYR     : 0.045
#TALWIND     : 0.025
#CHOFFSET    : 0.0
#XLABEL      : Energy (eV)
#YLABEL      : Counts
#XPOSITION   : -3.92605
#YPOSITION   : -0.56319
#ZPOSITION   : 31.03608
#EDSDET      : SD
##SPECIMEN   : SPI MM1dup Cryolite[2][all]
##D2STDCMP   : Cryolite,(F:54.2963),(Na:32.8517),(Al:12.8519)
##DET_HASH   : 12273538-fd48-a23f-0a19-f1e6fa85caef
##CALIB_HASH : 6abaa72c-aa41-8738-0be9-f592914732f3
##WORKING    : 15.0 mm
##DET_NAME   : EDAX All
##DET_MODE   : MediumLE
#SPECTRUM    :
19,
22,
7,
36,
141,
500,
1302,
3298,
8521,
11130,
6184,
3457,
3317,
3812,
4454,
5108,
7332,
9952,
11240,
16213,
53756,
219757,
488762,
430712,
140402,
18589,
2744,
2260,
2617,
2837,
3538,
5082,
14971,
60906,
153593,
170594,
81533,
18017,
3501,
2019,
1994,
2062,
2360,
2874,
3954,
4581,
4710,
10422,
34646,
70787,
71905,
37350,
11845,
4300,
2691,
2688,
3178,
3823,
3631,
2951,
2645,
2314,
2182,
2111,
2080,
2152,
2261,
2322,
2399,
2570,
2742,
2768,
2836,
2688,
2363,
2365,
2264,
2249,
2276,
2283,
2230,
2242,
2274,
2281,
2341,
2345,
2384,
2246,
2186,
2120,
2131,
2171,
2205,
2157,
2089,
2083,
2166,
2074,
2152,
2116,
2145,
2102,
2083,
1948,
2040,
1986,
1992,
1903,
2001,
1942,
1883,
1820,
1968,
1936,
1773,
1762,
1811,
1844,
1866,
1825,
1797,
1850,
1743,
1676,
1782,
1714,
1599,
1670,
1673,
1679,
1641,
1618,
1632,
1562,
1605,
1521,
1518,
1536,
1498,
1564,
1503,
1509,
1519,
1460,
1442,
1400,
1391,
1467,
1340,
1393,
1340,
1411,
1333,
1405,
1332,
1464,
1366,
1280,
1342,
1258,
1338,
1257,
1297,
1185,
1258,
1250,
1230,
1153,
1177,
1258,
1147,
1211,
1268,
1197,
1159,
1089,
1129,
1176,
1125,
1124,
1131,
1108,
1095,
1090,
1005,
1002,
1048,
1085,
1044,
1048,
1001,
1014,
994,
1050,
978,
932,
969,
1014,
993,
963,
920,
950,
915,
912,
845,
893,
882,
840,
879,
868,
827,
931,
944,
977,
963,
918,
892,
843,
798,
809,
835,
769,
749,
791,
803,
760,
750,
725,
732,
757,
737,
781,
707,
699,
760,
734,
794,
692,
741,
719,
673,
661,
654,
729,
600,
679,
678,
687,
697,
684,
739,
648,
678,
624,
596,
638,
610,
587,
569,
586,
624,
572,
581,
580,
568,
567,
606,
559,
544,
554,
571,
529,
533,
547,
573,
540,
553,
543,
529,
533,
519,
496,
474,
490,
486,
481,
471,
465,
473,
438,
489,
526,
478,
457,
496,
477,
456,
433,
449,
435,
446,
413,
452,
446,
424,
396,
447,
399,
424,
409,
398,
384,
469,
413,
414,
372,
393,
405,
359,
358,
330,
354,
370,
399,
348,
348,
375,
341,
373,
349,
372,
353,
345,
322,
322,
340,
370,
310,
299,
329,
329,
336,
311,
318,
336,
300,
304,
284,
310,
322,
307,
302,
272,
292,
282,
280,
256,
247,
283,
263,
230,
305,
275,
233,
275,
260,
241,
259,
248,
266,
245,
269,
247,
250,
251,
222,
244,
223,
239,
225,
226,
223,
236,
228,
223,
220,
229,
215,
217,
238,
197,
196,
208,
212,
198,
198,
186,
187,
200,
204,
188,
198,
174,
172,
169,
182,
188,
176,
184,
186,
184,
172,
201,
187,
153,
149,
189,
156,
159,
172,
154,
166,
170,
171,
153,
123,
151,
145,
137,
147,
156,
150,
159,
155,
126,
124,
129,
137,
121,
128,
138,
130,
140,
123,
134,
138,
110,
121,
114,
132,
113,
99,
109,
100,
107,
120,
114,
115,
104,
107,
94,
99,
113,
107,
92,
76,
96,
85,
97,
100,
88,
89,
84,
99,
81,
92,
81,
92,
85,
94,
84,
77,
84,
79,
75,
86,
70,
91,
73,
54,
67,
76,
73,
76,
79,
78,
80,
44,
75,
66,
62,
68,
58,
60,
58,
57,
69,
55,
52,
57,
41,
56,
57,
50,
48,
61,
51,
66,
53,
45,
40,
46,
49,
47,
48,
47,
33,
41,
43,
37,
42,
55,
40,
28,
45,
46,
33,
30,
44,
42,
35,
50,
28,
32,
33,
30,
30,
31,
37,
34,
37,
24,
25,
34,
29,
26,
29,
30,
25,
19,
25,
26,
25,
26,
22,
28,
23,
26,
34,
24,
26,
19,
25,
22,
9,
18,
17,
23,
20,
22,
21,
11,
28,
20,
16,
18,
16,
11,
8,
15,
18,
22,
24,
8,
14,
18,
10,
16,
12,
9,
18,
11,
9,
8,
18,
19,
5,
14,
13,
9,
13,
8,
7,
10,
8,
10,
10,
9,
9,
7,
10,
5,
14,
8,
11,
6,
7,
7,
5,
3,
11,
2,
4,
1,
1,
3,
2,
7,
5,
6,
8,
4,
2,
7,
0,
3,
5,
1,
2,
0,
2,
0,
2,
4,
4,
3,
1,
2,
4,
0,
0,
0,
0,
0,
0,
0,
0,
0,
0,
0,
0,
0,
1,
0,
0,
0,
0,
0,
0,
0,
1,
0,
0,
0,
0,
0,
0,
0,
0,
0,
0,
0,
0,
0,
0,
0,
1,
0,
0,
1,
0,
0,
0,
0,
0,
0,
0,
0,
0,
0,
0,
0,
0,
0,
0,
0,
0,
0,
0,
1,
0,
0,
0,
0,
0,
0,
0,
0,
2,
0,
0,
0,
0,
0,
0,
0,
0,
0,
0,
0,
0,
0,
0,
0,
0,
0,
0,
0,
1,
0,
0,
0,
0,
0,
0,
0,
0,
0,
0,
0,
0,
0,
0,
1,
0,
0,
0,
0,
0,
1,
0,
0,
0,
0,
0,
0,
0,
0,
0,
0,
0,
0,
1,
1,
0,
0,
0,
0,
0,
0,
0,
0,
0,
0,
0,
0,
0,
0,
0,
0,
1,
0,
0,
0,
0,
0,
0,
0,
0,
0,
0,
0,
0,
0,
0,
0,
0,
0,
0,
0,
0,
0,
0,
0,
0,
0,
0,
0,
0,
0,
0,
0,
0,
0,
0,
0,
0,
0,
0,
0,
0,
0,
0,
0,
0,
0,
0,
0,
0,
0,
0,
0,
0,
0,
0,
0,
0,
0,
0,
0,
0,
0,
0,
0,
0,
0,
0,
0,
0,
0,
0,
0,
0,
0,
0,
0,
0,
0,
0,
0,
0,
0,
0,
0,
0,
0,
0,
0,
0,
0,
0,
0,
0,
1,
0,
0,
0,
0,
0,
0,
0,
0,
0,
0,
0,
0,
0,
0,
0,
0,
0,
0,
0,
0,
0,
0,
0,
0,
0,
0,
0,
0,
0,
0,
0,
0,
0,
0,
0,
0,
0,
0,
0,
0,
0,
0,
0,
0,
0,
0,
0,
0,
0,
0,
0,
0,
0,
0,
0,
0,
0,
0,
0,
0,
0,
0,
0,
0,
0,
0,
0,
0,
0,
0,
0,
0,
0,
0,
0,
0,
0,
0,
0,
0,
0,
0,
0,
0,
0,
0,
0,
0,
0,
0,
0,
0,
0,
0,
0,
0,
0,
0,
0,
0,
0,
0,
0,
0,
0,
0,
0,
0,
0,
0,
0,
0,
0,
0,
0,
0,
0,
0,
0,
0,
0,
0,
0,
0,
0,
0,
0,
0,
0,
0,
0,
0,
0,
0,
0,
0,
0,
0,
0,
0,
0,
0,
0,
0,
0,
0,
0,
0,
0,
0,
0,
0,
0,
0,
0,
0,
0,
0,
0,
0,
0,
0,
0,
0,
0,
0,
0,
0,
0,
0,
0,
0,
0,
0,
0,
0,
0,
0,
0,
0,
0,
0,
0,
0,
0,
0,
0,
0,
0,
0,
0,
0,
0,
0,
0,
0,
0,
0,
0,
0,
0,
0,
0,
0,
0,
0,
0,
0,
0,
0,
0,
0,
0,
0,
0,
0,
0,
0,
0,
0,
0,
0,
0,
0,
0,
0,
0,
0,
0,
0,
0,
0,
0,
0,
0,
0,
0,
0,
0,
0,
0,
0,
0,
0,
0,
0,
0,
0,
0,
0,
0,
0,
0,
0,
0,
0,
0,
0,
0,
0,
0,
0,
0,
0,
0,
0,
0,
0,
0,
0,
0,
0,
0,
0,
0,
0,
0,
0,
0,
0,
0,
0,
0,
0,
0,
0,
0,
0,
0,
0,
0,
0,
0,
0,
0,
0,
0,
0,
0,
0,
0,
0,
0,
0,
0,
0,
0,
0,
0,
0,
0,
0,
0,
0,
0,
0,
0,
0,
0,
0,
0,
0,
0,
0,
0,
0,
0,
0,
0,
0,
0,
0,
0,
0,
0,
0,
0,
0,
0,
0,
0,
0,
0,
0,
0,
0,
0,
0,
0,
0,
0,
0,
0,
0,
0,
0,
0,
0,
0,
0,
0,
0,
0,
0,
0,
0,
0,
0,
0,
0,
0,
0,
0,
0,
0,
0,
0,
0,
0,
0,
0,
0,
0,
0,
0,
0,
0,
0,
0,
0,
0,
0,
0,
0,
0,
0,
0,
0,
0,
0,
0,
0,
0,
0,
0,
0,
0,
0,
0,
0,
0,
0,
0,
0,
0,
0,
0,
0,
0,
0,
0,
0,
0,
0,
0,
0,
0,
0,
0,
0,
0,
0,
0,
0,
0,
0,
0,
0,
0,
0,
0,
0,
0,
0,
0,
0,
0,
0,
0,
0,
0,
0,
0,
0,
0,
0,
0,
0,
0,
0,
0,
0,
0,
0,
0,
0,
0,
0,
0,
0,
0,
0,
#ENDOFDATA   :