File: N132962/Quantification/MMM1/SPI MM1 Anhydrite[5][4].msa
#FORMAT      : EMSA/MAS Spectral Data File
#VERSION     : 1.0
#TITLE       : SPI MM1 Anhydrite[5][all]
#DATE        : 11-MAR-2025
#TIME        : 13:49
#OWNER       : Unknown
#NPOINTS     : 4096
#NCOLUMNS    : 1
#XUNITS      : eV
#YUNITS      : counts
#DATATYPE    : Y
#XPERCHAN    : 9.99778
#OFFSET      : 1.69135
#BEAMKV      : 20
#SIGNALTYPE  : EDS
#ELEVANGLE   : 35
#AZIMANGLE   : 0
#LIVETIME    : 239.872
#REALTIME    : 255.074
#PROBECUR    : 1.02902
#TAUWIND     : 0
#TDEADLYR    : 0
#TACTLYR     : 0.045
#TALWIND     : 0.025
#CHOFFSET    : 0.0
#XLABEL      : Energy (eV)
#YLABEL      : Counts
#XPOSITION   : 4.95966
#YPOSITION   : -5.04733
#ZPOSITION   : 30.9284
#EDSDET      : SD
##SPECIMEN   : SPI MM1 Anhydrite[5][all]
##D2STDCMP   : Anhydrite,(O:47.0085),(S:23.5529),(Ca:29.4387),5.0
##DET_HASH   : 12273538-fd48-a23f-0a19-f1e6fa85caef
##CALIB_HASH : 6abaa72c-aa41-8738-0be9-f592914732f3
##WORKING    : 15.0 mm
##DET_NAME   : EDAX All
##DET_MODE   : MediumLE
#SPECTRUM    :
35,
28,
9,
39,
297,
793,
1262,
2875,
8195,
12187,
8514,
4594,
2985,
2388,
3356,
10510,
39862,
78298,
60224,
19306,
4554,
1932,
1848,
2207,
2347,
2262,
2425,
2506,
2646,
2657,
2565,
2787,
2884,
3016,
3281,
3396,
3414,
3542,
3706,
3722,
3932,
3998,
4024,
4242,
4195,
4473,
4401,
4397,
4722,
4697,
4783,
4687,
4806,
4718,
4809,
4710,
4897,
5352,
6025,
6764,
7525,
6920,
6186,
5822,
6017,
6097,
5479,
4770,
4680,
4508,
4493,
4897,
6381,
10712,
24972,
68056,
143237,
181493,
136244,
59929,
20696,
13482,
13615,
11268,
7075,
4141,
2973,
2764,
2648,
2699,
2836,
2701,
2755,
2735,
2905,
2848,
2730,
2712,
2667,
2529,
2618,
2601,
2564,
2603,
2662,
2557,
2487,
2556,
2508,
2434,
2466,
2499,
2398,
2466,
2400,
2505,
2845,
3218,
4182,
8159,
22113,
55822,
104306,
132517,
111341,
62322,
24278,
7793,
3606,
2910,
3664,
6137,
10970,
16058,
17908,
14153,
8511,
4301,
2427,
1857,
1862,
1716,
1734,
1648,
1620,
1592,
1532,
1599,
1495,
1630,
1639,
1659,
1734,
1777,
1735,
1654,
1655,
1485,
1543,
1537,
1622,
1556,
1520,
1502,
1467,
1552,
1510,
1447,
1388,
1457,
1434,
1467,
1403,
1325,
1389,
1360,
1424,
1393,
1349,
1361,
1427,
1417,
1421,
1273,
1343,
1340,
1254,
1329,
1266,
1238,
1247,
1257,
1294,
1237,
1194,
1248,
1234,
1353,
1354,
1423,
1449,
1382,
1278,
1143,
1245,
1234,
1163,
1088,
1146,
1174,
1173,
1121,
1271,
1220,
1162,
1181,
1144,
1034,
1025,
1059,
1040,
1022,
1001,
1039,
1009,
963,
949,
1001,
938,
989,
987,
900,
903,
918,
966,
993,
942,
896,
949,
885,
971,
879,
876,
853,
978,
926,
941,
939,
907,
881,
940,
951,
852,
843,
789,
801,
809,
847,
834,
832,
803,
745,
717,
780,
751,
734,
733,
769,
748,
701,
759,
736,
681,
740,
728,
743,
698,
712,
701,
720,
654,
696,
705,
697,
681,
645,
743,
663,
646,
619,
625,
631,
635,
629,
605,
619,
589,
569,
561,
620,
582,
593,
601,
531,
584,
609,
618,
588,
550,
552,
516,
540,
553,
573,
560,
534,
492,
530,
513,
521,
528,
466,
537,
512,
515,
493,
491,
514,
482,
473,
482,
483,
436,
466,
470,
432,
470,
492,
448,
429,
472,
449,
412,
394,
428,
451,
405,
426,
418,
440,
372,
434,
425,
366,
402,
401,
378,
391,
414,
405,
357,
376,
380,
371,
339,
353,
385,
416,
366,
375,
356,
335,
341,
338,
348,
344,
352,
332,
319,
325,
317,
312,
329,
297,
294,
329,
301,
283,
330,
284,
322,
292,
286,
304,
302,
298,
276,
281,
279,
276,
259,
263,
247,
260,
307,
266,
273,
255,
276,
249,
241,
256,
246,
268,
238,
237,
245,
221,
206,
246,
242,
238,
199,
203,
235,
191,
177,
246,
246,
206,
165,
180,
200,
200,
203,
199,
200,
178,
186,
190,
201,
176,
172,
169,
179,
175,
171,
183,
145,
168,
172,
177,
164,
170,
148,
145,
152,
154,
164,
151,
149,
149,
140,
122,
140,
143,
161,
130,
140,
131,
149,
153,
167,
145,
138,
129,
114,
128,
124,
117,
101,
120,
96,
124,
104,
114,
107,
136,
91,
119,
124,
109,
110,
89,
97,
113,
110,
104,
108,
79,
76,
85,
86,
91,
81,
92,
88,
82,
70,
83,
89,
84,
96,
84,
68,
66,
70,
89,
64,
81,
74,
57,
73,
73,
84,
71,
73,
69,
70,
59,
54,
60,
65,
53,
62,
57,
63,
65,
63,
67,
62,
52,
67,
64,
67,
39,
42,
48,
47,
38,
33,
47,
44,
45,
46,
41,
47,
32,
47,
49,
41,
34,
43,
33,
33,
35,
28,
47,
29,
36,
43,
44,
28,
35,
37,
22,
34,
50,
35,
35,
33,
19,
25,
32,
29,
23,
26,
28,
20,
17,
25,
30,
22,
25,
24,
23,
23,
19,
15,
24,
10,
20,
21,
13,
20,
19,
21,
10,
15,
15,
14,
20,
17,
20,
11,
19,
18,
17,
13,
9,
11,
17,
12,
9,
11,
13,
19,
9,
13,
8,
11,
13,
10,
5,
7,
10,
8,
4,
10,
7,
7,
6,
4,
4,
6,
7,
6,
4,
5,
3,
6,
4,
0,
5,
3,
3,
1,
2,
0,
0,
2,
1,
2,
0,
0,
1,
0,
1,
0,
2,
1,
0,
0,
0,
0,
0,
1,
1,
0,
0,
0,
0,
0,
1,
1,
1,
0,
0,
0,
0,
0,
0,
0,
0,
1,
0,
0,
0,
1,
0,
0,
0,
0,
0,
0,
1,
1,
0,
0,
0,
0,
0,
0,
0,
0,
1,
0,
0,
0,
0,
0,
1,
1,
0,
0,
0,
0,
0,
0,
0,
0,
1,
0,
1,
0,
0,
0,
0,
0,
0,
0,
0,
0,
0,
0,
0,
0,
0,
0,
0,
0,
0,
0,
0,
0,
0,
0,
0,
0,
0,
0,
0,
0,
0,
0,
0,
0,
1,
0,
0,
0,
0,
0,
0,
0,
1,
0,
0,
0,
0,
0,
0,
0,
0,
0,
0,
0,
0,
0,
0,
0,
0,
0,
0,
0,
0,
0,
0,
0,
0,
0,
0,
0,
0,
0,
0,
0,
0,
0,
0,
0,
0,
1,
0,
0,
1,
0,
0,
0,
0,
0,
0,
0,
0,
0,
0,
0,
0,
0,
0,
0,
0,
0,
0,
0,
0,
0,
0,
0,
0,
0,
0,
0,
0,
0,
0,
0,
0,
0,
0,
0,
0,
1,
0,
0,
0,
0,
0,
0,
0,
0,
0,
0,
0,
0,
0,
0,
0,
0,
0,
0,
0,
0,
0,
0,
0,
0,
0,
0,
0,
0,
0,
0,
0,
0,
0,
0,
0,
0,
0,
0,
0,
0,
0,
1,
0,
0,
0,
0,
0,
0,
0,
0,
0,
0,
0,
0,
0,
0,
0,
0,
0,
0,
0,
0,
0,
0,
0,
0,
0,
0,
0,
0,
0,
0,
0,
0,
0,
0,
0,
0,
0,
0,
0,
0,
0,
0,
0,
0,
0,
0,
0,
0,
0,
0,
0,
0,
0,
0,
0,
0,
0,
0,
0,
0,
0,
0,
0,
0,
0,
0,
0,
0,
0,
0,
0,
0,
0,
0,
0,
0,
0,
0,
0,
0,
0,
0,
0,
0,
0,
0,
0,
0,
0,
0,
0,
0,
0,
0,
0,
0,
0,
0,
0,
0,
0,
0,
0,
0,
0,
0,
0,
0,
0,
0,
0,
0,
0,
0,
0,
0,
0,
0,
0,
0,
0,
0,
0,
0,
0,
0,
0,
0,
0,
0,
0,
0,
0,
0,
0,
0,
0,
0,
0,
0,
0,
0,
0,
0,
0,
0,
0,
0,
0,
0,
0,
0,
0,
0,
0,
0,
0,
0,
0,
0,
0,
0,
0,
0,
0,
0,
0,
0,
0,
0,
0,
0,
0,
0,
0,
0,
0,
0,
0,
0,
0,
0,
0,
0,
0,
0,
0,
0,
0,
0,
0,
0,
0,
0,
0,
0,
0,
0,
0,
0,
0,
0,
0,
0,
0,
0,
0,
0,
0,
0,
0,
0,
0,
0,
0,
0,
0,
0,
0,
0,
0,
0,
0,
0,
0,
0,
0,
0,
0,
0,
0,
0,
0,
0,
0,
0,
0,
0,
0,
0,
0,
0,
0,
0,
0,
0,
0,
0,
0,
0,
0,
0,
0,
0,
0,
0,
0,
0,
0,
0,
0,
0,
0,
0,
0,
0,
0,
0,
0,
0,
0,
0,
0,
0,
0,
0,
0,
0,
0,
0,
0,
0,
0,
0,
0,
0,
0,
0,
0,
0,
0,
0,
0,
0,
0,
0,
0,
0,
0,
0,
0,
0,
0,
0,
0,
0,
0,
0,
0,
0,
0,
0,
0,
0,
0,
0,
0,
0,
0,
0,
0,
0,
0,
0,
0,
0,
0,
0,
0,
0,
0,
0,
0,
0,
0,
0,
0,
0,
0,
0,
0,
0,
0,
0,
0,
0,
0,
0,
0,
0,
0,
0,
0,
0,
0,
0,
0,
0,
0,
0,
0,
0,
0,
0,
0,
0,
0,
0,
0,
0,
0,
0,
0,
0,
0,
0,
0,
0,
0,
0,
0,
0,
0,
0,
0,
0,
0,
0,
0,
0,
0,
0,
0,
0,
0,
0,
0,
0,
0,
0,
0,
0,
0,
0,
0,
0,
0,
0,
0,
0,
0,
0,
0,
0,
0,
0,
0,
0,
0,
0,
0,
0,
0,
0,
0,
0,
0,
0,
0,
0,
0,
0,
0,
0,
0,
0,
0,
0,
0,
0,
0,
0,
0,
0,
0,
0,
0,
0,
0,
0,
0,
0,
0,
0,
0,
0,
0,
0,
0,
0,
0,
0,
0,
0,
0,
0,
0,
0,
0,
0,
0,
#ENDOFDATA   :