File: N132962/Quantification/MMM1/SPI MM1 Galena[7][4].msa
#FORMAT      : EMSA/MAS Spectral Data File
#VERSION     : 1.0
#TITLE       : SPI MM1dup Galena[7][all]
#DATE        : 12-MAR-2025
#TIME        : 16:02
#OWNER       : Unknown
#NPOINTS     : 4096
#NCOLUMNS    : 1
#XUNITS      : eV
#YUNITS      : counts
#DATATYPE    : Y
#XPERCHAN    : 9.99778
#OFFSET      : 1.69135
#BEAMKV      : 20
#SIGNALTYPE  : EDS
#ELEVANGLE   : 35
#AZIMANGLE   : 0
#LIVETIME    : 239.839
#REALTIME    : 269.096
#PROBECUR    : 1.02695
#TAUWIND     : 0
#TDEADLYR    : 0
#TACTLYR     : 0.045
#TALWIND     : 0.025
#CHOFFSET    : 0.0
#XLABEL      : Energy (eV)
#YLABEL      : Counts
#XPOSITION   : -5.62405
#YPOSITION   : 1.90576
#ZPOSITION   : 31.03608
#EDSDET      : SD
##SPECIMEN   : SPI MM1dup Galena[7][all]
##DET_HASH   : 12273538-fd48-a23f-0a19-f1e6fa85caef
##CALIB_HASH : 6abaa72c-aa41-8738-0be9-f592914732f3
##WORKING    : 15.0 mm
##DET_NAME   : EDAX All
##DET_MODE   : MediumLE
#SPECTRUM    :
25,
29,
21,
131,
777,
2002,
3373,
7153,
16062,
20277,
10840,
5279,
4587,
4547,
4568,
4963,
6158,
7927,
9198,
10730,
11586,
9516,
8305,
9499,
9152,
7620,
7285,
7567,
7920,
8003,
8054,
8233,
8530,
8281,
8430,
8391,
8657,
8939,
9025,
9291,
9464,
9662,
9719,
10005,
10325,
10335,
10526,
10627,
10825,
11321,
11321,
11147,
11069,
11192,
11140,
11381,
11872,
12729,
14351,
17446,
22793,
25082,
20939,
15406,
12344,
11545,
11271,
10972,
11171,
11309,
11992,
13574,
15685,
19982,
32176,
72061,
157749,
262982,
304246,
249882,
184076,
163962,
140988,
85235,
35162,
13534,
9163,
10619,
12821,
12085,
9364,
6670,
5638,
5313,
5332,
5473,
5453,
5652,
5828,
5876,
6236,
6844,
7386,
7696,
7161,
6747,
6013,
5622,
5346,
5345,
5088,
5196,
5221,
5308,
5289,
5290,
5428,
5505,
5452,
5392,
5385,
5269,
5315,
5385,
5261,
5431,
5391,
5440,
5365,
5198,
5271,
5277,
5258,
5240,
5178,
5085,
5190,
5256,
5327,
5447,
5328,
5239,
5311,
5104,
5242,
5365,
5378,
5192,
5294,
5200,
5262,
5197,
5318,
5431,
5511,
5686,
5883,
5860,
5854,
5782,
5782,
5451,
5394,
5275,
5285,
5193,
5258,
5181,
5252,
5164,
5006,
5144,
4966,
4944,
5047,
4908,
4967,
4992,
4943,
5023,
4965,
5116,
4902,
4996,
4913,
4824,
4864,
4786,
4879,
5000,
4843,
4780,
4709,
4682,
4745,
4747,
4625,
4778,
4602,
4659,
4591,
4604,
4615,
4482,
4553,
4523,
4419,
4675,
4345,
4464,
4620,
4694,
4934,
5177,
5103,
4819,
4565,
4431,
4373,
4352,
4213,
4184,
4237,
4357,
4272,
4126,
4104,
4255,
4151,
4163,
4052,
4179,
4089,
4112,
4067,
4125,
4012,
3957,
3895,
3911,
3980,
3916,
3973,
3826,
3915,
3904,
3736,
3847,
4080,
4035,
3942,
3951,
3847,
3674,
3654,
3736,
3669,
3559,
3617,
3573,
3579,
3558,
3527,
3393,
3410,
3401,
3390,
3403,
3402,
3485,
3461,
3400,
3394,
3334,
3414,
3442,
3388,
3301,
3249,
3349,
3212,
3331,
3103,
3296,
3199,
3195,
3185,
3250,
3157,
3183,
3058,
3078,
3105,
3021,
3016,
3069,
2850,
2965,
2964,
3004,
2884,
3000,
3017,
3382,
3499,
3668,
3594,
3665,
3396,
3095,
3000,
2942,
2876,
2711,
2796,
2723,
2684,
2740,
2780,
2693,
2706,
2597,
2554,
2556,
2612,
2576,
2570,
2565,
2594,
2487,
2455,
2485,
2497,
2546,
2425,
2404,
2485,
2453,
2393,
2422,
2393,
2375,
2445,
2629,
2921,
3496,
4418,
6374,
8878,
11997,
15287,
16827,
16590,
14141,
10279,
7209,
4688,
3262,
2564,
2266,
2112,
2189,
2163,
2082,
2069,
2038,
2020,
2049,
2009,
2019,
1978,
1967,
1946,
1931,
1939,
1921,
1982,
1892,
1902,
1969,
1896,
1857,
1817,
1776,
1836,
1757,
1723,
1654,
1758,
1741,
1645,
1775,
1682,
1689,
1600,
1606,
1649,
1643,
1650,
1605,
1526,
1693,
1664,
1770,
1729,
1753,
1792,
1718,
1766,
1725,
1750,
1657,
1677,
1751,
1859,
2270,
3038,
4024,
5211,
6263,
6831,
6551,
5570,
4614,
3414,
2652,
2066,
1759,
1687,
1543,
1538,
1503,
1605,
1606,
1554,
1499,
1375,
1216,
1184,
1126,
1150,
1088,
1118,
1151,
1057,
1041,
1031,
1028,
992,
984,
1081,
1046,
945,
946,
962,
1028,
973,
1004,
932,
957,
969,
879,
896,
856,
909,
923,
907,
927,
863,
858,
892,
773,
793,
854,
805,
821,
793,
880,
856,
826,
822,
790,
783,
812,
745,
806,
833,
859,
944,
1044,
1142,
1177,
1150,
1087,
990,
888,
876,
765,
766,
708,
766,
710,
726,
711,
749,
740,
757,
688,
691,
637,
653,
561,
579,
618,
556,
544,
524,
526,
536,
519,
544,
500,
549,
515,
506,
526,
535,
440,
474,
459,
426,
484,
491,
460,
445,
423,
433,
447,
414,
426,
422,
381,
430,
418,
401,
415,
401,
402,
391,
385,
360,
331,
353,
372,
349,
321,
335,
363,
321,
338,
317,
337,
338,
303,
309,
287,
328,
303,
315,
334,
313,
273,
296,
306,
282,
289,
260,
248,
274,
285,
254,
260,
241,
231,
261,
211,
218,
253,
235,
230,
224,
219,
222,
212,
193,
204,
189,
177,
172,
199,
185,
184,
176,
182,
167,
203,
169,
156,
175,
187,
140,
170,
176,
154,
148,
136,
125,
156,
136,
132,
136,
117,
119,
126,
104,
125,
111,
98,
100,
115,
92,
87,
88,
112,
77,
78,
75,
66,
90,
86,
70,
71,
65,
82,
62,
63,
57,
63,
59,
51,
53,
54,
41,
39,
41,
28,
27,
20,
23,
30,
20,
29,
16,
16,
12,
5,
11,
9,
4,
4,
10,
9,
9,
4,
6,
11,
5,
3,
5,
2,
9,
6,
4,
6,
3,
5,
4,
4,
7,
9,
9,
3,
2,
5,
3,
7,
2,
4,
8,
3,
8,
5,
7,
4,
6,
7,
9,
2,
7,
7,
4,
0,
1,
5,
2,
1,
2,
5,
1,
3,
5,
3,
2,
2,
1,
3,
5,
3,
1,
2,
2,
5,
3,
2,
4,
1,
1,
4,
3,
0,
4,
2,
3,
0,
4,
3,
1,
3,
0,
4,
0,
3,
3,
7,
2,
4,
1,
1,
0,
1,
5,
0,
3,
1,
5,
5,
1,
3,
6,
0,
3,
2,
4,
2,
4,
0,
2,
3,
2,
4,
2,
6,
1,
2,
1,
4,
2,
0,
1,
1,
3,
5,
3,
3,
1,
0,
1,
1,
3,
0,
1,
1,
4,
3,
2,
2,
2,
0,
4,
2,
2,
1,
2,
0,
0,
2,
0,
0,
1,
2,
2,
0,
3,
2,
0,
4,
0,
1,
1,
0,
0,
0,
0,
3,
0,
0,
2,
1,
4,
1,
1,
3,
1,
2,
2,
1,
1,
2,
2,
2,
3,
3,
1,
1,
1,
1,
4,
2,
3,
0,
1,
0,
2,
0,
1,
3,
0,
0,
0,
2,
0,
0,
1,
0,
0,
0,
1,
3,
0,
1,
2,
3,
1,
2,
2,
1,
2,
0,
0,
0,
1,
2,
1,
2,
1,
1,
2,
0,
0,
1,
1,
2,
1,
0,
2,
1,
0,
1,
0,
1,
0,
1,
1,
1,
0,
0,
0,
1,
1,
1,
2,
0,
2,
0,
0,
1,
0,
0,
0,
0,
0,
0,
0,
0,
1,
0,
0,
0,
1,
0,
0,
1,
0,
1,
0,
1,
1,
1,
3,
1,
2,
0,
0,
0,
1,
1,
0,
0,
0,
0,
1,
0,
1,
0,
0,
1,
0,
1,
0,
0,
0,
0,
0,
0,
1,
1,
0,
1,
0,
0,
0,
0,
0,
0,
1,
1,
0,
0,
1,
0,
0,
0,
0,
0,
1,
0,
0,
1,
0,
0,
0,
0,
0,
0,
0,
0,
0,
1,
0,
0,
0,
0,
0,
0,
0,
0,
0,
0,
0,
0,
0,
0,
0,
0,
0,
0,
0,
0,
0,
0,
1,
1,
0,
0,
0,
0,
0,
0,
0,
0,
0,
0,
0,
1,
1,
0,
0,
0,
0,
0,
0,
0,
0,
1,
0,
0,
0,
0,
0,
0,
0,
0,
0,
0,
0,
0,
0,
0,
0,
0,
0,
0,
0,
1,
0,
0,
0,
0,
0,
0,
0,
0,
0,
0,
0,
0,
0,
0,
0,
0,
1,
0,
0,
0,
0,
0,
0,
0,
0,
0,
1,
0,
0,
0,
0,
0,
0,
1,
0,
0,
0,
0,
0,
0,
0,
0,
0,
1,
0,
0,
0,
0,
0,
0,
0,
0,
0,
0,
0,
0,
0,
0,
0,
0,
0,
0,
0,
0,
0,
0,
0,
0,
0,
0,
0,
0,
0,
0,
0,
0,
0,
0,
0,
0,
0,
0,
0,
0,
0,
0,
0,
0,
0,
0,
0,
0,
0,
0,
0,
0,
0,
0,
0,
0,
0,
0,
0,
0,
0,
0,
0,
1,
0,
0,
0,
0,
0,
0,
0,
0,
0,
0,
0,
0,
0,
0,
0,
0,
0,
0,
0,
0,
0,
0,
0,
0,
0,
0,
0,
0,
0,
0,
0,
0,
0,
0,
0,
0,
0,
0,
0,
0,
0,
0,
0,
0,
0,
0,
0,
0,
0,
0,
0,
0,
0,
0,
0,
0,
0,
0,
0,
0,
0,
0,
0,
0,
0,
0,
0,
0,
0,
0,
0,
0,
0,
0,
0,
0,
0,
0,
0,
0,
0,
0,
0,
0,
0,
0,
0,
0,
0,
0,
0,
0,
0,
0,
0,
0,
0,
0,
0,
0,
0,
0,
0,
0,
0,
0,
0,
0,
0,
0,
0,
0,
0,
0,
0,
0,
0,
0,
0,
0,
0,
0,
0,
0,
0,
0,
0,
0,
0,
0,
0,
0,
0,
0,
0,
0,
0,
0,
0,
0,
0,
0,
0,
0,
0,
0,
0,
0,
0,
0,
0,
0,
0,
0,
0,
0,
0,
0,
0,
0,
0,
0,
0,
0,
0,
0,
0,
0,
0,
0,
0,
0,
0,
0,
0,
0,
0,
0,
0,
0,
0,
0,
0,
0,
#ENDOFDATA   :