File: N132962/Quantification/MMM1/SPI MM1 Diopside[2][4].msa
#FORMAT      : EMSA/MAS Spectral Data File
#VERSION     : 1.0
#TITLE       : SPI MM1dup Diopside[2][all]
#DATE        : 12-MAR-2025
#TIME        : 15:38
#OWNER       : Unknown
#NPOINTS     : 4096
#NCOLUMNS    : 1
#XUNITS      : eV
#YUNITS      : counts
#DATATYPE    : Y
#XPERCHAN    : 9.99778
#OFFSET      : 1.69135
#BEAMKV      : 20
#SIGNALTYPE  : EDS
#ELEVANGLE   : 35
#AZIMANGLE   : 0
#LIVETIME    : 240.209
#REALTIME    : 255.598
#PROBECUR    : 1.02695
#TAUWIND     : 0
#TDEADLYR    : 0
#TACTLYR     : 0.045
#TALWIND     : 0.025
#CHOFFSET    : 0.0
#XLABEL      : Energy (eV)
#YLABEL      : Counts
#XPOSITION   : 2.19829
#YPOSITION   : 1.3649
#ZPOSITION   : 31.03608
#EDSDET      : SD
##SPECIMEN   : SPI MM1dup Diopside[2][all]
##D2STDCMP   : Diopside,(O:44.3298),(Mg:11.2237),(Si:25.939),(Ca:18.5075)
##DET_HASH   : 12273538-fd48-a23f-0a19-f1e6fa85caef
##CALIB_HASH : 6abaa72c-aa41-8738-0be9-f592914732f3
##WORKING    : 15.0 mm
##DET_NAME   : EDAX All
##DET_MODE   : MediumLE
#SPECTRUM    :
32,
28,
10,
20,
56,
268,
850,
2575,
7625,
11196,
7256,
3710,
2662,
2616,
4012,
13656,
53343,
104730,
77210,
20848,
3305,
1737,
1945,
2492,
2526,
2364,
2351,
2531,
2742,
2822,
2935,
3037,
3216,
3721,
4814,
5200,
4551,
4370,
4909,
9160,
28069,
67424,
80816,
46945,
15181,
5379,
3955,
4111,
5024,
6414,
6448,
5871,
5152,
4978,
6161,
16225,
63385,
162411,
220058,
156163,
62902,
21687,
9769,
5257,
3830,
3445,
3145,
2758,
2693,
2456,
2522,
2682,
2536,
2702,
2877,
3039,
3148,
2825,
2664,
2633,
2617,
2654,
2593,
2611,
2699,
2651,
2599,
2615,
2566,
2615,
2419,
2496,
2484,
2431,
2454,
2380,
2475,
2477,
2526,
2595,
2602,
2532,
2529,
2371,
2428,
2465,
2295,
2320,
2326,
2277,
2304,
2223,
2221,
2217,
2383,
2532,
2638,
2913,
3419,
5737,
14005,
35074,
64883,
81853,
69818,
39552,
15769,
5450,
2786,
2447,
2894,
4350,
7261,
10727,
11727,
9642,
5652,
3126,
2086,
1759,
1741,
1698,
1692,
1638,
1551,
1522,
1583,
1599,
1612,
1621,
1613,
1622,
1483,
1415,
1502,
1453,
1484,
1477,
1446,
1481,
1523,
1427,
1436,
1461,
1456,
1468,
1474,
1391,
1329,
1382,
1346,
1356,
1354,
1319,
1352,
1317,
1333,
1319,
1346,
1303,
1401,
1429,
1418,
1337,
1321,
1244,
1201,
1235,
1189,
1146,
1199,
1123,
1164,
1236,
1259,
1252,
1195,
1278,
1155,
1146,
1048,
1063,
1116,
1026,
1020,
1101,
990,
1013,
1097,
1141,
1363,
1594,
1949,
2148,
2091,
1772,
1412,
1202,
1003,
977,
918,
981,
948,
993,
958,
888,
901,
889,
923,
924,
854,
902,
923,
958,
975,
1035,
1013,
947,
875,
811,
843,
809,
789,
834,
806,
838,
862,
880,
864,
831,
786,
793,
833,
736,
744,
739,
734,
730,
733,
707,
680,
690,
741,
727,
671,
672,
656,
632,
683,
681,
686,
639,
671,
627,
649,
644,
654,
681,
649,
600,
636,
633,
612,
603,
615,
599,
561,
564,
595,
570,
577,
540,
554,
571,
563,
565,
578,
534,
528,
535,
535,
522,
492,
524,
540,
540,
483,
547,
531,
509,
474,
504,
504,
500,
458,
467,
500,
488,
437,
501,
494,
492,
437,
480,
451,
443,
439,
451,
423,
448,
435,
446,
457,
437,
479,
440,
438,
396,
441,
400,
386,
367,
398,
394,
386,
410,
367,
382,
403,
361,
354,
419,
343,
365,
364,
344,
357,
338,
358,
334,
328,
342,
359,
368,
329,
309,
301,
295,
287,
347,
326,
361,
326,
315,
309,
317,
309,
281,
276,
243,
275,
294,
259,
301,
272,
281,
286,
258,
272,
261,
249,
260,
266,
272,
240,
248,
279,
244,
240,
278,
235,
257,
229,
243,
228,
205,
202,
236,
210,
209,
197,
200,
209,
236,
223,
212,
205,
223,
194,
198,
186,
209,
182,
169,
187,
189,
182,
175,
172,
190,
217,
183,
181,
159,
190,
168,
170,
174,
183,
148,
138,
140,
166,
177,
177,
151,
158,
131,
137,
144,
141,
152,
155,
159,
148,
143,
163,
144,
135,
124,
103,
136,
123,
136,
141,
125,
123,
113,
131,
131,
133,
114,
113,
130,
104,
126,
126,
115,
100,
96,
81,
100,
94,
114,
110,
108,
98,
97,
78,
89,
92,
102,
75,
101,
102,
90,
87,
88,
87,
93,
90,
80,
95,
74,
81,
73,
90,
69,
61,
71,
70,
63,
70,
61,
56,
62,
61,
56,
66,
64,
64,
64,
60,
67,
58,
68,
52,
53,
58,
66,
55,
53,
50,
62,
46,
58,
53,
53,
40,
41,
53,
40,
50,
40,
55,
35,
49,
43,
31,
35,
55,
46,
45,
36,
42,
42,
31,
39,
30,
33,
35,
39,
31,
29,
36,
33,
36,
35,
29,
37,
29,
38,
29,
29,
24,
28,
26,
21,
25,
19,
15,
23,
15,
25,
26,
19,
26,
15,
34,
20,
21,
29,
17,
18,
22,
20,
20,
22,
16,
15,
26,
14,
20,
19,
19,
14,
19,
15,
16,
11,
12,
16,
20,
14,
5,
10,
10,
10,
17,
16,
10,
18,
18,
14,
11,
10,
7,
6,
6,
10,
6,
11,
7,
12,
8,
9,
6,
4,
6,
7,
4,
4,
1,
4,
12,
5,
7,
1,
7,
4,
3,
2,
5,
5,
2,
1,
3,
0,
5,
0,
2,
1,
0,
1,
1,
0,
1,
1,
1,
0,
0,
1,
1,
0,
0,
0,
0,
0,
0,
1,
0,
0,
0,
1,
0,
0,
0,
0,
0,
0,
0,
0,
0,
0,
0,
0,
0,
0,
0,
0,
1,
0,
0,
0,
0,
0,
0,
0,
0,
1,
0,
0,
0,
0,
0,
0,
0,
0,
0,
0,
1,
0,
0,
0,
0,
0,
0,
0,
0,
0,
0,
1,
0,
0,
0,
0,
0,
0,
0,
0,
1,
0,
0,
0,
0,
0,
0,
0,
0,
0,
0,
0,
0,
0,
0,
0,
0,
0,
0,
0,
0,
0,
0,
0,
0,
0,
0,
0,
1,
1,
0,
0,
0,
0,
0,
0,
0,
0,
0,
0,
0,
0,
0,
0,
0,
0,
0,
0,
0,
0,
0,
0,
0,
0,
0,
0,
0,
0,
0,
0,
0,
0,
0,
0,
0,
0,
0,
0,
0,
0,
0,
0,
0,
0,
0,
0,
0,
0,
0,
0,
0,
0,
0,
0,
0,
0,
0,
0,
0,
0,
0,
0,
0,
0,
0,
0,
0,
0,
0,
0,
0,
0,
0,
0,
0,
0,
0,
0,
0,
0,
0,
0,
0,
0,
0,
0,
0,
0,
0,
0,
0,
0,
0,
0,
0,
0,
0,
0,
0,
0,
0,
0,
0,
0,
0,
0,
0,
0,
0,
0,
0,
0,
0,
0,
0,
0,
0,
0,
0,
0,
0,
0,
0,
0,
0,
0,
0,
0,
0,
0,
0,
0,
0,
0,
0,
1,
0,
0,
0,
0,
0,
0,
1,
0,
0,
0,
0,
0,
0,
0,
1,
0,
0,
0,
0,
0,
0,
0,
0,
0,
0,
0,
0,
0,
0,
0,
0,
0,
0,
0,
0,
0,
0,
0,
0,
0,
0,
0,
0,
0,
0,
0,
0,
0,
0,
0,
0,
0,
0,
0,
0,
0,
0,
0,
0,
0,
0,
0,
0,
0,
0,
0,
0,
0,
0,
0,
0,
0,
0,
0,
0,
0,
0,
0,
0,
0,
0,
0,
0,
0,
0,
0,
0,
0,
0,
0,
0,
0,
0,
0,
0,
0,
0,
0,
0,
0,
0,
0,
0,
0,
0,
0,
0,
0,
0,
0,
0,
0,
0,
0,
0,
0,
0,
0,
0,
0,
0,
0,
0,
0,
0,
0,
0,
0,
0,
0,
0,
0,
0,
0,
0,
0,
0,
0,
0,
0,
0,
0,
0,
0,
0,
0,
0,
0,
0,
0,
0,
0,
0,
0,
0,
0,
0,
0,
0,
0,
0,
0,
0,
0,
0,
0,
0,
0,
0,
0,
0,
0,
0,
0,
0,
0,
0,
0,
0,
0,
0,
0,
0,
0,
0,
0,
0,
0,
0,
0,
0,
0,
0,
0,
0,
0,
0,
0,
0,
0,
0,
0,
0,
0,
0,
0,
0,
0,
0,
0,
0,
0,
0,
0,
0,
0,
0,
0,
0,
0,
0,
0,
0,
0,
0,
0,
0,
0,
0,
0,
0,
0,
0,
0,
0,
0,
0,
0,
0,
0,
0,
0,
0,
0,
0,
0,
0,
0,
0,
0,
0,
0,
0,
0,
0,
0,
0,
0,
0,
0,
0,
0,
0,
0,
0,
0,
0,
0,
0,
0,
0,
0,
0,
0,
0,
0,
0,
0,
0,
0,
0,
0,
0,
0,
0,
0,
0,
0,
0,
0,
0,
0,
0,
0,
0,
0,
0,
0,
0,
0,
0,
0,
0,
0,
0,
0,
0,
0,
0,
0,
0,
0,
0,
0,
0,
0,
0,
0,
0,
0,
0,
0,
0,
0,
0,
0,
0,
0,
0,
0,
0,
0,
0,
0,
0,
0,
0,
0,
0,
0,
0,
0,
0,
0,
0,
0,
0,
0,
0,
0,
0,
0,
0,
0,
0,
0,
0,
0,
0,
0,
0,
0,
0,
0,
0,
0,
0,
0,
0,
0,
0,
0,
0,
0,
0,
0,
0,
0,
0,
0,
0,
0,
0,
0,
0,
0,
0,
0,
0,
0,
0,
0,
0,
0,
0,
0,
0,
0,
0,
0,
0,
0,
0,
0,
0,
0,
0,
0,
0,
0,
0,
0,
0,
0,
0,
0,
0,
0,
0,
0,
0,
0,
0,
0,
0,
0,
0,
0,
0,
0,
0,
0,
0,
0,
0,
0,
0,
0,
0,
0,
0,
0,
0,
0,
0,
0,
0,
0,
0,
0,
0,
0,
0,
0,
0,
0,
0,
0,
0,
0,
#ENDOFDATA   :