File: N132962/Quantification/MMM1/SPI MM1 Andradite[3][4].msa
#FORMAT      : EMSA/MAS Spectral Data File
#VERSION     : 1.0
#TITLE       : SPI MM1 Andradite[3][all]
#DATE        : 11-MAR-2025
#TIME        : 13:10
#OWNER       : Unknown
#NPOINTS     : 4096
#NCOLUMNS    : 1
#XUNITS      : eV
#YUNITS      : counts
#DATATYPE    : Y
#XPERCHAN    : 9.99778
#OFFSET      : 1.69135
#BEAMKV      : 20
#SIGNALTYPE  : EDS
#ELEVANGLE   : 35
#AZIMANGLE   : 0
#LIVETIME    : 239.873
#REALTIME    : 255.4
#PROBECUR    : 1.02699
#TAUWIND     : 0
#TDEADLYR    : 0
#TACTLYR     : 0.045
#TALWIND     : 0.025
#CHOFFSET    : 0.0
#XLABEL      : Energy (eV)
#YLABEL      : Counts
#XPOSITION   : -2.26362
#YPOSITION   : -7.98513
#ZPOSITION   : 30.9284
#EDSDET      : SD
##SPECIMEN   : SPI MM1 Andradite[3][all]
##D2STDCMP   : Andradite,(O:37.7805),(Si:16.5802),(Ca:23.6603),(Fe:21.979),3.86
##DET_HASH   : 12273538-fd48-a23f-0a19-f1e6fa85caef
##CALIB_HASH : 6abaa72c-aa41-8738-0be9-f592914732f3
##WORKING    : 15.0 mm
##DET_NAME   : EDAX All
##DET_MODE   : MediumLE
#SPECTRUM    :
33,
29,
6,
20,
68,
313,
959,
3067,
9137,
13747,
9425,
5083,
3511,
3047,
3994,
12151,
46013,
90757,
65931,
18975,
5294,
4556,
6948,
12524,
12218,
6309,
2962,
2436,
2626,
2526,
2466,
2718,
2705,
2886,
3115,
3157,
3308,
3338,
3480,
3529,
3814,
3926,
4063,
4251,
4213,
4475,
4848,
6847,
14367,
25171,
25765,
15532,
7912,
5830,
6119,
12406,
42566,
106800,
145087,
102144,
42322,
15806,
8313,
5402,
4730,
4577,
4223,
3703,
3458,
3382,
3335,
3302,
3410,
3570,
3430,
3723,
3663,
3634,
3386,
3412,
3399,
3397,
3334,
3382,
3263,
3297,
3346,
3354,
3160,
3168,
3171,
3177,
3151,
3221,
3234,
3121,
3203,
3128,
3191,
3068,
3051,
3058,
3084,
3057,
3019,
3069,
2924,
3039,
3043,
2881,
2823,
2928,
2811,
2737,
2873,
2991,
3204,
3514,
4432,
7651,
19477,
48416,
89965,
113367,
95760,
54212,
21322,
7338,
3585,
3202,
3763,
5729,
9832,
14434,
15745,
12933,
7909,
4184,
2588,
2136,
2143,
2029,
2060,
2002,
1963,
1968,
1919,
1859,
1930,
1935,
1907,
1875,
1891,
1828,
1976,
1962,
1796,
1905,
1800,
1770,
1766,
1748,
1718,
1755,
1729,
1718,
1792,
1723,
1693,
1665,
1670,
1661,
1634,
1675,
1635,
1651,
1582,
1699,
1686,
1677,
1741,
1698,
1745,
1601,
1581,
1510,
1466,
1521,
1474,
1491,
1416,
1443,
1488,
1528,
1700,
1900,
2038,
1960,
1909,
1592,
1444,
1411,
1394,
1400,
1423,
1443,
1513,
1631,
2183,
4206,
8664,
16853,
26462,
32219,
29963,
21865,
12636,
6117,
2865,
1670,
1288,
1232,
1237,
1248,
1156,
1209,
1141,
1152,
1258,
1260,
1398,
1737,
2410,
3519,
4553,
5206,
4742,
3737,
2373,
1600,
1267,
1083,
1064,
1021,
997,
1011,
1024,
1044,
1063,
1011,
1032,
994,
945,
968,
893,
892,
863,
895,
876,
884,
886,
902,
872,
851,
827,
888,
865,
870,
919,
852,
799,
877,
876,
793,
850,
798,
805,
804,
746,
794,
727,
740,
776,
780,
796,
745,
738,
711,
743,
732,
738,
724,
706,
691,
721,
726,
675,
705,
643,
654,
656,
664,
722,
638,
672,
646,
641,
623,
647,
658,
631,
592,
613,
648,
622,
610,
613,
612,
583,
599,
564,
587,
520,
550,
572,
605,
568,
552,
569,
537,
577,
521,
557,
583,
553,
585,
580,
528,
546,
531,
526,
546,
521,
502,
517,
485,
513,
535,
451,
490,
478,
464,
487,
464,
461,
445,
415,
455,
439,
474,
421,
417,
458,
440,
406,
392,
419,
454,
407,
410,
395,
406,
383,
403,
411,
385,
378,
379,
407,
392,
362,
378,
372,
389,
367,
371,
360,
341,
350,
320,
354,
355,
398,
344,
326,
332,
296,
301,
331,
348,
369,
321,
318,
323,
305,
318,
314,
294,
271,
294,
294,
308,
287,
288,
269,
232,
261,
228,
259,
287,
264,
254,
241,
262,
274,
245,
244,
238,
278,
237,
244,
216,
248,
243,
235,
236,
218,
236,
218,
221,
193,
219,
184,
206,
190,
205,
181,
227,
213,
197,
189,
172,
183,
183,
183,
154,
163,
186,
159,
173,
183,
174,
180,
156,
183,
149,
156,
178,
157,
141,
164,
140,
156,
148,
154,
151,
133,
133,
151,
136,
138,
139,
134,
145,
124,
139,
139,
139,
113,
123,
141,
113,
118,
121,
129,
104,
124,
120,
108,
100,
111,
94,
90,
97,
111,
105,
119,
85,
109,
107,
86,
86,
84,
90,
76,
78,
90,
84,
83,
89,
78,
70,
84,
90,
82,
72,
74,
88,
70,
68,
79,
74,
70,
80,
67,
67,
72,
71,
76,
59,
68,
64,
63,
66,
66,
64,
48,
62,
56,
59,
51,
47,
53,
62,
48,
37,
55,
48,
64,
43,
43,
46,
49,
43,
42,
50,
41,
43,
38,
43,
50,
43,
39,
36,
33,
38,
40,
32,
33,
30,
44,
46,
28,
27,
32,
29,
39,
29,
26,
34,
19,
31,
29,
25,
28,
29,
20,
32,
24,
34,
20,
27,
20,
17,
26,
23,
11,
25,
18,
15,
15,
11,
23,
13,
18,
14,
19,
10,
12,
15,
17,
14,
11,
11,
16,
16,
18,
16,
12,
11,
4,
8,
10,
13,
14,
11,
6,
10,
10,
6,
9,
4,
5,
3,
3,
7,
5,
1,
5,
5,
3,
5,
4,
3,
3,
3,
1,
2,
3,
1,
0,
4,
1,
2,
1,
2,
0,
2,
0,
0,
0,
0,
1,
1,
1,
0,
0,
0,
0,
1,
0,
0,
0,
0,
1,
0,
0,
0,
0,
1,
1,
0,
1,
0,
0,
0,
0,
0,
0,
1,
1,
0,
0,
0,
1,
0,
2,
1,
0,
0,
0,
0,
0,
0,
1,
1,
0,
0,
0,
0,
0,
0,
0,
0,
1,
1,
1,
0,
0,
0,
0,
0,
0,
0,
0,
0,
0,
1,
1,
0,
0,
1,
0,
0,
1,
0,
0,
0,
0,
0,
0,
0,
0,
1,
0,
0,
0,
0,
0,
0,
0,
0,
0,
0,
0,
0,
1,
1,
0,
0,
1,
1,
0,
0,
0,
0,
0,
0,
0,
0,
0,
0,
0,
0,
0,
0,
0,
0,
0,
0,
0,
0,
0,
0,
0,
0,
0,
0,
0,
0,
1,
0,
0,
1,
0,
0,
0,
0,
0,
0,
0,
0,
0,
0,
0,
0,
0,
0,
0,
0,
0,
0,
1,
0,
0,
0,
0,
0,
0,
0,
0,
0,
0,
0,
0,
0,
0,
0,
0,
0,
0,
0,
0,
0,
0,
1,
0,
0,
0,
0,
0,
0,
0,
0,
0,
0,
0,
0,
0,
0,
0,
0,
0,
0,
0,
0,
0,
0,
0,
0,
0,
0,
0,
0,
0,
0,
0,
0,
0,
0,
0,
0,
0,
0,
0,
0,
0,
0,
0,
0,
0,
0,
0,
0,
0,
0,
0,
0,
0,
0,
0,
0,
0,
0,
0,
0,
0,
0,
0,
0,
0,
0,
0,
0,
0,
0,
0,
0,
0,
0,
0,
0,
0,
0,
0,
0,
0,
0,
0,
0,
0,
0,
0,
0,
0,
0,
0,
0,
1,
0,
0,
0,
0,
0,
0,
0,
0,
0,
0,
0,
0,
0,
0,
0,
0,
0,
0,
0,
0,
0,
0,
0,
0,
0,
0,
0,
0,
0,
0,
0,
0,
0,
0,
0,
0,
0,
0,
0,
0,
0,
0,
0,
0,
0,
0,
0,
0,
0,
0,
0,
0,
0,
0,
0,
0,
0,
0,
0,
0,
0,
0,
0,
0,
0,
0,
0,
0,
0,
0,
0,
0,
0,
0,
0,
0,
0,
0,
0,
0,
0,
0,
0,
0,
0,
0,
0,
0,
0,
0,
0,
0,
0,
0,
0,
0,
0,
0,
0,
0,
0,
0,
0,
0,
0,
0,
0,
0,
0,
0,
0,
0,
0,
0,
0,
0,
0,
0,
0,
0,
0,
0,
0,
0,
0,
0,
0,
0,
0,
0,
0,
0,
0,
0,
0,
0,
0,
0,
0,
0,
0,
0,
0,
0,
0,
0,
0,
0,
0,
0,
0,
0,
0,
0,
0,
0,
0,
0,
0,
0,
0,
0,
0,
0,
0,
0,
0,
0,
0,
0,
0,
0,
0,
0,
0,
0,
0,
0,
0,
0,
0,
0,
0,
0,
0,
0,
0,
0,
0,
0,
0,
0,
0,
0,
0,
0,
0,
0,
0,
0,
0,
0,
0,
0,
0,
0,
0,
0,
0,
0,
0,
0,
0,
0,
0,
0,
0,
0,
0,
0,
0,
0,
0,
0,
0,
0,
0,
0,
0,
0,
0,
0,
0,
0,
0,
0,
0,
0,
0,
0,
0,
0,
0,
0,
0,
0,
0,
0,
0,
0,
0,
0,
0,
0,
0,
0,
0,
0,
0,
0,
0,
0,
0,
0,
0,
0,
0,
0,
0,
0,
0,
0,
0,
0,
0,
0,
0,
0,
0,
0,
0,
0,
0,
0,
0,
0,
0,
0,
0,
0,
0,
0,
0,
0,
0,
0,
0,
0,
0,
0,
0,
0,
0,
0,
0,
0,
0,
0,
0,
0,
0,
0,
0,
0,
0,
0,
0,
0,
0,
0,
0,
0,
0,
0,
0,
0,
0,
0,
0,
0,
0,
0,
0,
0,
0,
0,
0,
0,
0,
0,
0,
0,
0,
0,
0,
0,
0,
0,
0,
0,
0,
0,
0,
0,
0,
0,
0,
0,
0,
0,
0,
0,
0,
0,
0,
0,
0,
0,
0,
0,
0,
0,
0,
0,
0,
0,
0,
0,
0,
0,
0,
0,
0,
0,
0,
0,
0,
0,
0,
0,
0,
0,
0,
0,
0,
0,
0,
0,
0,
0,
0,
0,
0,
0,
0,
0,
0,
0,
0,
0,
0,
0,
0,
0,
0,
0,
0,
0,
0,
0,
0,
0,
0,
0,
0,
0,
0,
#ENDOFDATA   :