File: N132962/Quantification/MMM1/SPI MM1 Hematite[4][4].msa
#FORMAT      : EMSA/MAS Spectral Data File
#VERSION     : 1.0
#TITLE       : SPI MM1dup Hematite[4][all]
#DATE        : 12-MAR-2025
#TIME        : 16:51
#OWNER       : Unknown
#NPOINTS     : 4096
#NCOLUMNS    : 1
#XUNITS      : eV
#YUNITS      : counts
#DATATYPE    : Y
#XPERCHAN    : 9.99778
#OFFSET      : 1.69135
#BEAMKV      : 20
#SIGNALTYPE  : EDS
#ELEVANGLE   : 35
#AZIMANGLE   : 0
#LIVETIME    : 239.7721
#REALTIME    : 256.616
#PROBECUR    : 1.026781
#TAUWIND     : 0
#TDEADLYR    : 0
#TACTLYR     : 0.045
#TALWIND     : 0.025
#CHOFFSET    : 0.0
#XLABEL      : Energy (eV)
#YLABEL      : Counts
#XPOSITION   : 3.64475
#YPOSITION   : 4.21664
#ZPOSITION   : 31.03608
#EDSDET      : SD
##SPECIMEN   : SPI MM1dup Hematite[4][all]
##D2STDCMP   : Hematite,(O:30.0574),(Fe:69.9426),5.0
##DET_HASH   : 12273538-fd48-a23f-0a19-f1e6fa85caef
##CALIB_HASH : 6abaa72c-aa41-8738-0be9-f592914732f3
##WORKING    : 15.0 mm
##DET_NAME   : EDAX All
##DET_MODE   : MediumLE
#SPECTRUM    :
25,
29,
10,
25,
109,
438,
1274,
3720,
9710,
12727,
7538,
4653,
5221,
6333,
9784,
28978,
104043,
199295,
145350,
45643,
22234,
21887,
30272,
52105,
45096,
18016,
4979,
2643,
2237,
2061,
1955,
2040,
2226,
2458,
2816,
2777,
2854,
2656,
2709,
2874,
3126,
3246,
3305,
3321,
3370,
3533,
3637,
3650,
3843,
3998,
4076,
4077,
4031,
4238,
4259,
4435,
4552,
4778,
5089,
4971,
4900,
4698,
4437,
4217,
4180,
4228,
4447,
4287,
4241,
4331,
4367,
4215,
4214,
4421,
4320,
4326,
4241,
4330,
4131,
4314,
4249,
4235,
4177,
4263,
4308,
4319,
4148,
4255,
4242,
4203,
4072,
4107,
4022,
4018,
4029,
3916,
3920,
3889,
3947,
3945,
3921,
3696,
3815,
3740,
3762,
3742,
3658,
3746,
3609,
3686,
3653,
3633,
3647,
3565,
3610,
3619,
3385,
3478,
3334,
3424,
3409,
3300,
3505,
3356,
3294,
3303,
3244,
3136,
3307,
3126,
3169,
3228,
3166,
3079,
3117,
3028,
2990,
3131,
2893,
2957,
2982,
2934,
2946,
2894,
2842,
2828,
2812,
2770,
2846,
2830,
2739,
2826,
2873,
2940,
3099,
3146,
3058,
2962,
2788,
2612,
2668,
2612,
2463,
2554,
2556,
2578,
2558,
2560,
2423,
2416,
2400,
2271,
2425,
2360,
2345,
2397,
2352,
2298,
2283,
2285,
2308,
2278,
2287,
2301,
2242,
2120,
2191,
2072,
2106,
2103,
2167,
2050,
2223,
2005,
2109,
2104,
2114,
2083,
1941,
2061,
2108,
2041,
2050,
2071,
2153,
2316,
2516,
3195,
5941,
14445,
34337,
69861,
112038,
135845,
128574,
92299,
51059,
22474,
8632,
3523,
2079,
1889,
1784,
1801,
1757,
1840,
1858,
1906,
2057,
2396,
3069,
4547,
7509,
12128,
16798,
19032,
17382,
12746,
7835,
4169,
2263,
1534,
1284,
1197,
1276,
1176,
1190,
1300,
1271,
1320,
1233,
1194,
1260,
1231,
1166,
1115,
1143,
1199,
1120,
1152,
1112,
1145,
1091,
1086,
1088,
1074,
1120,
1043,
1067,
1073,
1052,
1061,
994,
1045,
1047,
1053,
1058,
1004,
1040,
1024,
1043,
1024,
948,
964,
1039,
950,
947,
959,
973,
955,
977,
951,
1003,
939,
1004,
943,
931,
937,
921,
895,
876,
919,
915,
887,
875,
944,
895,
913,
864,
857,
856,
766,
808,
805,
878,
840,
806,
848,
798,
824,
838,
794,
731,
751,
781,
774,
705,
788,
785,
746,
753,
747,
757,
767,
765,
705,
738,
705,
692,
735,
642,
708,
659,
669,
652,
642,
664,
676,
655,
656,
646,
636,
619,
593,
608,
624,
646,
635,
612,
631,
634,
610,
625,
578,
605,
595,
549,
593,
559,
554,
565,
571,
555,
559,
563,
550,
496,
503,
530,
534,
521,
546,
508,
539,
532,
520,
485,
475,
460,
467,
459,
503,
479,
484,
480,
463,
453,
424,
448,
475,
458,
473,
428,
423,
468,
434,
410,
364,
418,
391,
389,
420,
403,
391,
393,
392,
396,
355,
374,
369,
351,
396,
366,
428,
404,
398,
452,
465,
435,
438,
372,
389,
333,
315,
322,
340,
323,
365,
299,
295,
302,
306,
306,
274,
287,
304,
301,
326,
286,
315,
306,
305,
289,
294,
283,
253,
286,
272,
266,
255,
225,
258,
268,
260,
251,
253,
240,
239,
234,
248,
251,
246,
227,
216,
236,
208,
198,
213,
197,
211,
216,
233,
182,
228,
184,
186,
196,
196,
220,
197,
178,
198,
166,
173,
187,
180,
150,
163,
154,
154,
159,
158,
168,
155,
178,
164,
168,
148,
138,
142,
155,
135,
127,
147,
148,
136,
130,
124,
137,
108,
133,
150,
131,
121,
120,
130,
102,
114,
121,
134,
117,
111,
114,
114,
108,
125,
90,
103,
104,
100,
110,
108,
97,
98,
106,
77,
103,
79,
94,
70,
80,
104,
76,
64,
86,
76,
68,
82,
93,
73,
85,
75,
66,
85,
78,
67,
73,
72,
49,
52,
67,
54,
64,
71,
60,
59,
53,
51,
67,
54,
60,
38,
62,
54,
60,
60,
50,
41,
53,
42,
35,
48,
46,
38,
52,
46,
44,
31,
38,
42,
37,
43,
38,
35,
38,
38,
51,
44,
36,
35,
43,
32,
29,
28,
29,
22,
29,
28,
26,
16,
21,
24,
24,
27,
19,
20,
21,
12,
22,
20,
14,
24,
18,
14,
16,
16,
14,
10,
9,
11,
13,
14,
15,
12,
16,
4,
14,
4,
9,
8,
8,
8,
5,
3,
8,
8,
3,
5,
7,
2,
2,
2,
5,
3,
4,
5,
0,
1,
0,
3,
3,
0,
2,
1,
2,
2,
2,
1,
2,
2,
0,
0,
0,
0,
0,
1,
1,
1,
2,
3,
0,
3,
0,
1,
0,
1,
1,
0,
1,
2,
0,
0,
0,
1,
0,
1,
1,
0,
0,
1,
1,
0,
0,
1,
0,
1,
0,
1,
0,
0,
0,
0,
1,
1,
1,
0,
3,
0,
0,
0,
0,
0,
1,
0,
0,
0,
0,
0,
0,
2,
0,
0,
2,
1,
0,
0,
0,
0,
0,
0,
0,
2,
0,
0,
1,
1,
1,
0,
0,
0,
0,
0,
0,
1,
0,
1,
0,
0,
0,
1,
0,
0,
0,
0,
0,
0,
1,
0,
2,
0,
1,
1,
0,
0,
0,
0,
1,
0,
0,
0,
0,
0,
1,
1,
1,
0,
0,
0,
1,
0,
0,
0,
0,
0,
2,
0,
0,
0,
0,
0,
0,
0,
0,
0,
0,
0,
0,
0,
0,
1,
0,
0,
0,
0,
0,
0,
1,
0,
0,
0,
0,
0,
0,
0,
0,
0,
0,
0,
1,
0,
0,
0,
0,
1,
0,
1,
0,
1,
0,
0,
0,
1,
0,
0,
0,
0,
0,
0,
0,
0,
0,
0,
0,
0,
1,
0,
0,
0,
0,
0,
1,
1,
0,
0,
0,
0,
0,
0,
0,
0,
0,
0,
0,
0,
0,
0,
0,
0,
0,
0,
0,
0,
0,
1,
0,
0,
0,
0,
0,
0,
0,
0,
0,
0,
0,
0,
0,
0,
0,
0,
0,
0,
0,
0,
0,
0,
0,
0,
0,
0,
0,
0,
0,
0,
0,
0,
0,
0,
0,
0,
0,
0,
0,
0,
0,
0,
0,
0,
0,
0,
0,
0,
0,
0,
0,
0,
0,
0,
0,
0,
0,
0,
0,
0,
0,
0,
0,
0,
0,
0,
0,
0,
0,
0,
0,
0,
0,
0,
0,
0,
0,
0,
0,
0,
0,
0,
0,
0,
0,
0,
0,
0,
0,
0,
0,
0,
0,
0,
0,
0,
0,
0,
0,
0,
0,
0,
0,
0,
0,
0,
0,
0,
0,
0,
0,
0,
0,
0,
0,
0,
0,
0,
0,
0,
0,
0,
0,
0,
0,
0,
0,
0,
0,
0,
0,
0,
0,
0,
0,
0,
0,
0,
0,
0,
0,
0,
0,
0,
0,
0,
0,
0,
0,
0,
0,
0,
0,
0,
0,
0,
0,
0,
0,
0,
0,
0,
0,
0,
0,
0,
0,
0,
0,
0,
0,
0,
0,
0,
0,
0,
0,
0,
0,
0,
0,
0,
0,
0,
0,
0,
0,
0,
0,
0,
0,
0,
0,
0,
0,
0,
0,
0,
0,
0,
0,
0,
0,
0,
0,
0,
0,
0,
0,
0,
0,
0,
0,
0,
0,
0,
0,
0,
0,
0,
0,
0,
0,
0,
0,
0,
0,
0,
0,
0,
0,
0,
0,
0,
0,
0,
0,
0,
0,
0,
0,
0,
0,
0,
0,
0,
0,
0,
0,
0,
0,
0,
0,
0,
0,
0,
0,
0,
0,
0,
0,
0,
0,
0,
0,
0,
0,
0,
0,
0,
0,
0,
0,
0,
0,
0,
0,
0,
0,
0,
0,
0,
0,
0,
0,
0,
0,
0,
0,
0,
0,
0,
0,
0,
0,
0,
0,
0,
0,
0,
0,
0,
0,
0,
0,
0,
0,
0,
0,
0,
0,
0,
0,
0,
0,
0,
0,
0,
0,
0,
0,
0,
0,
0,
0,
0,
0,
0,
0,
0,
0,
0,
0,
0,
0,
0,
0,
0,
0,
0,
0,
0,
0,
0,
0,
0,
0,
0,
0,
0,
0,
0,
0,
0,
0,
0,
0,
0,
0,
0,
0,
0,
0,
0,
0,
0,
0,
0,
0,
0,
0,
0,
0,
0,
0,
0,
0,
0,
0,
0,
0,
0,
0,
0,
0,
0,
0,
0,
0,
0,
0,
0,
0,
0,
0,
0,
0,
0,
0,
0,
0,
0,
0,
0,
0,
0,
0,
0,
0,
0,
0,
0,
0,
0,
0,
0,
0,
0,
0,
0,
0,
0,
0,
0,
0,
0,
0,
0,
0,
0,
0,
0,
0,
0,
0,
0,
0,
0,
0,
0,
0,
0,
0,
0,
0,
0,
0,
0,
0,
0,
0,
0,
0,
0,
0,
0,
0,
0,
0,
0,
0,
0,
0,
0,
0,
0,
0,
0,
0,
0,
0,
0,
#ENDOFDATA   :