File: N132962/Quantification/MMM1/SPI MM1 Crocoite[3][4].msa
#FORMAT      : EMSA/MAS Spectral Data File
#VERSION     : 1.0
#TITLE       : SPI MM1dup Crocoite[3][all]
#DATE        : 12-MAR-2025
#TIME        : 13:53
#OWNER       : Unknown
#NPOINTS     : 4096
#NCOLUMNS    : 1
#XUNITS      : eV
#YUNITS      : counts
#DATATYPE    : Y
#XPERCHAN    : 9.99778
#OFFSET      : 1.69135
#BEAMKV      : 20
#SIGNALTYPE  : EDS
#ELEVANGLE   : 35
#AZIMANGLE   : 0
#LIVETIME    : 239.977
#REALTIME    : 262.117
#PROBECUR    : 1.02627
#TAUWIND     : 0
#TDEADLYR    : 0
#TACTLYR     : 0.045
#TALWIND     : 0.025
#CHOFFSET    : 0.0
#XLABEL      : Energy (eV)
#YLABEL      : Counts
#XPOSITION   : -1.16505
#YPOSITION   : -0.70781
#ZPOSITION   : 31.03608
#EDSDET      : SD
##SPECIMEN   : SPI MM1dup Crocoite[3][all]
##DET_HASH   : 12273538-fd48-a23f-0a19-f1e6fa85caef
##CALIB_HASH : 6abaa72c-aa41-8738-0be9-f592914732f3
##WORKING    : 15.0 mm
##DET_NAME   : EDAX All
##DET_MODE   : MediumLE
#SPECTRUM    :
25,
26,
7,
44,
261,
1167,
3348,
7564,
16706,
20265,
11462,
6039,
5387,
5451,
6576,
13399,
37049,
65293,
50949,
22419,
10962,
6938,
5631,
6248,
5862,
5062,
4699,
4785,
5351,
5419,
5424,
5493,
5659,
5724,
5799,
6169,
6199,
6421,
6553,
6684,
7018,
6993,
7347,
7310,
7410,
7600,
8097,
7836,
8261,
8481,
8594,
8471,
8368,
8430,
8624,
8764,
9096,
9683,
10855,
12970,
16468,
18184,
15354,
11409,
9020,
8468,
8482,
8495,
8362,
8462,
9033,
9720,
10733,
11408,
13457,
21399,
48985,
104786,
154278,
148846,
119386,
108595,
92824,
55202,
23269,
10113,
7888,
9425,
11251,
11022,
8388,
6348,
5268,
5091,
5021,
5246,
5333,
5491,
5576,
5555,
5746,
6233,
6423,
6689,
6451,
6089,
5546,
5195,
4891,
4884,
4768,
4798,
4796,
4739,
4756,
4763,
4777,
5020,
4896,
4774,
4790,
4814,
4949,
4872,
4760,
4708,
4827,
4679,
4684,
4462,
4478,
4499,
4495,
4498,
4451,
4514,
4571,
4492,
4466,
4613,
4443,
4494,
4485,
4518,
4384,
4523,
4417,
4399,
4467,
4339,
4478,
4300,
4444,
4369,
4364,
4485,
4424,
4542,
4588,
4454,
4480,
4463,
4322,
4235,
4306,
4166,
4142,
4239,
4230,
4162,
4316,
4264,
4178,
4318,
4332,
4765,
6609,
11723,
21971,
36296,
46351,
45106,
32709,
18690,
9638,
5530,
4358,
4098,
4015,
3810,
4019,
3897,
3892,
4177,
4442,
5445,
6867,
8648,
9702,
8701,
7047,
5524,
4420,
3731,
3452,
3301,
3326,
3356,
3506,
3364,
3509,
3527,
3837,
3753,
3864,
3559,
3473,
3263,
3312,
3244,
3237,
3231,
3210,
3192,
3099,
3175,
3159,
3027,
3131,
3016,
3036,
3032,
2999,
3133,
3093,
3020,
2975,
3140,
2911,
2982,
2985,
2905,
2851,
2959,
2950,
2918,
2821,
2974,
2989,
3012,
2928,
2955,
2882,
2680,
2746,
2709,
2755,
2757,
2796,
2744,
2720,
2750,
2605,
2660,
2681,
2605,
2517,
2601,
2539,
2544,
2509,
2509,
2439,
2429,
2529,
2490,
2550,
2478,
2405,
2409,
2391,
2472,
2378,
2358,
2426,
2414,
2339,
2316,
2332,
2233,
2206,
2240,
2171,
2214,
2259,
2210,
2244,
2256,
2153,
2214,
2186,
2203,
2248,
2425,
2593,
2608,
2607,
2555,
2512,
2308,
2142,
2108,
2033,
2050,
2010,
2031,
2052,
1993,
1989,
1923,
1964,
1951,
1929,
1909,
1943,
1916,
1850,
1892,
1847,
1931,
1830,
1798,
1836,
1821,
1791,
1678,
1815,
1778,
1746,
1783,
1808,
1804,
1867,
1901,
2031,
2443,
3118,
4306,
5922,
8106,
9906,
11239,
10861,
9175,
7048,
4885,
3093,
2369,
1808,
1660,
1601,
1614,
1544,
1479,
1429,
1512,
1512,
1398,
1363,
1395,
1433,
1435,
1451,
1414,
1410,
1426,
1417,
1433,
1400,
1463,
1319,
1380,
1336,
1268,
1308,
1245,
1268,
1248,
1263,
1183,
1235,
1208,
1157,
1266,
1199,
1192,
1144,
1143,
1103,
1180,
1171,
1201,
1234,
1249,
1196,
1223,
1222,
1234,
1262,
1169,
1256,
1128,
1221,
1161,
1324,
1606,
2016,
2693,
3533,
4198,
4479,
4451,
3820,
3097,
2256,
1761,
1460,
1269,
1129,
1068,
1093,
1075,
1084,
1068,
1008,
1041,
1083,
933,
914,
834,
754,
881,
745,
793,
805,
731,
777,
760,
722,
707,
767,
734,
693,
750,
722,
664,
685,
661,
667,
666,
624,
698,
660,
625,
620,
609,
603,
626,
628,
605,
600,
572,
615,
606,
541,
603,
559,
604,
565,
574,
529,
553,
561,
555,
520,
556,
574,
604,
637,
685,
782,
775,
809,
768,
723,
578,
588,
548,
505,
494,
493,
472,
496,
515,
544,
566,
504,
464,
435,
451,
460,
434,
416,
396,
416,
386,
364,
369,
404,
368,
342,
367,
378,
351,
363,
338,
367,
312,
336,
319,
334,
354,
332,
345,
312,
332,
298,
296,
293,
289,
309,
270,
287,
255,
268,
270,
271,
298,
266,
254,
260,
278,
280,
248,
251,
250,
219,
253,
244,
222,
212,
205,
215,
240,
208,
215,
215,
197,
202,
211,
208,
207,
181,
184,
146,
170,
173,
178,
150,
156,
171,
192,
154,
178,
149,
170,
157,
140,
150,
150,
139,
127,
144,
155,
152,
125,
115,
124,
149,
121,
118,
143,
112,
107,
126,
113,
128,
90,
98,
108,
92,
83,
90,
99,
105,
71,
99,
85,
92,
81,
78,
84,
61,
81,
93,
75,
78,
60,
70,
78,
63,
56,
56,
52,
53,
57,
56,
39,
47,
52,
41,
45,
37,
40,
31,
33,
30,
38,
26,
22,
19,
32,
28,
23,
22,
28,
23,
17,
20,
15,
18,
15,
9,
10,
6,
3,
9,
3,
9,
6,
4,
3,
6,
3,
0,
1,
3,
3,
6,
4,
6,
4,
7,
3,
5,
2,
2,
2,
3,
4,
5,
8,
3,
1,
2,
0,
3,
3,
3,
2,
2,
3,
4,
6,
6,
3,
6,
1,
2,
3,
0,
4,
3,
2,
6,
2,
5,
2,
2,
3,
1,
2,
4,
2,
1,
4,
0,
3,
0,
1,
2,
0,
2,
2,
0,
1,
2,
2,
3,
4,
1,
3,
1,
0,
2,
1,
2,
3,
2,
0,
0,
1,
1,
2,
0,
1,
2,
0,
3,
1,
2,
2,
1,
1,
2,
0,
1,
2,
2,
1,
4,
3,
1,
0,
2,
1,
0,
1,
2,
1,
2,
1,
2,
3,
1,
0,
0,
0,
3,
1,
1,
1,
2,
1,
1,
0,
2,
1,
2,
0,
1,
1,
0,
1,
0,
1,
2,
0,
0,
0,
1,
0,
2,
0,
1,
0,
1,
0,
4,
0,
1,
0,
2,
1,
0,
0,
0,
2,
1,
0,
1,
1,
0,
2,
0,
0,
0,
0,
2,
0,
0,
4,
0,
0,
0,
1,
0,
2,
0,
2,
1,
0,
0,
0,
0,
2,
0,
0,
0,
0,
0,
0,
0,
2,
0,
0,
0,
4,
0,
2,
1,
0,
2,
0,
0,
1,
0,
1,
1,
1,
0,
0,
1,
0,
0,
0,
1,
0,
0,
2,
0,
2,
0,
1,
1,
1,
1,
2,
0,
0,
0,
1,
0,
0,
0,
1,
1,
0,
0,
0,
1,
0,
1,
0,
0,
0,
1,
1,
0,
0,
1,
0,
0,
0,
0,
2,
0,
0,
0,
0,
0,
0,
0,
0,
0,
0,
0,
0,
1,
0,
0,
0,
1,
0,
0,
0,
0,
0,
0,
0,
0,
0,
0,
1,
0,
1,
0,
1,
1,
1,
0,
0,
0,
0,
0,
0,
1,
0,
0,
0,
0,
0,
0,
0,
0,
0,
0,
0,
0,
0,
0,
1,
0,
0,
0,
0,
0,
0,
0,
0,
0,
0,
0,
0,
0,
0,
0,
0,
0,
0,
0,
0,
0,
0,
0,
0,
0,
0,
0,
0,
0,
0,
0,
0,
0,
0,
0,
0,
0,
0,
0,
0,
0,
0,
0,
0,
0,
0,
0,
0,
0,
1,
0,
0,
1,
0,
0,
0,
0,
0,
0,
0,
0,
0,
0,
0,
0,
0,
0,
0,
0,
0,
1,
0,
0,
0,
0,
0,
0,
0,
0,
0,
0,
0,
0,
0,
0,
0,
0,
0,
1,
0,
0,
0,
0,
0,
0,
0,
0,
1,
0,
0,
0,
0,
0,
0,
0,
0,
0,
0,
0,
0,
0,
0,
0,
0,
0,
0,
0,
0,
0,
0,
0,
0,
0,
0,
0,
0,
0,
0,
0,
0,
0,
0,
0,
0,
0,
0,
0,
0,
0,
0,
0,
0,
0,
0,
0,
0,
0,
0,
0,
0,
0,
0,
0,
0,
0,
0,
1,
0,
0,
0,
0,
0,
0,
0,
0,
0,
0,
0,
0,
0,
0,
0,
0,
0,
0,
0,
0,
0,
0,
0,
0,
0,
0,
0,
0,
0,
0,
0,
0,
0,
0,
0,
0,
0,
0,
0,
0,
0,
0,
0,
0,
0,
0,
0,
0,
0,
0,
0,
0,
0,
0,
0,
0,
0,
0,
0,
0,
0,
0,
0,
0,
0,
0,
0,
0,
0,
0,
0,
0,
0,
0,
0,
0,
0,
0,
0,
0,
0,
0,
0,
0,
0,
0,
0,
0,
0,
0,
0,
0,
0,
0,
0,
0,
0,
0,
0,
0,
0,
0,
0,
0,
0,
0,
0,
0,
0,
0,
0,
0,
0,
0,
0,
0,
0,
0,
0,
0,
0,
0,
0,
0,
0,
0,
0,
0,
0,
0,
0,
0,
0,
0,
0,
0,
0,
0,
0,
0,
0,
0,
0,
0,
0,
0,
0,
0,
0,
0,
0,
0,
0,
0,
0,
0,
0,
0,
0,
0,
0,
0,
0,
0,
0,
0,
0,
0,
0,
0,
0,
0,
0,
0,
0,
0,
0,
0,
0,
0,
0,
0,
0,
0,
0,
0,
0,
0,
0,
0,
0,
0,
0,
0,
0,
0,
0,
0,
0,
0,
0,
0,
0,
0,
0,
0,
0,
0,
0,
0,
0,
0,
0,
0,
0,
0,
0,
0,
0,
0,
0,
0,
0,
0,
0,
0,
0,
#ENDOFDATA   :