File: N132962/Quantification/MMM1/SPI MM1 Hematite[6][4].msa
#FORMAT      : EMSA/MAS Spectral Data File
#VERSION     : 1.0
#TITLE       : SPI MM1dup Hematite[6][all]
#DATE        : 12-MAR-2025
#TIME        : 16:53
#OWNER       : Unknown
#NPOINTS     : 4096
#NCOLUMNS    : 1
#XUNITS      : eV
#YUNITS      : counts
#DATATYPE    : Y
#XPERCHAN    : 9.99778
#OFFSET      : 1.69135
#BEAMKV      : 20
#SIGNALTYPE  : EDS
#ELEVANGLE   : 35
#AZIMANGLE   : 0
#LIVETIME    : 239.804
#REALTIME    : 256.684
#PROBECUR    : 1.026781
#TAUWIND     : 0
#TDEADLYR    : 0
#TACTLYR     : 0.045
#TALWIND     : 0.025
#CHOFFSET    : 0.0
#XLABEL      : Energy (eV)
#YLABEL      : Counts
#XPOSITION   : 3.65796
#YPOSITION   : 4.18849
#ZPOSITION   : 31.03608
#EDSDET      : SD
##SPECIMEN   : SPI MM1dup Hematite[6][all]
##D2STDCMP   : Hematite,(O:30.0574),(Fe:69.9426),5.0
##DET_HASH   : 12273538-fd48-a23f-0a19-f1e6fa85caef
##CALIB_HASH : 6abaa72c-aa41-8738-0be9-f592914732f3
##WORKING    : 15.0 mm
##DET_NAME   : EDAX All
##DET_MODE   : MediumLE
#SPECTRUM    :
30,
23,
10,
23,
99,
450,
1327,
3740,
9754,
12582,
7409,
4759,
5239,
6296,
9810,
28675,
104604,
198292,
145302,
45873,
22258,
21714,
30902,
51901,
45793,
17756,
4912,
2707,
2305,
2143,
2046,
2139,
2294,
2502,
2764,
2845,
2781,
2789,
2842,
2957,
3173,
3059,
3369,
3299,
3438,
3545,
3536,
3674,
3891,
4037,
4129,
4116,
4253,
4201,
4299,
4348,
4615,
4821,
5149,
5135,
4987,
4593,
4420,
4388,
4124,
4264,
4272,
4458,
4412,
4261,
4208,
4300,
4498,
4363,
4312,
4349,
4299,
4366,
4353,
4311,
4314,
4277,
4382,
4228,
4204,
4108,
4155,
4171,
4274,
4228,
4150,
4182,
4045,
4135,
3896,
3992,
3984,
4031,
3877,
3960,
3993,
3917,
3816,
3762,
3829,
3732,
3745,
3715,
3752,
3795,
3647,
3563,
3605,
3583,
3643,
3502,
3553,
3565,
3536,
3401,
3346,
3456,
3467,
3322,
3391,
3393,
3250,
3185,
3238,
3112,
3199,
3285,
3086,
3106,
3107,
3084,
3099,
3061,
3024,
3049,
3025,
2903,
2799,
2937,
2815,
2927,
2842,
2852,
2820,
2738,
2766,
2778,
2782,
2928,
3081,
3179,
3012,
2931,
2805,
2730,
2544,
2592,
2598,
2540,
2479,
2483,
2527,
2378,
2382,
2404,
2466,
2475,
2370,
2392,
2394,
2442,
2474,
2287,
2425,
2331,
2347,
2337,
2244,
2173,
2214,
2159,
2170,
2159,
2134,
2194,
2119,
2055,
2089,
2076,
1993,
2049,
2043,
2062,
2025,
2053,
2033,
2019,
2079,
2135,
2144,
2202,
2424,
3242,
5884,
14065,
34803,
70190,
112311,
136549,
128265,
91879,
51497,
22363,
8525,
3696,
2196,
1856,
1823,
1803,
1800,
1740,
1799,
2004,
2102,
2503,
3085,
4677,
7643,
12248,
16931,
19081,
17466,
12728,
7772,
3995,
2288,
1534,
1207,
1197,
1174,
1236,
1177,
1240,
1330,
1237,
1271,
1258,
1248,
1173,
1201,
1158,
1151,
1210,
1135,
1075,
1098,
1163,
1166,
1138,
1089,
1073,
1122,
1103,
1091,
1070,
1021,
1145,
1111,
1059,
1036,
1074,
1046,
1047,
1027,
1037,
1010,
1029,
1013,
937,
999,
980,
953,
972,
952,
962,
942,
932,
904,
951,
916,
887,
904,
899,
909,
891,
870,
877,
869,
851,
821,
922,
817,
915,
926,
823,
832,
793,
831,
833,
891,
816,
805,
848,
851,
808,
817,
783,
815,
759,
773,
785,
809,
753,
759,
766,
728,
764,
776,
740,
759,
713,
738,
687,
715,
701,
641,
705,
697,
727,
652,
706,
636,
672,
651,
638,
636,
645,
667,
656,
668,
649,
633,
642,
614,
639,
621,
616,
606,
638,
573,
573,
579,
595,
585,
547,
571,
576,
566,
539,
546,
548,
537,
579,
493,
502,
519,
486,
520,
476,
485,
513,
487,
509,
483,
499,
511,
469,
469,
481,
475,
487,
476,
445,
439,
428,
406,
421,
396,
417,
422,
418,
431,
436,
371,
408,
376,
410,
407,
390,
408,
393,
388,
367,
369,
393,
398,
363,
387,
358,
436,
473,
459,
440,
456,
418,
393,
315,
337,
329,
325,
314,
315,
313,
365,
290,
321,
259,
275,
300,
277,
323,
311,
302,
328,
312,
285,
277,
282,
298,
258,
260,
252,
229,
259,
279,
257,
249,
240,
247,
250,
249,
254,
263,
249,
240,
217,
243,
210,
220,
228,
219,
220,
230,
217,
227,
208,
207,
194,
199,
220,
180,
194,
168,
192,
183,
199,
173,
162,
165,
169,
159,
192,
177,
176,
173,
159,
168,
169,
158,
142,
164,
134,
150,
164,
153,
157,
133,
148,
115,
142,
130,
122,
142,
133,
134,
135,
137,
123,
127,
119,
108,
113,
105,
101,
124,
110,
103,
108,
129,
100,
116,
102,
111,
92,
101,
101,
88,
91,
82,
94,
82,
90,
83,
76,
97,
95,
94,
88,
87,
101,
91,
73,
63,
73,
92,
82,
61,
83,
80,
67,
71,
66,
78,
63,
78,
83,
69,
53,
67,
57,
67,
61,
53,
54,
57,
61,
49,
59,
55,
58,
40,
52,
47,
43,
49,
38,
41,
34,
36,
50,
35,
39,
48,
40,
37,
38,
34,
32,
33,
31,
39,
17,
28,
30,
31,
31,
34,
32,
40,
19,
28,
27,
23,
19,
18,
27,
24,
25,
21,
15,
24,
14,
17,
8,
15,
18,
9,
12,
23,
8,
31,
15,
12,
16,
14,
6,
17,
13,
6,
15,
15,
13,
8,
11,
7,
6,
8,
6,
7,
5,
3,
8,
4,
7,
4,
3,
4,
5,
3,
2,
1,
2,
2,
0,
1,
1,
2,
0,
0,
2,
0,
1,
1,
3,
1,
2,
0,
1,
0,
1,
1,
1,
2,
3,
1,
0,
0,
0,
1,
1,
3,
1,
2,
0,
0,
1,
0,
0,
0,
0,
1,
3,
0,
1,
1,
2,
0,
1,
0,
1,
2,
0,
1,
0,
1,
0,
1,
1,
1,
0,
0,
1,
2,
0,
0,
0,
1,
3,
1,
0,
1,
0,
0,
2,
0,
0,
0,
2,
0,
0,
1,
2,
0,
0,
0,
1,
0,
0,
0,
1,
1,
0,
1,
0,
0,
0,
1,
0,
0,
1,
0,
0,
0,
1,
0,
2,
1,
0,
0,
0,
1,
1,
0,
0,
0,
1,
0,
0,
1,
0,
0,
1,
1,
1,
0,
0,
0,
1,
0,
0,
2,
0,
0,
0,
1,
0,
0,
0,
0,
0,
0,
0,
1,
0,
0,
1,
0,
1,
0,
0,
1,
0,
0,
0,
0,
1,
0,
0,
1,
0,
0,
0,
0,
0,
0,
0,
0,
0,
0,
1,
0,
0,
0,
0,
0,
0,
0,
0,
0,
0,
0,
0,
0,
1,
0,
0,
0,
0,
1,
0,
0,
0,
0,
0,
0,
0,
0,
0,
1,
0,
0,
1,
0,
0,
1,
0,
0,
0,
0,
0,
1,
0,
0,
0,
0,
0,
0,
0,
0,
0,
0,
0,
0,
0,
0,
0,
0,
0,
0,
0,
0,
0,
0,
0,
0,
0,
0,
0,
0,
0,
0,
0,
0,
0,
0,
0,
0,
0,
0,
0,
0,
0,
0,
0,
0,
0,
0,
0,
0,
0,
0,
0,
0,
0,
0,
0,
0,
0,
0,
0,
0,
0,
0,
0,
0,
0,
0,
0,
0,
0,
0,
0,
0,
0,
0,
0,
0,
0,
0,
0,
0,
0,
0,
0,
0,
0,
0,
0,
0,
0,
0,
0,
0,
0,
0,
0,
0,
0,
0,
0,
0,
0,
0,
0,
0,
0,
0,
0,
0,
0,
0,
0,
0,
0,
0,
0,
0,
0,
0,
0,
0,
0,
0,
0,
0,
0,
0,
0,
0,
0,
0,
0,
0,
0,
0,
0,
0,
0,
0,
0,
0,
0,
0,
0,
0,
0,
0,
0,
0,
0,
0,
0,
0,
0,
0,
0,
0,
0,
0,
0,
0,
0,
0,
0,
0,
0,
0,
0,
0,
0,
0,
0,
0,
0,
0,
0,
0,
0,
0,
0,
0,
0,
0,
0,
0,
0,
0,
0,
0,
0,
0,
0,
0,
0,
0,
0,
0,
0,
0,
0,
0,
0,
0,
0,
0,
0,
0,
0,
0,
0,
0,
0,
0,
0,
0,
0,
0,
0,
0,
0,
0,
0,
0,
0,
0,
0,
0,
0,
0,
0,
0,
0,
0,
0,
0,
0,
0,
0,
0,
0,
0,
0,
0,
0,
0,
0,
0,
0,
0,
0,
0,
0,
0,
0,
0,
0,
0,
0,
0,
0,
0,
0,
0,
0,
0,
0,
0,
0,
0,
0,
0,
0,
0,
0,
0,
0,
0,
0,
0,
0,
0,
0,
0,
0,
0,
0,
0,
0,
0,
0,
0,
0,
0,
0,
0,
0,
0,
0,
0,
0,
0,
0,
0,
0,
0,
0,
0,
0,
0,
0,
0,
0,
0,
0,
0,
0,
0,
0,
0,
0,
0,
0,
0,
0,
0,
0,
0,
0,
0,
0,
0,
0,
0,
0,
0,
0,
0,
0,
0,
0,
0,
0,
0,
0,
0,
0,
0,
0,
0,
0,
0,
0,
0,
0,
0,
0,
0,
0,
0,
0,
0,
0,
0,
0,
0,
0,
0,
0,
0,
0,
0,
0,
0,
0,
0,
0,
0,
0,
0,
0,
0,
0,
0,
0,
0,
0,
0,
0,
0,
0,
0,
0,
0,
0,
0,
0,
0,
0,
0,
0,
0,
0,
0,
0,
0,
0,
0,
0,
0,
0,
0,
0,
0,
0,
0,
0,
0,
0,
0,
0,
0,
0,
0,
0,
0,
0,
0,
0,
0,
0,
0,
0,
0,
0,
0,
0,
0,
0,
0,
0,
0,
0,
0,
0,
0,
0,
0,
0,
0,
0,
0,
0,
0,
0,
0,
0,
0,
0,
0,
0,
0,
0,
0,
0,
0,
0,
0,
0,
0,
0,
0,
0,
0,
0,
0,
0,
0,
0,
0,
0,
0,
0,
0,
0,
0,
0,
0,
0,
0,
0,
0,
#ENDOFDATA   :