File: N132962/Quantification/MMM1/SPI MM1 Fluorapatite[1][4].msa
#FORMAT      : EMSA/MAS Spectral Data File
#VERSION     : 1.0
#TITLE       : SPI MM1 Fluorapatite[1][all]
#DATE        : 11-MAR-2025
#TIME        : 14:37
#OWNER       : Unknown
#NPOINTS     : 4096
#NCOLUMNS    : 1
#XUNITS      : eV
#YUNITS      : counts
#DATATYPE    : Y
#XPERCHAN    : 9.99778
#OFFSET      : 1.69135
#BEAMKV      : 20
#SIGNALTYPE  : EDS
#ELEVANGLE   : 35
#AZIMANGLE   : 0
#LIVETIME    : 239.873
#REALTIME    : 255.661
#PROBECUR    : 1.02809
#TAUWIND     : 0
#TDEADLYR    : 0
#TACTLYR     : 0.045
#TALWIND     : 0.025
#CHOFFSET    : 0.0
#XLABEL      : Energy (eV)
#YLABEL      : Counts
#XPOSITION   : -2.5772
#YPOSITION   : 1.89486
#ZPOSITION   : 30.9284
#EDSDET      : SD
##SPECIMEN   : SPI MM1 Fluorapatite[1][all]
##D2STDCMP   : Fluorapatite,(O:35.868),(F:3.5492),(P:23.146),(Ca:37.4368)
##DET_HASH   : 12273538-fd48-a23f-0a19-f1e6fa85caef
##CALIB_HASH : 6abaa72c-aa41-8738-0be9-f592914732f3
##WORKING    : 15.0 mm
##DET_NAME   : EDAX All
##DET_MODE   : MediumLE
#SPECTRUM    :
25,
27,
10,
20,
83,
375,
1036,
3451,
11535,
18688,
13395,
6502,
3584,
2617,
3176,
8100,
30466,
59628,
44562,
12390,
3231,
4572,
7943,
7612,
4027,
2473,
2355,
2550,
2817,
2960,
3102,
2866,
3292,
3686,
4173,
4480,
4117,
3800,
3942,
3929,
3992,
4147,
4460,
4485,
4517,
4572,
4694,
4858,
5000,
4974,
5048,
5106,
4973,
5071,
5094,
5138,
5384,
6326,
6840,
7217,
7600,
7341,
7514,
10081,
19482,
47775,
102121,
139843,
109184,
49649,
18660,
11723,
8906,
6010,
4438,
4269,
4759,
5106,
4474,
3832,
3390,
3224,
3346,
3425,
3178,
3372,
3227,
3130,
3121,
3135,
3066,
3016,
3100,
3062,
3056,
3071,
3049,
2973,
2958,
2978,
3007,
2954,
2904,
2925,
2996,
2966,
2919,
2965,
2970,
2863,
2754,
2792,
2757,
2623,
2747,
2819,
3285,
3726,
5297,
10599,
29473,
76774,
144721,
183187,
153821,
85980,
33372,
10091,
4205,
3428,
4662,
7935,
14387,
21471,
23957,
19314,
11128,
5133,
2657,
1859,
1849,
1888,
1853,
1814,
1732,
1692,
1652,
1727,
1678,
1791,
1709,
1623,
1672,
1706,
1790,
1713,
1774,
1733,
1707,
1700,
1809,
1936,
1864,
1797,
1646,
1593,
1583,
1613,
1664,
1638,
1599,
1626,
1625,
1691,
1675,
1777,
1693,
1650,
1601,
1520,
1517,
1450,
1438,
1444,
1410,
1455,
1482,
1476,
1601,
1628,
1725,
1600,
1607,
1436,
1370,
1300,
1401,
1424,
1305,
1277,
1370,
1273,
1389,
1314,
1255,
1265,
1243,
1173,
1134,
1161,
1225,
1246,
1276,
1280,
1324,
1255,
1165,
1194,
1186,
1146,
1109,
1119,
1146,
1122,
1096,
1057,
1021,
1060,
1023,
1076,
1020,
1063,
1013,
1069,
1019,
948,
1013,
999,
942,
988,
947,
992,
1029,
1017,
1016,
1072,
1036,
1068,
1091,
1040,
932,
933,
935,
927,
930,
873,
892,
924,
847,
901,
819,
838,
786,
838,
799,
811,
793,
810,
754,
756,
764,
760,
802,
818,
811,
708,
763,
771,
757,
735,
709,
682,
738,
709,
697,
700,
719,
671,
681,
658,
740,
674,
699,
655,
685,
660,
621,
659,
677,
635,
688,
634,
620,
665,
611,
581,
626,
620,
602,
606,
600,
579,
614,
608,
598,
527,
595,
572,
557,
558,
546,
562,
547,
592,
535,
546,
564,
529,
550,
532,
509,
498,
527,
518,
480,
481,
500,
463,
485,
473,
454,
496,
444,
496,
432,
482,
418,
430,
488,
467,
440,
435,
451,
469,
452,
405,
430,
409,
441,
427,
424,
406,
429,
386,
417,
415,
381,
398,
415,
378,
392,
354,
366,
377,
378,
373,
405,
355,
352,
389,
327,
330,
366,
338,
331,
335,
308,
325,
350,
330,
313,
315,
296,
303,
303,
315,
288,
340,
286,
296,
340,
285,
272,
272,
270,
297,
309,
278,
267,
260,
276,
260,
268,
259,
255,
274,
244,
227,
258,
225,
241,
244,
239,
232,
249,
235,
254,
213,
223,
239,
217,
227,
197,
223,
229,
214,
201,
209,
185,
172,
194,
196,
188,
213,
173,
205,
192,
189,
202,
199,
164,
191,
155,
173,
152,
183,
160,
161,
158,
172,
151,
150,
185,
161,
164,
190,
167,
151,
156,
156,
135,
172,
161,
157,
154,
119,
145,
122,
124,
142,
137,
122,
147,
132,
114,
144,
127,
101,
119,
116,
106,
107,
110,
111,
123,
99,
104,
121,
115,
105,
103,
105,
93,
95,
101,
105,
89,
103,
93,
96,
62,
83,
115,
87,
90,
81,
85,
74,
82,
87,
82,
59,
89,
80,
84,
87,
68,
83,
55,
81,
61,
66,
67,
71,
61,
44,
70,
77,
71,
60,
68,
56,
52,
59,
40,
54,
58,
48,
39,
45,
49,
57,
51,
61,
53,
62,
46,
46,
60,
40,
57,
57,
45,
45,
42,
38,
41,
40,
29,
41,
32,
42,
44,
47,
35,
33,
41,
31,
29,
34,
33,
38,
30,
28,
31,
38,
27,
38,
26,
27,
33,
24,
34,
27,
19,
28,
16,
21,
20,
24,
19,
24,
17,
25,
18,
26,
21,
16,
13,
18,
14,
18,
10,
12,
12,
11,
19,
14,
15,
11,
10,
18,
7,
9,
16,
11,
15,
12,
10,
10,
17,
8,
13,
13,
8,
10,
5,
5,
8,
5,
5,
10,
7,
7,
4,
4,
3,
5,
3,
5,
2,
4,
2,
4,
3,
0,
3,
0,
3,
3,
1,
2,
2,
0,
0,
0,
0,
2,
0,
1,
0,
0,
0,
0,
0,
0,
1,
0,
0,
0,
0,
1,
0,
0,
0,
0,
0,
0,
0,
0,
0,
0,
0,
0,
0,
1,
0,
2,
0,
1,
0,
0,
0,
1,
1,
0,
0,
0,
0,
1,
0,
0,
0,
1,
1,
0,
0,
0,
1,
0,
0,
1,
0,
1,
0,
0,
1,
0,
0,
0,
0,
0,
0,
1,
0,
0,
0,
1,
0,
0,
0,
0,
0,
0,
0,
1,
0,
0,
0,
0,
0,
0,
0,
0,
0,
0,
0,
0,
0,
0,
0,
1,
1,
0,
0,
0,
0,
0,
0,
0,
0,
0,
0,
0,
0,
1,
0,
0,
0,
0,
0,
0,
0,
0,
0,
0,
0,
0,
0,
0,
0,
0,
0,
0,
0,
0,
0,
1,
0,
0,
0,
0,
0,
0,
0,
0,
0,
0,
0,
0,
0,
0,
0,
0,
0,
0,
0,
0,
0,
0,
0,
0,
0,
0,
0,
0,
0,
0,
0,
0,
0,
0,
0,
0,
0,
0,
0,
0,
0,
0,
0,
0,
0,
0,
0,
0,
0,
0,
0,
0,
0,
0,
0,
0,
0,
0,
0,
0,
0,
0,
0,
0,
0,
0,
0,
0,
0,
0,
0,
0,
0,
0,
0,
0,
0,
0,
0,
0,
0,
0,
0,
0,
0,
0,
0,
0,
0,
0,
0,
0,
0,
0,
0,
0,
0,
0,
0,
0,
0,
0,
0,
0,
0,
0,
0,
0,
0,
0,
0,
0,
0,
0,
0,
0,
0,
0,
0,
0,
0,
0,
0,
0,
0,
0,
0,
0,
0,
0,
0,
0,
0,
0,
0,
0,
0,
0,
0,
0,
0,
0,
0,
0,
0,
0,
0,
0,
0,
0,
0,
0,
0,
0,
0,
0,
0,
0,
0,
0,
0,
0,
0,
0,
0,
0,
0,
0,
0,
0,
0,
0,
0,
0,
0,
0,
0,
0,
0,
0,
0,
0,
0,
0,
0,
0,
0,
0,
0,
0,
0,
0,
0,
0,
0,
0,
0,
0,
0,
0,
0,
0,
0,
0,
0,
0,
0,
0,
0,
0,
0,
0,
0,
0,
0,
0,
0,
0,
0,
0,
0,
0,
0,
0,
0,
0,
0,
0,
0,
0,
0,
0,
0,
0,
0,
0,
0,
0,
0,
0,
0,
0,
0,
0,
0,
0,
0,
0,
0,
0,
0,
0,
0,
0,
0,
0,
0,
0,
0,
0,
0,
0,
0,
0,
0,
0,
0,
0,
0,
0,
0,
0,
0,
0,
0,
0,
0,
0,
0,
0,
0,
0,
0,
0,
0,
0,
0,
0,
0,
0,
0,
0,
0,
0,
0,
0,
0,
0,
0,
0,
0,
0,
0,
0,
0,
0,
0,
0,
0,
0,
0,
0,
0,
0,
0,
0,
0,
0,
0,
0,
0,
0,
0,
0,
0,
0,
0,
0,
0,
0,
0,
0,
0,
0,
0,
0,
0,
0,
0,
0,
0,
0,
0,
0,
0,
0,
0,
0,
0,
0,
0,
0,
0,
0,
0,
0,
0,
0,
0,
0,
0,
0,
0,
0,
0,
0,
0,
0,
0,
0,
0,
0,
0,
0,
0,
0,
0,
0,
0,
0,
0,
0,
0,
0,
0,
0,
0,
0,
0,
0,
0,
0,
0,
0,
0,
0,
0,
0,
0,
0,
0,
0,
0,
0,
0,
0,
0,
0,
0,
0,
0,
0,
0,
0,
0,
0,
0,
0,
0,
0,
0,
0,
0,
0,
0,
0,
0,
0,
0,
0,
0,
0,
0,
0,
0,
0,
0,
0,
0,
0,
0,
0,
0,
0,
0,
0,
0,
0,
0,
0,
0,
0,
0,
0,
0,
0,
0,
0,
0,
0,
0,
0,
0,
0,
0,
0,
0,
0,
0,
0,
0,
0,
0,
0,
0,
0,
0,
0,
0,
0,
0,
0,
0,
0,
0,
0,
0,
0,
0,
0,
0,
0,
0,
0,
0,
0,
0,
0,
0,
0,
0,
0,
0,
0,
0,
0,
0,
0,
0,
0,
0,
0,
0,
0,
0,
0,
0,
0,
0,
0,
0,
0,
0,
0,
0,
0,
0,
0,
0,
0,
0,
0,
0,
0,
0,
0,
0,
0,
0,
0,
0,
0,
0,
0,
0,
0,
0,
0,
0,
0,
0,
0,
0,
0,
0,
0,
0,
0,
0,
0,
0,
0,
0,
0,
0,
0,
0,
0,
#ENDOFDATA   :