File: N132962/Quantification/MMM1/SPI MM1 Chromite[2][4].msa
#FORMAT      : EMSA/MAS Spectral Data File
#VERSION     : 1.0
#TITLE       : SPI MM1dup Chromite[2][all]
#DATE        : 12-MAR-2025
#TIME        : 14:11
#OWNER       : Unknown
#NPOINTS     : 4096
#NCOLUMNS    : 1
#XUNITS      : eV
#YUNITS      : counts
#DATATYPE    : Y
#XPERCHAN    : 9.99778
#OFFSET      : 1.69135
#BEAMKV      : 20
#SIGNALTYPE  : EDS
#ELEVANGLE   : 35
#AZIMANGLE   : 0
#LIVETIME    : 239.169
#REALTIME    : 254.957
#PROBECUR    : 1.02867
#TAUWIND     : 0
#TDEADLYR    : 0
#TACTLYR     : 0.045
#TALWIND     : 0.025
#CHOFFSET    : 0.0
#XLABEL      : Energy (eV)
#YLABEL      : Counts
#XPOSITION   : 4.22056
#YPOSITION   : -0.15504
#ZPOSITION   : 31.03609
#EDSDET      : SD
##SPECIMEN   : SPI MM1dup Chromite[2][all]
##DET_HASH   : 12273538-fd48-a23f-0a19-f1e6fa85caef
##CALIB_HASH : 6abaa72c-aa41-8738-0be9-f592914732f3
##WORKING    : 15.0 mm
##DET_NAME   : EDAX All
##DET_MODE   : MediumLE
#SPECTRUM    :
19,
25,
13,
12,
94,
342,
1100,
3718,
10824,
13976,
7539,
3780,
4132,
5381,
10090,
34691,
122707,
224288,
162772,
48531,
10469,
4444,
4957,
7542,
7196,
4115,
2493,
2228,
2337,
2480,
2374,
2494,
2703,
3115,
3410,
3481,
3559,
3483,
3965,
6586,
20011,
46506,
55112,
31887,
11100,
4810,
4690,
10329,
31938,
63866,
64830,
34382,
11864,
5133,
3716,
3564,
4766,
7460,
9088,
7488,
5260,
3944,
3398,
3154,
3171,
3259,
3357,
3457,
3342,
3246,
3174,
3222,
3267,
3240,
3274,
3221,
3263,
3258,
3182,
3291,
3337,
3154,
3263,
3279,
3176,
3264,
3425,
3505,
3432,
3247,
3223,
3151,
3214,
3144,
3095,
2999,
2970,
2998,
2993,
2980,
2967,
2941,
2940,
2847,
2933,
2768,
2998,
2849,
2752,
2768,
2834,
2732,
2705,
2631,
2584,
2646,
2680,
2600,
2719,
2709,
2696,
2896,
3036,
2871,
2733,
2631,
2424,
2548,
2431,
2487,
2439,
2435,
2419,
2390,
2386,
2263,
2340,
2290,
2323,
2390,
2279,
2271,
2276,
2263,
2118,
2272,
2250,
2187,
2235,
2293,
2388,
2289,
2268,
2129,
2178,
2086,
2048,
2012,
1971,
2056,
1933,
1990,
1999,
2146,
2071,
2216,
2095,
2020,
1858,
1856,
1846,
2027,
1921,
2093,
2233,
3180,
6070,
15169,
34482,
60410,
79135,
75794,
54573,
29024,
11950,
4670,
2305,
1765,
1629,
1656,
1728,
1662,
1824,
2119,
2924,
4460,
7659,
10448,
11821,
10889,
7734,
4588,
2582,
1665,
1355,
1281,
1343,
1448,
1736,
2916,
5596,
10631,
15973,
19563,
18598,
13445,
7994,
4119,
2057,
1425,
1246,
1200,
1127,
1107,
1177,
1203,
1162,
1180,
1140,
1272,
1362,
1603,
1990,
2611,
3230,
3402,
3097,
2602,
1829,
1435,
1118,
1055,
994,
967,
967,
977,
1002,
1035,
1034,
1082,
1097,
1057,
1013,
939,
947,
893,
938,
853,
906,
865,
901,
833,
839,
875,
811,
846,
784,
862,
873,
780,
830,
800,
846,
750,
743,
804,
826,
822,
767,
767,
776,
735,
775,
774,
742,
722,
785,
769,
756,
749,
715,
717,
659,
700,
689,
679,
648,
675,
684,
668,
644,
659,
686,
661,
650,
659,
689,
620,
646,
638,
635,
615,
620,
614,
592,
652,
612,
605,
585,
592,
606,
612,
583,
526,
556,
604,
586,
613,
554,
579,
540,
545,
534,
594,
552,
569,
556,
504,
539,
509,
478,
513,
495,
521,
510,
502,
490,
481,
447,
512,
474,
488,
429,
441,
475,
451,
469,
480,
444,
448,
465,
449,
502,
420,
469,
418,
440,
422,
384,
416,
420,
354,
394,
342,
393,
404,
376,
396,
399,
368,
368,
387,
376,
378,
366,
394,
382,
415,
375,
336,
367,
368,
349,
357,
343,
325,
333,
333,
351,
334,
298,
310,
318,
333,
303,
324,
284,
282,
319,
311,
297,
274,
280,
277,
300,
263,
280,
268,
262,
250,
273,
254,
241,
256,
276,
283,
253,
256,
231,
223,
217,
233,
240,
212,
233,
205,
228,
233,
258,
225,
174,
208,
188,
207,
210,
221,
206,
192,
200,
196,
211,
198,
203,
155,
193,
186,
191,
183,
163,
159,
168,
144,
166,
170,
168,
168,
153,
180,
176,
188,
175,
139,
146,
163,
159,
149,
134,
147,
130,
148,
150,
122,
140,
146,
130,
126,
117,
143,
132,
126,
118,
116,
118,
129,
129,
125,
120,
110,
103,
96,
116,
117,
120,
105,
87,
97,
125,
98,
97,
89,
103,
92,
98,
95,
82,
81,
83,
92,
98,
87,
88,
85,
86,
77,
103,
82,
76,
75,
63,
100,
74,
72,
56,
69,
69,
67,
75,
68,
71,
59,
84,
55,
70,
73,
61,
46,
53,
54,
69,
49,
59,
55,
52,
52,
48,
59,
38,
50,
55,
44,
50,
49,
51,
43,
46,
59,
49,
31,
42,
46,
51,
50,
53,
44,
45,
29,
40,
30,
37,
41,
33,
31,
39,
33,
35,
40,
34,
32,
27,
34,
25,
32,
24,
22,
27,
34,
32,
35,
27,
26,
20,
29,
19,
24,
18,
23,
21,
16,
24,
14,
27,
27,
17,
15,
16,
14,
18,
13,
9,
21,
12,
15,
17,
21,
18,
17,
7,
9,
10,
13,
12,
9,
18,
9,
9,
3,
14,
4,
12,
7,
5,
5,
12,
8,
7,
3,
4,
0,
4,
6,
4,
7,
3,
2,
5,
5,
2,
3,
2,
3,
2,
1,
2,
0,
1,
0,
1,
1,
1,
1,
0,
1,
0,
0,
0,
1,
1,
0,
0,
0,
1,
0,
0,
0,
1,
1,
1,
0,
1,
0,
0,
0,
1,
0,
0,
0,
0,
0,
0,
1,
0,
1,
0,
0,
0,
0,
0,
2,
0,
0,
0,
1,
0,
0,
0,
0,
0,
2,
0,
0,
0,
1,
1,
1,
0,
0,
0,
1,
1,
2,
1,
0,
1,
0,
0,
0,
1,
0,
0,
0,
0,
0,
0,
0,
0,
0,
0,
0,
0,
1,
0,
0,
0,
0,
0,
0,
0,
0,
1,
0,
0,
0,
0,
0,
0,
0,
0,
0,
1,
0,
0,
0,
0,
0,
0,
0,
0,
0,
0,
0,
0,
0,
0,
0,
0,
0,
0,
0,
0,
0,
0,
0,
0,
0,
0,
0,
0,
0,
0,
0,
0,
0,
0,
0,
0,
0,
0,
0,
0,
0,
0,
0,
0,
0,
0,
1,
0,
0,
0,
0,
0,
0,
0,
0,
0,
0,
0,
0,
0,
0,
0,
0,
0,
0,
0,
1,
0,
0,
0,
0,
0,
0,
1,
0,
0,
0,
0,
0,
0,
0,
0,
0,
0,
0,
0,
0,
0,
0,
0,
0,
0,
0,
0,
0,
0,
0,
0,
0,
0,
0,
0,
0,
0,
0,
0,
0,
0,
0,
0,
0,
1,
0,
0,
0,
0,
0,
0,
0,
0,
0,
0,
0,
0,
0,
0,
0,
0,
0,
0,
0,
0,
0,
0,
0,
0,
0,
0,
0,
0,
0,
0,
0,
0,
0,
0,
0,
0,
0,
0,
0,
0,
0,
0,
0,
0,
0,
0,
0,
0,
0,
0,
0,
0,
0,
0,
0,
0,
0,
0,
0,
0,
0,
0,
0,
0,
0,
0,
0,
0,
0,
0,
0,
0,
0,
0,
0,
0,
0,
0,
0,
0,
0,
0,
0,
0,
0,
0,
0,
0,
0,
0,
0,
0,
0,
0,
0,
0,
0,
0,
0,
0,
0,
0,
0,
0,
0,
0,
0,
0,
0,
0,
0,
0,
0,
0,
0,
0,
0,
0,
0,
0,
0,
0,
0,
0,
0,
0,
0,
0,
0,
0,
0,
0,
0,
0,
0,
0,
0,
0,
0,
0,
0,
0,
0,
0,
0,
0,
0,
0,
0,
0,
0,
0,
0,
0,
0,
0,
0,
0,
0,
0,
0,
0,
0,
0,
0,
0,
0,
0,
0,
0,
0,
0,
0,
0,
0,
0,
0,
0,
0,
0,
0,
0,
0,
0,
0,
0,
0,
0,
0,
0,
0,
0,
0,
0,
0,
0,
0,
0,
0,
0,
0,
0,
0,
0,
0,
0,
0,
0,
0,
0,
0,
0,
0,
0,
0,
0,
0,
0,
0,
0,
0,
0,
0,
0,
0,
0,
0,
0,
0,
0,
0,
0,
0,
0,
0,
0,
0,
0,
0,
0,
0,
0,
0,
0,
0,
0,
0,
0,
0,
0,
0,
0,
0,
0,
0,
0,
0,
0,
0,
0,
0,
0,
0,
0,
0,
0,
0,
0,
0,
0,
0,
0,
0,
0,
0,
0,
0,
0,
0,
0,
0,
0,
0,
0,
0,
0,
0,
0,
0,
0,
0,
0,
0,
0,
0,
0,
0,
0,
0,
0,
0,
0,
0,
0,
0,
0,
0,
0,
0,
0,
0,
0,
0,
0,
0,
0,
0,
0,
0,
0,
0,
0,
0,
0,
0,
0,
0,
0,
0,
0,
0,
0,
0,
0,
0,
0,
0,
0,
0,
0,
0,
0,
0,
0,
0,
0,
0,
0,
0,
0,
0,
0,
0,
0,
0,
0,
0,
0,
0,
0,
0,
0,
0,
0,
0,
0,
0,
0,
0,
0,
0,
0,
0,
0,
0,
0,
0,
0,
0,
0,
0,
0,
0,
0,
0,
0,
0,
0,
0,
0,
0,
0,
0,
0,
0,
0,
0,
0,
0,
0,
0,
0,
0,
0,
0,
0,
0,
0,
0,
0,
0,
0,
0,
0,
0,
0,
0,
0,
0,
0,
0,
0,
0,
0,
0,
0,
0,
0,
0,
0,
0,
0,
0,
0,
0,
0,
0,
0,
0,
0,
0,
0,
0,
0,
0,
0,
0,
0,
0,
0,
0,
0,
0,
0,
0,
0,
0,
0,
0,
0,
0,
0,
0,
0,
0,
0,
0,
0,
0,
0,
0,
0,
0,
0,
0,
0,
0,
0,
0,
0,
0,
0,
0,
0,
0,
#ENDOFDATA   :