File: N132962/Quantification/MMM1/SPI MM1 Hematite[1][4].msa
#FORMAT      : EMSA/MAS Spectral Data File
#VERSION     : 1.0
#TITLE       : SPI MM1dup Hematite[1][all]
#DATE        : 12-MAR-2025
#TIME        : 16:47
#OWNER       : Unknown
#NPOINTS     : 4096
#NCOLUMNS    : 1
#XUNITS      : eV
#YUNITS      : counts
#DATATYPE    : Y
#XPERCHAN    : 9.99778
#OFFSET      : 1.69135
#BEAMKV      : 20
#SIGNALTYPE  : EDS
#ELEVANGLE   : 35
#AZIMANGLE   : 0
#LIVETIME    : 239.797
#REALTIME    : 256.675
#PROBECUR    : 1.026781
#TAUWIND     : 0
#TDEADLYR    : 0
#TACTLYR     : 0.045
#TALWIND     : 0.025
#CHOFFSET    : 0.0
#XLABEL      : Energy (eV)
#YLABEL      : Counts
#XPOSITION   : 3.61642
#YPOSITION   : 4.17553
#ZPOSITION   : 31.03608
#EDSDET      : SD
##SPECIMEN   : SPI MM1dup Hematite[1][all]
##D2STDCMP   : Hematite,(O:30.0574),(Fe:69.9426),5.0
##DET_HASH   : 12273538-fd48-a23f-0a19-f1e6fa85caef
##CALIB_HASH : 6abaa72c-aa41-8738-0be9-f592914732f3
##WORKING    : 15.0 mm
##DET_NAME   : EDAX All
##DET_MODE   : MediumLE
#SPECTRUM    :
27,
24,
9,
21,
94,
425,
1235,
3677,
9802,
12575,
7561,
4756,
5140,
6126,
9798,
28968,
104533,
198961,
145289,
46266,
22543,
21557,
30864,
52088,
45833,
17771,
5056,
2699,
2250,
2076,
2016,
2076,
2126,
2469,
2705,
2827,
2717,
2827,
2792,
2953,
3312,
3316,
3365,
3346,
3425,
3567,
3647,
3794,
3917,
4047,
4125,
4168,
4073,
4164,
4300,
4349,
4604,
4847,
5113,
5135,
4985,
4570,
4330,
4144,
4302,
4352,
4335,
4359,
4315,
4354,
4359,
4340,
4234,
4231,
4294,
4243,
4267,
4279,
4336,
4161,
4297,
4316,
4342,
4264,
4206,
4274,
4094,
4196,
4146,
4063,
4115,
4018,
4114,
4192,
4107,
4056,
4109,
4067,
3955,
3995,
3834,
3878,
3865,
3927,
3812,
3799,
3793,
3778,
3731,
3764,
3597,
3619,
3634,
3597,
3522,
3651,
3505,
3400,
3492,
3453,
3448,
3366,
3381,
3381,
3372,
3338,
3246,
3239,
3276,
3167,
3178,
3148,
3107,
3192,
3166,
3010,
3048,
3018,
3051,
2928,
2983,
2930,
2878,
2902,
2872,
2944,
2804,
2790,
2784,
2800,
2839,
2688,
2846,
3005,
3227,
3220,
3021,
2909,
2762,
2690,
2587,
2605,
2580,
2494,
2510,
2519,
2386,
2404,
2344,
2431,
2400,
2463,
2441,
2390,
2336,
2326,
2385,
2407,
2398,
2333,
2329,
2318,
2296,
2188,
2242,
2130,
2210,
2109,
2129,
2109,
2188,
2079,
2001,
2014,
2041,
2093,
1950,
1978,
2021,
2063,
2036,
2020,
2108,
2160,
2139,
2290,
2464,
3223,
5818,
14642,
34731,
70189,
111891,
136905,
128202,
91937,
51312,
22616,
8491,
3566,
2135,
1854,
1814,
1759,
1745,
1793,
1848,
1890,
2153,
2399,
3039,
4593,
7663,
11989,
16740,
18883,
17297,
12733,
7710,
4179,
2315,
1500,
1332,
1216,
1185,
1197,
1243,
1215,
1240,
1267,
1275,
1300,
1249,
1255,
1215,
1195,
1116,
1172,
1111,
1074,
1148,
1098,
1072,
1143,
1151,
1088,
1072,
1078,
1060,
1063,
1061,
1117,
1050,
996,
1071,
1051,
1072,
1028,
1019,
1025,
1053,
1021,
970,
1020,
990,
1008,
1006,
952,
988,
984,
931,
1029,
957,
973,
936,
1003,
912,
906,
964,
901,
860,
907,
886,
879,
848,
865,
845,
821,
808,
857,
864,
869,
813,
791,
848,
850,
800,
821,
813,
786,
766,
813,
748,
763,
787,
819,
756,
740,
758,
725,
751,
697,
792,
789,
730,
683,
690,
689,
727,
711,
694,
738,
710,
664,
683,
676,
687,
677,
658,
662,
621,
645,
575,
647,
634,
630,
615,
636,
598,
588,
594,
614,
577,
616,
570,
622,
606,
593,
543,
563,
529,
535,
604,
555,
512,
498,
510,
575,
537,
537,
555,
518,
541,
529,
529,
511,
534,
474,
518,
523,
504,
464,
428,
438,
475,
458,
472,
434,
441,
441,
439,
443,
455,
438,
458,
453,
414,
431,
431,
392,
413,
420,
404,
427,
449,
368,
409,
356,
340,
387,
342,
397,
407,
377,
423,
455,
442,
445,
415,
427,
374,
369,
349,
351,
319,
327,
283,
284,
337,
306,
304,
324,
296,
303,
337,
339,
301,
288,
302,
288,
280,
283,
260,
280,
286,
266,
237,
262,
241,
275,
276,
251,
239,
223,
234,
246,
229,
228,
237,
227,
208,
233,
235,
219,
197,
201,
201,
199,
210,
212,
222,
234,
208,
178,
166,
174,
195,
210,
172,
190,
185,
190,
185,
178,
171,
181,
192,
178,
164,
173,
133,
145,
168,
167,
147,
181,
146,
153,
147,
124,
146,
149,
147,
152,
121,
155,
122,
150,
135,
131,
129,
115,
131,
125,
105,
113,
102,
129,
108,
94,
129,
107,
105,
101,
110,
117,
92,
102,
95,
104,
96,
108,
85,
91,
100,
93,
95,
99,
90,
113,
77,
84,
77,
76,
88,
75,
81,
96,
81,
69,
86,
75,
78,
73,
56,
73,
71,
64,
85,
64,
63,
55,
62,
64,
57,
62,
52,
53,
65,
58,
55,
75,
60,
51,
57,
46,
56,
48,
41,
54,
54,
30,
47,
37,
40,
36,
31,
43,
46,
40,
30,
50,
46,
36,
21,
28,
32,
30,
21,
35,
30,
27,
27,
21,
25,
20,
24,
32,
24,
23,
24,
25,
20,
17,
19,
30,
22,
27,
21,
18,
21,
17,
12,
15,
17,
18,
10,
13,
14,
14,
13,
17,
10,
7,
6,
7,
6,
8,
9,
6,
2,
6,
7,
4,
8,
2,
7,
8,
1,
6,
1,
5,
4,
3,
3,
0,
0,
0,
2,
4,
0,
1,
0,
0,
2,
0,
3,
1,
1,
0,
1,
1,
0,
2,
2,
0,
2,
2,
2,
1,
1,
2,
1,
2,
1,
0,
1,
1,
1,
1,
0,
1,
1,
0,
0,
1,
1,
1,
1,
0,
0,
0,
0,
0,
1,
1,
1,
0,
0,
1,
1,
0,
0,
1,
0,
1,
2,
0,
0,
0,
0,
0,
0,
1,
3,
0,
0,
0,
1,
1,
0,
0,
0,
0,
1,
0,
1,
0,
2,
0,
0,
0,
1,
0,
0,
0,
0,
2,
0,
0,
0,
2,
0,
0,
0,
0,
0,
1,
1,
0,
0,
0,
0,
0,
0,
0,
0,
0,
1,
0,
0,
0,
0,
0,
0,
0,
0,
0,
0,
0,
0,
0,
1,
0,
0,
0,
0,
0,
0,
0,
1,
0,
0,
0,
0,
0,
1,
0,
0,
0,
0,
0,
0,
0,
0,
0,
0,
0,
0,
0,
0,
0,
0,
0,
1,
0,
0,
0,
0,
0,
0,
0,
0,
1,
0,
0,
0,
0,
0,
0,
0,
0,
0,
0,
0,
0,
0,
0,
0,
0,
0,
0,
1,
0,
1,
0,
0,
0,
0,
0,
0,
0,
0,
0,
0,
0,
0,
0,
0,
0,
0,
0,
0,
0,
0,
0,
0,
0,
0,
0,
0,
0,
0,
0,
0,
0,
0,
0,
0,
0,
0,
0,
0,
0,
0,
0,
0,
0,
0,
0,
0,
1,
0,
0,
0,
0,
0,
0,
0,
0,
0,
1,
0,
0,
0,
0,
0,
0,
0,
0,
0,
0,
0,
0,
0,
0,
0,
0,
0,
0,
0,
0,
0,
0,
0,
0,
0,
0,
0,
0,
0,
0,
0,
0,
0,
0,
0,
0,
0,
0,
0,
0,
0,
0,
0,
0,
0,
0,
0,
0,
0,
0,
0,
0,
0,
0,
0,
0,
0,
0,
0,
0,
0,
0,
0,
0,
0,
0,
0,
0,
0,
0,
0,
0,
0,
0,
0,
0,
0,
0,
0,
0,
0,
0,
0,
0,
0,
0,
0,
0,
0,
0,
0,
0,
0,
0,
0,
0,
1,
0,
0,
0,
0,
0,
0,
0,
0,
0,
0,
0,
0,
0,
0,
0,
0,
0,
0,
0,
0,
0,
0,
0,
0,
0,
0,
0,
0,
0,
0,
0,
0,
0,
0,
0,
0,
0,
0,
0,
0,
0,
0,
0,
0,
0,
0,
0,
0,
0,
0,
0,
0,
0,
0,
0,
0,
0,
0,
0,
0,
0,
0,
0,
0,
0,
0,
0,
0,
0,
0,
0,
0,
0,
0,
0,
0,
0,
0,
0,
0,
0,
0,
0,
0,
0,
0,
0,
0,
0,
0,
0,
0,
0,
0,
0,
0,
0,
0,
0,
0,
0,
0,
0,
0,
0,
0,
0,
0,
0,
0,
0,
0,
0,
0,
0,
0,
0,
0,
0,
0,
0,
0,
0,
0,
0,
0,
0,
0,
0,
0,
0,
0,
0,
0,
0,
0,
0,
0,
0,
0,
0,
0,
0,
0,
0,
0,
0,
0,
0,
0,
0,
0,
0,
0,
0,
0,
0,
0,
0,
0,
0,
0,
0,
0,
0,
0,
0,
0,
0,
0,
0,
0,
0,
0,
0,
0,
0,
0,
0,
0,
0,
0,
0,
0,
0,
0,
0,
0,
0,
0,
0,
0,
0,
0,
0,
0,
0,
0,
0,
0,
0,
0,
0,
0,
0,
0,
0,
0,
0,
0,
0,
0,
0,
0,
0,
0,
0,
0,
0,
0,
0,
0,
0,
0,
0,
0,
0,
0,
0,
0,
0,
0,
0,
0,
0,
0,
0,
0,
0,
0,
0,
0,
0,
0,
0,
0,
0,
0,
0,
0,
0,
0,
0,
0,
0,
0,
0,
0,
0,
0,
0,
0,
0,
0,
0,
0,
0,
0,
0,
0,
0,
0,
0,
0,
0,
0,
0,
0,
0,
0,
0,
0,
0,
0,
0,
0,
0,
0,
0,
0,
0,
0,
0,
0,
0,
0,
0,
0,
0,
0,
0,
0,
0,
0,
0,
0,
0,
0,
0,
0,
0,
0,
0,
0,
0,
0,
0,
0,
0,
0,
0,
0,
0,
0,
0,
0,
0,
0,
0,
0,
0,
0,
0,
0,
0,
0,
0,
0,
0,
0,
0,
0,
0,
0,
0,
0,
0,
0,
0,
0,
0,
0,
0,
0,
0,
0,
0,
#ENDOFDATA   :