File: N132962/Quantification/MMM1/SPI MM1 Crocoite[7][4].msa
#FORMAT      : EMSA/MAS Spectral Data File
#VERSION     : 1.0
#TITLE       : SPI MM1dup Crocoite[7][all]
#DATE        : 12-MAR-2025
#TIME        : 13:58
#OWNER       : Unknown
#NPOINTS     : 4096
#NCOLUMNS    : 1
#XUNITS      : eV
#YUNITS      : counts
#DATATYPE    : Y
#XPERCHAN    : 9.99778
#OFFSET      : 1.69135
#BEAMKV      : 20
#SIGNALTYPE  : EDS
#ELEVANGLE   : 35
#AZIMANGLE   : 0
#LIVETIME    : 239.833
#REALTIME    : 261.996
#PROBECUR    : 1.02627
#TAUWIND     : 0
#TDEADLYR    : 0
#TACTLYR     : 0.045
#TALWIND     : 0.025
#CHOFFSET    : 0.0
#XLABEL      : Energy (eV)
#YLABEL      : Counts
#XPOSITION   : -1.14437
#YPOSITION   : -0.63604
#ZPOSITION   : 31.03608
#EDSDET      : SD
##SPECIMEN   : SPI MM1dup Crocoite[7][all]
##DET_HASH   : 12273538-fd48-a23f-0a19-f1e6fa85caef
##CALIB_HASH : 6abaa72c-aa41-8738-0be9-f592914732f3
##WORKING    : 15.0 mm
##DET_NAME   : EDAX All
##DET_MODE   : MediumLE
#SPECTRUM    :
18,
24,
16,
45,
256,
1162,
3284,
7583,
16623,
20191,
11175,
5929,
5276,
5334,
6587,
13348,
36763,
65219,
51482,
22104,
11049,
7020,
5700,
6183,
5907,
4987,
4574,
4953,
5318,
5444,
5363,
5589,
5712,
6003,
5948,
6153,
6332,
6405,
6607,
6782,
6941,
7118,
7352,
7554,
7418,
7607,
7847,
8098,
8189,
8448,
8571,
8533,
8350,
8409,
8492,
8672,
9126,
9840,
10814,
13055,
16491,
18074,
15154,
11203,
9177,
8866,
8497,
8354,
8274,
8379,
8985,
9765,
10849,
11680,
13181,
21347,
48723,
105021,
154680,
149356,
119023,
108508,
92822,
55214,
23533,
10050,
7948,
9521,
11131,
10765,
8477,
6295,
5247,
5011,
5038,
5048,
5267,
5396,
5357,
5480,
5695,
6119,
6738,
6611,
6453,
5957,
5422,
5147,
5050,
4817,
4760,
4650,
4751,
4725,
4778,
4805,
4797,
4873,
4941,
4751,
4787,
4859,
4928,
4958,
4805,
4852,
4730,
4632,
4593,
4511,
4583,
4482,
4457,
4541,
4519,
4519,
4482,
4593,
4544,
4671,
4572,
4612,
4409,
4528,
4530,
4560,
4491,
4495,
4386,
4408,
4311,
4396,
4393,
4421,
4449,
4492,
4421,
4462,
4540,
4423,
4604,
4362,
4322,
4388,
4333,
4302,
4208,
4263,
4222,
4191,
4250,
4209,
4220,
4282,
4472,
4749,
6606,
11414,
22431,
36496,
46455,
44560,
32569,
18695,
9476,
5541,
4202,
4087,
3900,
3907,
3884,
3934,
3948,
4020,
4572,
5178,
6976,
8681,
9412,
8962,
7215,
5596,
4310,
3741,
3407,
3485,
3385,
3380,
3387,
3327,
3486,
3587,
3723,
3909,
3818,
3660,
3442,
3245,
3305,
3102,
3300,
3163,
3272,
3206,
3176,
3184,
3074,
3106,
3068,
3125,
3086,
3120,
3055,
3002,
3093,
3073,
3056,
2962,
3012,
2997,
2829,
2977,
2919,
2885,
2877,
2846,
2824,
2976,
3110,
3108,
2992,
2866,
2967,
2829,
2802,
2829,
2766,
2743,
2713,
2748,
2790,
2690,
2750,
2646,
2702,
2615,
2615,
2507,
2540,
2621,
2546,
2578,
2470,
2560,
2547,
2415,
2514,
2402,
2417,
2414,
2465,
2416,
2381,
2342,
2409,
2375,
2355,
2303,
2352,
2293,
2434,
2251,
2297,
2246,
2320,
2194,
2259,
2229,
2143,
2190,
2170,
2182,
2304,
2368,
2502,
2645,
2583,
2643,
2439,
2340,
2337,
2073,
1963,
1945,
1980,
2068,
2007,
1985,
1953,
1980,
1920,
1965,
1857,
1968,
1904,
1946,
1930,
1883,
1875,
1817,
1906,
1840,
1822,
1908,
1898,
1851,
1728,
1753,
1744,
1717,
1782,
1772,
1807,
1816,
2056,
2498,
3208,
4363,
6023,
8046,
10102,
11007,
10861,
9298,
7228,
4755,
3147,
2266,
1890,
1602,
1568,
1536,
1529,
1577,
1538,
1490,
1505,
1436,
1474,
1398,
1511,
1447,
1454,
1364,
1409,
1441,
1382,
1399,
1392,
1387,
1401,
1357,
1336,
1274,
1280,
1283,
1338,
1320,
1303,
1193,
1306,
1261,
1180,
1242,
1173,
1171,
1235,
1159,
1193,
1178,
1104,
1160,
1201,
1212,
1231,
1197,
1240,
1279,
1235,
1226,
1189,
1232,
1164,
1169,
1356,
1534,
2047,
2752,
3492,
4242,
4597,
4438,
3738,
2984,
2250,
1713,
1416,
1195,
1150,
1134,
1089,
1070,
1045,
1144,
1098,
1032,
967,
915,
826,
836,
771,
752,
785,
761,
784,
732,
770,
767,
752,
700,
732,
729,
756,
703,
695,
710,
690,
666,
702,
735,
666,
682,
654,
700,
654,
648,
609,
633,
651,
548,
603,
686,
618,
648,
613,
552,
560,
582,
588,
569,
574,
575,
561,
566,
514,
608,
562,
581,
642,
716,
750,
828,
818,
768,
655,
650,
584,
550,
530,
499,
484,
490,
514,
526,
515,
501,
535,
485,
483,
436,
452,
406,
414,
378,
394,
406,
369,
357,
363,
385,
377,
355,
382,
320,
369,
366,
336,
327,
326,
310,
330,
334,
310,
359,
286,
333,
332,
349,
298,
290,
275,
285,
261,
253,
268,
230,
249,
244,
242,
244,
237,
283,
254,
264,
235,
250,
224,
228,
202,
207,
234,
217,
236,
231,
210,
214,
233,
232,
202,
202,
222,
192,
196,
206,
181,
175,
195,
180,
187,
173,
175,
153,
176,
162,
136,
143,
154,
174,
166,
143,
165,
162,
161,
147,
133,
144,
155,
121,
117,
125,
146,
131,
134,
130,
118,
107,
105,
126,
91,
102,
102,
93,
100,
108,
106,
86,
91,
78,
83,
72,
85,
68,
91,
73,
75,
70,
77,
64,
62,
53,
67,
50,
70,
58,
52,
48,
48,
51,
56,
55,
38,
47,
45,
47,
36,
45,
37,
35,
32,
34,
26,
27,
26,
25,
20,
26,
20,
19,
14,
20,
5,
8,
10,
15,
9,
2,
2,
3,
1,
3,
3,
1,
2,
1,
4,
3,
7,
2,
0,
5,
2,
1,
5,
3,
2,
5,
7,
4,
2,
2,
1,
4,
6,
4,
3,
2,
1,
2,
3,
3,
6,
4,
3,
3,
0,
7,
1,
1,
1,
4,
2,
2,
1,
5,
1,
3,
0,
3,
1,
1,
2,
6,
3,
0,
2,
1,
5,
4,
2,
6,
1,
3,
1,
2,
0,
1,
3,
2,
2,
1,
2,
1,
2,
0,
3,
1,
2,
1,
2,
1,
0,
1,
3,
3,
0,
1,
1,
0,
0,
2,
0,
0,
1,
2,
3,
2,
2,
0,
1,
1,
4,
0,
0,
2,
0,
5,
3,
0,
2,
0,
1,
2,
1,
0,
3,
0,
0,
1,
1,
1,
0,
0,
1,
3,
1,
1,
2,
2,
1,
1,
2,
0,
1,
0,
1,
0,
1,
1,
0,
1,
1,
0,
0,
0,
1,
0,
1,
1,
0,
0,
0,
2,
1,
0,
1,
0,
0,
0,
1,
1,
0,
0,
0,
1,
0,
0,
1,
0,
0,
1,
0,
1,
1,
0,
0,
2,
1,
0,
3,
2,
1,
1,
1,
2,
0,
1,
0,
1,
1,
0,
0,
0,
2,
0,
0,
1,
0,
0,
0,
0,
0,
0,
0,
0,
1,
2,
0,
1,
1,
1,
0,
1,
0,
1,
0,
1,
1,
1,
0,
0,
0,
0,
0,
1,
0,
0,
0,
0,
2,
1,
0,
1,
1,
0,
1,
0,
0,
0,
0,
0,
0,
0,
0,
0,
0,
0,
0,
0,
0,
0,
0,
1,
0,
0,
1,
0,
0,
0,
0,
0,
0,
0,
1,
0,
0,
1,
1,
0,
0,
0,
0,
0,
0,
0,
0,
0,
0,
1,
0,
0,
0,
0,
0,
0,
0,
0,
0,
0,
0,
0,
0,
0,
0,
1,
0,
0,
0,
0,
0,
0,
0,
1,
0,
0,
0,
0,
0,
0,
0,
0,
0,
1,
1,
0,
0,
0,
0,
0,
0,
0,
1,
0,
0,
0,
0,
1,
0,
0,
0,
0,
0,
0,
0,
0,
0,
0,
0,
0,
0,
0,
0,
1,
0,
0,
0,
0,
0,
0,
0,
0,
0,
0,
0,
0,
0,
0,
0,
0,
0,
0,
0,
0,
0,
0,
0,
0,
0,
0,
1,
0,
0,
0,
0,
0,
0,
0,
0,
0,
0,
0,
0,
0,
0,
0,
0,
0,
0,
0,
0,
0,
0,
0,
0,
0,
0,
0,
0,
0,
0,
0,
0,
0,
0,
0,
0,
0,
0,
0,
0,
0,
0,
0,
0,
0,
0,
0,
0,
0,
0,
0,
0,
0,
0,
0,
0,
0,
0,
0,
0,
0,
0,
0,
0,
0,
0,
0,
0,
0,
0,
0,
0,
0,
0,
0,
0,
0,
0,
0,
0,
0,
0,
0,
0,
0,
0,
0,
0,
0,
0,
0,
0,
0,
0,
0,
0,
0,
0,
0,
0,
0,
0,
0,
0,
0,
0,
0,
0,
0,
0,
0,
0,
0,
0,
0,
0,
0,
0,
0,
0,
0,
0,
0,
0,
0,
0,
0,
0,
0,
0,
0,
0,
0,
0,
1,
0,
0,
1,
0,
0,
0,
0,
0,
0,
0,
0,
0,
0,
0,
0,
0,
0,
0,
0,
0,
0,
0,
0,
0,
0,
0,
0,
0,
0,
0,
0,
0,
0,
0,
0,
0,
0,
0,
0,
0,
0,
0,
0,
0,
0,
0,
0,
0,
0,
0,
0,
0,
0,
0,
0,
0,
0,
0,
0,
0,
0,
0,
0,
0,
0,
0,
0,
0,
0,
0,
0,
0,
0,
0,
0,
0,
0,
0,
0,
0,
0,
0,
0,
0,
0,
0,
0,
0,
0,
0,
0,
0,
0,
0,
0,
0,
0,
0,
0,
0,
0,
0,
0,
0,
0,
0,
0,
0,
0,
0,
0,
0,
0,
0,
0,
0,
0,
0,
0,
0,
0,
0,
0,
0,
0,
0,
0,
0,
0,
0,
0,
0,
0,
0,
0,
0,
0,
0,
0,
0,
0,
1,
0,
0,
0,
0,
0,
0,
0,
0,
0,
0,
0,
0,
0,
0,
0,
0,
0,
0,
0,
0,
0,
0,
0,
0,
0,
0,
0,
0,
0,
0,
0,
0,
0,
0,
0,
0,
0,
0,
0,
0,
0,
0,
0,
0,
0,
0,
0,
0,
0,
0,
#ENDOFDATA   :