File: N132962/Quantification/MMM1/SPI MM1 Jadeite[3][4].msa
#FORMAT      : EMSA/MAS Spectral Data File
#VERSION     : 1.0
#TITLE       : SPI MM1dup Jadeite[3][all]
#DATE        : 12-MAR-2025
#TIME        : 16:32
#OWNER       : Unknown
#NPOINTS     : 4096
#NCOLUMNS    : 1
#XUNITS      : eV
#YUNITS      : counts
#DATATYPE    : Y
#XPERCHAN    : 9.99778
#OFFSET      : 1.69135
#BEAMKV      : 20
#SIGNALTYPE  : EDS
#ELEVANGLE   : 35
#AZIMANGLE   : 0
#LIVETIME    : 239.756
#REALTIME    : 255.534
#PROBECUR    : 1.02709
#TAUWIND     : 0
#TDEADLYR    : 0
#TACTLYR     : 0.045
#TALWIND     : 0.025
#CHOFFSET    : 0.0
#XLABEL      : Energy (eV)
#YLABEL      : Counts
#XPOSITION   : 0.96273
#YPOSITION   : 4.30414
#ZPOSITION   : 31.03608
#EDSDET      : SD
##SPECIMEN   : SPI MM1dup Jadeite[3][all]
##D2STDCMP   : Jadeite,(O:47.4904),(Na:11.3733),(Al:13.348),(Si:27.7883),5.0
##DET_HASH   : 12273538-fd48-a23f-0a19-f1e6fa85caef
##CALIB_HASH : 6abaa72c-aa41-8738-0be9-f592914732f3
##WORKING    : 15.0 mm
##DET_NAME   : EDAX All
##DET_MODE   : MediumLE
#SPECTRUM    :
21,
40,
4,
12,
52,
248,
781,
2356,
6349,
8614,
4692,
2468,
2462,
3336,
6273,
25397,
100845,
197968,
144481,
37978,
4797,
1737,
1841,
2093,
2050,
2155,
2245,
2637,
2832,
2975,
3501,
4174,
8126,
26550,
62305,
69086,
34515,
9604,
3718,
3279,
3463,
3542,
3940,
3984,
4100,
4410,
5996,
15464,
51390,
103534,
105214,
55258,
18514,
7393,
5839,
15183,
60322,
156064,
212289,
150121,
60162,
20186,
9070,
4497,
2560,
2207,
2260,
2243,
2184,
2201,
2125,
2090,
2077,
2253,
2481,
2647,
2552,
2316,
2221,
2089,
2095,
2106,
2074,
2192,
2236,
2180,
2133,
2108,
2104,
2137,
2129,
2221,
2230,
2275,
2171,
2076,
1989,
2052,
2015,
2077,
2080,
1993,
1955,
2011,
1979,
2057,
2072,
2258,
2222,
2104,
2045,
1900,
1902,
1837,
2019,
1971,
1980,
2070,
1951,
1837,
1810,
1952,
2034,
2086,
1974,
1967,
1734,
1686,
1658,
1732,
1671,
1654,
1591,
1590,
1675,
1571,
1580,
1574,
1550,
1557,
1612,
1613,
1550,
1495,
1518,
1489,
1441,
1451,
1433,
1372,
1502,
1369,
1355,
1387,
1369,
1367,
1350,
1264,
1294,
1292,
1316,
1335,
1300,
1274,
1254,
1232,
1275,
1240,
1197,
1277,
1191,
1226,
1243,
1124,
1158,
1168,
1145,
1156,
1132,
1088,
1125,
1139,
1164,
1121,
1086,
1011,
1073,
1027,
1121,
1028,
978,
1040,
1010,
1036,
1016,
1042,
1019,
997,
992,
982,
923,
907,
955,
927,
931,
956,
949,
920,
919,
934,
942,
1027,
983,
1047,
1003,
1014,
947,
878,
895,
804,
779,
856,
790,
821,
814,
766,
783,
859,
792,
772,
797,
766,
777,
735,
777,
751,
763,
740,
752,
747,
722,
742,
710,
724,
720,
677,
689,
691,
700,
693,
728,
709,
683,
641,
675,
609,
577,
631,
626,
603,
560,
590,
583,
605,
663,
604,
608,
606,
571,
555,
586,
578,
532,
576,
557,
556,
554,
532,
532,
521,
524,
518,
560,
526,
544,
532,
514,
514,
500,
465,
513,
485,
481,
479,
531,
479,
496,
512,
455,
477,
445,
450,
463,
467,
476,
444,
441,
401,
425,
426,
419,
464,
414,
409,
409,
417,
407,
393,
387,
354,
393,
409,
400,
400,
375,
426,
382,
387,
350,
361,
376,
368,
355,
339,
369,
335,
338,
344,
325,
347,
362,
349,
305,
325,
304,
331,
349,
309,
311,
312,
360,
327,
295,
298,
343,
314,
311,
313,
310,
276,
301,
296,
281,
266,
273,
282,
264,
261,
278,
246,
273,
219,
250,
225,
296,
243,
231,
250,
278,
253,
238,
250,
235,
236,
228,
251,
254,
187,
234,
220,
222,
221,
214,
204,
211,
207,
207,
214,
194,
195,
197,
190,
211,
192,
170,
196,
209,
177,
194,
171,
181,
185,
186,
173,
181,
193,
151,
152,
190,
179,
152,
179,
134,
174,
167,
181,
158,
136,
179,
151,
139,
129,
137,
131,
122,
150,
138,
137,
139,
149,
130,
131,
129,
149,
112,
145,
139,
142,
133,
126,
107,
126,
119,
116,
112,
104,
105,
111,
127,
103,
101,
104,
113,
99,
94,
93,
98,
102,
94,
94,
105,
108,
91,
73,
96,
78,
104,
104,
78,
81,
118,
96,
78,
86,
89,
80,
85,
91,
88,
92,
70,
87,
86,
78,
72,
75,
87,
69,
77,
62,
77,
71,
52,
56,
49,
68,
70,
69,
56,
57,
55,
65,
43,
52,
67,
58,
56,
65,
59,
44,
57,
39,
56,
49,
43,
42,
60,
41,
40,
43,
51,
40,
46,
39,
31,
34,
38,
36,
48,
45,
44,
42,
44,
45,
29,
31,
36,
29,
40,
42,
37,
37,
30,
26,
34,
29,
36,
22,
30,
23,
32,
26,
25,
26,
24,
25,
27,
38,
25,
21,
27,
16,
25,
20,
24,
30,
29,
23,
14,
22,
23,
26,
18,
24,
18,
13,
13,
13,
21,
18,
14,
15,
16,
8,
17,
14,
19,
12,
15,
15,
15,
11,
20,
14,
13,
12,
9,
12,
12,
8,
3,
6,
10,
7,
10,
16,
7,
11,
9,
5,
16,
9,
10,
11,
6,
9,
4,
6,
7,
10,
3,
6,
5,
4,
8,
4,
6,
10,
5,
2,
8,
4,
2,
5,
0,
4,
1,
1,
5,
4,
3,
1,
5,
1,
2,
1,
2,
1,
0,
5,
1,
0,
0,
0,
0,
0,
1,
0,
0,
0,
0,
0,
0,
0,
1,
0,
0,
0,
0,
0,
0,
0,
0,
0,
0,
0,
0,
0,
0,
0,
0,
0,
1,
0,
0,
0,
0,
0,
0,
0,
0,
0,
0,
0,
0,
0,
0,
1,
0,
0,
0,
0,
0,
0,
0,
0,
0,
0,
0,
0,
0,
0,
0,
0,
0,
0,
0,
0,
0,
0,
0,
0,
0,
0,
0,
0,
0,
0,
0,
0,
0,
0,
0,
0,
0,
0,
1,
0,
0,
0,
0,
0,
0,
0,
1,
0,
0,
0,
0,
0,
0,
0,
0,
0,
0,
0,
0,
0,
0,
0,
0,
0,
0,
0,
0,
0,
0,
0,
0,
0,
0,
0,
0,
0,
0,
0,
0,
0,
0,
0,
0,
0,
0,
0,
0,
0,
0,
0,
0,
0,
0,
0,
0,
0,
0,
0,
0,
0,
0,
0,
0,
0,
0,
0,
0,
0,
0,
0,
0,
0,
0,
0,
0,
0,
0,
0,
0,
0,
0,
0,
0,
0,
0,
0,
0,
0,
0,
0,
0,
0,
0,
0,
0,
0,
0,
0,
0,
0,
0,
0,
0,
0,
0,
0,
0,
0,
0,
0,
0,
0,
0,
0,
0,
0,
0,
0,
0,
0,
0,
0,
0,
0,
0,
0,
0,
0,
0,
0,
0,
0,
0,
0,
0,
0,
0,
0,
0,
0,
0,
0,
0,
0,
0,
0,
0,
0,
0,
0,
0,
0,
0,
0,
0,
0,
0,
0,
0,
0,
0,
0,
0,
0,
0,
0,
0,
0,
0,
0,
0,
0,
0,
0,
0,
0,
0,
0,
0,
0,
0,
0,
0,
0,
0,
0,
0,
0,
0,
0,
0,
0,
0,
0,
0,
0,
0,
0,
0,
0,
0,
0,
0,
0,
0,
0,
0,
0,
0,
0,
0,
0,
0,
0,
0,
0,
0,
0,
0,
0,
0,
0,
0,
0,
0,
0,
0,
0,
0,
0,
0,
0,
0,
0,
0,
0,
0,
0,
0,
0,
0,
0,
0,
0,
0,
0,
0,
0,
0,
0,
0,
0,
0,
0,
0,
0,
0,
0,
0,
0,
0,
0,
0,
0,
0,
0,
0,
0,
0,
0,
0,
0,
0,
0,
0,
0,
0,
0,
0,
0,
0,
0,
0,
0,
0,
0,
0,
0,
0,
0,
0,
0,
0,
0,
0,
0,
0,
0,
0,
0,
0,
0,
0,
0,
0,
0,
0,
0,
0,
0,
0,
0,
0,
0,
0,
0,
0,
0,
0,
0,
0,
0,
0,
0,
0,
0,
0,
0,
0,
0,
0,
0,
0,
0,
0,
0,
0,
0,
0,
0,
0,
0,
0,
0,
0,
0,
0,
0,
0,
0,
0,
0,
0,
0,
0,
0,
0,
0,
0,
0,
0,
0,
0,
0,
0,
0,
0,
0,
0,
0,
0,
0,
0,
0,
0,
0,
0,
0,
0,
0,
0,
0,
0,
0,
0,
0,
0,
0,
0,
0,
0,
0,
0,
0,
0,
0,
0,
0,
0,
0,
0,
0,
0,
0,
0,
0,
0,
0,
0,
0,
0,
0,
0,
0,
0,
0,
0,
0,
0,
0,
0,
0,
0,
0,
0,
0,
0,
0,
0,
0,
0,
0,
0,
0,
0,
0,
0,
0,
0,
0,
0,
0,
0,
0,
0,
0,
0,
0,
0,
0,
0,
0,
0,
0,
0,
0,
0,
0,
0,
0,
0,
0,
0,
0,
0,
0,
0,
0,
0,
0,
0,
0,
0,
0,
0,
0,
0,
0,
0,
0,
0,
0,
0,
0,
0,
0,
0,
0,
0,
0,
0,
0,
0,
0,
0,
0,
0,
0,
0,
0,
0,
0,
0,
0,
0,
0,
0,
0,
0,
0,
0,
0,
0,
0,
0,
0,
0,
0,
0,
0,
0,
0,
0,
0,
0,
0,
0,
0,
0,
0,
0,
0,
0,
0,
0,
0,
0,
0,
0,
0,
0,
0,
0,
0,
0,
0,
0,
0,
0,
0,
0,
0,
0,
0,
0,
0,
0,
0,
0,
0,
0,
0,
0,
0,
0,
0,
0,
0,
0,
0,
0,
0,
0,
0,
0,
0,
0,
0,
0,
0,
0,
0,
0,
0,
0,
0,
0,
0,
0,
0,
0,
0,
0,
0,
0,
0,
0,
0,
0,
0,
0,
0,
0,
0,
0,
0,
0,
0,
0,
0,
0,
0,
0,
0,
0,
0,
0,
0,
#ENDOFDATA   :