File: N132962/Quantification/MMM1/SPI MM1 Almandine[5][4].msa
#FORMAT      : EMSA/MAS Spectral Data File
#VERSION     : 1.0
#TITLE       : SPI MM1 Almandine[5][all]
#DATE        : 11-MAR-2025
#TIME        : 13:03
#OWNER       : Unknown
#NPOINTS     : 4096
#NCOLUMNS    : 1
#XUNITS      : eV
#YUNITS      : counts
#DATATYPE    : Y
#XPERCHAN    : 9.99778
#OFFSET      : 1.69135
#BEAMKV      : 20
#SIGNALTYPE  : EDS
#ELEVANGLE   : 35
#AZIMANGLE   : 0
#LIVETIME    : 239.8426
#REALTIME    : 255.273
#PROBECUR    : 1.02699
#TAUWIND     : 0
#TDEADLYR    : 0
#TACTLYR     : 0.045
#TALWIND     : 0.025
#CHOFFSET    : 0.0
#XLABEL      : Energy (eV)
#YLABEL      : Counts
#XPOSITION   : 0.43788
#YPOSITION   : -7.81237
#ZPOSITION   : 30.9284
#EDSDET      : SD
##SPECIMEN   : SPI MM1 Almandine[5][all]
##D2STDCMP   : Almandine,(O:38.5719),(Al:10.8416),(Si:16.9275),(Fe:33.6591),4.05
##DET_HASH   : 12273538-fd48-a23f-0a19-f1e6fa85caef
##CALIB_HASH : 6abaa72c-aa41-8738-0be9-f592914732f3
##WORKING    : 15.0 mm
##DET_NAME   : EDAX All
##DET_MODE   : MediumLE
#SPECTRUM    :
24,
30,
10,
13,
68,
312,
875,
2633,
7384,
10150,
5811,
3055,
2975,
3735,
6346,
22765,
90373,
176910,
129694,
35084,
7474,
5468,
7986,
14204,
14063,
7095,
3192,
2505,
2432,
2429,
2585,
2520,
2696,
3046,
3227,
3370,
3460,
3585,
4056,
5960,
15531,
35009,
41838,
25052,
9966,
5121,
5491,
12663,
40153,
80485,
82082,
43476,
14922,
6497,
5202,
10973,
38925,
98879,
134291,
95175,
39231,
14210,
7127,
4316,
3110,
2947,
2923,
2936,
2831,
2846,
2770,
2666,
2727,
2885,
3030,
3087,
3073,
2983,
2788,
2798,
2883,
2806,
2840,
2748,
2766,
2762,
2681,
2766,
2700,
2748,
2661,
2771,
2654,
2684,
2685,
2716,
2686,
2674,
2623,
2706,
2653,
2665,
2529,
2518,
2511,
2510,
2486,
2605,
2572,
2487,
2436,
2352,
2373,
2405,
2316,
2486,
2500,
2515,
2577,
2775,
4405,
7791,
12667,
15292,
13234,
8252,
4356,
2695,
2292,
2159,
2295,
2429,
2946,
3571,
3678,
3306,
2688,
2272,
2033,
1975,
1951,
1965,
1905,
1858,
1865,
1879,
1875,
1843,
1903,
1824,
1905,
2000,
1866,
1795,
1823,
1856,
1819,
1784,
1677,
1741,
1691,
1632,
1674,
1659,
1655,
1673,
1601,
1548,
1564,
1563,
1567,
1568,
1595,
1542,
1529,
1566,
1493,
1486,
1457,
1513,
1473,
1492,
1512,
1469,
1432,
1392,
1460,
1348,
1348,
1345,
1372,
1423,
1436,
1463,
1722,
2120,
2273,
2269,
1974,
1683,
1548,
1364,
1307,
1265,
1322,
1331,
1370,
1540,
2236,
4356,
9446,
18333,
28852,
35095,
32908,
24124,
13902,
6476,
2947,
1615,
1218,
1117,
1110,
1155,
1086,
1113,
1090,
1153,
1163,
1215,
1370,
1779,
2458,
3630,
4747,
5349,
4875,
3769,
2582,
1634,
1169,
946,
877,
839,
881,
866,
855,
863,
909,
870,
861,
844,
795,
885,
839,
839,
827,
809,
778,
787,
804,
727,
772,
774,
824,
770,
771,
756,
802,
747,
722,
764,
750,
757,
746,
749,
660,
682,
689,
692,
692,
652,
657,
690,
660,
653,
652,
647,
657,
619,
658,
625,
621,
612,
637,
661,
589,
575,
599,
640,
570,
605,
602,
536,
559,
561,
557,
595,
533,
593,
587,
566,
547,
546,
550,
553,
561,
529,
526,
556,
547,
518,
528,
507,
512,
474,
482,
481,
470,
496,
483,
478,
482,
516,
526,
490,
481,
456,
451,
485,
457,
433,
466,
459,
431,
458,
456,
400,
423,
417,
412,
386,
383,
403,
426,
428,
419,
406,
359,
376,
359,
394,
341,
402,
361,
357,
370,
386,
336,
387,
371,
359,
329,
335,
331,
320,
316,
322,
327,
328,
296,
348,
310,
312,
313,
329,
319,
345,
299,
306,
314,
290,
303,
274,
301,
286,
312,
301,
254,
287,
254,
262,
299,
252,
268,
263,
264,
265,
228,
233,
251,
223,
276,
244,
229,
260,
223,
231,
222,
240,
199,
230,
246,
234,
246,
205,
220,
192,
209,
230,
244,
234,
202,
181,
192,
196,
198,
193,
213,
156,
196,
173,
180,
183,
178,
153,
171,
168,
190,
160,
182,
187,
166,
166,
149,
184,
148,
160,
175,
138,
158,
154,
150,
150,
140,
129,
162,
140,
149,
129,
136,
143,
128,
130,
147,
123,
134,
125,
112,
139,
126,
133,
128,
107,
129,
111,
108,
103,
114,
112,
114,
99,
102,
91,
106,
92,
87,
108,
121,
106,
107,
95,
84,
85,
88,
87,
87,
97,
70,
92,
91,
108,
78,
74,
84,
82,
75,
76,
77,
85,
73,
80,
87,
66,
59,
70,
71,
67,
59,
44,
65,
68,
71,
53,
61,
54,
75,
57,
66,
54,
51,
51,
42,
55,
43,
53,
49,
57,
52,
53,
56,
43,
43,
49,
45,
35,
54,
46,
40,
43,
44,
38,
45,
48,
34,
36,
36,
31,
42,
31,
41,
28,
35,
25,
39,
43,
30,
25,
42,
44,
28,
26,
18,
28,
27,
31,
28,
31,
13,
29,
31,
31,
26,
24,
14,
15,
25,
31,
20,
16,
24,
14,
18,
18,
27,
15,
13,
20,
16,
17,
18,
9,
14,
14,
16,
18,
17,
17,
13,
12,
5,
11,
11,
10,
11,
14,
11,
13,
7,
10,
5,
9,
8,
7,
7,
7,
7,
5,
8,
12,
3,
8,
4,
5,
4,
3,
3,
6,
1,
5,
3,
1,
7,
3,
4,
4,
5,
2,
0,
0,
0,
1,
2,
1,
1,
0,
0,
1,
0,
0,
0,
0,
0,
0,
0,
0,
2,
2,
0,
0,
0,
0,
0,
0,
0,
0,
0,
0,
0,
0,
1,
0,
0,
0,
0,
0,
0,
1,
0,
0,
0,
2,
0,
0,
2,
0,
0,
0,
0,
0,
0,
1,
0,
1,
0,
0,
0,
0,
0,
0,
0,
1,
0,
0,
1,
0,
0,
0,
0,
0,
1,
0,
0,
0,
0,
0,
0,
0,
0,
0,
0,
0,
0,
0,
0,
0,
0,
0,
0,
1,
0,
0,
0,
0,
0,
0,
0,
1,
0,
0,
0,
0,
0,
0,
1,
1,
0,
1,
0,
0,
0,
0,
0,
0,
0,
0,
0,
0,
0,
0,
0,
0,
0,
0,
0,
1,
0,
0,
0,
0,
1,
0,
0,
0,
0,
0,
0,
1,
0,
0,
0,
0,
0,
0,
0,
0,
0,
0,
0,
0,
0,
0,
0,
0,
0,
0,
0,
0,
0,
0,
0,
1,
0,
0,
0,
0,
1,
0,
0,
1,
1,
0,
0,
0,
0,
0,
0,
0,
0,
0,
0,
0,
0,
0,
0,
0,
0,
0,
0,
0,
0,
0,
0,
0,
0,
0,
0,
0,
0,
0,
0,
0,
0,
0,
0,
0,
0,
0,
0,
0,
0,
0,
0,
0,
0,
0,
0,
0,
0,
0,
0,
0,
0,
0,
0,
0,
0,
0,
0,
0,
0,
0,
0,
0,
0,
0,
0,
0,
0,
0,
0,
0,
0,
0,
0,
0,
0,
0,
0,
0,
0,
0,
0,
0,
0,
0,
0,
0,
0,
0,
0,
0,
0,
0,
0,
0,
0,
0,
0,
0,
0,
0,
0,
0,
0,
0,
0,
0,
0,
0,
0,
0,
0,
0,
0,
0,
0,
0,
0,
0,
0,
0,
0,
0,
0,
0,
0,
0,
0,
0,
0,
0,
0,
0,
0,
0,
0,
0,
0,
0,
0,
0,
0,
0,
0,
0,
0,
0,
0,
0,
0,
0,
0,
0,
0,
0,
0,
0,
0,
0,
0,
0,
0,
0,
0,
0,
0,
0,
0,
0,
0,
0,
0,
0,
0,
0,
0,
0,
0,
0,
0,
0,
0,
0,
0,
0,
0,
0,
0,
0,
0,
0,
0,
0,
0,
0,
0,
0,
0,
0,
0,
0,
0,
0,
0,
0,
0,
0,
0,
0,
0,
0,
0,
0,
0,
0,
0,
0,
0,
0,
0,
0,
0,
0,
0,
0,
0,
0,
0,
0,
0,
0,
0,
0,
0,
0,
0,
0,
0,
0,
0,
0,
0,
0,
0,
0,
0,
0,
0,
0,
0,
0,
0,
0,
0,
0,
0,
0,
0,
0,
0,
0,
0,
0,
0,
0,
0,
0,
0,
0,
0,
0,
0,
0,
0,
0,
0,
0,
0,
0,
0,
0,
0,
0,
0,
0,
0,
0,
0,
0,
0,
0,
0,
0,
0,
0,
0,
0,
0,
0,
0,
0,
0,
0,
0,
0,
0,
0,
0,
0,
0,
0,
0,
0,
0,
0,
0,
0,
0,
0,
0,
0,
0,
0,
0,
0,
0,
0,
0,
0,
0,
0,
0,
0,
0,
0,
0,
0,
0,
0,
0,
0,
0,
0,
0,
0,
0,
0,
0,
0,
0,
0,
0,
0,
0,
0,
0,
0,
0,
0,
0,
0,
0,
0,
0,
0,
0,
0,
0,
0,
0,
0,
0,
0,
0,
0,
0,
0,
0,
0,
0,
0,
0,
0,
0,
0,
0,
0,
0,
0,
0,
0,
0,
0,
0,
0,
0,
0,
0,
0,
0,
0,
0,
0,
0,
0,
0,
0,
0,
0,
0,
0,
0,
0,
0,
0,
0,
0,
0,
0,
0,
0,
0,
0,
0,
0,
0,
0,
0,
0,
0,
0,
0,
0,
0,
0,
0,
0,
0,
0,
0,
0,
0,
0,
0,
0,
0,
0,
0,
0,
0,
0,
0,
0,
0,
0,
0,
0,
0,
0,
0,
0,
0,
0,
0,
0,
0,
0,
0,
0,
0,
0,
0,
0,
0,
0,
0,
0,
0,
0,
0,
0,
0,
0,
0,
0,
0,
0,
0,
0,
0,
0,
0,
0,
0,
0,
0,
0,
0,
0,
0,
0,
0,
0,
0,
0,
0,
0,
0,
0,
0,
0,
0,
0,
0,
0,
0,
0,
0,
0,
0,
0,
0,
0,
0,
0,
0,
0,
0,
0,
0,
0,
0,
0,
0,
0,
#ENDOFDATA   :