File: N132962/Quantification/MMM1/SPI MM1 Kyanite[1][4].msa
#FORMAT      : EMSA/MAS Spectral Data File
#VERSION     : 1.0
#TITLE       : SPI MM1dup Kyanite[1][all]
#DATE        : 12-MAR-2025
#TIME        : 16:11
#OWNER       : Unknown
#NPOINTS     : 4096
#NCOLUMNS    : 1
#XUNITS      : eV
#YUNITS      : counts
#DATATYPE    : Y
#XPERCHAN    : 9.99778
#OFFSET      : 1.69135
#BEAMKV      : 20
#SIGNALTYPE  : EDS
#ELEVANGLE   : 35
#AZIMANGLE   : 0
#LIVETIME    : 239.679
#REALTIME    : 256.492
#PROBECUR    : 1.02709
#TAUWIND     : 0
#TDEADLYR    : 0
#TACTLYR     : 0.045
#TALWIND     : 0.025
#CHOFFSET    : 0.0
#XLABEL      : Energy (eV)
#YLABEL      : Counts
#XPOSITION   : -4.25068
#YPOSITION   : 4.17624
#ZPOSITION   : 31.03608
#EDSDET      : SD
##SPECIMEN   : SPI MM1dup Kyanite[1][all]
##DET_HASH   : 12273538-fd48-a23f-0a19-f1e6fa85caef
##CALIB_HASH : 6abaa72c-aa41-8738-0be9-f592914732f3
##WORKING    : 15.0 mm
##DET_NAME   : EDAX All
##DET_MODE   : MediumLE
#SPECTRUM    :
25,
26,
13,
14,
69,
270,
781,
2250,
6405,
8567,
4743,
2438,
2409,
3330,
6492,
25683,
104552,
205507,
150581,
39221,
4868,
1725,
1882,
2062,
2034,
2108,
2178,
2379,
2642,
2784,
2818,
3016,
3126,
3482,
3696,
3893,
3801,
3872,
3962,
4024,
4463,
4666,
4904,
5282,
5883,
6549,
10458,
37638,
140580,
291181,
296558,
150689,
44350,
11892,
5427,
9038,
32648,
83585,
112995,
80252,
32596,
11665,
5657,
3333,
2409,
2430,
2786,
3012,
2712,
2367,
2126,
2054,
2101,
2172,
2261,
2370,
2403,
2258,
2152,
2177,
2118,
2076,
2045,
2100,
2219,
2124,
2197,
2133,
2096,
2113,
2126,
2133,
2100,
2063,
2041,
2126,
2162,
2328,
2450,
2721,
2564,
2285,
2091,
1978,
1954,
2036,
2253,
2345,
2335,
2211,
2079,
1851,
1900,
1795,
1804,
1921,
1878,
1834,
1853,
1812,
1786,
1712,
1788,
1731,
1772,
1759,
1707,
1667,
1648,
1627,
1575,
1685,
1599,
1582,
1605,
1511,
1545,
1552,
1544,
1560,
1510,
1516,
1533,
1442,
1416,
1485,
1490,
1473,
1448,
1412,
1446,
1420,
1368,
1398,
1370,
1342,
1363,
1297,
1327,
1398,
1268,
1260,
1323,
1295,
1317,
1294,
1359,
1223,
1233,
1227,
1192,
1259,
1180,
1190,
1219,
1143,
1114,
1201,
1171,
1175,
1192,
1207,
1112,
1069,
1075,
1132,
1058,
1128,
1135,
1113,
1065,
1010,
1025,
939,
1041,
1032,
986,
996,
971,
954,
1025,
931,
935,
948,
918,
995,
896,
894,
946,
926,
926,
1094,
1136,
1229,
1180,
1086,
953,
921,
946,
874,
857,
840,
882,
860,
837,
799,
846,
826,
839,
780,
776,
774,
778,
842,
770,
807,
748,
778,
796,
745,
739,
735,
699,
732,
698,
644,
693,
665,
721,
678,
723,
672,
629,
671,
641,
642,
647,
669,
588,
624,
606,
626,
570,
611,
628,
606,
579,
563,
599,
561,
590,
581,
606,
594,
576,
571,
578,
519,
524,
591,
520,
539,
516,
533,
530,
532,
531,
542,
531,
489,
487,
511,
513,
476,
476,
517,
463,
428,
447,
468,
436,
436,
470,
433,
454,
437,
477,
455,
435,
422,
409,
395,
441,
429,
427,
424,
417,
385,
410,
413,
358,
357,
392,
369,
393,
377,
418,
384,
383,
371,
364,
362,
375,
354,
355,
343,
365,
347,
353,
341,
343,
339,
342,
316,
321,
299,
315,
296,
329,
316,
330,
312,
331,
332,
285,
305,
287,
300,
290,
303,
277,
280,
301,
295,
272,
290,
269,
268,
267,
292,
267,
280,
257,
279,
232,
218,
275,
261,
233,
233,
249,
256,
225,
221,
224,
244,
231,
230,
230,
224,
222,
217,
198,
228,
219,
236,
224,
228,
178,
202,
193,
200,
176,
182,
187,
189,
194,
199,
181,
170,
197,
201,
194,
201,
190,
149,
170,
188,
187,
173,
180,
146,
177,
172,
152,
178,
159,
162,
167,
141,
159,
145,
139,
138,
146,
126,
132,
133,
134,
132,
129,
144,
134,
136,
153,
102,
136,
111,
114,
135,
119,
134,
109,
110,
132,
116,
130,
113,
138,
113,
124,
102,
109,
107,
122,
90,
84,
102,
104,
95,
83,
86,
92,
70,
80,
106,
90,
89,
84,
76,
84,
86,
93,
77,
89,
55,
81,
69,
88,
76,
88,
78,
84,
90,
86,
76,
66,
86,
75,
78,
69,
72,
49,
83,
65,
56,
66,
50,
68,
60,
51,
53,
54,
62,
68,
58,
60,
58,
48,
47,
55,
57,
60,
49,
45,
47,
50,
45,
43,
46,
55,
49,
30,
44,
42,
37,
29,
49,
34,
45,
46,
40,
37,
49,
58,
39,
37,
42,
46,
38,
37,
35,
29,
29,
36,
31,
27,
35,
34,
30,
28,
26,
25,
31,
37,
36,
19,
22,
26,
20,
23,
29,
13,
25,
23,
22,
17,
28,
18,
22,
22,
25,
22,
22,
17,
24,
14,
23,
15,
18,
20,
20,
15,
8,
27,
17,
10,
15,
21,
11,
12,
15,
12,
15,
16,
9,
15,
13,
15,
15,
12,
17,
11,
9,
9,
12,
7,
12,
7,
9,
5,
6,
7,
8,
3,
9,
10,
8,
8,
3,
10,
6,
4,
3,
3,
2,
8,
3,
4,
3,
8,
7,
2,
6,
1,
4,
6,
3,
3,
2,
6,
1,
7,
2,
1,
3,
3,
1,
1,
1,
0,
3,
1,
2,
1,
0,
3,
1,
1,
1,
0,
0,
0,
0,
0,
0,
0,
0,
0,
0,
0,
0,
0,
0,
0,
0,
0,
0,
0,
0,
0,
0,
0,
0,
0,
0,
0,
0,
0,
0,
0,
0,
0,
0,
1,
0,
0,
0,
0,
0,
0,
0,
0,
0,
0,
0,
0,
0,
0,
0,
0,
0,
0,
0,
0,
0,
0,
1,
0,
0,
0,
0,
0,
0,
0,
0,
0,
1,
0,
0,
0,
0,
0,
0,
0,
0,
0,
0,
0,
0,
0,
0,
0,
0,
0,
0,
0,
0,
0,
0,
0,
0,
0,
0,
0,
0,
0,
0,
0,
0,
0,
0,
0,
0,
0,
0,
0,
0,
0,
0,
0,
0,
0,
0,
0,
0,
0,
0,
0,
0,
0,
0,
0,
0,
0,
0,
0,
0,
0,
0,
0,
0,
1,
0,
0,
0,
0,
0,
0,
0,
0,
0,
0,
0,
0,
0,
0,
0,
0,
0,
0,
0,
0,
0,
0,
0,
0,
0,
0,
0,
0,
1,
0,
0,
1,
0,
0,
0,
0,
0,
0,
0,
0,
0,
0,
0,
0,
0,
0,
0,
0,
0,
0,
0,
0,
0,
0,
0,
0,
0,
0,
0,
0,
0,
0,
0,
0,
0,
0,
0,
0,
0,
0,
0,
0,
0,
0,
0,
0,
0,
0,
0,
0,
0,
0,
0,
0,
0,
0,
0,
0,
0,
0,
0,
0,
0,
0,
0,
0,
0,
0,
0,
0,
0,
0,
0,
0,
0,
0,
0,
0,
0,
0,
0,
0,
0,
0,
0,
0,
0,
0,
0,
0,
0,
0,
0,
0,
0,
0,
0,
0,
0,
0,
0,
0,
0,
0,
0,
0,
0,
0,
0,
0,
0,
0,
0,
0,
0,
0,
0,
0,
0,
0,
0,
0,
0,
0,
0,
0,
0,
0,
0,
0,
0,
0,
0,
0,
0,
0,
0,
0,
0,
0,
0,
0,
0,
0,
0,
0,
0,
0,
0,
0,
0,
0,
0,
0,
0,
0,
0,
0,
0,
0,
0,
0,
0,
0,
0,
0,
0,
0,
0,
0,
0,
0,
0,
0,
0,
0,
0,
0,
0,
0,
0,
0,
0,
0,
0,
0,
0,
0,
0,
0,
0,
0,
0,
0,
0,
0,
0,
0,
0,
0,
0,
0,
0,
0,
0,
0,
0,
0,
0,
0,
0,
0,
0,
0,
0,
0,
0,
0,
0,
0,
0,
0,
0,
0,
0,
0,
0,
0,
0,
0,
0,
0,
0,
0,
0,
0,
0,
0,
0,
0,
0,
0,
0,
0,
0,
0,
0,
0,
0,
0,
0,
0,
0,
0,
1,
0,
0,
0,
0,
0,
0,
0,
0,
0,
0,
0,
0,
0,
0,
0,
0,
0,
0,
0,
0,
0,
0,
0,
0,
0,
0,
0,
0,
0,
0,
0,
0,
0,
0,
0,
0,
0,
0,
0,
0,
0,
0,
0,
0,
0,
0,
0,
0,
0,
0,
0,
0,
0,
0,
0,
0,
0,
0,
0,
0,
0,
0,
0,
0,
0,
0,
0,
0,
0,
0,
0,
0,
0,
0,
0,
0,
0,
0,
0,
0,
0,
0,
0,
0,
0,
0,
0,
0,
0,
0,
0,
0,
0,
0,
0,
0,
0,
0,
0,
0,
0,
0,
0,
0,
0,
0,
0,
0,
0,
0,
0,
0,
0,
0,
0,
0,
0,
0,
0,
0,
0,
0,
0,
0,
0,
0,
0,
0,
0,
0,
0,
0,
0,
0,
0,
0,
0,
0,
0,
0,
0,
0,
0,
0,
0,
0,
0,
0,
0,
0,
0,
0,
0,
0,
0,
0,
0,
0,
0,
0,
0,
0,
0,
0,
0,
0,
0,
0,
0,
0,
0,
0,
0,
0,
0,
0,
0,
0,
0,
0,
0,
0,
0,
0,
0,
0,
0,
0,
0,
0,
0,
0,
0,
0,
0,
0,
0,
0,
0,
0,
0,
0,
0,
0,
0,
0,
0,
0,
0,
0,
0,
0,
0,
0,
0,
0,
0,
0,
0,
0,
0,
0,
0,
0,
0,
0,
0,
0,
0,
0,
0,
0,
0,
0,
0,
0,
0,
0,
0,
0,
0,
0,
0,
0,
0,
0,
0,
0,
0,
0,
0,
0,
0,
0,
0,
0,
0,
0,
0,
0,
0,
0,
0,
0,
0,
0,
0,
0,
0,
0,
0,
0,
0,
0,
0,
0,
0,
0,
#ENDOFDATA   :