File: N132962/Quantification/MMM1/SPI MM1 Cryolite[0][4].msa
#FORMAT      : EMSA/MAS Spectral Data File
#VERSION     : 1.0
#TITLE       : SPI MM1dup Cryolite[0][all]
#DATE        : 12-MAR-2025
#TIME        : 13:40
#OWNER       : Unknown
#NPOINTS     : 4096
#NCOLUMNS    : 1
#XUNITS      : eV
#YUNITS      : counts
#DATATYPE    : Y
#XPERCHAN    : 9.99778
#OFFSET      : 1.69135
#BEAMKV      : 20
#SIGNALTYPE  : EDS
#ELEVANGLE   : 35
#AZIMANGLE   : 0
#LIVETIME    : 239.944
#REALTIME    : 258.599
#PROBECUR    : 1.02627
#TAUWIND     : 0
#TDEADLYR    : 0
#TACTLYR     : 0.045
#TALWIND     : 0.025
#CHOFFSET    : 0.0
#XLABEL      : Energy (eV)
#YLABEL      : Counts
#XPOSITION   : -3.97776
#YPOSITION   : -0.57432
#ZPOSITION   : 31.03609
#EDSDET      : SD
##SPECIMEN   : SPI MM1dup Cryolite[0][all]
##D2STDCMP   : Cryolite,(F:54.2963),(Na:32.8517),(Al:12.8519)
##DET_HASH   : 12273538-fd48-a23f-0a19-f1e6fa85caef
##CALIB_HASH : 6abaa72c-aa41-8738-0be9-f592914732f3
##WORKING    : 15.0 mm
##DET_NAME   : EDAX All
##DET_MODE   : MediumLE
#SPECTRUM    :
25,
28,
16,
38,
145,
530,
1379,
3192,
8066,
10659,
6032,
3363,
3527,
3851,
4300,
5344,
7108,
9615,
10755,
16421,
55204,
224826,
497794,
439213,
143660,
19066,
2872,
2277,
2596,
2926,
3516,
5203,
14655,
60438,
152196,
169614,
81305,
18096,
3408,
1949,
1947,
2134,
2348,
3079,
3893,
4553,
4848,
10395,
34692,
70399,
71855,
37495,
11923,
4343,
2723,
2625,
3238,
3807,
3594,
2951,
2531,
2303,
2178,
2108,
2183,
2178,
2158,
2233,
2347,
2389,
2746,
2793,
2882,
2675,
2378,
2277,
2232,
2286,
2217,
2198,
2201,
2270,
2319,
2300,
2462,
2355,
2344,
2396,
2233,
2234,
2190,
2151,
2114,
2080,
2158,
2077,
2160,
2073,
2089,
2034,
2056,
2009,
1981,
1971,
2010,
2012,
1965,
1923,
1914,
1893,
1881,
1969,
1864,
1868,
1803,
1789,
1848,
1842,
1807,
1746,
1708,
1788,
1780,
1769,
1742,
1712,
1674,
1672,
1632,
1647,
1723,
1596,
1625,
1633,
1514,
1596,
1596,
1484,
1454,
1514,
1543,
1498,
1549,
1479,
1447,
1447,
1379,
1396,
1433,
1439,
1367,
1339,
1368,
1380,
1339,
1307,
1383,
1329,
1261,
1297,
1385,
1241,
1229,
1206,
1274,
1291,
1277,
1228,
1265,
1195,
1201,
1140,
1173,
1140,
1151,
1095,
1128,
1133,
1096,
1120,
1122,
1133,
1074,
1001,
1090,
1061,
1007,
1041,
975,
1068,
935,
1020,
1012,
980,
996,
1002,
951,
978,
936,
951,
905,
913,
949,
975,
993,
900,
928,
914,
877,
858,
905,
951,
994,
901,
907,
868,
837,
843,
833,
834,
789,
761,
817,
790,
748,
762,
754,
710,
748,
738,
812,
723,
710,
762,
703,
737,
754,
710,
714,
721,
678,
676,
673,
664,
666,
654,
702,
667,
697,
613,
655,
634,
625,
613,
648,
630,
618,
580,
572,
601,
622,
617,
532,
583,
575,
528,
576,
612,
532,
591,
561,
584,
532,
569,
552,
552,
544,
501,
547,
515,
504,
494,
549,
517,
521,
470,
462,
503,
486,
460,
465,
448,
447,
464,
432,
488,
461,
475,
462,
404,
428,
437,
459,
470,
428,
430,
431,
438,
396,
434,
407,
413,
382,
410,
381,
370,
406,
394,
374,
364,
404,
395,
372,
348,
362,
363,
343,
364,
362,
342,
320,
345,
351,
349,
349,
319,
348,
341,
309,
343,
290,
308,
310,
308,
308,
300,
315,
301,
301,
293,
317,
284,
285,
276,
260,
308,
276,
286,
289,
247,
281,
268,
263,
285,
253,
281,
275,
254,
274,
246,
251,
282,
244,
245,
255,
258,
251,
232,
227,
239,
220,
240,
248,
227,
202,
206,
206,
211,
248,
222,
207,
221,
228,
190,
184,
198,
201,
205,
211,
172,
188,
206,
172,
203,
204,
191,
187,
176,
162,
147,
185,
187,
187,
161,
151,
152,
186,
174,
161,
159,
153,
141,
159,
167,
166,
147,
134,
160,
153,
142,
145,
137,
142,
146,
149,
137,
126,
120,
137,
108,
138,
138,
129,
127,
121,
97,
109,
114,
107,
119,
121,
128,
108,
100,
122,
111,
116,
112,
103,
90,
108,
101,
132,
105,
86,
109,
85,
79,
89,
92,
98,
81,
100,
84,
74,
91,
86,
80,
87,
86,
95,
96,
87,
81,
74,
60,
74,
83,
56,
62,
74,
67,
69,
93,
60,
70,
95,
69,
50,
62,
63,
66,
78,
69,
61,
52,
70,
62,
57,
56,
63,
64,
55,
41,
46,
43,
60,
57,
53,
55,
48,
44,
44,
53,
43,
44,
52,
52,
43,
47,
40,
47,
40,
38,
43,
40,
34,
52,
38,
38,
42,
50,
30,
37,
37,
35,
36,
35,
31,
23,
31,
29,
25,
27,
30,
31,
36,
33,
22,
29,
22,
25,
34,
33,
22,
25,
27,
30,
24,
26,
16,
27,
31,
21,
15,
30,
22,
15,
31,
16,
23,
11,
20,
12,
26,
21,
16,
14,
21,
13,
16,
21,
16,
20,
17,
17,
16,
21,
11,
14,
6,
14,
15,
18,
14,
13,
11,
10,
11,
10,
8,
15,
11,
10,
8,
12,
7,
13,
4,
8,
6,
10,
7,
2,
9,
7,
3,
5,
5,
5,
7,
6,
5,
3,
4,
2,
1,
4,
6,
2,
4,
5,
2,
2,
2,
3,
2,
7,
3,
2,
3,
2,
4,
2,
2,
0,
2,
0,
0,
4,
0,
1,
0,
1,
3,
0,
1,
1,
0,
0,
0,
0,
0,
0,
1,
0,
1,
0,
0,
0,
0,
0,
0,
0,
0,
0,
0,
0,
0,
0,
0,
0,
0,
0,
0,
0,
0,
1,
0,
0,
0,
0,
0,
0,
0,
0,
0,
0,
0,
0,
0,
0,
0,
0,
0,
0,
0,
0,
0,
0,
0,
0,
0,
0,
0,
0,
0,
0,
0,
0,
0,
0,
0,
0,
0,
1,
0,
0,
0,
0,
2,
0,
0,
0,
0,
0,
0,
0,
0,
0,
1,
0,
0,
0,
0,
0,
0,
0,
0,
0,
0,
0,
0,
0,
0,
0,
0,
0,
0,
0,
0,
0,
0,
0,
0,
0,
0,
0,
0,
0,
0,
0,
0,
0,
0,
0,
0,
0,
0,
0,
0,
0,
0,
0,
0,
0,
0,
0,
0,
0,
0,
0,
0,
0,
0,
0,
0,
0,
0,
0,
0,
0,
0,
0,
0,
0,
0,
0,
0,
0,
0,
0,
0,
0,
0,
0,
0,
0,
0,
0,
0,
0,
0,
0,
0,
0,
0,
0,
0,
0,
0,
0,
0,
0,
0,
0,
0,
0,
0,
0,
0,
0,
0,
0,
0,
0,
0,
0,
0,
0,
0,
0,
0,
0,
0,
0,
0,
0,
0,
0,
0,
0,
0,
1,
0,
0,
0,
0,
0,
0,
0,
0,
0,
0,
0,
0,
0,
0,
0,
0,
0,
0,
0,
0,
0,
0,
0,
0,
0,
0,
0,
0,
0,
0,
0,
0,
0,
0,
0,
0,
0,
0,
0,
0,
0,
0,
0,
0,
0,
0,
0,
0,
0,
0,
0,
0,
0,
0,
0,
0,
0,
0,
0,
0,
0,
0,
0,
0,
0,
0,
0,
0,
0,
0,
0,
0,
0,
0,
0,
0,
0,
0,
0,
0,
0,
0,
0,
0,
0,
0,
0,
0,
0,
0,
0,
0,
0,
0,
0,
0,
0,
0,
0,
0,
0,
0,
0,
0,
0,
0,
0,
0,
0,
0,
0,
0,
0,
0,
0,
0,
0,
0,
0,
0,
0,
0,
0,
0,
0,
0,
0,
0,
0,
0,
0,
0,
0,
0,
0,
0,
0,
0,
0,
0,
0,
0,
0,
0,
0,
0,
0,
0,
0,
0,
0,
0,
0,
0,
0,
0,
0,
1,
0,
0,
0,
0,
0,
0,
0,
0,
0,
0,
0,
0,
0,
0,
0,
0,
0,
0,
0,
0,
0,
0,
0,
0,
0,
0,
0,
0,
0,
0,
0,
0,
0,
0,
0,
0,
0,
0,
0,
0,
0,
0,
0,
0,
0,
0,
0,
0,
0,
0,
0,
0,
0,
0,
0,
0,
0,
0,
0,
0,
0,
0,
0,
0,
0,
0,
0,
0,
0,
0,
0,
0,
0,
0,
0,
0,
0,
0,
0,
0,
0,
0,
0,
0,
0,
0,
0,
0,
0,
0,
0,
0,
0,
0,
0,
0,
0,
0,
0,
0,
0,
0,
0,
0,
0,
0,
0,
0,
0,
0,
0,
0,
0,
0,
0,
0,
0,
0,
0,
0,
0,
0,
0,
0,
0,
0,
0,
0,
0,
0,
0,
0,
0,
0,
0,
0,
0,
0,
0,
0,
0,
0,
0,
0,
0,
0,
0,
0,
0,
0,
0,
0,
0,
0,
0,
0,
0,
0,
0,
0,
0,
0,
0,
0,
0,
0,
0,
0,
0,
0,
0,
0,
0,
0,
0,
0,
0,
0,
0,
0,
0,
0,
0,
0,
0,
0,
0,
0,
0,
0,
0,
0,
0,
0,
0,
0,
0,
0,
0,
0,
0,
0,
0,
0,
0,
0,
0,
0,
0,
0,
0,
0,
0,
0,
0,
0,
0,
0,
0,
0,
0,
0,
0,
0,
0,
0,
0,
0,
0,
0,
0,
0,
0,
0,
0,
0,
0,
0,
0,
0,
0,
0,
0,
0,
0,
0,
0,
0,
0,
0,
0,
0,
0,
0,
0,
0,
0,
0,
0,
0,
0,
0,
0,
0,
0,
0,
0,
0,
0,
0,
0,
0,
0,
0,
0,
0,
0,
0,
0,
0,
0,
0,
0,
0,
0,
0,
0,
0,
0,
0,
0,
0,
0,
0,
0,
0,
0,
0,
0,
0,
0,
0,
0,
0,
0,
0,
0,
0,
0,
0,
0,
0,
0,
0,
0,
0,
0,
0,
0,
0,
0,
0,
0,
0,
0,
0,
0,
0,
0,
0,
0,
0,
0,
0,
#ENDOFDATA   :