File: N132962/Quantification/MMM1/SPI MM1 Bustamite[4][4].msa
#FORMAT      : EMSA/MAS Spectral Data File
#VERSION     : 1.0
#TITLE       : SPI MM1 Bustamite[4][all]
#DATE        : 11-MAR-2025
#TIME        : 14:07
#OWNER       : Unknown
#NPOINTS     : 4096
#NCOLUMNS    : 1
#XUNITS      : eV
#YUNITS      : counts
#DATATYPE    : Y
#XPERCHAN    : 9.99778
#OFFSET      : 1.69135
#BEAMKV      : 20
#SIGNALTYPE  : EDS
#ELEVANGLE   : 35
#AZIMANGLE   : 0
#LIVETIME    : 239.8908
#REALTIME    : 255.724
#PROBECUR    : 1.02902
#TAUWIND     : 0
#TDEADLYR    : 0
#TACTLYR     : 0.045
#TALWIND     : 0.025
#CHOFFSET    : 0.0
#XLABEL      : Energy (eV)
#YLABEL      : Counts
#XPOSITION   : 2.6285
#YPOSITION   : -2.6887
#ZPOSITION   : 30.9284
#EDSDET      : SD
##SPECIMEN   : SPI MM1 Bustamite[4][all]
##D2STDCMP   : Bustamite,(O:38.8357),(Si:22.7243),(Ca:16.2141),(Mn:22.2259),6.0
##DET_HASH   : 12273538-fd48-a23f-0a19-f1e6fa85caef
##CALIB_HASH : 6abaa72c-aa41-8738-0be9-f592914732f3
##WORKING    : 15.0 mm
##DET_NAME   : EDAX All
##DET_MODE   : MediumLE
#SPECTRUM    :
31,
28,
13,
13,
55,
312,
900,
2971,
8399,
11881,
7452,
3996,
3115,
3271,
4959,
16199,
60137,
116635,
87229,
26124,
8971,
10477,
9122,
7322,
5977,
3586,
2473,
2205,
2434,
2508,
2519,
2647,
2818,
3179,
3587,
3507,
3279,
3397,
3452,
3559,
3857,
4363,
4671,
4358,
4077,
4185,
4321,
4435,
4580,
4915,
5038,
5217,
5321,
5500,
6579,
15578,
56551,
141936,
192766,
137111,
56037,
19836,
9604,
5591,
4165,
3887,
3602,
3420,
3198,
3341,
3174,
3275,
3304,
3350,
3516,
3640,
3584,
3341,
3340,
3243,
3231,
3263,
3139,
3150,
3145,
3239,
3198,
3130,
3174,
3058,
3152,
3109,
3125,
3139,
3077,
3012,
3090,
3006,
2881,
2970,
2988,
2943,
2890,
2922,
2907,
3003,
2827,
2928,
2822,
2868,
2756,
2669,
2797,
2876,
2730,
2978,
3153,
3198,
3780,
5515,
11916,
29116,
52639,
66707,
56431,
32322,
13321,
5243,
3121,
2821,
3180,
4270,
6597,
9227,
10162,
8381,
5569,
3522,
2622,
2321,
2175,
2177,
2127,
1983,
1976,
1996,
2097,
1980,
1880,
2054,
1920,
1889,
1905,
1897,
1893,
1970,
1888,
1873,
1914,
1829,
1894,
1770,
1860,
1807,
1793,
1795,
1763,
1728,
1701,
1728,
1716,
1616,
1696,
1625,
1739,
1734,
1683,
1610,
1712,
1628,
1639,
1826,
1633,
1629,
1628,
1532,
1571,
1573,
1581,
1612,
1758,
2261,
3876,
8617,
18053,
30264,
39740,
40005,
30073,
17372,
8021,
3504,
1941,
1490,
1383,
1481,
1440,
1529,
1718,
2392,
4193,
7487,
11371,
14235,
14813,
13365,
10554,
7611,
5059,
3248,
2070,
1447,
1167,
1184,
1095,
1112,
1118,
1167,
1118,
1146,
1118,
1266,
1549,
1969,
2263,
2568,
2323,
1964,
1500,
1225,
1070,
954,
934,
1070,
942,
1029,
979,
1022,
1010,
1007,
1016,
950,
960,
958,
979,
952,
988,
957,
954,
937,
860,
874,
868,
856,
861,
817,
909,
787,
827,
852,
846,
829,
795,
812,
756,
835,
800,
814,
835,
715,
767,
768,
794,
734,
823,
832,
898,
923,
937,
889,
866,
777,
704,
692,
769,
664,
701,
715,
688,
659,
735,
687,
679,
670,
676,
660,
623,
626,
628,
674,
616,
637,
619,
607,
621,
574,
660,
636,
657,
624,
650,
632,
589,
578,
564,
580,
571,
555,
542,
574,
533,
544,
543,
550,
529,
539,
529,
547,
512,
576,
512,
502,
492,
448,
499,
494,
468,
480,
505,
491,
484,
467,
485,
483,
462,
469,
412,
432,
459,
458,
447,
462,
407,
417,
409,
407,
390,
448,
434,
419,
417,
404,
426,
375,
387,
407,
398,
395,
431,
364,
359,
341,
359,
351,
364,
314,
358,
354,
373,
383,
345,
316,
344,
343,
323,
336,
334,
339,
310,
343,
284,
313,
325,
313,
301,
293,
281,
291,
284,
277,
294,
300,
288,
290,
254,
264,
291,
237,
275,
285,
247,
254,
244,
301,
254,
243,
233,
244,
253,
229,
255,
236,
223,
266,
241,
220,
227,
225,
223,
228,
222,
213,
217,
233,
205,
190,
188,
196,
196,
218,
199,
184,
198,
191,
206,
197,
167,
167,
185,
164,
186,
176,
169,
165,
148,
154,
146,
156,
171,
162,
163,
158,
167,
141,
162,
152,
173,
137,
160,
157,
122,
126,
136,
138,
138,
125,
137,
126,
134,
129,
143,
133,
119,
128,
119,
102,
117,
113,
119,
103,
121,
108,
104,
80,
105,
96,
78,
107,
118,
94,
88,
113,
109,
94,
90,
87,
94,
86,
85,
97,
74,
79,
83,
84,
77,
89,
90,
75,
75,
59,
92,
85,
79,
75,
85,
70,
74,
62,
69,
66,
53,
62,
68,
72,
67,
54,
59,
60,
58,
55,
51,
59,
63,
47,
55,
48,
59,
66,
50,
47,
53,
40,
35,
46,
42,
44,
50,
40,
51,
52,
36,
31,
35,
40,
24,
25,
43,
42,
34,
31,
36,
36,
44,
36,
41,
27,
34,
22,
38,
38,
22,
33,
27,
25,
35,
27,
29,
22,
25,
24,
33,
28,
26,
24,
24,
16,
16,
12,
27,
22,
27,
16,
23,
21,
18,
23,
16,
18,
22,
11,
14,
10,
12,
14,
15,
13,
14,
15,
15,
12,
14,
10,
17,
11,
7,
9,
8,
5,
11,
10,
14,
8,
7,
6,
5,
8,
7,
4,
7,
6,
10,
4,
4,
4,
3,
2,
4,
4,
2,
2,
2,
4,
0,
1,
0,
2,
0,
0,
3,
0,
0,
0,
1,
0,
1,
0,
0,
2,
1,
0,
1,
2,
0,
0,
0,
1,
1,
0,
0,
0,
1,
1,
0,
0,
0,
0,
0,
0,
1,
0,
0,
0,
0,
0,
0,
0,
0,
0,
0,
2,
1,
0,
1,
0,
0,
0,
0,
0,
0,
0,
0,
0,
1,
0,
0,
0,
1,
1,
0,
0,
0,
0,
0,
0,
0,
0,
0,
1,
0,
0,
0,
0,
0,
0,
0,
0,
1,
0,
0,
0,
0,
1,
0,
0,
0,
0,
0,
0,
1,
0,
0,
0,
1,
0,
0,
0,
0,
0,
0,
0,
0,
0,
0,
0,
0,
0,
1,
0,
0,
0,
0,
0,
0,
0,
0,
0,
0,
0,
0,
0,
0,
0,
0,
0,
0,
0,
0,
0,
1,
0,
0,
0,
0,
0,
0,
0,
0,
0,
0,
0,
0,
0,
0,
0,
0,
0,
0,
0,
0,
0,
0,
0,
0,
0,
0,
0,
0,
0,
0,
0,
0,
0,
0,
0,
0,
0,
0,
0,
0,
0,
0,
0,
0,
0,
0,
0,
0,
1,
0,
0,
0,
0,
0,
0,
0,
0,
0,
0,
0,
0,
0,
0,
0,
0,
0,
0,
0,
0,
0,
0,
0,
0,
0,
0,
0,
0,
1,
0,
0,
0,
0,
0,
0,
0,
0,
0,
0,
0,
0,
0,
0,
0,
0,
0,
0,
0,
0,
0,
0,
0,
0,
0,
0,
0,
0,
0,
0,
0,
0,
1,
0,
0,
0,
0,
1,
0,
0,
0,
0,
0,
0,
0,
0,
0,
0,
0,
0,
0,
0,
0,
0,
0,
0,
0,
0,
0,
0,
0,
0,
0,
0,
0,
0,
0,
0,
0,
0,
0,
0,
0,
0,
0,
0,
0,
0,
0,
0,
0,
0,
0,
0,
0,
0,
0,
0,
0,
0,
0,
0,
0,
0,
0,
0,
0,
0,
0,
0,
0,
0,
0,
0,
0,
0,
0,
0,
0,
0,
0,
0,
0,
0,
0,
0,
0,
0,
0,
0,
0,
0,
0,
0,
0,
0,
0,
0,
0,
0,
0,
0,
0,
0,
0,
0,
0,
0,
0,
0,
0,
0,
0,
0,
0,
0,
0,
0,
0,
0,
0,
0,
0,
0,
0,
0,
0,
0,
0,
0,
0,
0,
0,
0,
0,
0,
0,
0,
0,
0,
0,
0,
0,
0,
0,
0,
0,
0,
0,
0,
0,
0,
0,
0,
0,
0,
0,
0,
0,
0,
0,
0,
0,
0,
0,
0,
0,
0,
0,
0,
0,
0,
0,
0,
0,
0,
0,
0,
0,
0,
0,
0,
0,
0,
0,
0,
0,
0,
0,
0,
0,
0,
0,
0,
0,
0,
0,
0,
0,
0,
0,
0,
0,
0,
0,
0,
0,
0,
0,
0,
0,
0,
0,
0,
0,
0,
0,
0,
0,
0,
0,
0,
0,
0,
0,
0,
0,
0,
0,
0,
0,
0,
0,
0,
0,
0,
0,
0,
0,
0,
0,
0,
0,
0,
0,
0,
0,
0,
0,
0,
0,
0,
0,
0,
0,
0,
0,
0,
0,
0,
0,
0,
0,
0,
0,
0,
0,
0,
0,
0,
0,
0,
0,
0,
0,
0,
0,
0,
0,
0,
0,
0,
0,
0,
0,
0,
0,
0,
0,
0,
0,
0,
0,
0,
0,
0,
0,
0,
0,
0,
0,
0,
0,
0,
0,
0,
0,
0,
0,
0,
0,
0,
0,
0,
0,
0,
0,
0,
0,
0,
0,
0,
0,
0,
0,
0,
0,
0,
0,
0,
0,
0,
0,
0,
0,
0,
0,
0,
0,
0,
0,
0,
0,
0,
0,
0,
0,
0,
0,
0,
0,
0,
0,
0,
0,
0,
0,
0,
0,
0,
0,
0,
0,
0,
0,
0,
0,
0,
0,
0,
0,
0,
0,
0,
0,
0,
0,
0,
0,
0,
0,
0,
0,
0,
0,
0,
0,
0,
0,
0,
0,
0,
0,
0,
0,
0,
0,
0,
0,
0,
0,
0,
0,
0,
0,
0,
0,
0,
0,
0,
0,
0,
0,
0,
0,
0,
0,
0,
0,
0,
0,
0,
0,
0,
0,
0,
0,
0,
0,
0,
0,
0,
0,
0,
0,
0,
0,
0,
0,
0,
0,
0,
0,
0,
0,
0,
0,
0,
0,
0,
0,
0,
0,
0,
0,
0,
0,
0,
0,
#ENDOFDATA   :