File: N132962/Quantification/MMM1/SPI MM1 Jadeite[5][4].msa
#FORMAT      : EMSA/MAS Spectral Data File
#VERSION     : 1.0
#TITLE       : SPI MM1dup Jadeite[5][all]
#DATE        : 12-MAR-2025
#TIME        : 16:35
#OWNER       : Unknown
#NPOINTS     : 4096
#NCOLUMNS    : 1
#XUNITS      : eV
#YUNITS      : counts
#DATATYPE    : Y
#XPERCHAN    : 9.99778
#OFFSET      : 1.69135
#BEAMKV      : 20
#SIGNALTYPE  : EDS
#ELEVANGLE   : 35
#AZIMANGLE   : 0
#LIVETIME    : 239.76
#REALTIME    : 255.549
#PROBECUR    : 1.02709
#TAUWIND     : 0
#TDEADLYR    : 0
#TACTLYR     : 0.045
#TALWIND     : 0.025
#CHOFFSET    : 0.0
#XLABEL      : Energy (eV)
#YLABEL      : Counts
#XPOSITION   : 0.87532
#YPOSITION   : 4.38971
#ZPOSITION   : 31.03608
#EDSDET      : SD
##SPECIMEN   : SPI MM1dup Jadeite[5][all]
##D2STDCMP   : Jadeite,(O:47.4904),(Na:11.3733),(Al:13.348),(Si:27.7883),5.0
##DET_HASH   : 12273538-fd48-a23f-0a19-f1e6fa85caef
##CALIB_HASH : 6abaa72c-aa41-8738-0be9-f592914732f3
##WORKING    : 15.0 mm
##DET_NAME   : EDAX All
##DET_MODE   : MediumLE
#SPECTRUM    :
29,
29,
9,
15,
78,
266,
763,
2421,
6448,
8617,
4785,
2492,
2650,
3334,
6280,
25216,
101796,
198893,
145213,
38074,
4890,
1707,
1839,
2086,
2061,
2164,
2339,
2562,
2835,
3114,
3377,
4211,
8148,
26475,
62337,
69153,
34485,
9648,
3880,
3296,
3308,
3513,
3749,
3883,
4154,
4520,
5970,
15781,
51413,
102805,
105661,
55156,
18583,
7494,
5883,
15366,
60556,
155484,
213104,
150742,
60747,
19946,
8939,
4337,
2482,
2272,
2299,
2365,
2247,
2196,
2073,
2001,
2157,
2281,
2532,
2620,
2598,
2384,
2198,
2186,
2173,
2167,
2157,
2111,
2202,
2249,
2125,
2151,
2180,
2102,
2123,
2161,
2204,
2263,
2158,
2209,
2038,
2055,
2028,
2111,
2111,
1973,
1998,
2021,
1906,
2070,
2067,
2147,
2214,
2068,
1917,
2021,
1871,
1892,
1923,
2012,
2050,
1964,
1990,
1753,
1823,
1956,
2022,
2077,
1980,
1839,
1775,
1691,
1630,
1653,
1602,
1571,
1577,
1639,
1619,
1617,
1568,
1578,
1518,
1534,
1483,
1487,
1509,
1535,
1468,
1473,
1475,
1498,
1443,
1314,
1406,
1358,
1408,
1345,
1402,
1345,
1384,
1376,
1348,
1321,
1376,
1300,
1318,
1267,
1274,
1233,
1233,
1232,
1255,
1231,
1227,
1213,
1182,
1195,
1151,
1165,
1105,
1210,
1184,
1170,
1121,
1160,
1117,
1134,
1116,
1014,
1132,
1067,
1065,
1002,
1040,
1073,
1094,
1013,
1014,
1027,
1010,
986,
1067,
992,
927,
935,
937,
1022,
975,
937,
954,
943,
914,
951,
970,
938,
972,
975,
1053,
956,
909,
851,
826,
862,
823,
815,
797,
791,
807,
771,
844,
830,
772,
757,
766,
811,
787,
771,
757,
723,
758,
819,
690,
755,
755,
700,
697,
684,
663,
720,
707,
715,
757,
690,
725,
721,
699,
698,
666,
622,
637,
568,
644,
610,
608,
621,
607,
572,
629,
578,
610,
599,
577,
556,
556,
549,
534,
559,
544,
536,
558,
537,
556,
515,
488,
542,
491,
482,
537,
507,
476,
485,
460,
534,
490,
533,
526,
487,
515,
462,
473,
462,
432,
482,
484,
473,
448,
409,
423,
425,
430,
434,
399,
415,
428,
387,
429,
387,
401,
417,
425,
428,
398,
410,
392,
423,
349,
407,
398,
410,
381,
372,
367,
361,
367,
355,
380,
360,
325,
319,
373,
336,
338,
313,
333,
326,
329,
336,
326,
306,
299,
318,
335,
305,
299,
303,
303,
315,
302,
288,
283,
290,
298,
287,
300,
280,
279,
287,
267,
256,
299,
282,
295,
263,
297,
244,
245,
285,
266,
222,
275,
256,
260,
245,
220,
243,
267,
243,
240,
237,
247,
249,
222,
227,
196,
192,
221,
201,
198,
202,
201,
211,
235,
193,
179,
184,
201,
186,
177,
217,
175,
183,
183,
197,
187,
177,
180,
194,
178,
178,
176,
178,
185,
169,
137,
142,
174,
163,
150,
145,
148,
144,
166,
157,
152,
155,
165,
129,
149,
144,
125,
122,
147,
147,
120,
138,
126,
135,
130,
147,
123,
130,
137,
121,
132,
108,
134,
102,
110,
108,
109,
107,
101,
99,
98,
101,
103,
100,
108,
99,
97,
101,
90,
103,
89,
108,
88,
86,
82,
84,
75,
88,
89,
83,
91,
84,
87,
102,
76,
71,
84,
78,
96,
85,
67,
85,
81,
66,
75,
53,
69,
58,
64,
61,
74,
56,
58,
75,
63,
72,
54,
57,
74,
58,
61,
57,
53,
45,
58,
65,
59,
49,
54,
45,
36,
45,
41,
41,
33,
58,
43,
57,
46,
54,
36,
48,
32,
50,
27,
46,
38,
38,
39,
31,
35,
46,
54,
50,
35,
47,
36,
32,
41,
34,
37,
33,
31,
32,
34,
27,
25,
36,
42,
32,
38,
22,
24,
16,
31,
22,
23,
29,
19,
25,
20,
27,
33,
25,
22,
20,
21,
14,
12,
21,
24,
20,
25,
17,
21,
18,
17,
19,
30,
17,
19,
14,
8,
15,
16,
9,
16,
14,
14,
15,
11,
11,
13,
13,
12,
15,
10,
14,
15,
9,
10,
7,
10,
8,
6,
12,
9,
11,
8,
10,
6,
8,
10,
6,
8,
8,
5,
7,
13,
4,
3,
6,
10,
5,
2,
6,
4,
3,
4,
4,
1,
6,
3,
0,
4,
4,
2,
3,
2,
4,
4,
3,
5,
4,
1,
1,
1,
1,
1,
1,
0,
2,
1,
0,
0,
0,
0,
1,
0,
0,
0,
0,
0,
1,
0,
0,
1,
0,
0,
0,
0,
0,
0,
0,
0,
0,
0,
0,
0,
0,
0,
0,
0,
0,
0,
0,
0,
0,
0,
0,
1,
0,
0,
1,
0,
0,
0,
0,
0,
1,
0,
0,
0,
1,
0,
0,
1,
0,
0,
0,
0,
0,
0,
0,
0,
1,
0,
0,
0,
0,
0,
0,
0,
0,
0,
0,
0,
0,
0,
0,
0,
0,
0,
0,
0,
0,
0,
0,
0,
0,
0,
0,
0,
0,
1,
1,
0,
0,
0,
0,
0,
0,
0,
0,
0,
0,
0,
0,
0,
0,
0,
0,
0,
0,
0,
0,
0,
0,
0,
0,
0,
0,
0,
0,
0,
0,
0,
0,
0,
0,
0,
0,
0,
0,
0,
0,
0,
0,
0,
0,
0,
0,
0,
0,
0,
0,
0,
0,
0,
0,
0,
0,
0,
0,
0,
0,
0,
0,
0,
0,
0,
0,
0,
0,
0,
0,
0,
0,
0,
0,
0,
0,
0,
0,
0,
0,
0,
0,
0,
0,
0,
0,
0,
0,
0,
0,
0,
0,
0,
0,
0,
0,
0,
0,
0,
0,
0,
0,
0,
0,
0,
0,
0,
0,
0,
0,
0,
0,
0,
0,
0,
0,
0,
0,
0,
0,
0,
0,
0,
0,
0,
0,
0,
0,
0,
0,
0,
0,
0,
0,
0,
0,
0,
0,
0,
0,
0,
0,
0,
0,
0,
0,
0,
0,
1,
0,
0,
0,
0,
0,
0,
0,
0,
0,
0,
0,
0,
0,
0,
0,
0,
0,
0,
0,
0,
0,
0,
0,
0,
0,
0,
0,
0,
0,
0,
0,
0,
0,
0,
0,
0,
0,
0,
0,
0,
0,
0,
0,
0,
0,
0,
0,
0,
0,
0,
0,
0,
0,
0,
0,
0,
0,
0,
0,
0,
0,
0,
0,
0,
0,
0,
0,
0,
0,
0,
0,
0,
0,
0,
0,
0,
0,
0,
0,
0,
0,
0,
0,
0,
0,
0,
0,
0,
0,
0,
0,
0,
0,
0,
0,
0,
0,
0,
0,
0,
0,
0,
0,
0,
0,
0,
0,
0,
0,
0,
0,
0,
0,
0,
0,
0,
0,
0,
0,
0,
0,
0,
0,
0,
0,
0,
0,
0,
0,
0,
0,
0,
0,
0,
0,
0,
0,
0,
0,
0,
0,
0,
0,
0,
0,
0,
0,
0,
0,
0,
0,
0,
0,
0,
0,
0,
0,
0,
0,
0,
0,
0,
0,
0,
0,
0,
0,
0,
0,
0,
0,
0,
0,
0,
0,
0,
0,
0,
0,
0,
0,
0,
0,
0,
0,
0,
0,
0,
0,
0,
0,
0,
0,
0,
0,
0,
0,
0,
0,
0,
0,
0,
0,
0,
0,
0,
0,
0,
0,
0,
0,
0,
0,
0,
0,
0,
0,
0,
0,
0,
0,
0,
0,
0,
0,
0,
0,
0,
0,
0,
0,
0,
0,
0,
0,
0,
0,
0,
0,
0,
0,
0,
0,
0,
0,
0,
0,
0,
0,
0,
0,
0,
0,
0,
0,
0,
0,
0,
0,
0,
0,
0,
0,
0,
0,
0,
0,
0,
0,
0,
0,
0,
0,
0,
0,
0,
0,
0,
0,
0,
0,
0,
0,
0,
0,
0,
0,
0,
0,
0,
0,
0,
0,
0,
0,
0,
0,
0,
0,
0,
0,
0,
0,
0,
0,
0,
0,
0,
0,
0,
0,
0,
0,
0,
0,
0,
0,
0,
0,
0,
0,
0,
0,
0,
0,
0,
0,
0,
0,
0,
0,
0,
0,
0,
0,
0,
0,
0,
0,
0,
0,
0,
0,
0,
0,
0,
0,
0,
0,
0,
0,
0,
0,
0,
0,
0,
0,
0,
0,
0,
0,
0,
0,
0,
0,
0,
0,
0,
0,
0,
0,
0,
0,
0,
0,
0,
0,
0,
0,
0,
0,
0,
0,
0,
0,
0,
0,
0,
0,
0,
0,
0,
0,
0,
0,
0,
0,
0,
0,
0,
0,
0,
0,
0,
0,
0,
0,
0,
0,
0,
0,
0,
0,
0,
0,
0,
0,
0,
0,
0,
0,
0,
0,
0,
0,
0,
0,
0,
0,
0,
0,
0,
0,
0,
0,
0,
0,
0,
0,
0,
0,
0,
0,
0,
0,
0,
0,
0,
0,
0,
0,
0,
0,
0,
0,
0,
0,
0,
0,
0,
0,
#ENDOFDATA   :