File: N132962/Quantification/MMM1/SPI MM1 Chlorite[2][4].msa
#FORMAT      : EMSA/MAS Spectral Data File
#VERSION     : 1.0
#TITLE       : SPI MM1dup Chlorite[2][all]
#DATE        : 12-MAR-2025
#TIME        : 14:20
#OWNER       : Unknown
#NPOINTS     : 4096
#NCOLUMNS    : 1
#XUNITS      : eV
#YUNITS      : counts
#DATATYPE    : Y
#XPERCHAN    : 9.99778
#OFFSET      : 1.69135
#BEAMKV      : 20
#SIGNALTYPE  : EDS
#ELEVANGLE   : 35
#AZIMANGLE   : 0
#LIVETIME    : 239.79
#REALTIME    : 254.634
#PROBECUR    : 1.02867
#TAUWIND     : 0
#TDEADLYR    : 0
#TACTLYR     : 0.045
#TALWIND     : 0.025
#CHOFFSET    : 0.0
#XLABEL      : Energy (eV)
#YLABEL      : Counts
#XPOSITION   : 6.1863
#YPOSITION   : -0.3201
#ZPOSITION   : 31.03608
#EDSDET      : SD
##SPECIMEN   : SPI MM1dup Chlorite[2][all]
##DET_HASH   : 12273538-fd48-a23f-0a19-f1e6fa85caef
##CALIB_HASH : 6abaa72c-aa41-8738-0be9-f592914732f3
##WORKING    : 15.0 mm
##DET_NAME   : EDAX All
##DET_MODE   : MediumLE
#SPECTRUM    :
22,
23,
11,
16,
67,
301,
864,
2675,
7393,
9894,
5387,
2704,
2925,
3905,
7379,
30056,
123034,
243773,
178203,
46398,
5928,
2425,
2931,
4123,
4003,
2752,
2334,
2415,
2704,
2905,
2826,
2784,
2986,
3275,
3768,
4069,
4120,
4339,
5571,
13086,
49176,
125061,
150669,
85107,
24988,
6462,
4300,
9353,
28547,
57514,
58637,
30937,
10888,
4847,
3939,
8163,
28407,
71791,
98141,
70028,
28962,
10518,
5285,
3169,
2373,
2240,
2218,
2370,
2194,
2168,
2192,
2192,
2192,
2247,
2456,
2434,
2456,
2369,
2237,
2185,
2173,
2273,
2291,
2204,
2266,
2226,
2228,
2182,
2247,
2189,
2168,
2193,
2216,
2178,
2121,
2089,
1972,
2085,
2224,
2171,
2190,
2160,
2024,
1916,
1902,
1977,
1954,
1967,
1967,
1893,
1885,
1881,
1828,
1763,
1695,
1822,
1845,
1754,
1806,
1807,
1754,
1696,
1741,
1758,
1781,
1587,
1639,
1672,
1668,
1529,
1595,
1622,
1598,
1547,
1593,
1470,
1485,
1422,
1468,
1513,
1514,
1460,
1431,
1419,
1448,
1424,
1364,
1385,
1379,
1330,
1391,
1352,
1342,
1329,
1345,
1336,
1315,
1276,
1316,
1223,
1294,
1235,
1241,
1231,
1316,
1305,
1206,
1196,
1185,
1170,
1185,
1187,
1172,
1171,
1117,
1186,
1347,
1742,
2472,
3442,
4397,
4183,
3141,
2151,
1558,
1193,
1109,
1004,
1048,
1072,
999,
1015,
989,
967,
1013,
1117,
1224,
1335,
1354,
1290,
1191,
1078,
1001,
899,
927,
922,
891,
928,
999,
1256,
1943,
3024,
4409,
5407,
5061,
3880,
2433,
1511,
1012,
914,
762,
814,
753,
761,
713,
784,
749,
777,
791,
833,
817,
863,
916,
1081,
1202,
1273,
1202,
1049,
941,
814,
671,
693,
700,
656,
656,
706,
745,
776,
824,
862,
868,
798,
739,
676,
682,
547,
570,
572,
628,
567,
583,
533,
597,
573,
576,
566,
553,
575,
526,
544,
570,
598,
531,
541,
550,
589,
547,
568,
515,
490,
496,
491,
493,
474,
499,
500,
471,
493,
488,
483,
480,
458,
461,
471,
437,
458,
436,
431,
404,
455,
440,
418,
467,
423,
432,
450,
437,
397,
408,
406,
395,
398,
416,
421,
408,
388,
394,
405,
363,
367,
396,
389,
361,
334,
372,
397,
371,
366,
381,
353,
355,
341,
311,
347,
381,
322,
300,
334,
307,
324,
300,
352,
310,
318,
312,
311,
284,
329,
258,
319,
262,
289,
330,
265,
303,
289,
290,
285,
274,
305,
304,
260,
282,
278,
235,
264,
246,
273,
249,
284,
254,
236,
275,
226,
233,
194,
214,
234,
230,
222,
217,
220,
214,
204,
255,
263,
246,
231,
218,
199,
211,
205,
211,
208,
209,
201,
190,
190,
149,
219,
194,
206,
191,
182,
167,
194,
170,
188,
194,
162,
171,
173,
184,
183,
177,
143,
147,
166,
172,
179,
166,
153,
143,
148,
142,
141,
172,
144,
121,
125,
140,
141,
136,
137,
147,
111,
137,
148,
157,
142,
118,
118,
130,
105,
128,
145,
116,
113,
108,
128,
113,
118,
121,
130,
100,
112,
100,
106,
96,
124,
126,
102,
103,
100,
105,
95,
76,
92,
78,
114,
99,
99,
102,
87,
91,
95,
86,
78,
85,
70,
93,
90,
77,
81,
76,
77,
78,
81,
77,
73,
63,
81,
61,
67,
61,
68,
54,
79,
62,
69,
64,
63,
73,
66,
71,
75,
65,
56,
49,
40,
69,
59,
61,
48,
55,
63,
41,
61,
52,
53,
51,
49,
42,
42,
43,
45,
39,
56,
43,
42,
54,
47,
32,
37,
47,
46,
50,
33,
39,
37,
32,
38,
43,
40,
21,
34,
50,
34,
29,
35,
33,
26,
33,
27,
43,
30,
33,
28,
29,
27,
22,
21,
19,
22,
25,
26,
28,
21,
19,
29,
27,
20,
17,
25,
19,
28,
23,
17,
21,
17,
22,
22,
23,
15,
21,
15,
16,
18,
14,
12,
16,
16,
19,
15,
5,
14,
13,
18,
9,
11,
8,
15,
12,
18,
13,
13,
11,
12,
14,
4,
10,
15,
12,
9,
11,
12,
10,
8,
15,
9,
13,
8,
6,
6,
3,
6,
8,
9,
12,
8,
6,
6,
5,
6,
3,
3,
4,
5,
3,
3,
6,
3,
1,
6,
5,
3,
2,
2,
1,
2,
2,
3,
1,
2,
4,
1,
3,
2,
2,
0,
1,
0,
1,
0,
0,
2,
0,
0,
0,
0,
0,
0,
0,
0,
0,
0,
1,
1,
1,
0,
0,
1,
0,
0,
0,
0,
0,
0,
0,
0,
0,
0,
0,
0,
0,
0,
0,
0,
0,
0,
0,
0,
0,
0,
0,
1,
0,
0,
1,
0,
1,
0,
0,
0,
0,
0,
0,
0,
0,
0,
0,
0,
0,
0,
0,
0,
0,
0,
0,
0,
0,
0,
0,
0,
0,
0,
0,
0,
0,
0,
0,
0,
0,
0,
0,
0,
0,
0,
0,
0,
0,
0,
1,
0,
0,
0,
0,
0,
0,
0,
0,
0,
0,
0,
1,
0,
0,
0,
0,
0,
0,
0,
0,
0,
0,
0,
0,
0,
0,
0,
0,
0,
0,
0,
0,
0,
0,
0,
0,
0,
0,
0,
0,
0,
0,
0,
0,
0,
0,
0,
0,
0,
0,
0,
0,
0,
0,
0,
0,
0,
0,
0,
0,
0,
0,
0,
0,
0,
0,
0,
0,
0,
0,
0,
0,
0,
0,
0,
0,
0,
0,
0,
0,
0,
0,
0,
0,
0,
0,
0,
0,
0,
0,
0,
0,
0,
0,
0,
0,
0,
0,
0,
0,
0,
0,
0,
0,
0,
0,
0,
0,
0,
0,
0,
0,
0,
0,
0,
0,
0,
0,
0,
0,
0,
0,
0,
0,
0,
0,
0,
0,
0,
0,
0,
0,
0,
0,
0,
0,
0,
0,
0,
0,
0,
0,
0,
0,
0,
0,
0,
0,
0,
0,
0,
0,
0,
0,
0,
0,
0,
0,
0,
0,
0,
0,
0,
0,
0,
0,
0,
0,
0,
0,
0,
0,
0,
0,
0,
0,
0,
0,
0,
0,
0,
0,
0,
0,
0,
0,
0,
0,
0,
0,
0,
0,
0,
0,
0,
0,
0,
0,
0,
0,
0,
0,
0,
0,
0,
0,
0,
0,
0,
0,
0,
0,
0,
0,
0,
0,
0,
0,
0,
0,
0,
0,
0,
0,
0,
0,
0,
0,
0,
0,
0,
0,
0,
0,
0,
0,
0,
0,
0,
0,
0,
0,
0,
0,
0,
0,
0,
0,
0,
0,
0,
0,
0,
0,
0,
0,
0,
0,
0,
0,
0,
0,
0,
0,
0,
0,
0,
0,
0,
0,
0,
0,
0,
0,
0,
0,
0,
0,
0,
0,
0,
0,
0,
0,
0,
0,
0,
0,
0,
0,
0,
0,
0,
0,
0,
0,
0,
0,
0,
0,
0,
0,
0,
0,
0,
0,
0,
0,
0,
0,
0,
0,
0,
0,
0,
0,
0,
0,
0,
0,
0,
0,
0,
0,
0,
0,
0,
0,
0,
0,
0,
0,
0,
0,
0,
0,
0,
0,
0,
0,
0,
0,
0,
0,
0,
0,
0,
0,
0,
0,
0,
0,
0,
0,
0,
0,
0,
0,
0,
0,
0,
0,
0,
0,
0,
0,
0,
0,
0,
0,
0,
0,
0,
0,
0,
0,
0,
0,
0,
0,
0,
0,
0,
0,
0,
0,
0,
0,
0,
0,
0,
0,
0,
0,
0,
0,
0,
0,
0,
0,
0,
0,
0,
0,
0,
0,
0,
0,
0,
0,
0,
0,
0,
0,
0,
0,
0,
0,
0,
0,
0,
0,
0,
0,
0,
0,
0,
0,
0,
0,
0,
0,
0,
0,
0,
0,
0,
0,
0,
0,
0,
0,
0,
0,
0,
0,
0,
0,
0,
0,
0,
0,
0,
0,
0,
0,
0,
0,
0,
0,
0,
0,
0,
0,
0,
0,
0,
0,
0,
0,
0,
0,
0,
0,
0,
0,
0,
0,
0,
0,
0,
0,
0,
0,
0,
0,
0,
0,
0,
0,
0,
0,
0,
0,
0,
0,
0,
0,
0,
0,
0,
0,
0,
0,
0,
0,
0,
0,
0,
0,
0,
0,
0,
0,
0,
0,
0,
0,
0,
0,
0,
0,
0,
0,
0,
0,
0,
0,
0,
0,
0,
0,
0,
0,
0,
0,
0,
0,
0,
0,
0,
0,
0,
0,
0,
0,
0,
0,
0,
0,
0,
0,
0,
0,
0,
0,
0,
0,
0,
0,
0,
0,
0,
0,
0,
0,
0,
0,
0,
0,
0,
0,
0,
0,
0,
0,
0,
0,
0,
0,
0,
0,
0,
0,
0,
0,
0,
0,
0,
0,
0,
0,
0,
0,
0,
0,
0,
0,
0,
0,
0,
0,
0,
0,
0,
0,
0,
0,
0,
0,
0,
0,
0,
#ENDOFDATA   :