File: N132962/Quantification/MMM1/SPI MM1 Andradite[4][4].msa
#FORMAT      : EMSA/MAS Spectral Data File
#VERSION     : 1.0
#TITLE       : SPI MM1 Andradite[4][all]
#DATE        : 11-MAR-2025
#TIME        : 13:11
#OWNER       : Unknown
#NPOINTS     : 4096
#NCOLUMNS    : 1
#XUNITS      : eV
#YUNITS      : counts
#DATATYPE    : Y
#XPERCHAN    : 9.99778
#OFFSET      : 1.69135
#BEAMKV      : 20
#SIGNALTYPE  : EDS
#ELEVANGLE   : 35
#AZIMANGLE   : 0
#LIVETIME    : 239.7462
#REALTIME    : 255.084
#PROBECUR    : 1.02699
#TAUWIND     : 0
#TDEADLYR    : 0
#TACTLYR     : 0.045
#TALWIND     : 0.025
#CHOFFSET    : 0.0
#XLABEL      : Energy (eV)
#YLABEL      : Counts
#XPOSITION   : -2.20924
#YPOSITION   : -8.047
#ZPOSITION   : 30.9284
#EDSDET      : SD
##SPECIMEN   : SPI MM1 Andradite[4][all]
##D2STDCMP   : Andradite,(O:37.7805),(Si:16.5802),(Ca:23.6603),(Fe:21.979),3.86
##DET_HASH   : 12273538-fd48-a23f-0a19-f1e6fa85caef
##CALIB_HASH : 6abaa72c-aa41-8738-0be9-f592914732f3
##WORKING    : 15.0 mm
##DET_NAME   : EDAX All
##DET_MODE   : MediumLE
#SPECTRUM    :
20,
35,
6,
19,
79,
324,
1087,
3490,
10651,
15435,
10291,
5379,
3426,
3040,
4024,
12238,
46371,
90196,
66635,
19138,
5235,
4563,
6900,
12227,
11915,
6073,
2978,
2483,
2503,
2471,
2511,
2538,
2707,
2986,
3050,
3183,
3305,
3380,
3603,
3568,
3774,
3887,
4083,
4121,
4212,
4381,
4780,
6705,
13298,
22864,
23477,
14160,
7506,
5497,
5959,
11939,
40299,
98469,
133999,
94713,
39400,
14967,
7907,
5329,
4704,
4651,
4317,
3775,
3573,
3316,
3371,
3469,
3368,
3600,
3454,
3566,
3624,
3499,
3410,
3296,
3330,
3362,
3268,
3273,
3342,
3189,
3313,
3305,
3182,
3230,
3267,
3155,
3092,
3281,
3074,
3163,
3066,
3236,
3065,
2987,
3060,
3061,
3003,
2932,
2987,
2930,
2958,
2979,
2974,
2947,
2838,
2791,
2830,
2683,
2802,
2929,
3187,
3524,
4434,
7866,
20389,
51488,
94656,
120212,
100629,
56676,
22499,
7555,
3659,
3136,
3732,
5986,
10173,
15033,
16792,
13314,
8070,
4261,
2548,
2087,
2151,
2038,
1939,
1886,
1854,
1899,
1898,
1888,
1927,
1806,
1917,
1908,
1887,
1917,
1839,
1873,
1868,
1852,
1764,
1744,
1671,
1740,
1683,
1728,
1694,
1656,
1664,
1634,
1638,
1671,
1675,
1589,
1604,
1635,
1610,
1529,
1582,
1564,
1654,
1647,
1708,
1771,
1691,
1648,
1617,
1499,
1510,
1494,
1426,
1425,
1468,
1508,
1444,
1503,
1669,
1914,
1891,
1958,
1818,
1650,
1531,
1373,
1392,
1348,
1340,
1314,
1377,
1506,
2102,
3800,
8327,
15746,
24634,
30271,
28274,
20731,
12046,
5729,
2691,
1593,
1296,
1161,
1264,
1211,
1178,
1134,
1184,
1212,
1203,
1264,
1389,
1614,
2346,
3259,
4364,
4807,
4359,
3358,
2369,
1550,
1197,
1029,
1046,
1010,
983,
1011,
1067,
1037,
1021,
996,
1044,
942,
921,
925,
892,
905,
935,
892,
897,
834,
860,
869,
884,
815,
845,
785,
846,
828,
828,
851,
837,
870,
778,
826,
787,
767,
765,
771,
789,
780,
748,
730,
761,
731,
735,
705,
669,
731,
726,
704,
661,
670,
693,
710,
709,
716,
644,
665,
670,
673,
667,
611,
660,
649,
636,
610,
598,
635,
603,
627,
594,
666,
582,
602,
580,
598,
590,
616,
646,
627,
568,
557,
573,
553,
577,
461,
613,
583,
542,
539,
526,
527,
508,
590,
502,
532,
575,
556,
531,
515,
506,
551,
517,
461,
498,
475,
470,
482,
429,
496,
480,
420,
460,
443,
493,
458,
459,
465,
519,
439,
472,
435,
422,
420,
426,
441,
407,
412,
424,
407,
431,
408,
358,
381,
407,
399,
384,
287,
384,
381,
399,
377,
363,
335,
333,
374,
356,
340,
368,
319,
343,
337,
321,
367,
299,
319,
310,
315,
323,
311,
311,
299,
316,
309,
289,
329,
301,
284,
287,
274,
291,
281,
285,
271,
305,
274,
270,
253,
256,
272,
268,
259,
251,
226,
245,
243,
260,
245,
235,
237,
225,
237,
233,
223,
241,
237,
237,
229,
236,
227,
232,
201,
188,
226,
211,
210,
195,
171,
185,
209,
198,
179,
166,
166,
176,
170,
176,
148,
187,
150,
174,
170,
169,
178,
181,
146,
156,
168,
146,
165,
168,
195,
147,
146,
158,
143,
138,
145,
143,
141,
156,
118,
137,
145,
118,
144,
134,
125,
127,
111,
143,
108,
104,
120,
123,
122,
99,
110,
124,
101,
98,
116,
104,
120,
108,
96,
105,
94,
71,
107,
106,
92,
99,
85,
88,
74,
91,
98,
87,
73,
101,
81,
79,
72,
86,
89,
77,
81,
78,
90,
77,
71,
55,
77,
73,
64,
77,
86,
61,
62,
51,
65,
68,
63,
60,
67,
54,
63,
75,
60,
61,
55,
59,
48,
43,
49,
60,
59,
43,
59,
50,
45,
44,
45,
38,
61,
45,
46,
34,
46,
39,
40,
46,
38,
32,
34,
31,
35,
44,
49,
38,
36,
33,
25,
39,
28,
30,
35,
32,
36,
27,
28,
28,
30,
33,
29,
24,
23,
27,
24,
34,
15,
21,
19,
20,
21,
16,
20,
18,
10,
20,
19,
16,
20,
17,
13,
14,
16,
21,
17,
17,
16,
18,
15,
18,
15,
13,
16,
9,
17,
4,
8,
3,
14,
10,
6,
5,
7,
10,
9,
12,
9,
7,
1,
7,
5,
8,
6,
7,
6,
2,
4,
7,
4,
7,
2,
3,
2,
1,
1,
0,
4,
3,
2,
0,
1,
0,
0,
0,
2,
0,
0,
1,
1,
0,
0,
0,
0,
0,
0,
0,
0,
0,
0,
0,
0,
0,
0,
0,
2,
0,
1,
0,
0,
1,
1,
0,
3,
0,
0,
0,
0,
0,
0,
1,
0,
0,
2,
0,
0,
0,
0,
0,
0,
0,
0,
0,
0,
0,
1,
0,
0,
1,
0,
0,
0,
1,
0,
0,
0,
0,
0,
0,
0,
0,
0,
0,
0,
1,
0,
0,
0,
1,
0,
0,
0,
0,
0,
0,
0,
0,
0,
0,
0,
1,
0,
0,
0,
0,
0,
0,
0,
0,
0,
0,
0,
1,
0,
0,
0,
0,
0,
0,
0,
0,
0,
0,
0,
0,
0,
0,
0,
0,
0,
0,
0,
0,
0,
0,
0,
0,
0,
0,
0,
0,
0,
0,
0,
0,
0,
0,
0,
0,
0,
0,
0,
1,
0,
0,
0,
0,
0,
0,
0,
0,
0,
0,
0,
0,
0,
0,
0,
0,
0,
0,
0,
0,
0,
0,
1,
1,
0,
0,
0,
0,
0,
0,
0,
0,
0,
0,
0,
0,
0,
0,
0,
0,
0,
0,
0,
0,
0,
0,
0,
0,
0,
0,
0,
0,
0,
0,
0,
0,
0,
0,
0,
0,
0,
0,
0,
0,
0,
0,
0,
0,
0,
0,
1,
0,
0,
0,
0,
0,
0,
0,
0,
0,
0,
0,
0,
0,
0,
0,
0,
0,
0,
0,
0,
0,
0,
0,
0,
0,
0,
0,
0,
0,
0,
0,
0,
0,
0,
0,
0,
0,
0,
0,
0,
0,
0,
0,
0,
0,
0,
0,
0,
0,
0,
0,
0,
0,
0,
0,
0,
0,
0,
0,
0,
0,
0,
0,
0,
0,
0,
0,
0,
0,
0,
0,
0,
0,
0,
0,
0,
0,
0,
0,
0,
0,
0,
0,
0,
0,
0,
0,
0,
0,
0,
0,
0,
0,
0,
0,
0,
0,
0,
0,
0,
0,
0,
0,
0,
0,
0,
0,
0,
0,
0,
0,
0,
0,
0,
0,
0,
0,
0,
0,
0,
0,
0,
0,
0,
0,
0,
0,
0,
0,
0,
0,
0,
0,
0,
0,
0,
0,
0,
0,
0,
0,
0,
0,
0,
0,
0,
0,
0,
0,
0,
0,
0,
0,
0,
0,
0,
0,
0,
0,
0,
0,
0,
0,
0,
0,
0,
0,
0,
0,
0,
0,
0,
0,
0,
0,
0,
0,
0,
0,
0,
0,
0,
0,
0,
0,
0,
0,
0,
0,
0,
0,
0,
0,
0,
0,
0,
0,
0,
0,
0,
0,
0,
0,
0,
0,
0,
0,
0,
0,
0,
0,
0,
0,
0,
0,
0,
0,
0,
0,
0,
0,
0,
0,
0,
0,
0,
0,
0,
0,
0,
0,
0,
0,
0,
0,
0,
0,
0,
0,
0,
0,
0,
0,
0,
0,
0,
0,
0,
0,
0,
0,
0,
0,
0,
0,
0,
0,
0,
0,
0,
0,
0,
0,
0,
0,
0,
0,
0,
0,
0,
0,
0,
0,
0,
0,
0,
0,
0,
0,
0,
0,
0,
0,
0,
0,
0,
0,
0,
0,
0,
0,
0,
0,
0,
0,
0,
0,
0,
0,
0,
0,
0,
0,
0,
0,
0,
0,
0,
0,
0,
0,
0,
0,
0,
0,
0,
0,
0,
0,
0,
0,
0,
0,
0,
0,
0,
0,
0,
0,
0,
0,
0,
0,
0,
0,
0,
0,
0,
0,
0,
0,
0,
0,
0,
0,
0,
0,
0,
0,
0,
0,
0,
0,
0,
0,
0,
0,
0,
0,
0,
0,
0,
0,
0,
0,
0,
0,
0,
0,
0,
0,
0,
0,
0,
0,
0,
0,
0,
0,
0,
0,
0,
0,
0,
0,
0,
0,
0,
0,
0,
0,
0,
0,
0,
0,
0,
0,
0,
0,
0,
0,
0,
0,
0,
0,
0,
0,
0,
0,
0,
0,
0,
0,
0,
0,
0,
0,
0,
0,
0,
0,
0,
0,
0,
0,
0,
0,
0,
0,
0,
0,
0,
0,
0,
0,
0,
0,
0,
0,
0,
0,
0,
0,
0,
0,
0,
0,
0,
0,
0,
0,
0,
0,
0,
0,
0,
0,
0,
0,
0,
0,
0,
0,
0,
0,
0,
0,
0,
0,
0,
0,
0,
0,
0,
0,
0,
0,
0,
0,
0,
0,
0,
0,
0,
0,
0,
0,
0,
#ENDOFDATA   :