File: N132962/Quantification/MMM1/SPI MM1 Chromite[4][4].msa
#FORMAT      : EMSA/MAS Spectral Data File
#VERSION     : 1.0
#TITLE       : SPI MM1dup Chromite[4][all]
#DATE        : 12-MAR-2025
#TIME        : 14:13
#OWNER       : Unknown
#NPOINTS     : 4096
#NCOLUMNS    : 1
#XUNITS      : eV
#YUNITS      : counts
#DATATYPE    : Y
#XPERCHAN    : 9.99778
#OFFSET      : 1.69135
#BEAMKV      : 20
#SIGNALTYPE  : EDS
#ELEVANGLE   : 35
#AZIMANGLE   : 0
#LIVETIME    : 236.7548
#REALTIME    : 250.279
#PROBECUR    : 1.02867
#TAUWIND     : 0
#TDEADLYR    : 0
#TACTLYR     : 0.045
#TALWIND     : 0.025
#CHOFFSET    : 0.0
#XLABEL      : Energy (eV)
#YLABEL      : Counts
#XPOSITION   : 4.16182
#YPOSITION   : -0.27474
#ZPOSITION   : 31.03608
#EDSDET      : SD
##SPECIMEN   : SPI MM1dup Chromite[4][all]
##DET_HASH   : 12273538-fd48-a23f-0a19-f1e6fa85caef
##CALIB_HASH : 6abaa72c-aa41-8738-0be9-f592914732f3
##WORKING    : 15.0 mm
##DET_NAME   : EDAX All
##DET_MODE   : MediumLE
#SPECTRUM    :
32,
21,
12,
4,
69,
333,
906,
2784,
7199,
9769,
5529,
3380,
3797,
4883,
8630,
28919,
99414,
178044,
128505,
39352,
9520,
4605,
5383,
8373,
8242,
4137,
2267,
2261,
2722,
2590,
2124,
1973,
2073,
2431,
2735,
2755,
2643,
2459,
2847,
4314,
11492,
26087,
30815,
18365,
6887,
3363,
3202,
5545,
14320,
27143,
27582,
15170,
6210,
3378,
2870,
3118,
4630,
7788,
10004,
7943,
4893,
3442,
2889,
2716,
2521,
2650,
2644,
2730,
2711,
2682,
2672,
2668,
2718,
2648,
2747,
2675,
2802,
2805,
2760,
2846,
2708,
2652,
2628,
2695,
2749,
2834,
2916,
3156,
3031,
2846,
2654,
2615,
2660,
2710,
2643,
2696,
2668,
2644,
2610,
2690,
2574,
2587,
2533,
2488,
2589,
2550,
2556,
2501,
2599,
2425,
2508,
2495,
2460,
2377,
2437,
2459,
2443,
2408,
2435,
2369,
2592,
2707,
2753,
2760,
2565,
2412,
2340,
2258,
2306,
2206,
2215,
2137,
2159,
2186,
2125,
2198,
2108,
2039,
2124,
2137,
2161,
2140,
2135,
2175,
2084,
2058,
2059,
2113,
2134,
2181,
2236,
2311,
2117,
2088,
2069,
2031,
2032,
2017,
1934,
1876,
1889,
1804,
1906,
2019,
2150,
2133,
2131,
1920,
1932,
1784,
1784,
1918,
1942,
2081,
2291,
3121,
6454,
16326,
36552,
63925,
84092,
80755,
57327,
30446,
12969,
4664,
2350,
1702,
1671,
1636,
1758,
1745,
1796,
2164,
3045,
5005,
8350,
11554,
13018,
11495,
8140,
4763,
2580,
1532,
1331,
1231,
1186,
1300,
1728,
3132,
6427,
12547,
19200,
23387,
21768,
16185,
9283,
4611,
2300,
1387,
1199,
1082,
1117,
1094,
1161,
1040,
1047,
1135,
1120,
1225,
1257,
1574,
2051,
2753,
3625,
4024,
3706,
2799,
1971,
1477,
1076,
925,
936,
891,
957,
970,
1055,
1265,
1306,
1456,
1379,
1239,
1066,
942,
951,
872,
812,
889,
884,
811,
823,
824,
815,
871,
823,
862,
807,
789,
813,
765,
808,
790,
797,
785,
789,
876,
802,
822,
781,
718,
721,
791,
797,
770,
745,
743,
807,
755,
816,
709,
721,
700,
709,
688,
646,
673,
698,
654,
655,
661,
686,
672,
672,
658,
649,
672,
659,
608,
590,
634,
649,
656,
594,
649,
596,
645,
555,
589,
607,
591,
556,
639,
594,
622,
572,
582,
607,
579,
592,
614,
570,
537,
562,
513,
536,
554,
542,
511,
542,
501,
542,
493,
505,
505,
526,
520,
469,
518,
504,
493,
515,
484,
505,
489,
505,
457,
465,
476,
488,
470,
490,
481,
502,
457,
444,
420,
442,
434,
474,
450,
416,
451,
394,
381,
438,
402,
394,
430,
399,
417,
400,
430,
386,
341,
364,
368,
369,
395,
357,
361,
360,
383,
384,
370,
354,
366,
366,
335,
336,
330,
328,
316,
322,
314,
327,
298,
335,
270,
307,
312,
312,
284,
284,
303,
276,
308,
291,
292,
276,
233,
302,
271,
280,
278,
250,
231,
251,
275,
260,
237,
228,
232,
236,
266,
233,
245,
226,
224,
223,
201,
211,
215,
217,
223,
214,
202,
193,
268,
200,
237,
188,
206,
226,
210,
214,
182,
187,
194,
200,
199,
159,
163,
166,
191,
182,
156,
178,
169,
160,
183,
168,
158,
172,
181,
169,
154,
167,
181,
138,
165,
148,
137,
143,
141,
127,
134,
139,
123,
138,
129,
155,
103,
128,
135,
125,
145,
128,
104,
119,
136,
134,
130,
117,
94,
105,
116,
115,
115,
125,
106,
105,
104,
104,
104,
81,
91,
103,
96,
101,
96,
102,
97,
87,
84,
92,
110,
84,
95,
83,
88,
69,
79,
75,
74,
64,
99,
68,
79,
69,
75,
52,
78,
70,
73,
85,
67,
74,
59,
65,
58,
62,
64,
53,
57,
64,
63,
68,
57,
62,
54,
46,
45,
48,
44,
50,
55,
36,
48,
47,
35,
40,
46,
51,
49,
43,
44,
37,
33,
42,
28,
39,
40,
33,
43,
41,
40,
32,
37,
39,
40,
27,
31,
37,
28,
28,
34,
37,
29,
29,
25,
24,
27,
21,
26,
27,
20,
23,
20,
18,
16,
18,
21,
33,
25,
18,
23,
19,
23,
17,
19,
17,
10,
24,
22,
11,
11,
12,
15,
16,
15,
11,
7,
10,
12,
11,
9,
13,
9,
10,
6,
10,
7,
9,
9,
10,
5,
4,
3,
5,
5,
7,
10,
6,
3,
3,
1,
2,
2,
2,
3,
1,
0,
2,
2,
1,
3,
0,
2,
1,
0,
2,
1,
1,
0,
0,
0,
0,
0,
2,
0,
0,
0,
0,
1,
0,
0,
2,
0,
0,
0,
0,
3,
2,
0,
0,
3,
0,
1,
0,
0,
0,
0,
0,
1,
0,
0,
0,
0,
0,
0,
0,
0,
1,
0,
0,
0,
0,
0,
1,
0,
1,
0,
0,
0,
0,
0,
0,
0,
0,
1,
0,
0,
0,
0,
0,
0,
0,
0,
0,
1,
0,
0,
0,
0,
0,
0,
0,
0,
0,
0,
0,
0,
0,
0,
0,
0,
0,
0,
0,
0,
0,
0,
0,
0,
0,
0,
1,
0,
0,
0,
0,
0,
0,
0,
0,
1,
0,
0,
1,
0,
0,
0,
1,
0,
0,
1,
0,
0,
0,
0,
0,
0,
0,
1,
0,
0,
0,
0,
0,
0,
0,
0,
0,
0,
0,
0,
1,
1,
0,
1,
0,
0,
0,
0,
0,
0,
0,
0,
0,
0,
1,
0,
0,
0,
0,
0,
0,
0,
0,
0,
0,
0,
0,
0,
0,
0,
0,
1,
0,
1,
0,
0,
0,
0,
0,
0,
0,
0,
0,
0,
0,
0,
0,
0,
0,
0,
0,
0,
0,
0,
0,
0,
0,
0,
0,
0,
0,
0,
0,
0,
0,
0,
0,
0,
0,
0,
0,
0,
0,
0,
0,
0,
0,
0,
0,
0,
0,
0,
0,
0,
0,
0,
0,
0,
0,
0,
0,
0,
0,
0,
0,
0,
0,
0,
0,
0,
0,
0,
0,
0,
0,
0,
0,
0,
0,
0,
0,
0,
0,
0,
0,
0,
0,
0,
0,
0,
0,
0,
0,
0,
0,
0,
0,
0,
0,
0,
0,
0,
0,
0,
0,
0,
0,
0,
0,
0,
0,
0,
0,
0,
0,
0,
0,
0,
0,
0,
0,
0,
0,
0,
0,
0,
0,
0,
0,
0,
0,
0,
0,
0,
0,
0,
0,
0,
0,
0,
0,
0,
0,
0,
0,
0,
0,
0,
0,
0,
0,
0,
0,
0,
0,
0,
0,
0,
0,
0,
0,
0,
0,
0,
0,
0,
0,
0,
0,
0,
0,
0,
0,
0,
0,
0,
0,
0,
0,
0,
0,
0,
0,
0,
0,
0,
0,
0,
0,
0,
0,
0,
0,
0,
0,
0,
0,
0,
0,
0,
0,
0,
0,
0,
0,
0,
0,
0,
0,
0,
0,
0,
0,
0,
0,
0,
0,
0,
0,
0,
0,
0,
0,
0,
0,
0,
0,
0,
0,
0,
0,
0,
0,
0,
0,
0,
0,
0,
0,
0,
0,
0,
0,
0,
0,
0,
0,
0,
0,
0,
0,
0,
0,
0,
0,
0,
0,
0,
0,
0,
0,
0,
0,
0,
0,
0,
0,
0,
0,
0,
0,
0,
0,
0,
0,
0,
0,
0,
0,
0,
0,
0,
0,
0,
0,
0,
0,
0,
0,
0,
0,
0,
0,
0,
0,
0,
0,
0,
0,
0,
0,
0,
0,
0,
0,
0,
0,
0,
0,
0,
0,
0,
0,
0,
0,
0,
0,
0,
0,
0,
0,
0,
0,
0,
0,
0,
0,
0,
0,
0,
0,
0,
0,
0,
0,
0,
0,
0,
0,
0,
0,
0,
0,
0,
0,
0,
0,
0,
0,
0,
0,
0,
0,
0,
0,
0,
0,
0,
0,
0,
0,
0,
0,
0,
0,
0,
0,
0,
0,
0,
0,
0,
0,
0,
0,
0,
0,
0,
0,
0,
0,
0,
0,
0,
0,
0,
0,
0,
0,
0,
0,
0,
0,
0,
0,
0,
0,
0,
0,
0,
0,
0,
0,
0,
0,
0,
0,
0,
0,
0,
0,
0,
0,
0,
0,
0,
0,
0,
0,
0,
0,
0,
0,
0,
0,
0,
0,
0,
0,
0,
0,
0,
0,
0,
0,
0,
0,
0,
0,
0,
0,
0,
0,
0,
0,
0,
0,
0,
0,
0,
0,
0,
0,
0,
0,
0,
0,
0,
0,
0,
0,
0,
0,
0,
0,
0,
0,
0,
0,
0,
0,
0,
0,
0,
0,
0,
0,
0,
0,
0,
0,
0,
0,
0,
0,
0,
0,
0,
0,
0,
0,
0,
0,
0,
0,
0,
0,
0,
0,
0,
0,
0,
0,
0,
0,
0,
0,
0,
0,
0,
0,
0,
0,
0,
0,
0,
0,
0,
0,
0,
0,
0,
0,
0,
0,
0,
0,
0,
0,
0,
#ENDOFDATA   :