File: N132962/Quantification/MMM1/SPI MM1 Hematite[5][4].msa
#FORMAT      : EMSA/MAS Spectral Data File
#VERSION     : 1.0
#TITLE       : SPI MM1dup Hematite[5][all]
#DATE        : 12-MAR-2025
#TIME        : 16:52
#OWNER       : Unknown
#NPOINTS     : 4096
#NCOLUMNS    : 1
#XUNITS      : eV
#YUNITS      : counts
#DATATYPE    : Y
#XPERCHAN    : 9.99778
#OFFSET      : 1.69135
#BEAMKV      : 20
#SIGNALTYPE  : EDS
#ELEVANGLE   : 35
#AZIMANGLE   : 0
#LIVETIME    : 239.805
#REALTIME    : 256.676
#PROBECUR    : 1.026781
#TAUWIND     : 0
#TDEADLYR    : 0
#TACTLYR     : 0.045
#TALWIND     : 0.025
#CHOFFSET    : 0.0
#XLABEL      : Energy (eV)
#YLABEL      : Counts
#XPOSITION   : 3.58523
#YPOSITION   : 4.18736
#ZPOSITION   : 31.03608
#EDSDET      : SD
##SPECIMEN   : SPI MM1dup Hematite[5][all]
##D2STDCMP   : Hematite,(O:30.0574),(Fe:69.9426),5.0
##DET_HASH   : 12273538-fd48-a23f-0a19-f1e6fa85caef
##CALIB_HASH : 6abaa72c-aa41-8738-0be9-f592914732f3
##WORKING    : 15.0 mm
##DET_NAME   : EDAX All
##DET_MODE   : MediumLE
#SPECTRUM    :
24,
28,
14,
17,
119,
417,
1287,
3678,
9672,
12541,
7457,
4848,
5100,
6573,
9926,
28662,
104361,
199693,
145869,
45825,
22342,
21387,
30742,
52069,
45317,
17411,
5003,
2641,
2344,
2142,
1982,
2183,
2242,
2420,
2732,
2893,
2748,
2773,
2744,
2956,
3042,
3282,
3297,
3372,
3445,
3527,
3739,
3771,
3838,
4107,
4179,
4092,
4197,
4245,
4352,
4346,
4572,
4919,
4981,
4966,
4827,
4568,
4370,
4194,
4244,
4038,
4261,
4233,
4382,
4344,
4308,
4223,
4262,
4324,
4282,
4278,
4427,
4321,
4318,
4257,
4342,
4168,
4399,
4278,
4212,
4190,
4294,
4169,
4272,
4156,
4166,
4056,
4111,
4068,
3929,
3979,
4017,
4003,
3984,
3867,
3942,
3774,
3910,
3827,
3865,
3829,
3746,
3821,
3701,
3646,
3592,
3670,
3476,
3564,
3485,
3515,
3427,
3515,
3440,
3360,
3477,
3327,
3397,
3344,
3285,
3339,
3261,
3272,
3088,
3125,
3044,
3108,
3218,
3084,
3073,
2918,
3086,
3014,
3029,
2992,
3011,
2914,
2889,
2923,
2854,
2853,
2799,
2848,
2810,
2839,
2803,
2831,
2819,
2972,
3152,
3110,
3060,
2949,
2732,
2680,
2665,
2635,
2534,
2465,
2559,
2499,
2547,
2410,
2478,
2467,
2519,
2445,
2395,
2402,
2469,
2319,
2375,
2292,
2358,
2366,
2319,
2325,
2288,
2263,
2299,
2216,
2129,
2158,
2126,
2158,
2144,
2101,
2063,
2040,
2120,
2026,
2033,
1997,
2086,
2002,
2041,
2034,
2065,
2097,
2213,
2224,
2475,
3191,
5770,
14565,
34960,
69733,
111049,
137112,
128624,
92106,
51848,
22671,
8576,
3554,
2200,
1853,
1872,
1767,
1738,
1801,
1895,
1951,
2068,
2438,
3117,
4677,
7533,
12389,
16719,
19090,
17475,
12655,
7660,
4154,
2355,
1551,
1285,
1237,
1238,
1201,
1225,
1269,
1268,
1350,
1251,
1289,
1254,
1198,
1171,
1182,
1146,
1152,
1074,
1133,
1117,
1123,
1125,
1090,
1032,
1083,
1071,
1081,
1069,
1065,
1023,
1053,
1039,
988,
1103,
1050,
1075,
1003,
959,
973,
1002,
982,
1016,
956,
964,
1011,
933,
995,
997,
979,
959,
961,
953,
930,
946,
921,
930,
904,
958,
936,
916,
891,
866,
926,
919,
820,
790,
894,
854,
849,
794,
867,
794,
795,
842,
760,
803,
841,
840,
793,
815,
790,
787,
803,
810,
772,
720,
708,
769,
814,
720,
766,
718,
715,
748,
742,
726,
751,
707,
726,
688,
700,
705,
674,
664,
643,
677,
681,
675,
694,
640,
688,
649,
636,
670,
664,
643,
613,
627,
613,
613,
586,
578,
544,
562,
564,
612,
581,
586,
617,
526,
577,
550,
574,
539,
561,
527,
537,
570,
562,
529,
508,
458,
510,
492,
494,
513,
494,
481,
465,
456,
496,
465,
447,
486,
474,
447,
453,
414,
476,
438,
420,
393,
443,
396,
422,
467,
443,
404,
419,
373,
393,
386,
371,
381,
409,
376,
388,
342,
386,
354,
354,
406,
403,
433,
449,
430,
472,
453,
421,
384,
353,
346,
336,
326,
316,
324,
350,
331,
293,
269,
281,
308,
293,
320,
320,
300,
303,
353,
271,
304,
298,
298,
277,
261,
285,
234,
247,
254,
239,
252,
254,
259,
224,
239,
239,
260,
239,
226,
245,
240,
237,
199,
225,
223,
217,
212,
208,
192,
197,
192,
214,
199,
212,
194,
189,
183,
188,
171,
158,
191,
186,
200,
188,
179,
168,
180,
194,
183,
175,
162,
165,
145,
173,
149,
166,
152,
153,
156,
124,
161,
155,
154,
149,
135,
114,
129,
132,
119,
134,
132,
119,
112,
115,
127,
128,
131,
129,
111,
113,
125,
114,
113,
87,
94,
115,
92,
95,
103,
92,
101,
111,
109,
95,
93,
86,
84,
89,
94,
85,
78,
84,
97,
77,
75,
71,
71,
81,
87,
64,
77,
81,
77,
65,
89,
91,
73,
80,
56,
71,
77,
61,
49,
43,
50,
52,
55,
60,
69,
52,
42,
64,
61,
62,
51,
49,
42,
40,
56,
32,
42,
43,
45,
37,
41,
40,
44,
35,
25,
44,
30,
36,
43,
26,
33,
26,
31,
34,
35,
20,
28,
28,
27,
24,
24,
24,
24,
23,
25,
22,
30,
30,
20,
22,
20,
19,
14,
9,
15,
12,
18,
21,
19,
20,
12,
18,
7,
19,
10,
5,
10,
11,
11,
11,
11,
3,
5,
5,
8,
6,
10,
7,
11,
5,
5,
5,
5,
3,
1,
7,
5,
4,
2,
1,
3,
1,
1,
1,
1,
2,
2,
0,
1,
2,
0,
1,
2,
1,
2,
2,
2,
0,
1,
0,
0,
1,
0,
0,
1,
2,
1,
0,
0,
1,
1,
0,
0,
1,
0,
2,
2,
0,
1,
1,
1,
0,
1,
3,
1,
0,
0,
1,
1,
0,
1,
0,
1,
0,
1,
0,
0,
0,
0,
0,
1,
0,
2,
1,
1,
0,
0,
1,
2,
1,
1,
0,
1,
2,
0,
0,
0,
0,
0,
0,
0,
0,
1,
1,
0,
0,
0,
0,
0,
0,
0,
0,
1,
0,
0,
0,
0,
0,
1,
0,
0,
0,
0,
0,
0,
1,
2,
0,
0,
1,
1,
1,
0,
3,
3,
0,
0,
0,
0,
0,
0,
1,
1,
0,
1,
0,
0,
0,
0,
0,
0,
0,
0,
0,
0,
0,
0,
0,
0,
0,
1,
0,
0,
0,
1,
0,
2,
0,
0,
1,
0,
0,
0,
0,
0,
0,
0,
0,
1,
0,
1,
0,
0,
0,
0,
0,
0,
0,
0,
0,
1,
0,
0,
0,
0,
0,
0,
1,
0,
0,
0,
0,
0,
0,
0,
0,
0,
0,
0,
0,
0,
0,
0,
0,
1,
0,
0,
0,
0,
0,
0,
0,
0,
0,
0,
0,
0,
0,
0,
0,
0,
1,
0,
0,
0,
0,
0,
0,
0,
0,
0,
0,
0,
0,
0,
0,
0,
0,
0,
0,
0,
0,
0,
0,
0,
0,
0,
0,
0,
0,
0,
0,
0,
0,
0,
0,
0,
0,
0,
0,
0,
0,
0,
0,
0,
0,
0,
0,
0,
0,
0,
0,
0,
0,
0,
0,
0,
0,
0,
0,
0,
0,
0,
0,
0,
0,
0,
0,
0,
0,
0,
0,
1,
0,
0,
0,
0,
0,
0,
0,
0,
0,
0,
0,
0,
0,
0,
0,
0,
0,
0,
0,
0,
0,
0,
0,
0,
0,
0,
0,
0,
0,
0,
0,
0,
0,
0,
0,
0,
0,
0,
0,
0,
0,
0,
0,
0,
0,
0,
0,
0,
0,
0,
0,
0,
0,
0,
0,
0,
0,
0,
0,
0,
0,
0,
0,
0,
0,
0,
0,
0,
0,
0,
0,
0,
0,
0,
0,
0,
0,
0,
0,
0,
0,
0,
0,
0,
0,
0,
0,
0,
0,
0,
0,
0,
0,
0,
0,
0,
0,
0,
0,
0,
0,
0,
0,
0,
0,
0,
0,
0,
0,
0,
0,
0,
0,
0,
0,
0,
0,
0,
0,
0,
0,
0,
0,
0,
0,
0,
0,
0,
0,
0,
0,
0,
0,
0,
0,
0,
0,
0,
0,
0,
0,
0,
0,
0,
0,
0,
0,
0,
0,
0,
0,
0,
0,
0,
0,
0,
1,
0,
0,
0,
0,
0,
0,
0,
0,
0,
0,
0,
0,
0,
0,
0,
0,
0,
0,
0,
0,
0,
0,
0,
0,
0,
0,
0,
0,
0,
0,
0,
0,
0,
0,
0,
0,
0,
0,
0,
0,
0,
0,
0,
0,
0,
0,
0,
0,
0,
0,
0,
0,
0,
0,
0,
0,
0,
0,
0,
0,
0,
0,
0,
0,
0,
0,
0,
0,
0,
0,
0,
0,
0,
0,
0,
0,
0,
0,
0,
0,
0,
0,
0,
0,
0,
0,
0,
0,
0,
0,
0,
0,
0,
0,
0,
0,
0,
0,
0,
0,
0,
0,
0,
0,
0,
0,
0,
0,
0,
0,
0,
0,
0,
0,
0,
0,
0,
0,
0,
0,
0,
0,
0,
0,
0,
0,
0,
0,
0,
0,
0,
0,
0,
0,
0,
0,
0,
0,
0,
0,
0,
0,
0,
0,
0,
0,
0,
0,
0,
0,
0,
0,
0,
0,
0,
0,
0,
0,
0,
0,
0,
0,
0,
0,
0,
0,
0,
0,
0,
0,
0,
0,
0,
0,
0,
0,
0,
0,
0,
0,
0,
0,
0,
0,
0,
0,
0,
0,
0,
0,
0,
0,
0,
0,
0,
0,
0,
0,
0,
0,
0,
0,
0,
0,
0,
0,
0,
0,
0,
0,
0,
0,
0,
0,
0,
0,
0,
0,
0,
0,
0,
0,
0,
0,
0,
0,
0,
0,
0,
0,
0,
0,
0,
0,
0,
0,
0,
0,
0,
0,
0,
0,
0,
0,
0,
0,
0,
0,
0,
0,
0,
0,
0,
0,
0,
0,
0,
0,
0,
0,
0,
0,
#ENDOFDATA   :