File: N132962/Quantification/MMM1/SPI MM1 Almandine[4][4].msa
#FORMAT      : EMSA/MAS Spectral Data File
#VERSION     : 1.0
#TITLE       : SPI MM1 Almandine[4][all]
#DATE        : 11-MAR-2025
#TIME        : 13:02
#OWNER       : Unknown
#NPOINTS     : 4096
#NCOLUMNS    : 1
#XUNITS      : eV
#YUNITS      : counts
#DATATYPE    : Y
#XPERCHAN    : 9.99778
#OFFSET      : 1.69135
#BEAMKV      : 20
#SIGNALTYPE  : EDS
#ELEVANGLE   : 35
#AZIMANGLE   : 0
#LIVETIME    : 239.834
#REALTIME    : 255.276
#PROBECUR    : 1.02699
#TAUWIND     : 0
#TDEADLYR    : 0
#TACTLYR     : 0.045
#TALWIND     : 0.025
#CHOFFSET    : 0.0
#XLABEL      : Energy (eV)
#YLABEL      : Counts
#XPOSITION   : 0.45275
#YPOSITION   : -7.86648
#ZPOSITION   : 30.9284
#EDSDET      : SD
##SPECIMEN   : SPI MM1 Almandine[4][all]
##D2STDCMP   : Almandine,(O:38.5719),(Al:10.8416),(Si:16.9275),(Fe:33.6591),4.05
##DET_HASH   : 12273538-fd48-a23f-0a19-f1e6fa85caef
##CALIB_HASH : 6abaa72c-aa41-8738-0be9-f592914732f3
##WORKING    : 15.0 mm
##DET_NAME   : EDAX All
##DET_MODE   : MediumLE
#SPECTRUM    :
20,
28,
5,
19,
65,
324,
826,
2567,
7444,
9955,
5771,
3101,
2955,
3636,
6312,
22903,
90503,
178068,
130454,
35114,
7339,
5407,
7857,
14142,
13932,
7043,
3217,
2518,
2487,
2477,
2534,
2520,
2842,
2962,
3297,
3436,
3428,
3568,
3979,
6200,
15611,
35042,
41967,
25012,
9578,
5101,
5505,
12771,
40278,
81274,
81958,
43274,
15090,
6568,
5278,
10943,
39232,
99264,
134447,
96270,
39322,
14185,
7127,
4243,
3114,
2958,
2965,
2954,
2898,
2722,
2822,
2773,
2838,
2873,
2945,
3134,
3125,
3016,
2741,
2686,
2720,
2834,
2791,
2702,
2759,
2799,
2696,
2798,
2804,
2776,
2681,
2686,
2734,
2675,
2618,
2614,
2724,
2668,
2776,
2767,
2758,
2620,
2552,
2533,
2477,
2610,
2596,
2608,
2662,
2527,
2487,
2398,
2413,
2510,
2405,
2396,
2523,
2524,
2543,
2797,
4256,
7795,
12904,
15370,
13235,
8222,
4338,
2771,
2171,
2203,
2301,
2520,
3021,
3549,
3655,
3198,
2698,
2240,
1962,
1978,
2090,
1878,
1928,
1952,
1988,
1901,
1816,
1813,
1815,
1810,
1949,
1942,
1858,
1877,
1858,
1965,
1828,
1780,
1664,
1692,
1719,
1625,
1680,
1719,
1663,
1586,
1531,
1569,
1593,
1565,
1622,
1483,
1536,
1525,
1533,
1544,
1524,
1503,
1584,
1502,
1500,
1526,
1457,
1486,
1408,
1465,
1487,
1343,
1376,
1346,
1309,
1332,
1433,
1502,
1775,
2162,
2232,
2290,
1995,
1672,
1414,
1316,
1280,
1261,
1273,
1312,
1397,
1603,
2129,
4336,
9463,
18399,
28721,
34938,
33365,
23940,
13905,
6534,
2960,
1584,
1227,
1038,
1090,
1146,
1129,
1113,
1094,
1109,
1132,
1207,
1367,
1761,
2595,
3640,
4813,
5353,
4911,
3695,
2503,
1582,
1123,
969,
871,
944,
907,
880,
854,
883,
888,
852,
878,
864,
867,
801,
787,
792,
838,
756,
812,
780,
785,
795,
775,
823,
844,
745,
715,
765,
783,
768,
757,
801,
804,
756,
713,
741,
722,
711,
701,
672,
677,
712,
676,
689,
613,
653,
680,
671,
672,
664,
665,
647,
610,
637,
666,
612,
638,
593,
585,
595,
595,
571,
580,
565,
560,
570,
573,
542,
595,
542,
524,
536,
553,
502,
574,
529,
581,
574,
540,
553,
534,
499,
556,
535,
493,
526,
536,
502,
468,
446,
483,
485,
489,
480,
465,
478,
498,
482,
463,
465,
449,
456,
435,
459,
448,
469,
451,
445,
418,
413,
415,
411,
371,
426,
395,
386,
372,
402,
439,
395,
377,
384,
385,
393,
389,
367,
387,
355,
356,
384,
380,
341,
357,
329,
349,
345,
329,
330,
321,
291,
318,
308,
318,
327,
298,
291,
320,
303,
285,
298,
279,
286,
281,
300,
275,
257,
302,
296,
269,
261,
282,
256,
307,
268,
279,
231,
269,
268,
234,
252,
262,
256,
249,
223,
218,
228,
234,
232,
235,
202,
206,
208,
222,
213,
200,
237,
221,
221,
230,
247,
225,
215,
214,
202,
211,
181,
179,
184,
184,
170,
190,
172,
175,
187,
173,
161,
177,
180,
154,
145,
187,
167,
161,
144,
151,
172,
166,
147,
159,
156,
154,
148,
155,
149,
133,
152,
149,
152,
146,
115,
126,
135,
149,
131,
146,
138,
119,
111,
125,
118,
121,
108,
140,
123,
109,
122,
114,
109,
106,
115,
101,
118,
93,
84,
100,
110,
105,
95,
104,
95,
100,
93,
82,
99,
95,
93,
85,
85,
82,
89,
83,
72,
82,
81,
87,
66,
83,
82,
76,
83,
78,
63,
72,
68,
84,
76,
69,
52,
75,
57,
90,
69,
65,
37,
55,
68,
55,
36,
71,
70,
44,
57,
61,
47,
49,
54,
47,
55,
50,
50,
56,
40,
60,
46,
51,
36,
46,
47,
29,
40,
38,
40,
39,
28,
43,
38,
37,
34,
32,
40,
36,
38,
33,
32,
27,
38,
41,
41,
25,
40,
34,
36,
29,
29,
22,
36,
20,
26,
25,
18,
39,
24,
24,
29,
19,
23,
18,
25,
18,
20,
22,
14,
19,
12,
14,
18,
9,
17,
16,
14,
16,
14,
14,
21,
12,
23,
9,
14,
16,
15,
7,
12,
18,
16,
15,
13,
6,
9,
5,
10,
13,
9,
8,
5,
6,
14,
7,
10,
12,
9,
8,
3,
9,
5,
6,
6,
6,
3,
4,
6,
5,
1,
1,
1,
5,
4,
0,
3,
1,
2,
1,
4,
0,
1,
1,
0,
0,
0,
0,
1,
0,
0,
0,
0,
1,
0,
0,
2,
0,
0,
0,
0,
0,
0,
0,
0,
2,
0,
0,
0,
0,
0,
0,
0,
0,
0,
1,
0,
0,
0,
0,
0,
0,
0,
0,
1,
1,
0,
0,
0,
0,
0,
0,
0,
0,
0,
0,
0,
0,
0,
0,
0,
1,
0,
0,
0,
0,
0,
0,
0,
0,
0,
0,
0,
1,
0,
1,
0,
0,
0,
0,
0,
0,
0,
0,
0,
0,
0,
0,
0,
0,
0,
0,
0,
0,
0,
1,
1,
0,
0,
0,
0,
1,
0,
1,
0,
0,
0,
0,
0,
0,
0,
0,
0,
0,
0,
0,
0,
0,
0,
0,
0,
0,
0,
0,
0,
0,
0,
0,
0,
0,
0,
0,
0,
0,
0,
0,
0,
0,
0,
0,
0,
0,
0,
0,
0,
0,
0,
0,
0,
0,
0,
0,
0,
0,
0,
0,
0,
0,
0,
0,
0,
0,
0,
0,
0,
0,
0,
0,
0,
0,
0,
1,
0,
0,
0,
0,
0,
0,
0,
0,
0,
0,
0,
0,
0,
0,
0,
0,
0,
0,
0,
0,
0,
0,
0,
0,
1,
0,
0,
0,
0,
0,
1,
0,
0,
0,
0,
0,
0,
0,
0,
0,
0,
0,
0,
0,
0,
0,
0,
0,
0,
0,
0,
0,
0,
0,
0,
0,
0,
0,
0,
0,
0,
0,
0,
0,
0,
0,
0,
0,
0,
0,
0,
0,
0,
0,
0,
0,
0,
0,
0,
0,
0,
0,
0,
0,
1,
0,
0,
0,
0,
0,
0,
0,
0,
0,
0,
0,
0,
0,
0,
0,
0,
0,
0,
0,
0,
0,
0,
0,
0,
0,
0,
0,
0,
0,
0,
0,
0,
0,
0,
0,
0,
0,
0,
0,
0,
0,
0,
0,
0,
0,
0,
0,
0,
0,
0,
0,
0,
0,
0,
0,
0,
0,
0,
0,
0,
0,
0,
0,
0,
0,
0,
0,
0,
0,
0,
0,
0,
0,
0,
0,
0,
0,
0,
0,
0,
0,
0,
0,
0,
0,
0,
0,
0,
0,
0,
0,
0,
0,
0,
0,
0,
0,
0,
0,
0,
0,
0,
0,
0,
0,
0,
0,
0,
0,
0,
0,
0,
0,
0,
0,
0,
0,
0,
0,
0,
0,
0,
0,
0,
0,
0,
0,
0,
0,
0,
0,
0,
0,
0,
0,
0,
0,
0,
0,
0,
0,
0,
0,
0,
0,
0,
0,
0,
0,
0,
0,
0,
0,
0,
0,
0,
0,
0,
0,
0,
0,
0,
0,
0,
0,
0,
0,
0,
0,
0,
0,
0,
0,
0,
0,
0,
0,
0,
0,
0,
0,
0,
0,
0,
0,
0,
0,
0,
0,
0,
0,
0,
0,
0,
0,
0,
0,
0,
0,
0,
0,
0,
0,
0,
0,
0,
0,
0,
0,
0,
0,
0,
0,
0,
0,
0,
0,
0,
0,
0,
0,
0,
0,
0,
0,
0,
0,
0,
0,
0,
0,
0,
0,
0,
0,
0,
0,
0,
0,
0,
0,
0,
0,
0,
0,
0,
0,
0,
0,
0,
0,
0,
0,
0,
0,
0,
0,
0,
0,
0,
0,
0,
0,
0,
0,
0,
0,
0,
0,
0,
0,
0,
0,
0,
0,
0,
0,
0,
0,
0,
0,
0,
0,
0,
0,
0,
0,
0,
0,
0,
0,
0,
0,
0,
0,
0,
0,
0,
0,
0,
0,
0,
0,
0,
0,
0,
0,
0,
0,
0,
0,
0,
0,
0,
0,
0,
0,
0,
0,
0,
0,
0,
0,
0,
0,
0,
0,
0,
0,
0,
0,
0,
0,
0,
0,
0,
0,
0,
0,
0,
0,
0,
0,
0,
0,
0,
0,
0,
0,
0,
0,
0,
0,
0,
0,
0,
0,
0,
0,
0,
0,
0,
0,
0,
0,
0,
0,
0,
0,
0,
0,
0,
0,
0,
0,
0,
0,
0,
0,
0,
0,
0,
0,
0,
0,
0,
0,
0,
0,
0,
0,
0,
0,
0,
0,
0,
0,
0,
0,
0,
0,
0,
0,
0,
0,
0,
0,
0,
0,
0,
0,
0,
0,
0,
0,
0,
0,
0,
0,
0,
0,
0,
0,
0,
0,
0,
0,
0,
0,
0,
0,
0,
0,
0,
0,
0,
0,
0,
0,
0,
0,
0,
0,
0,
0,
0,
0,
0,
#ENDOFDATA   :