File: N132962/Quantification/MMM1/SPI MM1 Chlorite[3][4].msa
#FORMAT      : EMSA/MAS Spectral Data File
#VERSION     : 1.0
#TITLE       : SPI MM1dup Chlorite[3][all]
#DATE        : 12-MAR-2025
#TIME        : 14:21
#OWNER       : Unknown
#NPOINTS     : 4096
#NCOLUMNS    : 1
#XUNITS      : eV
#YUNITS      : counts
#DATATYPE    : Y
#XPERCHAN    : 9.99778
#OFFSET      : 1.69135
#BEAMKV      : 20
#SIGNALTYPE  : EDS
#ELEVANGLE   : 35
#AZIMANGLE   : 0
#LIVETIME    : 239.872
#REALTIME    : 254.755
#PROBECUR    : 1.02867
#TAUWIND     : 0
#TDEADLYR    : 0
#TACTLYR     : 0.045
#TALWIND     : 0.025
#CHOFFSET    : 0.0
#XLABEL      : Energy (eV)
#YLABEL      : Counts
#XPOSITION   : 6.23627
#YPOSITION   : -0.24515
#ZPOSITION   : 31.03608
#EDSDET      : SD
##SPECIMEN   : SPI MM1dup Chlorite[3][all]
##DET_HASH   : 12273538-fd48-a23f-0a19-f1e6fa85caef
##CALIB_HASH : 6abaa72c-aa41-8738-0be9-f592914732f3
##WORKING    : 15.0 mm
##DET_NAME   : EDAX All
##DET_MODE   : MediumLE
#SPECTRUM    :
27,
18,
3,
19,
79,
299,
867,
2579,
7175,
9552,
5230,
2774,
3017,
4065,
7480,
30033,
123800,
244178,
178743,
46173,
6197,
2373,
2773,
4005,
4053,
2715,
2350,
2445,
2765,
2718,
2673,
2828,
3030,
3328,
3722,
3999,
4076,
4442,
5825,
13054,
48906,
125974,
151624,
85351,
24984,
6414,
4288,
9271,
28973,
57986,
58921,
31043,
10764,
4696,
3913,
8136,
28359,
71976,
97641,
70065,
29034,
10588,
5333,
3259,
2388,
2194,
2311,
2352,
2280,
2188,
2198,
2195,
2132,
2234,
2408,
2446,
2555,
2257,
2175,
2226,
2223,
2228,
2304,
2193,
2386,
2267,
2225,
2236,
2092,
2217,
2223,
2260,
2126,
2213,
2038,
2060,
1996,
2039,
2187,
2148,
2372,
2129,
2013,
2045,
1976,
1857,
1918,
1960,
1943,
1898,
1902,
1828,
1852,
1815,
1845,
1877,
1820,
1823,
1827,
1784,
1683,
1782,
1753,
1675,
1743,
1690,
1569,
1613,
1649,
1687,
1575,
1570,
1598,
1512,
1535,
1540,
1503,
1527,
1493,
1529,
1425,
1453,
1444,
1444,
1455,
1351,
1426,
1350,
1440,
1367,
1379,
1428,
1385,
1340,
1334,
1327,
1290,
1331,
1304,
1203,
1287,
1238,
1198,
1250,
1312,
1225,
1295,
1255,
1228,
1234,
1172,
1077,
1148,
1161,
1106,
1226,
1348,
1685,
2483,
3510,
4190,
4187,
3191,
2179,
1462,
1121,
1067,
1049,
1037,
1017,
1037,
1030,
1014,
1042,
1055,
1136,
1224,
1355,
1401,
1372,
1146,
1072,
1004,
897,
880,
862,
983,
894,
1042,
1295,
1902,
3169,
4419,
5258,
5006,
3754,
2489,
1530,
1093,
822,
819,
752,
755,
785,
751,
774,
761,
758,
774,
749,
816,
900,
912,
1105,
1293,
1286,
1243,
1069,
945,
749,
679,
676,
696,
690,
693,
699,
763,
860,
857,
907,
840,
788,
733,
665,
668,
593,
562,
587,
556,
578,
571,
592,
555,
601,
563,
554,
572,
553,
572,
519,
529,
516,
566,
562,
557,
577,
573,
510,
528,
546,
472,
541,
521,
484,
484,
491,
477,
504,
484,
466,
486,
515,
445,
470,
427,
451,
455,
449,
468,
435,
462,
418,
466,
416,
428,
433,
439,
358,
418,
423,
395,
414,
401,
388,
397,
371,
384,
388,
354,
380,
374,
354,
359,
377,
359,
355,
392,
363,
365,
356,
371,
327,
344,
390,
333,
332,
301,
325,
306,
331,
338,
323,
329,
307,
288,
317,
291,
309,
291,
319,
314,
297,
311,
299,
319,
273,
285,
299,
282,
281,
257,
296,
297,
264,
283,
284,
277,
272,
286,
254,
256,
253,
241,
224,
248,
221,
246,
225,
270,
230,
232,
276,
230,
232,
216,
213,
231,
213,
233,
229,
215,
192,
179,
214,
203,
196,
199,
212,
173,
184,
198,
183,
191,
200,
175,
169,
201,
200,
183,
163,
187,
150,
161,
183,
195,
173,
165,
135,
146,
155,
148,
163,
141,
162,
156,
157,
127,
154,
127,
128,
131,
136,
131,
146,
134,
144,
128,
137,
146,
135,
124,
150,
132,
143,
130,
119,
120,
132,
128,
120,
112,
104,
99,
124,
103,
90,
103,
102,
116,
110,
92,
115,
89,
94,
105,
108,
104,
82,
112,
99,
93,
95,
77,
106,
90,
77,
85,
83,
80,
96,
73,
64,
83,
75,
77,
88,
69,
78,
80,
78,
66,
73,
64,
59,
62,
70,
67,
65,
50,
76,
55,
85,
66,
60,
60,
55,
46,
61,
51,
70,
42,
74,
63,
52,
62,
45,
45,
45,
40,
47,
35,
48,
46,
49,
48,
46,
41,
40,
42,
51,
42,
50,
48,
32,
44,
49,
38,
42,
27,
52,
35,
52,
38,
36,
36,
42,
43,
42,
38,
39,
22,
25,
26,
21,
30,
32,
34,
28,
21,
35,
23,
26,
26,
15,
23,
21,
37,
20,
25,
27,
20,
19,
22,
15,
16,
17,
20,
14,
19,
15,
17,
19,
22,
21,
17,
17,
13,
14,
18,
27,
13,
15,
24,
18,
11,
21,
11,
8,
16,
19,
10,
10,
12,
11,
7,
13,
11,
19,
7,
12,
10,
11,
10,
11,
8,
11,
9,
7,
7,
8,
12,
13,
9,
2,
4,
11,
6,
8,
5,
4,
11,
5,
11,
3,
5,
5,
2,
9,
3,
3,
3,
4,
5,
5,
4,
2,
3,
4,
4,
2,
3,
4,
1,
0,
2,
2,
0,
1,
2,
1,
0,
0,
1,
1,
0,
0,
0,
0,
0,
0,
0,
1,
0,
0,
1,
1,
0,
0,
0,
0,
0,
1,
0,
0,
1,
0,
0,
0,
0,
1,
0,
1,
0,
0,
0,
0,
0,
0,
1,
0,
0,
0,
0,
0,
0,
0,
0,
0,
0,
0,
0,
0,
0,
0,
0,
0,
0,
0,
0,
0,
1,
0,
0,
0,
0,
0,
0,
0,
0,
0,
0,
0,
0,
0,
0,
0,
0,
0,
0,
0,
0,
0,
0,
0,
0,
0,
0,
0,
0,
0,
0,
0,
0,
0,
0,
0,
0,
0,
0,
0,
0,
0,
0,
0,
0,
0,
0,
0,
0,
0,
0,
0,
0,
0,
0,
0,
0,
0,
0,
0,
0,
0,
0,
0,
0,
0,
0,
0,
0,
0,
0,
0,
0,
0,
0,
0,
0,
0,
0,
0,
0,
0,
0,
0,
0,
0,
0,
0,
0,
0,
0,
0,
0,
0,
0,
0,
0,
0,
0,
0,
0,
0,
0,
0,
1,
0,
0,
0,
0,
0,
0,
0,
0,
0,
0,
0,
0,
0,
0,
0,
0,
0,
0,
0,
0,
0,
0,
0,
0,
0,
0,
0,
0,
0,
0,
0,
0,
0,
0,
0,
0,
0,
0,
0,
0,
0,
0,
0,
0,
0,
0,
0,
0,
0,
0,
0,
0,
0,
0,
0,
0,
0,
0,
0,
0,
0,
0,
0,
0,
0,
0,
0,
0,
0,
0,
0,
0,
0,
0,
0,
0,
0,
0,
0,
0,
0,
0,
0,
0,
0,
0,
0,
0,
0,
0,
0,
0,
0,
0,
0,
0,
0,
0,
0,
0,
0,
0,
0,
0,
0,
0,
0,
0,
0,
0,
0,
0,
0,
0,
0,
0,
0,
0,
0,
0,
0,
0,
0,
0,
0,
0,
0,
0,
0,
0,
0,
0,
0,
0,
0,
0,
0,
0,
0,
0,
0,
0,
0,
0,
0,
0,
0,
0,
0,
0,
0,
0,
0,
0,
0,
0,
0,
0,
0,
0,
0,
0,
0,
0,
0,
0,
0,
0,
0,
0,
0,
0,
0,
0,
0,
0,
0,
0,
0,
0,
0,
0,
0,
0,
0,
0,
0,
0,
0,
0,
0,
0,
0,
0,
0,
0,
0,
0,
0,
0,
0,
0,
0,
0,
0,
0,
0,
0,
0,
0,
0,
0,
0,
0,
0,
0,
0,
0,
0,
0,
0,
0,
0,
0,
0,
0,
0,
0,
0,
0,
0,
0,
0,
0,
0,
0,
0,
0,
0,
0,
0,
0,
0,
0,
0,
0,
0,
0,
0,
0,
0,
0,
0,
0,
0,
0,
0,
0,
0,
0,
0,
0,
0,
0,
0,
0,
0,
0,
0,
0,
0,
0,
0,
0,
0,
0,
0,
0,
0,
0,
0,
0,
0,
0,
0,
0,
0,
0,
0,
0,
0,
0,
0,
0,
0,
0,
0,
0,
0,
0,
0,
0,
0,
0,
0,
0,
0,
0,
0,
0,
0,
0,
0,
0,
0,
0,
0,
0,
0,
0,
0,
0,
0,
0,
0,
0,
0,
0,
0,
0,
0,
0,
0,
0,
0,
0,
0,
0,
0,
0,
0,
0,
0,
0,
0,
0,
0,
0,
0,
0,
0,
0,
0,
0,
0,
0,
0,
0,
0,
0,
0,
0,
0,
0,
0,
0,
0,
0,
0,
0,
0,
0,
0,
0,
0,
0,
0,
0,
0,
0,
0,
0,
0,
0,
0,
0,
0,
0,
0,
0,
0,
0,
0,
0,
0,
0,
0,
0,
0,
0,
0,
0,
0,
0,
0,
0,
0,
0,
0,
0,
0,
0,
0,
0,
0,
0,
0,
0,
0,
0,
0,
0,
0,
0,
0,
0,
0,
0,
0,
0,
0,
0,
0,
0,
0,
0,
0,
0,
0,
0,
0,
0,
0,
0,
0,
0,
0,
0,
0,
0,
0,
0,
0,
0,
0,
0,
0,
0,
0,
0,
0,
0,
0,
0,
0,
0,
0,
0,
0,
0,
0,
0,
0,
0,
0,
0,
0,
0,
0,
0,
0,
0,
0,
0,
0,
0,
0,
0,
0,
0,
0,
0,
0,
0,
0,
0,
0,
0,
0,
0,
0,
0,
0,
0,
0,
0,
0,
0,
0,
0,
0,
0,
0,
0,
0,
0,
0,
0,
0,
0,
0,
0,
0,
0,
0,
0,
0,
0,
0,
0,
0,
0,
0,
0,
0,
0,
0,
0,
0,
0,
0,
#ENDOFDATA   :