File: N132962/Quantification/MMM1/SPI MM1 Fluorapatite[2][4].msa
#FORMAT      : EMSA/MAS Spectral Data File
#VERSION     : 1.0
#TITLE       : SPI MM1 Fluorapatite[2][all]
#DATE        : 11-MAR-2025
#TIME        : 14:38
#OWNER       : Unknown
#NPOINTS     : 4096
#NCOLUMNS    : 1
#XUNITS      : eV
#YUNITS      : counts
#DATATYPE    : Y
#XPERCHAN    : 9.99778
#OFFSET      : 1.69135
#BEAMKV      : 20
#SIGNALTYPE  : EDS
#ELEVANGLE   : 35
#AZIMANGLE   : 0
#LIVETIME    : 239.878
#REALTIME    : 255.658
#PROBECUR    : 1.02809
#TAUWIND     : 0
#TDEADLYR    : 0
#TACTLYR     : 0.045
#TALWIND     : 0.025
#CHOFFSET    : 0.0
#XLABEL      : Energy (eV)
#YLABEL      : Counts
#XPOSITION   : -2.61157
#YPOSITION   : 1.81884
#ZPOSITION   : 30.9284
#EDSDET      : SD
##SPECIMEN   : SPI MM1 Fluorapatite[2][all]
##D2STDCMP   : Fluorapatite,(O:35.868),(F:3.5492),(P:23.146),(Ca:37.4368)
##DET_HASH   : 12273538-fd48-a23f-0a19-f1e6fa85caef
##CALIB_HASH : 6abaa72c-aa41-8738-0be9-f592914732f3
##WORKING    : 15.0 mm
##DET_NAME   : EDAX All
##DET_MODE   : MediumLE
#SPECTRUM    :
16,
31,
11,
20,
100,
341,
1048,
3442,
11279,
18663,
13277,
6619,
3495,
2672,
3068,
8210,
30328,
59804,
44254,
12608,
3340,
4508,
7958,
7454,
4150,
2506,
2329,
2475,
2752,
2889,
2961,
3052,
3199,
3615,
4386,
4510,
4122,
3815,
3852,
3963,
4106,
4214,
4303,
4285,
4502,
4504,
4681,
4799,
4920,
4971,
5033,
4903,
4948,
5039,
5159,
5224,
5565,
6275,
6932,
7489,
7612,
7342,
7423,
10190,
19514,
47826,
101810,
139967,
109567,
50458,
18962,
11599,
8933,
6173,
4557,
4139,
4814,
5033,
4604,
3743,
3344,
3333,
3412,
3333,
3323,
3324,
3225,
3213,
3179,
3090,
3077,
3147,
3125,
3066,
3100,
2921,
3030,
3016,
2991,
3014,
3011,
2890,
2993,
2881,
2874,
3019,
2989,
2912,
2916,
2823,
2870,
2678,
2764,
2724,
2777,
2913,
3137,
3810,
5321,
10502,
29706,
76869,
144187,
183582,
154323,
85906,
33136,
10027,
4119,
3499,
4506,
7893,
14327,
21956,
24358,
18838,
10895,
5261,
2731,
2026,
1821,
1888,
1775,
1791,
1756,
1779,
1764,
1698,
1656,
1676,
1654,
1675,
1741,
1728,
1746,
1758,
1813,
1749,
1699,
1767,
1819,
1885,
1827,
1792,
1692,
1608,
1682,
1598,
1608,
1592,
1604,
1490,
1646,
1622,
1684,
1738,
1689,
1672,
1601,
1582,
1458,
1522,
1459,
1504,
1475,
1382,
1458,
1532,
1612,
1675,
1655,
1655,
1605,
1457,
1438,
1354,
1406,
1343,
1331,
1237,
1349,
1271,
1230,
1289,
1266,
1251,
1278,
1191,
1157,
1158,
1267,
1218,
1276,
1344,
1370,
1247,
1243,
1186,
1125,
1160,
1140,
1137,
1109,
1155,
1040,
1112,
1041,
1071,
1076,
1045,
984,
1027,
1024,
975,
1102,
1049,
986,
1041,
992,
999,
988,
932,
942,
954,
1046,
1064,
1081,
1139,
1085,
1030,
1006,
898,
930,
848,
912,
924,
903,
892,
888,
889,
871,
793,
891,
841,
837,
845,
809,
833,
765,
845,
779,
797,
712,
744,
792,
801,
756,
804,
789,
747,
734,
775,
707,
680,
709,
704,
731,
698,
667,
685,
654,
687,
647,
713,
674,
691,
644,
702,
634,
610,
662,
617,
597,
623,
583,
605,
626,
590,
614,
573,
590,
568,
561,
575,
589,
610,
551,
542,
583,
597,
591,
564,
608,
524,
497,
527,
535,
542,
529,
490,
497,
524,
474,
484,
526,
525,
491,
541,
497,
430,
531,
468,
507,
498,
455,
471,
472,
490,
496,
465,
448,
467,
414,
496,
451,
383,
433,
461,
457,
412,
418,
387,
403,
421,
406,
395,
391,
387,
417,
389,
357,
366,
402,
347,
361,
362,
374,
371,
375,
332,
339,
332,
335,
335,
314,
318,
320,
339,
306,
316,
313,
324,
333,
327,
314,
276,
314,
314,
313,
312,
291,
308,
295,
281,
289,
286,
257,
280,
256,
291,
264,
282,
245,
264,
262,
246,
271,
274,
279,
237,
244,
249,
228,
237,
239,
261,
221,
199,
240,
214,
217,
229,
225,
210,
212,
214,
181,
207,
195,
208,
211,
206,
198,
210,
189,
208,
195,
176,
185,
197,
196,
174,
180,
190,
174,
154,
178,
170,
188,
151,
181,
166,
166,
181,
176,
145,
160,
152,
171,
159,
178,
154,
160,
156,
149,
146,
136,
129,
151,
145,
127,
139,
146,
109,
131,
121,
125,
121,
121,
117,
125,
103,
127,
116,
104,
118,
107,
86,
113,
111,
103,
100,
108,
98,
91,
86,
105,
100,
99,
113,
78,
98,
101,
81,
73,
82,
71,
57,
85,
87,
79,
81,
75,
63,
87,
80,
61,
80,
70,
62,
71,
65,
75,
86,
68,
72,
63,
45,
66,
51,
68,
66,
71,
47,
47,
60,
52,
62,
70,
41,
41,
57,
53,
47,
44,
45,
51,
58,
33,
46,
38,
52,
52,
58,
51,
40,
41,
43,
35,
34,
44,
27,
30,
33,
34,
49,
38,
37,
32,
39,
32,
29,
23,
34,
34,
24,
37,
28,
36,
23,
29,
25,
33,
21,
23,
31,
14,
22,
24,
19,
26,
38,
23,
17,
26,
17,
16,
14,
18,
17,
21,
19,
16,
20,
16,
19,
12,
9,
17,
14,
13,
12,
16,
14,
8,
12,
11,
10,
17,
16,
8,
11,
8,
11,
13,
6,
5,
9,
9,
6,
6,
4,
8,
5,
6,
2,
2,
7,
4,
5,
3,
1,
4,
5,
3,
1,
2,
3,
4,
4,
3,
3,
2,
1,
0,
0,
2,
1,
0,
0,
1,
0,
1,
0,
0,
0,
1,
0,
0,
0,
0,
0,
0,
0,
2,
0,
0,
0,
2,
0,
1,
0,
0,
1,
1,
0,
0,
1,
1,
0,
0,
0,
0,
0,
0,
0,
0,
0,
0,
1,
1,
2,
0,
0,
0,
0,
0,
0,
0,
0,
0,
0,
0,
1,
0,
0,
0,
0,
0,
0,
0,
0,
0,
0,
0,
0,
0,
0,
0,
1,
0,
0,
0,
0,
1,
0,
0,
0,
0,
0,
0,
1,
0,
0,
0,
0,
0,
0,
0,
0,
0,
0,
0,
0,
0,
0,
0,
0,
0,
0,
0,
0,
0,
0,
0,
0,
0,
0,
0,
0,
0,
0,
0,
0,
0,
0,
0,
0,
0,
0,
0,
0,
0,
0,
0,
0,
0,
0,
0,
0,
0,
0,
0,
0,
0,
0,
0,
0,
0,
1,
0,
0,
0,
0,
0,
0,
0,
0,
0,
0,
0,
0,
0,
0,
0,
0,
0,
0,
0,
0,
0,
0,
0,
1,
0,
0,
0,
1,
0,
0,
0,
0,
0,
0,
0,
0,
0,
0,
0,
0,
0,
0,
0,
0,
0,
0,
0,
0,
0,
0,
0,
0,
0,
0,
0,
0,
0,
0,
0,
0,
0,
0,
0,
0,
0,
0,
0,
0,
0,
0,
0,
0,
0,
0,
0,
0,
0,
0,
0,
0,
0,
0,
0,
0,
0,
0,
0,
0,
0,
0,
0,
0,
0,
0,
0,
0,
0,
0,
0,
0,
0,
0,
0,
0,
0,
0,
0,
0,
0,
0,
0,
0,
0,
0,
0,
0,
0,
0,
0,
0,
0,
0,
0,
0,
0,
0,
0,
0,
0,
0,
0,
0,
0,
0,
0,
0,
0,
0,
0,
0,
0,
0,
0,
0,
0,
0,
0,
0,
0,
0,
0,
0,
0,
0,
0,
0,
0,
0,
0,
0,
0,
0,
0,
0,
0,
0,
0,
0,
0,
0,
0,
0,
0,
0,
0,
0,
0,
0,
0,
0,
0,
0,
0,
0,
0,
0,
0,
0,
0,
0,
0,
0,
0,
0,
0,
0,
0,
0,
0,
0,
0,
0,
0,
0,
0,
0,
0,
0,
0,
0,
0,
0,
0,
0,
0,
0,
0,
0,
0,
0,
0,
0,
0,
0,
0,
0,
0,
0,
0,
0,
0,
0,
0,
0,
0,
0,
0,
0,
0,
0,
0,
0,
0,
0,
0,
0,
0,
0,
0,
0,
0,
0,
0,
0,
0,
0,
0,
0,
0,
0,
0,
0,
0,
0,
0,
0,
0,
0,
0,
0,
0,
0,
0,
0,
0,
0,
0,
0,
0,
0,
0,
0,
0,
0,
0,
0,
0,
0,
0,
0,
0,
0,
0,
0,
0,
0,
0,
0,
0,
0,
0,
0,
0,
0,
0,
0,
0,
0,
0,
0,
0,
0,
0,
0,
0,
0,
0,
0,
0,
0,
0,
0,
0,
0,
0,
0,
0,
0,
0,
0,
0,
0,
0,
0,
0,
0,
0,
0,
0,
0,
0,
0,
0,
0,
0,
0,
0,
0,
0,
0,
0,
0,
0,
0,
0,
0,
0,
0,
0,
0,
0,
0,
0,
0,
0,
0,
0,
0,
0,
0,
0,
0,
0,
0,
0,
0,
0,
0,
0,
0,
0,
0,
0,
0,
0,
0,
0,
0,
0,
0,
0,
0,
0,
0,
0,
0,
0,
0,
0,
0,
0,
0,
0,
0,
0,
0,
0,
0,
0,
0,
0,
0,
0,
0,
0,
0,
0,
0,
0,
0,
0,
0,
0,
0,
0,
0,
0,
0,
0,
0,
0,
0,
0,
0,
0,
0,
0,
0,
0,
0,
0,
0,
0,
0,
0,
0,
0,
0,
0,
0,
0,
0,
0,
0,
0,
0,
0,
0,
0,
0,
0,
0,
0,
0,
0,
0,
0,
0,
0,
0,
0,
0,
0,
0,
0,
0,
0,
0,
0,
0,
0,
0,
0,
0,
0,
0,
0,
0,
0,
0,
0,
0,
0,
0,
0,
0,
0,
0,
0,
0,
0,
0,
0,
0,
0,
0,
0,
0,
0,
0,
0,
0,
0,
0,
0,
0,
0,
0,
0,
0,
0,
0,
0,
0,
0,
0,
0,
0,
0,
0,
0,
0,
0,
0,
0,
0,
0,
0,
0,
0,
0,
0,
0,
0,
0,
0,
0,
0,
0,
0,
0,
0,
0,
0,
0,
0,
#ENDOFDATA   :