File: N132962/Quantification/MMM1/SPI MM1 Crocoite[5][4].msa
#FORMAT      : EMSA/MAS Spectral Data File
#VERSION     : 1.0
#TITLE       : SPI MM1dup Crocoite[5][all]
#DATE        : 12-MAR-2025
#TIME        : 13:55
#OWNER       : Unknown
#NPOINTS     : 4096
#NCOLUMNS    : 1
#XUNITS      : eV
#YUNITS      : counts
#DATATYPE    : Y
#XPERCHAN    : 9.99778
#OFFSET      : 1.69135
#BEAMKV      : 20
#SIGNALTYPE  : EDS
#ELEVANGLE   : 35
#AZIMANGLE   : 0
#LIVETIME    : 239.797
#REALTIME    : 261.936
#PROBECUR    : 1.02627
#TAUWIND     : 0
#TDEADLYR    : 0
#TACTLYR     : 0.045
#TALWIND     : 0.025
#CHOFFSET    : 0.0
#XLABEL      : Energy (eV)
#YLABEL      : Counts
#XPOSITION   : -1.14413
#YPOSITION   : -0.60928
#ZPOSITION   : 31.03608
#EDSDET      : SD
##SPECIMEN   : SPI MM1dup Crocoite[5][all]
##DET_HASH   : 12273538-fd48-a23f-0a19-f1e6fa85caef
##CALIB_HASH : 6abaa72c-aa41-8738-0be9-f592914732f3
##WORKING    : 15.0 mm
##DET_NAME   : EDAX All
##DET_MODE   : MediumLE
#SPECTRUM    :
22,
19,
6,
47,
272,
1170,
3371,
7646,
16441,
20456,
11244,
6020,
5368,
5399,
6635,
13192,
37396,
65209,
51128,
22095,
11132,
6878,
5673,
6285,
6068,
4909,
4783,
4915,
5227,
5462,
5476,
5487,
5635,
5607,
5932,
6061,
6335,
6319,
6622,
6712,
6883,
7088,
7230,
7437,
7577,
7748,
7947,
8139,
8085,
8559,
8533,
8566,
8420,
8472,
8572,
8770,
9191,
9700,
10923,
12911,
16418,
17928,
15300,
11176,
9364,
8656,
8415,
8418,
8293,
8493,
8817,
9648,
10733,
11697,
13516,
21414,
49005,
105240,
155250,
148935,
119140,
108386,
92474,
55247,
23578,
10113,
7860,
9431,
11177,
10721,
8542,
6306,
5292,
4917,
5059,
5206,
5452,
5461,
5549,
5488,
5805,
6222,
6696,
6667,
6582,
5821,
5414,
5169,
4844,
4888,
4682,
4780,
4660,
4841,
4765,
4840,
4779,
4845,
4853,
4709,
4852,
4889,
4886,
4891,
4904,
4722,
4881,
4774,
4621,
4562,
4515,
4457,
4513,
4425,
4484,
4449,
4430,
4458,
4430,
4566,
4704,
4504,
4623,
4438,
4545,
4548,
4454,
4287,
4416,
4432,
4355,
4424,
4425,
4268,
4359,
4542,
4587,
4547,
4451,
4609,
4436,
4365,
4284,
4252,
4271,
4249,
4195,
4228,
4155,
4123,
4285,
4150,
4281,
4244,
4346,
4938,
6556,
11677,
22020,
36640,
45994,
44765,
32621,
18488,
9496,
5520,
4228,
3984,
3917,
3878,
3942,
3890,
4027,
4087,
4476,
5307,
6608,
8494,
9461,
8926,
7172,
5476,
4351,
3724,
3554,
3475,
3485,
3454,
3467,
3399,
3443,
3621,
3770,
3801,
3750,
3562,
3422,
3374,
3323,
3343,
3256,
3127,
3289,
3194,
3009,
3130,
3153,
3014,
3086,
3161,
3026,
3087,
2993,
3092,
3123,
3088,
3080,
2923,
3007,
2989,
2963,
2977,
2881,
2905,
2884,
2979,
2969,
3005,
2960,
3047,
2994,
2873,
2824,
2803,
2723,
2662,
2674,
2734,
2776,
2702,
2670,
2756,
2735,
2694,
2591,
2576,
2484,
2593,
2618,
2565,
2616,
2560,
2484,
2493,
2485,
2477,
2521,
2408,
2403,
2396,
2425,
2368,
2401,
2311,
2443,
2283,
2330,
2282,
2319,
2301,
2332,
2311,
2226,
2215,
2220,
2252,
2238,
2188,
2181,
2196,
2140,
2285,
2300,
2347,
2499,
2610,
2638,
2615,
2523,
2282,
2259,
2190,
2094,
2053,
2077,
1971,
2027,
2001,
1949,
2006,
1928,
1911,
1915,
1867,
1885,
1933,
1921,
1890,
1840,
1857,
1921,
1857,
1820,
1779,
1809,
1799,
1703,
1741,
1793,
1726,
1746,
1759,
1771,
1888,
2105,
2470,
3052,
4297,
6018,
8063,
9899,
11152,
11096,
9318,
6938,
4852,
3257,
2245,
1860,
1650,
1659,
1519,
1503,
1507,
1506,
1519,
1469,
1473,
1508,
1389,
1439,
1370,
1435,
1468,
1435,
1429,
1412,
1457,
1382,
1411,
1425,
1369,
1421,
1311,
1276,
1322,
1259,
1221,
1333,
1258,
1210,
1209,
1239,
1278,
1239,
1213,
1146,
1178,
1169,
1170,
1167,
1155,
1222,
1239,
1202,
1216,
1249,
1221,
1222,
1176,
1179,
1190,
1192,
1210,
1370,
1662,
1957,
2638,
3555,
4299,
4565,
4425,
3897,
3089,
2356,
1758,
1445,
1276,
1133,
1134,
1093,
1082,
1078,
1124,
1104,
1029,
932,
876,
886,
824,
831,
789,
775,
754,
782,
781,
741,
761,
757,
785,
771,
743,
750,
722,
685,
784,
691,
685,
726,
671,
600,
669,
670,
690,
663,
657,
572,
618,
651,
633,
630,
603,
575,
638,
625,
614,
570,
583,
564,
552,
554,
538,
526,
516,
556,
570,
568,
603,
687,
714,
788,
806,
826,
765,
721,
666,
587,
581,
544,
474,
520,
480,
515,
517,
515,
526,
481,
489,
470,
446,
416,
456,
446,
421,
432,
375,
367,
390,
418,
361,
363,
348,
366,
381,
368,
333,
390,
340,
317,
358,
335,
329,
347,
329,
348,
314,
286,
295,
300,
316,
304,
295,
260,
294,
273,
244,
283,
292,
262,
265,
221,
238,
277,
244,
263,
228,
248,
252,
238,
230,
218,
252,
221,
205,
193,
213,
231,
205,
201,
195,
198,
177,
196,
207,
182,
174,
201,
183,
178,
168,
180,
172,
177,
173,
166,
129,
164,
160,
154,
151,
127,
158,
147,
147,
130,
157,
153,
124,
112,
124,
134,
120,
135,
117,
116,
116,
129,
108,
116,
80,
107,
112,
92,
87,
95,
90,
103,
83,
86,
82,
85,
100,
63,
75,
75,
61,
73,
63,
42,
59,
62,
50,
64,
60,
60,
62,
56,
41,
48,
36,
44,
38,
46,
34,
39,
37,
37,
35,
36,
26,
36,
22,
32,
25,
27,
16,
27,
24,
9,
14,
10,
12,
7,
8,
8,
10,
6,
6,
4,
4,
4,
7,
5,
4,
1,
6,
5,
5,
2,
1,
2,
6,
1,
4,
3,
2,
4,
6,
2,
1,
5,
2,
0,
2,
6,
3,
2,
2,
3,
4,
3,
4,
3,
1,
5,
1,
3,
3,
1,
2,
1,
0,
2,
4,
5,
0,
3,
2,
3,
1,
2,
3,
1,
3,
4,
3,
2,
2,
0,
2,
2,
2,
3,
2,
4,
2,
3,
1,
2,
0,
4,
1,
1,
3,
1,
4,
0,
2,
1,
1,
2,
0,
1,
2,
2,
2,
3,
2,
0,
2,
3,
0,
2,
2,
1,
2,
2,
2,
1,
2,
2,
1,
2,
4,
3,
4,
1,
2,
2,
0,
0,
2,
1,
0,
1,
0,
1,
0,
1,
1,
2,
0,
1,
0,
0,
0,
1,
1,
2,
2,
0,
3,
0,
2,
1,
1,
2,
1,
0,
0,
0,
2,
1,
0,
0,
0,
1,
3,
2,
0,
0,
0,
0,
1,
1,
2,
3,
1,
0,
0,
1,
2,
0,
2,
1,
2,
2,
0,
2,
0,
2,
3,
1,
0,
1,
1,
2,
0,
1,
1,
0,
0,
1,
0,
0,
0,
0,
0,
3,
0,
1,
1,
1,
1,
1,
2,
0,
2,
1,
1,
1,
2,
0,
0,
0,
1,
0,
0,
0,
1,
0,
1,
1,
0,
2,
1,
0,
0,
0,
1,
0,
0,
0,
0,
0,
0,
0,
1,
0,
0,
1,
0,
0,
1,
0,
0,
2,
0,
0,
0,
0,
0,
0,
1,
0,
0,
0,
0,
0,
1,
0,
0,
0,
1,
0,
0,
0,
0,
0,
0,
0,
0,
0,
0,
0,
0,
0,
0,
0,
1,
0,
0,
0,
0,
1,
2,
0,
1,
0,
0,
0,
0,
0,
0,
0,
1,
0,
0,
0,
0,
0,
0,
0,
0,
1,
0,
1,
1,
0,
1,
0,
1,
0,
0,
0,
0,
0,
1,
0,
0,
0,
0,
0,
0,
0,
0,
0,
0,
0,
0,
0,
0,
0,
0,
0,
0,
0,
0,
1,
0,
0,
0,
0,
0,
0,
0,
0,
0,
1,
0,
1,
0,
0,
0,
0,
0,
0,
0,
0,
0,
0,
0,
0,
0,
0,
0,
0,
0,
0,
0,
0,
0,
0,
0,
0,
0,
0,
0,
0,
0,
0,
0,
0,
0,
0,
0,
0,
0,
0,
0,
0,
0,
0,
0,
0,
0,
1,
0,
0,
0,
0,
0,
0,
0,
0,
1,
0,
0,
0,
0,
0,
0,
0,
0,
0,
0,
0,
0,
0,
0,
1,
0,
0,
0,
0,
0,
0,
0,
0,
0,
0,
0,
0,
0,
0,
0,
0,
0,
0,
0,
0,
0,
0,
0,
0,
0,
0,
1,
0,
0,
0,
0,
0,
0,
0,
0,
0,
0,
0,
0,
0,
0,
0,
0,
0,
0,
0,
0,
0,
0,
0,
0,
0,
0,
0,
0,
0,
0,
0,
0,
0,
0,
0,
0,
0,
0,
0,
0,
0,
0,
0,
0,
0,
0,
0,
0,
0,
0,
0,
0,
0,
0,
0,
0,
0,
0,
0,
0,
0,
0,
0,
0,
0,
0,
0,
0,
0,
0,
0,
0,
0,
0,
0,
0,
0,
0,
0,
0,
0,
0,
0,
0,
0,
0,
0,
0,
0,
0,
0,
0,
0,
0,
0,
0,
0,
0,
0,
0,
0,
0,
0,
0,
0,
0,
0,
0,
0,
0,
0,
0,
0,
0,
0,
0,
0,
0,
0,
0,
0,
0,
0,
0,
0,
0,
0,
0,
0,
0,
0,
0,
0,
0,
0,
0,
0,
0,
0,
0,
0,
0,
0,
0,
0,
0,
0,
0,
0,
0,
0,
0,
0,
0,
0,
0,
0,
0,
0,
0,
0,
0,
0,
0,
0,
0,
0,
0,
0,
0,
0,
0,
0,
0,
0,
0,
0,
0,
0,
0,
0,
0,
0,
0,
0,
0,
0,
0,
0,
0,
0,
0,
0,
0,
0,
0,
0,
0,
0,
0,
0,
0,
0,
0,
0,
0,
0,
0,
0,
0,
0,
0,
0,
0,
0,
0,
0,
0,
0,
0,
0,
0,
0,
0,
0,
0,
0,
0,
0,
0,
0,
0,
0,
0,
0,
0,
0,
0,
0,
0,
0,
0,
0,
0,
0,
0,
0,
0,
0,
0,
0,
0,
0,
0,
0,
0,
0,
0,
#ENDOFDATA   :