File: N132962/Quantification/MMM1/SPI MM1 Arsenopyrite[6][4].msa
#FORMAT      : EMSA/MAS Spectral Data File
#VERSION     : 1.0
#TITLE       : SPI MM1 Arsenopyrite[6][all]
#DATE        : 11-MAR-2025
#TIME        : 13:41
#OWNER       : Unknown
#NPOINTS     : 4096
#NCOLUMNS    : 1
#XUNITS      : eV
#YUNITS      : counts
#DATATYPE    : Y
#XPERCHAN    : 9.99778
#OFFSET      : 1.69135
#BEAMKV      : 20
#SIGNALTYPE  : EDS
#ELEVANGLE   : 35
#AZIMANGLE   : 0
#LIVETIME    : 239.824
#REALTIME    : 260.777
#PROBECUR    : 1.02853
#TAUWIND     : 0
#TDEADLYR    : 0
#TACTLYR     : 0.045
#TALWIND     : 0.025
#CHOFFSET    : 0.0
#XLABEL      : Energy (eV)
#YLABEL      : Counts
#XPOSITION   : 2.10717
#YPOSITION   : -4.99533
#ZPOSITION   : 30.9284
#EDSDET      : SD
##SPECIMEN   : SPI MM1 Arsenopyrite[6][all]
##D2STDCMP   : Arsenopyrite,(S:19.6897),(Fe:34.2972),(As:46.0131),6.0
##DET_HASH   : 12273538-fd48-a23f-0a19-f1e6fa85caef
##CALIB_HASH : 6abaa72c-aa41-8738-0be9-f592914732f3
##WORKING    : 15.0 mm
##DET_NAME   : EDAX All
##DET_MODE   : MediumLE
#SPECTRUM    :
31,
19,
12,
33,
144,
517,
1172,
3485,
10045,
13425,
6797,
2950,
2824,
3103,
3353,
3924,
4988,
6319,
8682,
12706,
17327,
19826,
32544,
55854,
46602,
18467,
6970,
5170,
4831,
4854,
4908,
5079,
5411,
5533,
5973,
7083,
10104,
13784,
14535,
12778,
18958,
59266,
146178,
197460,
146641,
64673,
20658,
8138,
5145,
4418,
4334,
4394,
4202,
4146,
4082,
4287,
4482,
4861,
5029,
5173,
5020,
4822,
4617,
4585,
4550,
4622,
4778,
4832,
4830,
4965,
4929,
5198,
6122,
9038,
18363,
45304,
90453,
112368,
82508,
37246,
14984,
11689,
12844,
11306,
7829,
5492,
4786,
4473,
4277,
4250,
4251,
4225,
4342,
4180,
4266,
4156,
4251,
4230,
4204,
4300,
4348,
4282,
4302,
4243,
4119,
4152,
4105,
4058,
4128,
4060,
4095,
4075,
4058,
4170,
4034,
4047,
4105,
4103,
4204,
4280,
4231,
4246,
4013,
4025,
4016,
3992,
3911,
3890,
3844,
3921,
3804,
3844,
3634,
3747,
3756,
3756,
3730,
3661,
3531,
3691,
3701,
3642,
3639,
3635,
3498,
3550,
3524,
3563,
3512,
3563,
3500,
3585,
3513,
3622,
3644,
3725,
3660,
3473,
3446,
3360,
3197,
3298,
3308,
3317,
3216,
3208,
3142,
3178,
3014,
3074,
3184,
3126,
2952,
3023,
2969,
3096,
2986,
2960,
2980,
2998,
2799,
2870,
2938,
2860,
2872,
2854,
2851,
2792,
2673,
2843,
2764,
2669,
2653,
2625,
2728,
2667,
2617,
2564,
2603,
2610,
2583,
2637,
2666,
2654,
2629,
2606,
2783,
3103,
4577,
8916,
19823,
38408,
60153,
73979,
68957,
50446,
28420,
13414,
5806,
3237,
2458,
2284,
2311,
2244,
2151,
2384,
2285,
2266,
2285,
2498,
2785,
3661,
5116,
7720,
10132,
11315,
10314,
7939,
5269,
3373,
2349,
1948,
1769,
1731,
1883,
1843,
1832,
1892,
1914,
1865,
1906,
1875,
1828,
1795,
1728,
1825,
1783,
1764,
1745,
1826,
1666,
1659,
1608,
1622,
1699,
1555,
1582,
1711,
1587,
1585,
1544,
1559,
1557,
1536,
1522,
1550,
1540,
1488,
1483,
1517,
1561,
1471,
1483,
1423,
1403,
1474,
1508,
1474,
1423,
1422,
1442,
1441,
1429,
1397,
1367,
1384,
1373,
1247,
1324,
1283,
1306,
1299,
1305,
1232,
1244,
1167,
1263,
1299,
1211,
1185,
1206,
1257,
1271,
1330,
1211,
1181,
1199,
1219,
1185,
1190,
1183,
1227,
1155,
1088,
1104,
1150,
1153,
1165,
1097,
1072,
1058,
1107,
1083,
1072,
1094,
1075,
1079,
1068,
1112,
1088,
1088,
1073,
1055,
1134,
1424,
2140,
3565,
6429,
10053,
14189,
17493,
18497,
16548,
12392,
8317,
4961,
2797,
1674,
1131,
993,
944,
927,
870,
851,
879,
862,
838,
848,
857,
861,
799,
831,
834,
883,
832,
826,
815,
854,
778,
816,
733,
816,
811,
816,
846,
955,
1227,
1646,
2223,
2702,
3067,
3029,
2794,
2269,
1780,
1247,
969,
826,
776,
685,
631,
646,
647,
593,
599,
593,
607,
583,
572,
552,
610,
589,
552,
542,
575,
544,
544,
519,
517,
562,
483,
522,
568,
546,
564,
590,
548,
556,
586,
527,
528,
472,
475,
518,
519,
499,
474,
438,
500,
439,
467,
429,
451,
431,
394,
397,
462,
388,
405,
411,
435,
423,
434,
401,
404,
385,
395,
402,
360,
383,
355,
363,
360,
334,
384,
369,
353,
364,
343,
324,
330,
327,
308,
328,
346,
337,
319,
262,
304,
318,
309,
279,
285,
307,
276,
281,
284,
291,
256,
280,
269,
296,
285,
278,
275,
262,
242,
248,
254,
256,
218,
223,
256,
212,
227,
246,
213,
236,
205,
210,
204,
216,
236,
217,
227,
206,
193,
194,
198,
193,
207,
159,
185,
185,
178,
173,
193,
170,
167,
172,
170,
175,
167,
174,
171,
169,
174,
153,
156,
145,
151,
158,
164,
140,
130,
132,
150,
143,
137,
124,
116,
119,
121,
141,
130,
127,
117,
122,
115,
122,
129,
112,
131,
128,
146,
125,
123,
119,
121,
98,
74,
117,
111,
85,
95,
107,
86,
93,
77,
92,
97,
77,
99,
87,
72,
87,
71,
73,
76,
72,
75,
84,
61,
72,
66,
53,
63,
58,
52,
69,
62,
77,
56,
64,
66,
58,
48,
45,
50,
51,
53,
55,
46,
49,
37,
34,
53,
38,
40,
30,
35,
38,
34,
34,
29,
26,
24,
29,
27,
27,
28,
25,
27,
32,
32,
30,
27,
20,
16,
23,
21,
20,
21,
20,
16,
22,
17,
15,
6,
20,
12,
8,
9,
7,
7,
5,
7,
8,
6,
5,
11,
8,
9,
3,
6,
3,
5,
3,
4,
4,
1,
0,
1,
5,
1,
1,
2,
1,
3,
4,
1,
2,
1,
0,
2,
2,
2,
1,
1,
3,
2,
2,
1,
1,
2,
1,
3,
3,
3,
4,
3,
2,
2,
5,
3,
4,
0,
2,
2,
0,
1,
2,
1,
1,
0,
1,
1,
1,
0,
2,
1,
1,
2,
3,
2,
2,
1,
0,
3,
2,
0,
1,
0,
1,
1,
2,
1,
0,
1,
1,
0,
1,
1,
0,
1,
1,
0,
0,
0,
0,
2,
1,
1,
1,
0,
2,
1,
1,
1,
0,
0,
2,
2,
1,
3,
1,
0,
1,
2,
1,
0,
0,
1,
1,
0,
2,
1,
0,
0,
1,
1,
0,
0,
2,
0,
0,
0,
1,
0,
0,
0,
0,
1,
0,
0,
0,
0,
1,
0,
0,
0,
0,
0,
0,
0,
2,
1,
0,
0,
0,
0,
0,
1,
1,
0,
0,
0,
2,
0,
0,
0,
0,
1,
0,
1,
0,
0,
1,
2,
0,
0,
0,
0,
0,
0,
0,
1,
0,
0,
1,
0,
0,
0,
0,
1,
0,
0,
0,
1,
0,
1,
1,
1,
0,
0,
0,
2,
1,
0,
0,
0,
0,
0,
1,
0,
1,
0,
0,
1,
0,
0,
0,
1,
2,
0,
0,
1,
0,
0,
0,
2,
0,
0,
0,
0,
1,
1,
0,
0,
0,
0,
1,
0,
0,
0,
0,
0,
0,
0,
0,
0,
0,
1,
0,
0,
0,
0,
1,
0,
0,
0,
0,
0,
0,
0,
0,
0,
0,
0,
1,
0,
0,
0,
0,
0,
0,
0,
0,
0,
0,
0,
0,
0,
0,
0,
0,
0,
0,
0,
1,
0,
0,
0,
0,
0,
0,
0,
0,
0,
0,
0,
0,
0,
0,
0,
0,
0,
0,
1,
0,
0,
0,
0,
0,
0,
0,
0,
0,
0,
0,
0,
0,
0,
0,
0,
0,
0,
0,
0,
0,
0,
1,
0,
0,
0,
1,
0,
0,
0,
0,
0,
0,
0,
0,
0,
0,
0,
0,
0,
0,
0,
0,
0,
0,
0,
0,
0,
0,
0,
0,
0,
0,
0,
0,
0,
0,
0,
0,
0,
0,
0,
0,
0,
0,
0,
0,
0,
0,
0,
0,
0,
0,
0,
0,
0,
0,
0,
0,
0,
0,
0,
0,
0,
0,
0,
0,
0,
0,
0,
0,
0,
0,
0,
0,
0,
0,
0,
0,
0,
0,
0,
0,
0,
0,
0,
0,
0,
0,
0,
0,
0,
0,
0,
0,
0,
0,
0,
0,
0,
0,
0,
0,
0,
0,
0,
0,
0,
0,
0,
0,
0,
0,
0,
0,
0,
0,
0,
0,
0,
0,
0,
0,
0,
0,
0,
0,
0,
0,
0,
0,
0,
0,
0,
0,
0,
0,
0,
0,
0,
0,
0,
0,
0,
0,
0,
0,
0,
0,
0,
0,
0,
0,
0,
0,
0,
0,
0,
0,
0,
0,
0,
0,
0,
0,
0,
0,
0,
0,
0,
0,
0,
0,
0,
0,
0,
0,
0,
0,
0,
0,
0,
0,
0,
0,
0,
0,
0,
0,
0,
0,
0,
0,
0,
0,
0,
0,
0,
0,
0,
0,
0,
0,
0,
0,
0,
0,
0,
0,
0,
0,
0,
0,
0,
0,
0,
0,
0,
0,
0,
0,
0,
0,
0,
0,
0,
0,
0,
0,
0,
0,
0,
0,
0,
0,
0,
0,
0,
0,
0,
0,
0,
0,
0,
0,
0,
0,
0,
0,
0,
0,
0,
0,
0,
0,
0,
0,
0,
0,
0,
0,
0,
0,
0,
0,
0,
0,
0,
0,
0,
0,
0,
0,
0,
0,
0,
0,
0,
0,
0,
0,
0,
0,
0,
0,
0,
0,
0,
0,
0,
0,
0,
0,
0,
0,
0,
0,
0,
0,
0,
0,
0,
0,
0,
0,
0,
0,
0,
0,
0,
0,
0,
0,
0,
0,
0,
0,
0,
0,
0,
0,
0,
0,
0,
0,
0,
0,
0,
0,
0,
0,
0,
0,
0,
0,
0,
0,
0,
0,
0,
0,
0,
0,
0,
0,
0,
0,
0,
0,
0,
0,
0,
0,
0,
0,
0,
0,
0,
0,
0,
0,
0,
0,
0,
0,
0,
0,
0,
0,
0,
0,
0,
0,
0,
0,
0,
0,
0,
0,
0,
0,
0,
0,
0,
0,
0,
0,
#ENDOFDATA   :