File: N132962/Quantification/MMM1/SPI MM1 Kaersutite[1][4].msa
#FORMAT      : EMSA/MAS Spectral Data File
#VERSION     : 1.0
#TITLE       : SPI MM1dup Kaersutite[1][all]
#DATE        : 12-MAR-2025
#TIME        : 16:21
#OWNER       : Unknown
#NPOINTS     : 4096
#NCOLUMNS    : 1
#XUNITS      : eV
#YUNITS      : counts
#DATATYPE    : Y
#XPERCHAN    : 9.99778
#OFFSET      : 1.69135
#BEAMKV      : 20
#SIGNALTYPE  : EDS
#ELEVANGLE   : 35
#AZIMANGLE   : 0
#LIVETIME    : 239.871
#REALTIME    : 254.497
#PROBECUR    : 1.02709
#TAUWIND     : 0
#TDEADLYR    : 0
#TACTLYR     : 0.045
#TALWIND     : 0.025
#CHOFFSET    : 0.0
#XLABEL      : Energy (eV)
#YLABEL      : Counts
#XPOSITION   : -1.60494
#YPOSITION   : 3.57862
#ZPOSITION   : 31.03608
#EDSDET      : SD
##SPECIMEN   : SPI MM1dup Kaersutite[1][all]
##DET_HASH   : 12273538-fd48-a23f-0a19-f1e6fa85caef
##CALIB_HASH : 6abaa72c-aa41-8738-0be9-f592914732f3
##WORKING    : 15.0 mm
##DET_NAME   : EDAX All
##DET_MODE   : MediumLE
#SPECTRUM    :
20,
28,
9,
14,
58,
269,
808,
2622,
7770,
10535,
6552,
3609,
3235,
3864,
5785,
17508,
65110,
128421,
93868,
25127,
4891,
3307,
5063,
8226,
7684,
4418,
2682,
2428,
2502,
2590,
2670,
2849,
3580,
6074,
11020,
11806,
7435,
4649,
4290,
6829,
19441,
44962,
53913,
31685,
11269,
5215,
4969,
9188,
25554,
48786,
49930,
27259,
10664,
5682,
5355,
11795,
42221,
106625,
144120,
102603,
42124,
15449,
7725,
4625,
3388,
3135,
3070,
3002,
2837,
2771,
2791,
2739,
2728,
2749,
2949,
3063,
3038,
2982,
2968,
2797,
2656,
2789,
2698,
2754,
2719,
2745,
2722,
2887,
2735,
2752,
2606,
2800,
2788,
2691,
2712,
2547,
2553,
2621,
2553,
2636,
2654,
2568,
2524,
2448,
2518,
2413,
2597,
2723,
3503,
4818,
6359,
6205,
4961,
3349,
2573,
2504,
2547,
2676,
3075,
4339,
8098,
17684,
31208,
38945,
33083,
19211,
8412,
3732,
2341,
2249,
2439,
3089,
4329,
5963,
6488,
5519,
3709,
2592,
2014,
1875,
1840,
1901,
1801,
1726,
1872,
1820,
2189,
3232,
5508,
9363,
11767,
11034,
7836,
4498,
2545,
1863,
1627,
1671,
1617,
1501,
1649,
1860,
2134,
2692,
2888,
2891,
2523,
1974,
1611,
1543,
1411,
1475,
1503,
1468,
1458,
1404,
1378,
1436,
1429,
1369,
1372,
1415,
1415,
1369,
1320,
1257,
1291,
1229,
1315,
1170,
1263,
1256,
1286,
1270,
1349,
1379,
1417,
1451,
1402,
1208,
1223,
1150,
1235,
1230,
1164,
1210,
1199,
1251,
1632,
2616,
4973,
8976,
13824,
16800,
16021,
11737,
6986,
3562,
1825,
1251,
1095,
1057,
1029,
1035,
978,
979,
970,
1029,
1008,
1065,
1110,
1285,
1631,
2048,
2722,
2835,
2764,
2173,
1609,
1136,
981,
856,
847,
880,
803,
818,
814,
871,
838,
857,
823,
794,
789,
733,
844,
693,
826,
774,
713,
772,
784,
733,
713,
755,
744,
800,
741,
716,
667,
691,
710,
703,
686,
679,
696,
677,
726,
700,
636,
653,
667,
611,
609,
642,
654,
612,
612,
638,
616,
614,
604,
570,
631,
546,
623,
596,
593,
578,
583,
562,
577,
563,
560,
587,
533,
525,
534,
532,
510,
495,
531,
550,
513,
523,
512,
488,
496,
510,
517,
507,
489,
502,
495,
499,
423,
446,
482,
479,
417,
495,
438,
466,
419,
427,
433,
394,
464,
414,
433,
453,
454,
453,
409,
423,
413,
377,
407,
392,
421,
376,
373,
404,
366,
408,
365,
357,
374,
327,
424,
353,
390,
379,
346,
349,
353,
363,
354,
322,
351,
335,
342,
333,
298,
312,
332,
290,
329,
284,
311,
313,
271,
313,
316,
296,
281,
271,
306,
284,
288,
276,
272,
275,
300,
251,
277,
275,
252,
269,
252,
265,
245,
240,
221,
266,
251,
226,
275,
219,
244,
237,
235,
215,
230,
236,
235,
211,
222,
202,
193,
180,
212,
227,
210,
189,
202,
212,
215,
207,
186,
195,
196,
178,
189,
191,
198,
177,
198,
175,
170,
186,
172,
176,
164,
160,
184,
154,
159,
163,
145,
163,
160,
154,
141,
128,
127,
157,
134,
151,
123,
136,
127,
124,
159,
123,
144,
125,
127,
115,
143,
118,
134,
120,
130,
108,
113,
127,
109,
99,
115,
104,
92,
114,
120,
98,
108,
99,
102,
102,
103,
103,
99,
114,
85,
109,
106,
110,
94,
85,
98,
87,
83,
83,
85,
82,
99,
77,
74,
79,
85,
82,
84,
76,
81,
69,
93,
73,
64,
81,
57,
64,
61,
59,
74,
73,
66,
77,
61,
62,
61,
68,
52,
53,
61,
57,
46,
62,
57,
59,
51,
60,
54,
49,
54,
34,
61,
57,
51,
46,
54,
50,
37,
44,
42,
54,
25,
41,
38,
33,
40,
39,
35,
26,
36,
37,
38,
29,
33,
33,
32,
29,
30,
35,
24,
30,
38,
22,
31,
23,
32,
24,
20,
28,
35,
24,
24,
29,
21,
18,
15,
21,
21,
25,
18,
24,
29,
25,
19,
14,
19,
22,
27,
16,
23,
25,
17,
17,
14,
15,
15,
21,
16,
20,
18,
11,
11,
13,
17,
8,
12,
18,
8,
10,
8,
6,
9,
5,
10,
10,
9,
4,
7,
11,
8,
3,
11,
7,
4,
8,
12,
6,
3,
10,
6,
4,
7,
6,
3,
4,
5,
2,
3,
4,
3,
0,
2,
3,
3,
2,
3,
0,
3,
1,
1,
0,
0,
0,
0,
0,
1,
0,
0,
0,
0,
0,
0,
0,
1,
0,
0,
0,
0,
0,
0,
0,
0,
0,
0,
1,
0,
0,
0,
0,
0,
0,
0,
0,
1,
0,
0,
0,
0,
0,
0,
0,
0,
0,
0,
0,
0,
0,
0,
1,
0,
0,
0,
0,
0,
0,
0,
0,
0,
0,
0,
0,
0,
0,
0,
0,
0,
0,
0,
0,
0,
0,
0,
0,
0,
0,
0,
1,
0,
0,
0,
0,
0,
0,
0,
1,
0,
0,
0,
0,
1,
0,
0,
0,
0,
0,
0,
1,
0,
0,
0,
0,
0,
0,
0,
0,
0,
0,
0,
0,
0,
0,
0,
0,
0,
1,
0,
0,
1,
0,
0,
1,
0,
0,
0,
0,
0,
0,
0,
0,
0,
0,
0,
0,
0,
0,
0,
0,
0,
0,
0,
0,
0,
0,
0,
0,
0,
0,
0,
0,
0,
0,
0,
0,
0,
0,
0,
0,
0,
0,
1,
0,
0,
0,
0,
0,
1,
0,
0,
0,
0,
0,
0,
0,
0,
0,
0,
0,
0,
0,
0,
0,
0,
0,
0,
0,
0,
0,
1,
0,
0,
0,
0,
0,
0,
0,
0,
0,
0,
0,
0,
0,
0,
1,
0,
0,
0,
0,
0,
0,
0,
0,
0,
0,
0,
0,
0,
0,
0,
0,
0,
0,
0,
0,
0,
0,
0,
0,
0,
0,
0,
0,
0,
0,
0,
0,
0,
0,
0,
0,
0,
0,
0,
0,
0,
0,
0,
0,
0,
0,
0,
0,
0,
0,
0,
0,
0,
0,
0,
0,
0,
0,
0,
0,
0,
0,
0,
0,
0,
0,
0,
0,
0,
0,
0,
0,
0,
0,
0,
0,
0,
0,
0,
0,
0,
0,
0,
0,
0,
0,
0,
0,
0,
0,
0,
0,
0,
0,
0,
0,
0,
0,
0,
0,
0,
0,
0,
0,
1,
0,
0,
0,
0,
0,
0,
0,
0,
0,
0,
0,
0,
0,
0,
0,
0,
0,
0,
0,
0,
0,
0,
0,
0,
0,
0,
0,
0,
0,
0,
0,
0,
0,
0,
0,
0,
0,
0,
0,
0,
0,
0,
0,
0,
0,
0,
0,
0,
0,
0,
0,
0,
0,
0,
0,
0,
0,
0,
0,
0,
0,
0,
0,
0,
0,
0,
0,
0,
0,
0,
0,
0,
0,
0,
0,
0,
0,
0,
0,
0,
0,
0,
0,
0,
0,
0,
0,
0,
0,
0,
0,
0,
0,
0,
0,
0,
0,
0,
0,
0,
0,
0,
0,
0,
0,
0,
0,
0,
0,
0,
0,
0,
0,
0,
0,
0,
0,
0,
0,
0,
0,
0,
0,
0,
0,
0,
0,
0,
0,
0,
0,
0,
0,
0,
0,
0,
0,
0,
0,
0,
0,
0,
0,
0,
0,
0,
0,
0,
0,
0,
0,
0,
0,
0,
0,
0,
0,
0,
0,
0,
0,
0,
0,
0,
0,
0,
0,
0,
0,
0,
0,
0,
0,
0,
0,
0,
0,
0,
0,
0,
0,
0,
0,
0,
0,
0,
0,
0,
0,
0,
0,
0,
0,
0,
0,
0,
0,
0,
0,
0,
0,
0,
0,
0,
0,
0,
0,
0,
0,
0,
0,
0,
0,
0,
0,
0,
0,
0,
0,
0,
0,
0,
0,
0,
0,
0,
0,
0,
0,
0,
0,
0,
0,
0,
0,
0,
0,
0,
0,
0,
0,
0,
0,
0,
0,
0,
0,
0,
0,
0,
0,
0,
0,
0,
0,
0,
0,
0,
0,
0,
0,
0,
0,
0,
0,
0,
0,
0,
0,
0,
0,
0,
0,
0,
0,
0,
0,
0,
0,
0,
0,
0,
0,
0,
0,
0,
0,
0,
0,
0,
0,
0,
0,
0,
0,
0,
0,
0,
0,
0,
0,
0,
0,
0,
0,
0,
0,
0,
0,
0,
0,
0,
0,
0,
0,
0,
0,
0,
0,
0,
0,
0,
0,
0,
0,
0,
0,
0,
0,
0,
0,
0,
0,
0,
0,
0,
0,
0,
0,
0,
0,
0,
0,
0,
0,
0,
0,
0,
0,
0,
0,
0,
0,
0,
0,
0,
0,
0,
0,
0,
0,
0,
0,
0,
0,
0,
0,
0,
0,
0,
0,
0,
0,
0,
0,
0,
0,
0,
0,
0,
0,
0,
0,
0,
0,
0,
0,
0,
0,
0,
0,
0,
0,
0,
0,
#ENDOFDATA   :