File: N132962/Quantification/MMM1/SPI MM1 Kaersutite[3][4].msa
#FORMAT      : EMSA/MAS Spectral Data File
#VERSION     : 1.0
#TITLE       : SPI MM1dup Kaersutite[3][all]
#DATE        : 12-MAR-2025
#TIME        : 16:23
#OWNER       : Unknown
#NPOINTS     : 4096
#NCOLUMNS    : 1
#XUNITS      : eV
#YUNITS      : counts
#DATATYPE    : Y
#XPERCHAN    : 9.99778
#OFFSET      : 1.69135
#BEAMKV      : 20
#SIGNALTYPE  : EDS
#ELEVANGLE   : 35
#AZIMANGLE   : 0
#LIVETIME    : 239.7545
#REALTIME    : 254.38
#PROBECUR    : 1.02709
#TAUWIND     : 0
#TDEADLYR    : 0
#TACTLYR     : 0.045
#TALWIND     : 0.025
#CHOFFSET    : 0.0
#XLABEL      : Energy (eV)
#YLABEL      : Counts
#XPOSITION   : -1.62254
#YPOSITION   : 3.58434
#ZPOSITION   : 31.03608
#EDSDET      : SD
##SPECIMEN   : SPI MM1dup Kaersutite[3][all]
##DET_HASH   : 12273538-fd48-a23f-0a19-f1e6fa85caef
##CALIB_HASH : 6abaa72c-aa41-8738-0be9-f592914732f3
##WORKING    : 15.0 mm
##DET_NAME   : EDAX All
##DET_MODE   : MediumLE
#SPECTRUM    :
23,
23,
12,
17,
77,
270,
801,
2675,
7703,
10581,
6275,
3447,
3254,
3772,
5926,
17288,
65668,
127670,
93578,
25088,
4814,
3363,
5054,
8187,
7813,
4412,
2691,
2455,
2542,
2554,
2711,
2972,
3568,
6109,
10829,
11946,
7630,
4402,
4252,
6803,
19444,
44334,
53614,
31720,
11220,
5137,
4790,
8972,
24977,
48859,
49896,
27265,
10707,
5770,
5373,
11549,
42267,
106509,
144132,
102059,
42290,
15736,
7721,
4546,
3410,
3202,
3006,
2910,
2787,
2654,
2647,
2672,
2850,
2759,
2930,
3056,
3051,
3005,
2820,
2808,
2753,
2719,
2746,
2726,
2842,
2712,
2791,
2840,
2820,
2694,
2772,
2796,
2710,
2669,
2661,
2558,
2690,
2534,
2617,
2531,
2681,
2641,
2623,
2471,
2453,
2439,
2557,
2730,
3590,
5104,
6491,
6428,
4880,
3311,
2605,
2477,
2468,
2582,
3059,
4358,
8139,
17494,
31642,
38985,
33052,
19281,
8366,
3685,
2354,
2314,
2501,
3147,
4470,
5966,
6350,
5375,
3721,
2434,
2001,
1918,
1809,
1913,
1788,
1786,
1745,
1973,
2108,
3165,
5624,
9189,
11676,
11042,
7932,
4391,
2569,
1968,
1690,
1518,
1651,
1662,
1723,
1903,
2188,
2708,
2985,
2971,
2473,
2066,
1625,
1512,
1440,
1444,
1396,
1428,
1417,
1394,
1387,
1408,
1337,
1388,
1423,
1435,
1401,
1423,
1368,
1306,
1308,
1261,
1243,
1192,
1232,
1206,
1219,
1247,
1292,
1382,
1428,
1426,
1411,
1320,
1233,
1172,
1176,
1183,
1148,
1184,
1138,
1264,
1609,
2571,
4940,
9055,
14067,
17118,
16140,
11673,
6968,
3491,
1910,
1249,
1081,
1037,
960,
936,
960,
951,
963,
993,
946,
1039,
1110,
1304,
1594,
2098,
2632,
2962,
2858,
2227,
1640,
1151,
967,
872,
855,
815,
795,
816,
850,
813,
868,
843,
863,
849,
794,
771,
803,
780,
778,
805,
752,
704,
711,
739,
730,
749,
729,
746,
731,
725,
678,
745,
683,
743,
695,
755,
681,
722,
645,
613,
620,
633,
654,
642,
692,
614,
640,
605,
637,
596,
591,
574,
549,
620,
567,
580,
614,
603,
583,
544,
570,
529,
526,
564,
556,
516,
563,
554,
536,
538,
522,
556,
536,
517,
543,
535,
490,
513,
511,
496,
445,
514,
489,
507,
455,
489,
532,
466,
433,
458,
494,
471,
488,
487,
479,
424,
411,
431,
431,
435,
442,
391,
430,
399,
432,
394,
408,
415,
398,
386,
411,
400,
360,
409,
416,
366,
401,
355,
387,
379,
344,
352,
359,
342,
364,
345,
364,
345,
354,
342,
322,
342,
305,
342,
345,
324,
315,
285,
303,
308,
273,
318,
267,
315,
307,
300,
293,
291,
282,
296,
269,
280,
280,
282,
242,
263,
265,
284,
287,
268,
241,
265,
236,
246,
260,
272,
228,
229,
204,
245,
241,
230,
225,
218,
219,
217,
219,
240,
214,
218,
210,
228,
220,
214,
218,
190,
212,
194,
190,
204,
188,
209,
180,
175,
174,
200,
200,
191,
182,
187,
185,
185,
174,
164,
168,
168,
177,
159,
167,
174,
162,
170,
146,
154,
151,
134,
149,
141,
133,
156,
154,
128,
145,
124,
121,
128,
133,
143,
131,
134,
117,
137,
118,
122,
132,
136,
128,
112,
106,
105,
114,
112,
117,
124,
109,
82,
101,
82,
99,
110,
117,
126,
96,
112,
93,
81,
101,
80,
93,
90,
83,
84,
83,
71,
82,
75,
75,
78,
91,
81,
94,
77,
74,
70,
82,
84,
68,
78,
61,
73,
64,
88,
81,
64,
77,
74,
67,
58,
60,
61,
55,
52,
66,
48,
61,
41,
62,
43,
52,
64,
47,
69,
43,
56,
44,
38,
45,
48,
46,
45,
45,
49,
42,
45,
51,
44,
36,
43,
51,
50,
32,
45,
29,
29,
46,
30,
30,
31,
39,
45,
39,
35,
31,
28,
26,
31,
32,
33,
35,
26,
32,
31,
18,
20,
22,
32,
34,
21,
20,
24,
36,
23,
22,
28,
23,
15,
18,
15,
17,
33,
20,
20,
16,
23,
21,
15,
20,
13,
19,
14,
19,
10,
19,
12,
19,
18,
16,
11,
10,
13,
8,
8,
12,
9,
14,
8,
8,
14,
9,
7,
19,
7,
9,
5,
7,
6,
9,
7,
7,
9,
8,
2,
6,
8,
4,
4,
4,
8,
5,
5,
7,
5,
2,
3,
1,
2,
4,
2,
4,
1,
1,
1,
1,
1,
1,
0,
1,
0,
1,
0,
0,
0,
0,
0,
1,
0,
0,
1,
0,
0,
0,
1,
1,
0,
0,
0,
1,
0,
0,
0,
0,
0,
0,
0,
0,
0,
0,
0,
0,
0,
0,
0,
0,
0,
0,
1,
0,
0,
1,
0,
0,
0,
0,
0,
0,
0,
0,
1,
0,
0,
0,
0,
0,
0,
1,
0,
0,
0,
1,
0,
0,
0,
0,
0,
0,
0,
0,
0,
0,
2,
0,
1,
0,
0,
0,
1,
0,
0,
0,
0,
0,
0,
0,
0,
0,
0,
0,
0,
1,
0,
0,
0,
0,
1,
0,
0,
0,
1,
0,
0,
0,
0,
0,
0,
0,
0,
0,
0,
0,
0,
0,
0,
0,
0,
0,
1,
0,
0,
0,
0,
0,
0,
0,
0,
0,
1,
1,
0,
0,
0,
0,
0,
1,
0,
0,
0,
0,
0,
0,
0,
0,
0,
0,
0,
1,
0,
0,
0,
0,
0,
0,
0,
0,
0,
0,
0,
0,
0,
0,
0,
0,
0,
0,
0,
0,
0,
0,
0,
0,
0,
0,
0,
0,
0,
0,
0,
0,
0,
0,
0,
0,
0,
0,
0,
0,
0,
0,
0,
0,
0,
0,
0,
0,
0,
1,
0,
0,
0,
0,
0,
0,
0,
0,
0,
0,
0,
0,
0,
0,
0,
0,
0,
0,
0,
0,
0,
0,
0,
0,
0,
0,
0,
0,
0,
0,
0,
0,
0,
0,
0,
0,
0,
0,
0,
0,
0,
0,
0,
0,
0,
0,
0,
0,
0,
0,
0,
0,
0,
0,
0,
0,
0,
0,
0,
0,
0,
0,
0,
0,
0,
0,
0,
0,
0,
0,
0,
0,
0,
0,
0,
0,
0,
0,
0,
0,
0,
0,
0,
0,
0,
0,
0,
0,
0,
0,
0,
0,
0,
0,
0,
0,
0,
0,
0,
0,
0,
0,
0,
0,
0,
0,
0,
0,
0,
0,
0,
0,
0,
0,
0,
0,
0,
0,
0,
0,
0,
0,
0,
0,
0,
0,
0,
0,
0,
0,
0,
0,
0,
0,
0,
0,
0,
0,
0,
0,
0,
0,
0,
0,
0,
0,
0,
0,
0,
0,
0,
0,
0,
0,
0,
0,
0,
0,
0,
0,
0,
1,
0,
0,
0,
0,
0,
0,
0,
0,
0,
0,
0,
0,
0,
0,
0,
0,
0,
0,
0,
0,
0,
0,
0,
0,
0,
0,
0,
0,
0,
0,
0,
0,
0,
0,
0,
0,
0,
0,
0,
0,
0,
0,
0,
0,
0,
0,
0,
0,
0,
0,
0,
0,
0,
0,
0,
0,
0,
0,
0,
0,
0,
0,
0,
0,
0,
0,
0,
0,
0,
0,
0,
0,
0,
0,
0,
0,
0,
0,
0,
0,
0,
0,
0,
0,
0,
0,
0,
0,
0,
0,
0,
0,
0,
0,
0,
0,
0,
0,
0,
0,
0,
0,
0,
0,
0,
0,
0,
0,
0,
0,
0,
0,
0,
0,
0,
0,
0,
0,
0,
0,
0,
0,
0,
0,
0,
0,
0,
0,
0,
0,
0,
0,
0,
0,
0,
0,
0,
0,
0,
0,
0,
0,
0,
0,
0,
0,
0,
0,
0,
0,
0,
0,
0,
0,
0,
0,
0,
0,
0,
0,
0,
0,
0,
0,
0,
0,
0,
0,
0,
0,
0,
0,
0,
0,
0,
0,
0,
0,
0,
0,
0,
0,
0,
0,
0,
0,
0,
0,
0,
0,
0,
0,
0,
0,
0,
0,
0,
0,
0,
0,
0,
0,
0,
0,
0,
0,
0,
0,
0,
0,
0,
0,
0,
0,
0,
0,
0,
0,
0,
0,
0,
0,
0,
0,
0,
0,
0,
0,
0,
0,
0,
0,
0,
0,
0,
0,
0,
0,
0,
0,
0,
0,
0,
0,
0,
0,
0,
0,
0,
0,
0,
0,
0,
0,
0,
0,
0,
0,
0,
0,
0,
0,
0,
0,
0,
0,
0,
0,
0,
0,
0,
0,
0,
0,
0,
0,
0,
0,
0,
0,
0,
0,
0,
0,
0,
0,
0,
0,
0,
0,
0,
0,
0,
0,
0,
0,
0,
0,
0,
0,
0,
0,
0,
0,
0,
0,
0,
0,
0,
0,
0,
0,
0,
0,
0,
0,
0,
0,
0,
0,
0,
0,
0,
0,
0,
0,
0,
0,
0,
0,
0,
0,
0,
0,
0,
0,
0,
0,
0,
0,
0,
#ENDOFDATA   :