File: N132962/Quantification/MMM1/SPI MM1 Chalcopyrite[4][4].msa
#FORMAT      : EMSA/MAS Spectral Data File
#VERSION     : 1.0
#TITLE       : SPI MM1 Chalcopyrite[4][all]
#DATE        : 11-MAR-2025
#TIME        : 14:31
#OWNER       : Unknown
#NPOINTS     : 4096
#NCOLUMNS    : 1
#XUNITS      : eV
#YUNITS      : counts
#DATATYPE    : Y
#XPERCHAN    : 9.99778
#OFFSET      : 1.69135
#BEAMKV      : 20
#SIGNALTYPE  : EDS
#ELEVANGLE   : 35
#AZIMANGLE   : 0
#LIVETIME    : 239.844
#REALTIME    : 260.399
#PROBECUR    : 1.02809
#TAUWIND     : 0
#TDEADLYR    : 0
#TACTLYR     : 0.045
#TALWIND     : 0.025
#CHOFFSET    : 0.0
#XLABEL      : Energy (eV)
#YLABEL      : Counts
#XPOSITION   : -4.90951
#YPOSITION   : -3.9268
#ZPOSITION   : 30.9284
#EDSDET      : SD
##SPECIMEN   : SPI MM1 Chalcopyrite[4][all]
##D2STDCMP   : Chalcopyrite,(S:34.9407),(Fe:30.4314),(Cu:34.6279),4.2
##DET_HASH   : 12273538-fd48-a23f-0a19-f1e6fa85caef
##CALIB_HASH : 6abaa72c-aa41-8738-0be9-f592914732f3
##WORKING    : 15.0 mm
##DET_NAME   : EDAX All
##DET_MODE   : MediumLE
#SPECTRUM    :
35,
27,
13,
42,
205,
578,
1139,
3274,
9518,
12007,
6484,
2897,
2636,
2919,
3293,
3864,
4968,
6696,
10438,
14704,
17629,
17768,
25108,
40548,
35783,
17435,
10923,
11557,
11762,
22319,
58402,
84520,
55472,
19179,
6210,
4142,
3474,
3417,
3507,
3674,
3664,
3768,
4021,
4061,
4367,
4506,
4606,
4706,
4885,
4996,
5119,
5257,
5168,
5205,
5113,
5377,
5567,
5910,
6211,
6179,
5932,
5734,
5375,
5119,
5396,
5350,
5401,
5590,
5753,
5582,
5931,
6264,
8134,
14127,
33915,
91439,
185282,
232769,
169327,
74816,
26501,
19009,
21347,
17928,
10945,
6072,
4155,
3844,
3778,
3800,
3654,
3859,
3843,
3698,
3801,
3848,
3776,
3866,
3784,
3822,
3820,
3874,
3910,
3773,
3752,
3720,
3787,
3831,
3981,
3790,
3680,
3558,
3647,
3683,
3600,
3638,
3488,
3557,
3636,
3613,
3383,
3473,
3441,
3459,
3534,
3368,
3410,
3325,
3404,
3459,
3374,
3506,
3350,
3296,
3270,
3300,
3391,
3256,
3312,
3166,
3169,
3165,
3202,
3150,
3213,
3101,
3086,
3150,
3074,
3080,
3122,
3148,
3180,
3443,
3501,
3482,
3294,
3103,
3008,
2942,
2862,
2921,
2864,
2785,
2884,
2708,
2739,
2694,
2673,
2735,
2682,
2753,
2696,
2568,
2633,
2607,
2662,
2548,
2580,
2510,
2600,
2536,
2591,
2474,
2526,
2521,
2364,
2399,
2390,
2405,
2353,
2360,
2388,
2349,
2305,
2330,
2339,
2290,
2328,
2225,
2245,
2258,
2279,
2325,
2273,
2390,
2413,
2845,
4021,
7893,
17513,
34181,
52961,
64877,
60521,
44015,
24946,
11651,
5145,
2887,
2305,
2005,
2028,
1933,
2006,
1948,
2013,
2061,
2065,
2149,
2410,
3078,
4421,
6733,
8875,
10006,
9156,
6986,
4619,
2994,
2057,
1730,
1640,
1710,
1638,
1572,
1630,
1654,
1670,
1722,
1675,
1651,
1590,
1504,
1541,
1497,
1494,
1529,
1517,
1550,
1564,
1766,
2331,
4089,
8174,
15527,
25014,
33929,
36778,
32637,
23312,
13791,
7197,
3540,
2055,
1585,
1414,
1317,
1363,
1361,
1252,
1352,
1272,
1330,
1219,
1309,
1353,
1358,
1367,
1471,
1477,
1593,
1952,
2592,
3448,
4913,
5779,
5633,
5071,
3700,
2597,
1782,
1402,
1133,
1042,
1052,
1028,
1005,
982,
1067,
1020,
992,
1057,
1004,
1018,
1004,
968,
922,
1018,
871,
1014,
969,
914,
911,
960,
952,
891,
935,
872,
908,
861,
922,
910,
915,
842,
849,
909,
832,
855,
901,
805,
862,
884,
896,
933,
912,
866,
866,
825,
810,
793,
785,
781,
797,
776,
753,
757,
723,
745,
763,
778,
717,
691,
742,
690,
703,
705,
753,
690,
688,
705,
703,
701,
749,
680,
664,
681,
619,
657,
628,
672,
602,
593,
601,
629,
620,
660,
650,
585,
592,
591,
557,
588,
559,
575,
543,
553,
538,
563,
558,
544,
570,
516,
538,
551,
534,
520,
520,
484,
479,
502,
480,
477,
491,
503,
473,
483,
485,
451,
463,
453,
454,
490,
480,
441,
438,
481,
455,
440,
442,
415,
427,
413,
423,
420,
394,
352,
400,
364,
396,
400,
328,
389,
379,
365,
396,
357,
342,
331,
365,
375,
370,
337,
324,
374,
323,
309,
328,
314,
322,
295,
292,
313,
320,
318,
246,
297,
272,
281,
305,
291,
289,
295,
262,
259,
267,
267,
276,
251,
278,
252,
263,
243,
274,
253,
254,
221,
256,
247,
229,
223,
240,
220,
225,
235,
235,
206,
237,
210,
209,
196,
236,
212,
213,
197,
204,
184,
186,
178,
203,
178,
178,
179,
182,
184,
203,
169,
168,
164,
159,
124,
153,
139,
171,
142,
155,
166,
143,
150,
165,
155,
166,
139,
166,
131,
153,
130,
122,
119,
131,
140,
132,
121,
107,
115,
102,
106,
105,
85,
103,
109,
96,
116,
98,
111,
102,
97,
97,
73,
77,
94,
105,
91,
92,
67,
85,
83,
90,
79,
86,
65,
77,
89,
79,
96,
69,
74,
61,
52,
57,
77,
72,
63,
71,
64,
71,
57,
62,
62,
52,
66,
55,
61,
55,
54,
56,
52,
43,
48,
40,
51,
37,
38,
43,
47,
42,
46,
44,
43,
35,
32,
42,
35,
38,
30,
38,
36,
46,
28,
37,
37,
30,
22,
33,
21,
26,
29,
27,
14,
30,
16,
22,
26,
19,
16,
25,
24,
17,
15,
21,
16,
20,
21,
17,
16,
4,
15,
8,
9,
10,
12,
8,
8,
5,
9,
13,
5,
6,
8,
6,
7,
2,
4,
3,
5,
1,
1,
0,
0,
0,
2,
2,
3,
2,
1,
2,
2,
2,
0,
1,
2,
2,
1,
1,
0,
1,
1,
2,
0,
1,
1,
2,
0,
0,
0,
2,
0,
2,
0,
2,
2,
0,
0,
0,
1,
1,
0,
2,
0,
0,
0,
1,
1,
0,
2,
0,
1,
1,
1,
1,
0,
0,
0,
2,
3,
1,
0,
0,
0,
0,
1,
0,
0,
0,
0,
0,
2,
1,
2,
0,
1,
0,
1,
0,
0,
0,
0,
0,
0,
0,
2,
0,
0,
1,
0,
1,
1,
0,
1,
1,
0,
0,
0,
0,
0,
0,
0,
1,
1,
0,
1,
1,
1,
0,
1,
0,
1,
0,
0,
0,
0,
1,
0,
0,
0,
0,
0,
0,
0,
0,
1,
1,
0,
0,
0,
0,
1,
0,
1,
2,
0,
0,
0,
0,
0,
0,
0,
0,
1,
1,
1,
0,
0,
0,
0,
0,
0,
0,
0,
0,
1,
1,
0,
0,
1,
1,
1,
0,
2,
1,
1,
0,
0,
1,
1,
0,
0,
0,
0,
0,
0,
1,
0,
0,
1,
0,
0,
0,
0,
0,
0,
0,
0,
0,
0,
0,
0,
0,
0,
0,
0,
0,
0,
0,
0,
0,
0,
0,
0,
0,
0,
0,
0,
0,
0,
0,
0,
0,
0,
0,
0,
0,
0,
0,
0,
0,
0,
1,
0,
0,
0,
0,
0,
0,
0,
0,
0,
0,
0,
0,
0,
0,
0,
0,
0,
0,
0,
0,
1,
0,
0,
0,
0,
0,
0,
0,
0,
0,
1,
0,
0,
0,
1,
0,
0,
0,
1,
0,
0,
0,
0,
0,
0,
0,
0,
0,
0,
0,
0,
0,
0,
0,
0,
0,
0,
0,
0,
0,
0,
0,
0,
0,
0,
0,
0,
0,
0,
0,
0,
0,
0,
0,
0,
0,
0,
0,
0,
0,
0,
0,
0,
0,
0,
0,
0,
0,
0,
0,
0,
0,
0,
0,
0,
0,
0,
0,
0,
0,
0,
0,
0,
0,
0,
0,
0,
0,
0,
0,
0,
0,
0,
0,
0,
0,
0,
0,
0,
0,
0,
0,
0,
0,
0,
0,
0,
0,
0,
0,
0,
0,
0,
0,
0,
0,
0,
0,
0,
0,
0,
0,
0,
0,
0,
0,
0,
0,
0,
0,
0,
0,
0,
0,
0,
0,
0,
0,
0,
0,
0,
0,
0,
0,
0,
0,
0,
0,
0,
0,
0,
0,
0,
0,
0,
0,
0,
0,
0,
0,
0,
0,
0,
0,
0,
0,
0,
0,
0,
1,
0,
0,
0,
0,
0,
0,
0,
0,
0,
0,
0,
0,
0,
0,
0,
0,
0,
0,
0,
0,
0,
0,
0,
0,
0,
0,
0,
0,
0,
0,
0,
0,
0,
0,
0,
0,
0,
0,
0,
0,
0,
0,
0,
0,
0,
0,
0,
0,
0,
0,
0,
0,
0,
0,
0,
0,
0,
0,
0,
0,
0,
0,
0,
0,
0,
0,
0,
0,
0,
0,
0,
0,
0,
0,
0,
0,
0,
0,
0,
0,
0,
0,
0,
0,
0,
0,
0,
0,
0,
0,
0,
0,
0,
0,
0,
0,
0,
0,
0,
0,
0,
0,
0,
0,
0,
0,
0,
0,
0,
0,
0,
0,
0,
0,
0,
0,
0,
0,
0,
0,
0,
0,
0,
0,
0,
0,
0,
0,
0,
0,
0,
0,
0,
0,
0,
0,
0,
0,
0,
0,
0,
0,
0,
0,
0,
0,
0,
0,
0,
0,
0,
0,
0,
0,
0,
0,
0,
0,
0,
0,
0,
0,
0,
0,
0,
0,
0,
0,
1,
0,
0,
0,
0,
0,
0,
0,
0,
0,
0,
0,
0,
0,
0,
0,
0,
0,
0,
0,
0,
0,
0,
0,
0,
0,
0,
0,
0,
0,
0,
0,
0,
0,
0,
0,
0,
0,
0,
0,
0,
0,
0,
0,
0,
0,
0,
0,
0,
0,
0,
0,
0,
0,
0,
0,
0,
0,
0,
0,
0,
0,
0,
0,
0,
0,
0,
0,
0,
0,
0,
0,
0,
0,
0,
0,
0,
0,
0,
0,
0,
0,
0,
0,
0,
0,
0,
0,
0,
0,
0,
0,
0,
0,
0,
0,
0,
0,
0,
0,
0,
0,
0,
0,
0,
0,
0,
0,
0,
0,
0,
0,
0,
0,
0,
0,
0,
0,
0,
0,
#ENDOFDATA   :