File: N132962/Quantification/MMM1/SPI MM1 Anhydrite[7][4].msa
#FORMAT      : EMSA/MAS Spectral Data File
#VERSION     : 1.0
#TITLE       : SPI MM1 Anhydrite[7][all]
#DATE        : 11-MAR-2025
#TIME        : 13:52
#OWNER       : Unknown
#NPOINTS     : 4096
#NCOLUMNS    : 1
#XUNITS      : eV
#YUNITS      : counts
#DATATYPE    : Y
#XPERCHAN    : 9.99778
#OFFSET      : 1.69135
#BEAMKV      : 20
#SIGNALTYPE  : EDS
#ELEVANGLE   : 35
#AZIMANGLE   : 0
#LIVETIME    : 239.8962
#REALTIME    : 255.0767
#PROBECUR    : 1.02902
#TAUWIND     : 0
#TDEADLYR    : 0
#TACTLYR     : 0.045
#TALWIND     : 0.025
#CHOFFSET    : 0.0
#XLABEL      : Energy (eV)
#YLABEL      : Counts
#XPOSITION   : 4.99742
#YPOSITION   : -5.03999
#ZPOSITION   : 30.9284
#EDSDET      : SD
##SPECIMEN   : SPI MM1 Anhydrite[7][all]
##D2STDCMP   : Anhydrite,(O:47.0085),(S:23.5529),(Ca:29.4387),5.0
##DET_HASH   : 12273538-fd48-a23f-0a19-f1e6fa85caef
##CALIB_HASH : 6abaa72c-aa41-8738-0be9-f592914732f3
##WORKING    : 15.0 mm
##DET_NAME   : EDAX All
##DET_MODE   : MediumLE
#SPECTRUM    :
29,
39,
5,
37,
316,
841,
1229,
2867,
8164,
12479,
8551,
4563,
2886,
2394,
3237,
10438,
39922,
77737,
59381,
19412,
4563,
2004,
1867,
2090,
2279,
2324,
2382,
2547,
2592,
2718,
2635,
2762,
2912,
3112,
3253,
3310,
3556,
3580,
3739,
3719,
3747,
4036,
4053,
4146,
4340,
4297,
4476,
4432,
4666,
4762,
4828,
4744,
4797,
4720,
4780,
4747,
5000,
5392,
5901,
6611,
7526,
6958,
6156,
5794,
5990,
6056,
5545,
4824,
4474,
4558,
4582,
4885,
6215,
10349,
25001,
68260,
142180,
181357,
135919,
60145,
20703,
13049,
13853,
11330,
7088,
4123,
3093,
2761,
2718,
2746,
2732,
2738,
2716,
2870,
2765,
2935,
2784,
2679,
2623,
2589,
2699,
2591,
2621,
2578,
2566,
2602,
2629,
2606,
2507,
2550,
2593,
2400,
2462,
2505,
2393,
2517,
2742,
3180,
4357,
7882,
21737,
55570,
104399,
131749,
110876,
61914,
24372,
7874,
3463,
3089,
3631,
6099,
10728,
16263,
17734,
14188,
8294,
4137,
2349,
1925,
1826,
1715,
1692,
1644,
1680,
1535,
1597,
1619,
1625,
1577,
1524,
1693,
1669,
1736,
1800,
1657,
1568,
1491,
1546,
1511,
1509,
1508,
1578,
1474,
1533,
1469,
1472,
1505,
1466,
1451,
1351,
1392,
1391,
1373,
1413,
1415,
1429,
1311,
1391,
1363,
1373,
1366,
1348,
1369,
1347,
1258,
1322,
1322,
1303,
1279,
1275,
1231,
1235,
1244,
1268,
1197,
1245,
1252,
1345,
1376,
1382,
1389,
1437,
1201,
1189,
1087,
1248,
1201,
1155,
1151,
1112,
1199,
1241,
1240,
1201,
1094,
1146,
1048,
1006,
1018,
1001,
1031,
989,
986,
996,
1027,
1082,
971,
1006,
918,
929,
973,
1003,
967,
995,
843,
924,
938,
879,
879,
922,
896,
943,
887,
937,
931,
965,
929,
956,
882,
900,
862,
821,
847,
805,
876,
848,
779,
842,
790,
810,
822,
794,
751,
745,
783,
768,
788,
777,
737,
743,
691,
681,
739,
690,
730,
681,
714,
669,
723,
676,
643,
689,
651,
673,
692,
657,
680,
647,
608,
642,
595,
614,
671,
630,
642,
593,
615,
641,
562,
618,
570,
555,
609,
585,
595,
596,
571,
571,
531,
519,
578,
514,
581,
514,
528,
542,
559,
508,
551,
492,
527,
507,
502,
528,
486,
505,
489,
523,
464,
496,
500,
510,
449,
431,
484,
431,
435,
460,
432,
418,
441,
445,
413,
455,
412,
438,
440,
439,
449,
411,
415,
428,
419,
407,
419,
381,
417,
413,
368,
395,
378,
346,
375,
393,
350,
387,
375,
359,
372,
359,
379,
394,
336,
329,
302,
343,
322,
338,
300,
293,
308,
300,
321,
315,
310,
296,
261,
298,
295,
296,
328,
308,
284,
266,
265,
257,
294,
275,
280,
274,
289,
283,
252,
240,
270,
258,
266,
267,
251,
252,
241,
222,
253,
250,
243,
255,
209,
241,
226,
245,
219,
227,
251,
234,
190,
243,
206,
200,
211,
193,
216,
190,
213,
209,
181,
172,
170,
164,
197,
183,
181,
176,
178,
178,
182,
169,
166,
168,
167,
164,
159,
159,
128,
157,
158,
177,
135,
152,
146,
162,
139,
141,
152,
151,
133,
128,
152,
126,
156,
154,
143,
166,
156,
146,
142,
142,
121,
111,
113,
137,
102,
91,
130,
113,
124,
108,
129,
109,
100,
96,
97,
115,
120,
93,
92,
105,
96,
96,
94,
103,
99,
78,
87,
93,
95,
92,
68,
100,
80,
93,
79,
74,
84,
58,
91,
93,
74,
82,
63,
71,
79,
67,
78,
72,
62,
82,
79,
70,
68,
57,
66,
72,
54,
52,
70,
64,
56,
61,
47,
52,
58,
47,
52,
56,
48,
53,
62,
50,
64,
32,
38,
45,
43,
43,
44,
33,
46,
36,
43,
33,
36,
35,
37,
42,
36,
42,
35,
29,
31,
29,
37,
33,
25,
37,
42,
27,
26,
36,
31,
33,
28,
21,
41,
23,
38,
30,
23,
30,
15,
23,
22,
19,
12,
27,
25,
17,
19,
25,
19,
25,
13,
15,
20,
16,
16,
19,
20,
21,
32,
17,
15,
14,
14,
13,
11,
14,
12,
6,
12,
15,
11,
10,
13,
11,
10,
6,
12,
12,
10,
7,
4,
10,
7,
12,
6,
4,
8,
8,
9,
9,
7,
8,
2,
13,
4,
5,
12,
6,
6,
4,
3,
3,
5,
1,
0,
5,
3,
3,
1,
1,
3,
1,
1,
0,
1,
0,
2,
2,
0,
0,
0,
0,
0,
0,
0,
1,
0,
0,
1,
0,
0,
0,
1,
1,
0,
0,
1,
0,
0,
1,
1,
0,
0,
0,
0,
0,
0,
0,
0,
0,
0,
0,
0,
0,
0,
0,
0,
0,
0,
0,
0,
0,
1,
0,
1,
0,
0,
0,
0,
0,
0,
0,
0,
1,
0,
0,
0,
1,
0,
1,
1,
0,
0,
0,
0,
1,
0,
0,
0,
0,
0,
0,
0,
0,
0,
0,
0,
0,
0,
0,
0,
0,
0,
0,
0,
0,
0,
0,
0,
0,
1,
0,
0,
0,
0,
0,
0,
0,
0,
0,
0,
1,
0,
0,
0,
0,
1,
0,
0,
0,
0,
0,
0,
1,
0,
1,
0,
0,
0,
0,
0,
0,
0,
0,
0,
0,
0,
0,
0,
0,
0,
0,
0,
0,
0,
0,
0,
0,
0,
0,
0,
0,
0,
0,
0,
0,
0,
0,
0,
0,
0,
0,
0,
0,
0,
0,
0,
0,
0,
0,
0,
0,
0,
0,
0,
0,
0,
0,
0,
0,
0,
1,
0,
0,
0,
0,
0,
0,
0,
0,
0,
0,
0,
0,
0,
0,
0,
0,
0,
0,
0,
0,
0,
0,
0,
0,
0,
0,
0,
0,
0,
0,
0,
0,
0,
0,
0,
0,
0,
0,
0,
0,
0,
0,
0,
0,
0,
0,
0,
0,
0,
0,
0,
0,
0,
0,
0,
0,
0,
0,
0,
0,
0,
0,
0,
0,
0,
0,
0,
0,
0,
0,
0,
0,
0,
0,
0,
0,
0,
0,
0,
0,
0,
0,
0,
0,
0,
0,
0,
0,
0,
0,
0,
0,
0,
0,
0,
0,
0,
0,
0,
0,
0,
0,
0,
0,
0,
0,
0,
0,
0,
0,
0,
0,
0,
0,
0,
0,
0,
0,
0,
0,
0,
0,
0,
0,
0,
0,
0,
0,
0,
0,
0,
0,
0,
0,
0,
0,
0,
0,
0,
0,
0,
0,
0,
1,
0,
0,
0,
0,
0,
0,
0,
0,
0,
0,
0,
0,
0,
0,
0,
0,
0,
0,
0,
0,
0,
0,
0,
0,
0,
0,
0,
0,
0,
0,
0,
0,
0,
0,
0,
0,
0,
0,
0,
0,
0,
0,
0,
0,
0,
0,
0,
0,
0,
0,
0,
0,
0,
0,
0,
0,
0,
0,
0,
0,
0,
0,
0,
0,
0,
0,
0,
0,
0,
0,
0,
0,
0,
0,
0,
0,
0,
0,
0,
0,
0,
0,
0,
0,
0,
0,
0,
0,
0,
0,
0,
0,
0,
0,
0,
0,
0,
0,
0,
0,
0,
0,
0,
0,
0,
0,
0,
0,
0,
0,
0,
0,
0,
0,
0,
0,
0,
0,
0,
0,
0,
0,
0,
0,
0,
0,
0,
0,
0,
0,
0,
0,
0,
0,
0,
0,
0,
0,
0,
0,
0,
0,
0,
0,
0,
0,
0,
0,
0,
0,
0,
0,
0,
0,
0,
0,
0,
0,
0,
0,
0,
0,
0,
0,
0,
0,
0,
0,
0,
0,
0,
0,
0,
0,
0,
0,
0,
0,
0,
0,
0,
0,
0,
0,
0,
0,
0,
0,
0,
0,
0,
0,
0,
0,
0,
0,
0,
0,
0,
0,
0,
0,
0,
0,
0,
0,
0,
0,
0,
0,
0,
0,
0,
0,
0,
0,
0,
0,
0,
0,
0,
0,
0,
0,
0,
0,
0,
0,
0,
0,
0,
0,
0,
0,
0,
0,
0,
0,
0,
0,
0,
0,
0,
0,
0,
0,
0,
0,
0,
0,
0,
0,
0,
0,
0,
0,
0,
0,
0,
0,
0,
0,
0,
0,
0,
0,
0,
0,
0,
0,
0,
0,
0,
0,
0,
0,
0,
0,
0,
0,
0,
0,
0,
0,
0,
0,
0,
0,
0,
0,
0,
0,
0,
0,
0,
0,
0,
0,
0,
0,
0,
0,
0,
0,
0,
0,
0,
0,
0,
0,
0,
0,
0,
0,
0,
0,
0,
0,
0,
0,
0,
0,
0,
0,
0,
0,
0,
0,
0,
0,
0,
0,
0,
0,
0,
0,
0,
0,
0,
0,
0,
0,
0,
0,
0,
0,
0,
0,
0,
0,
0,
0,
0,
0,
0,
0,
0,
0,
0,
0,
0,
0,
0,
0,
0,
0,
0,
0,
0,
0,
0,
0,
0,
0,
0,
0,
0,
0,
0,
#ENDOFDATA   :