File: N132962/Quantification/MMM1/SPI MM1 Albite[5][4].msa
#FORMAT      : EMSA/MAS Spectral Data File
#VERSION     : 1.0
#TITLE       : SPI MM1 Albite[5][all]
#DATE        : 11-MAR-2025
#TIME        : 12:54
#OWNER       : Unknown
#NPOINTS     : 4096
#NCOLUMNS    : 1
#XUNITS      : eV
#YUNITS      : counts
#DATATYPE    : Y
#XPERCHAN    : 9.99778
#OFFSET      : 1.69135
#BEAMKV      : 20
#SIGNALTYPE  : EDS
#ELEVANGLE   : 35
#AZIMANGLE   : 0
#LIVETIME    : 239.782
#REALTIME    : 255.919
#PROBECUR    : 1.02699
#TAUWIND     : 0
#TDEADLYR    : 0
#TACTLYR     : 0.045
#TALWIND     : 0.025
#CHOFFSET    : 0.0
#XLABEL      : Energy (eV)
#YLABEL      : Counts
#XPOSITION   : 3.45649
#YPOSITION   : -7.02048
#ZPOSITION   : 30.9284
#EDSDET      : SD
##SPECIMEN   : SPI MM1 Albite[5][all]
##D2STDCMP   : Albite,(O:48.8112),(Na:8.7674),(Al:10.2897),(Si:32.1316)
##DET_HASH   : 12273538-fd48-a23f-0a19-f1e6fa85caef
##CALIB_HASH : 6abaa72c-aa41-8738-0be9-f592914732f3
##WORKING    : 15.0 mm
##DET_NAME   : EDAX All
##DET_MODE   : MediumLE
#SPECTRUM    :
38,
34,
13,
16,
86,
279,
809,
2383,
6585,
8652,
4803,
2434,
2564,
3373,
6525,
25341,
102533,
197062,
145466,
39342,
5220,
1824,
1885,
1972,
2158,
2222,
2314,
2511,
2765,
2954,
3270,
3588,
6929,
20759,
47162,
52669,
26884,
8283,
3839,
3418,
3402,
3600,
3636,
3925,
4153,
4481,
5702,
13744,
42698,
84190,
85741,
46331,
16575,
7286,
6685,
18201,
73946,
189597,
257633,
183219,
73689,
24469,
10450,
4900,
2636,
2172,
2238,
2273,
2275,
2081,
2133,
2115,
2171,
2285,
2551,
2868,
2677,
2490,
2278,
2161,
2154,
2146,
2156,
2208,
2108,
2056,
2110,
2113,
2077,
2175,
2047,
2231,
2259,
2261,
2203,
2098,
2046,
2119,
2103,
2126,
1984,
2007,
2001,
2016,
2002,
2020,
2058,
2254,
2434,
2520,
2654,
2470,
2305,
2015,
2113,
2195,
2248,
2117,
2050,
1946,
1902,
1997,
2180,
2181,
2089,
1927,
1907,
1704,
1627,
1630,
1639,
1600,
1673,
1636,
1691,
1627,
1570,
1591,
1528,
1551,
1519,
1515,
1472,
1512,
1439,
1554,
1423,
1387,
1378,
1448,
1453,
1348,
1474,
1368,
1396,
1392,
1327,
1321,
1342,
1356,
1314,
1319,
1333,
1319,
1238,
1246,
1291,
1267,
1239,
1170,
1233,
1246,
1216,
1184,
1155,
1160,
1111,
1205,
1146,
1179,
1152,
1112,
1175,
1143,
1101,
1025,
1086,
1044,
1079,
1040,
1130,
974,
1022,
1001,
1020,
986,
971,
964,
1012,
947,
1018,
937,
960,
988,
959,
924,
950,
991,
901,
901,
963,
898,
990,
1003,
928,
973,
907,
857,
825,
814,
855,
799,
759,
816,
786,
764,
798,
802,
801,
836,
792,
772,
754,
782,
691,
774,
713,
747,
686,
742,
711,
707,
711,
721,
697,
686,
720,
738,
717,
710,
675,
669,
624,
659,
695,
634,
664,
632,
642,
631,
614,
587,
634,
640,
623,
636,
598,
610,
561,
578,
566,
577,
614,
561,
571,
530,
583,
555,
616,
520,
552,
572,
534,
518,
510,
521,
482,
510,
560,
525,
519,
465,
504,
496,
475,
464,
497,
483,
475,
463,
451,
467,
512,
431,
494,
440,
433,
443,
461,
467,
446,
417,
398,
399,
433,
393,
447,
418,
428,
387,
421,
411,
389,
382,
367,
407,
366,
378,
372,
388,
393,
346,
385,
353,
362,
349,
381,
347,
339,
333,
345,
314,
327,
308,
316,
317,
351,
319,
295,
315,
318,
302,
311,
339,
319,
323,
303,
304,
300,
301,
301,
262,
292,
305,
289,
284,
301,
295,
260,
277,
271,
297,
291,
270,
255,
249,
245,
248,
241,
224,
229,
236,
259,
235,
251,
247,
207,
229,
220,
210,
204,
214,
200,
200,
198,
224,
195,
209,
192,
200,
213,
196,
222,
207,
206,
158,
204,
199,
191,
192,
192,
181,
181,
187,
182,
161,
173,
173,
189,
196,
169,
168,
160,
151,
173,
149,
145,
160,
147,
147,
165,
153,
156,
158,
165,
133,
152,
121,
162,
123,
143,
138,
134,
127,
140,
113,
133,
137,
146,
149,
132,
135,
114,
117,
100,
106,
111,
112,
100,
144,
129,
109,
113,
86,
103,
100,
95,
106,
91,
111,
88,
88,
99,
94,
95,
93,
95,
84,
64,
84,
100,
92,
74,
85,
83,
70,
72,
91,
78,
83,
77,
89,
58,
64,
73,
83,
72,
67,
62,
80,
82,
71,
72,
60,
67,
65,
74,
66,
75,
59,
69,
57,
55,
62,
54,
53,
56,
65,
52,
49,
53,
39,
48,
53,
50,
51,
42,
38,
57,
46,
36,
35,
36,
37,
30,
57,
33,
42,
48,
32,
53,
38,
28,
49,
41,
33,
44,
32,
32,
36,
32,
40,
29,
27,
29,
41,
30,
29,
33,
24,
27,
29,
37,
33,
26,
27,
30,
32,
15,
30,
28,
31,
20,
31,
27,
28,
27,
19,
16,
17,
22,
27,
17,
18,
19,
18,
17,
17,
18,
16,
19,
18,
20,
20,
12,
20,
10,
14,
12,
9,
13,
11,
11,
18,
16,
13,
10,
13,
11,
7,
9,
12,
12,
13,
7,
12,
7,
6,
6,
5,
8,
10,
4,
11,
6,
13,
6,
10,
4,
8,
6,
6,
9,
4,
6,
7,
5,
6,
6,
5,
4,
2,
5,
5,
5,
4,
5,
5,
2,
2,
1,
3,
2,
5,
4,
2,
1,
2,
0,
2,
2,
0,
2,
0,
0,
1,
0,
1,
2,
0,
0,
0,
0,
0,
0,
0,
1,
0,
0,
0,
0,
0,
0,
0,
0,
0,
0,
0,
0,
0,
0,
0,
0,
0,
1,
0,
0,
0,
0,
0,
0,
0,
0,
0,
0,
0,
0,
0,
0,
0,
0,
0,
0,
1,
0,
0,
0,
0,
0,
0,
0,
1,
0,
0,
0,
0,
0,
0,
0,
0,
0,
0,
0,
0,
0,
0,
0,
0,
0,
0,
0,
0,
0,
0,
0,
0,
0,
0,
0,
0,
0,
0,
0,
0,
0,
0,
0,
0,
0,
0,
0,
0,
0,
0,
0,
0,
0,
0,
0,
0,
1,
0,
0,
0,
0,
0,
0,
0,
0,
0,
0,
0,
0,
0,
0,
0,
0,
0,
0,
0,
0,
0,
0,
0,
0,
0,
0,
0,
0,
0,
0,
0,
0,
0,
0,
0,
0,
0,
0,
0,
0,
0,
0,
0,
0,
0,
0,
0,
0,
0,
0,
0,
0,
0,
0,
0,
0,
0,
0,
0,
0,
0,
0,
0,
0,
0,
0,
0,
0,
0,
0,
0,
0,
0,
0,
0,
0,
0,
0,
0,
0,
0,
0,
0,
0,
0,
0,
0,
0,
0,
0,
0,
0,
0,
0,
0,
1,
0,
0,
0,
0,
0,
0,
0,
0,
0,
0,
0,
0,
0,
0,
0,
0,
0,
0,
0,
0,
0,
0,
0,
0,
0,
0,
0,
0,
0,
0,
0,
0,
0,
0,
0,
0,
0,
0,
0,
0,
0,
0,
0,
0,
0,
0,
0,
0,
0,
0,
0,
0,
0,
0,
0,
0,
0,
0,
0,
0,
0,
0,
0,
0,
0,
0,
0,
0,
0,
0,
0,
0,
0,
0,
0,
0,
0,
0,
0,
0,
0,
0,
0,
0,
0,
0,
0,
0,
0,
0,
0,
0,
0,
0,
0,
0,
0,
0,
0,
0,
0,
0,
0,
0,
0,
0,
0,
0,
0,
0,
0,
0,
0,
0,
0,
0,
0,
0,
0,
0,
0,
0,
0,
0,
0,
0,
0,
0,
0,
0,
0,
0,
0,
0,
0,
0,
0,
0,
0,
0,
0,
0,
0,
0,
0,
0,
0,
0,
0,
0,
0,
0,
0,
0,
0,
0,
0,
0,
0,
0,
0,
0,
0,
0,
0,
0,
0,
0,
0,
0,
0,
0,
0,
0,
0,
0,
0,
0,
0,
0,
0,
0,
0,
0,
0,
0,
0,
0,
0,
0,
0,
0,
0,
0,
0,
0,
0,
0,
0,
0,
0,
0,
0,
0,
0,
0,
0,
0,
0,
0,
0,
0,
0,
0,
0,
0,
0,
0,
0,
0,
0,
0,
0,
0,
0,
0,
0,
0,
0,
0,
0,
0,
0,
0,
0,
0,
0,
0,
0,
0,
0,
0,
0,
0,
0,
0,
0,
0,
0,
0,
0,
0,
0,
0,
0,
0,
0,
0,
0,
0,
0,
1,
0,
0,
0,
0,
0,
0,
0,
0,
0,
0,
0,
0,
0,
0,
0,
0,
0,
0,
0,
0,
0,
0,
0,
0,
0,
0,
0,
0,
0,
0,
0,
0,
0,
0,
0,
0,
0,
0,
0,
0,
0,
0,
0,
0,
0,
0,
0,
0,
0,
0,
0,
0,
0,
0,
0,
0,
0,
0,
0,
0,
0,
0,
0,
0,
0,
0,
0,
0,
0,
0,
0,
0,
0,
0,
0,
0,
0,
0,
0,
0,
0,
0,
0,
0,
0,
0,
0,
0,
0,
0,
0,
0,
0,
0,
0,
0,
0,
0,
0,
0,
0,
0,
0,
0,
0,
0,
0,
0,
0,
0,
0,
0,
0,
0,
0,
0,
0,
0,
0,
0,
0,
0,
0,
0,
0,
0,
0,
0,
0,
0,
0,
0,
0,
0,
0,
0,
0,
0,
0,
0,
0,
0,
0,
0,
0,
0,
0,
0,
0,
0,
0,
0,
0,
0,
0,
0,
0,
0,
0,
0,
0,
0,
0,
0,
0,
0,
0,
0,
0,
0,
0,
0,
0,
0,
0,
0,
0,
0,
0,
0,
0,
0,
0,
0,
0,
0,
0,
0,
0,
0,
0,
0,
0,
0,
0,
0,
0,
0,
0,
0,
0,
0,
0,
0,
0,
0,
0,
0,
0,
0,
0,
0,
0,
0,
0,
0,
0,
0,
0,
0,
0,
0,
0,
0,
0,
0,
0,
0,
0,
0,
0,
0,
0,
0,
0,
0,
0,
#ENDOFDATA   :