File: N132962/Quantification/MMM1/SPI MM1 Calcite[3][4].msa
#FORMAT      : EMSA/MAS Spectral Data File
#VERSION     : 1.0
#TITLE       : SPI MM1 Calcite[3][all]
#DATE        : 11-MAR-2025
#TIME        : 14:15
#OWNER       : Unknown
#NPOINTS     : 4096
#NCOLUMNS    : 1
#XUNITS      : eV
#YUNITS      : counts
#DATATYPE    : Y
#XPERCHAN    : 9.99778
#OFFSET      : 1.69135
#BEAMKV      : 20
#SIGNALTYPE  : EDS
#ELEVANGLE   : 35
#AZIMANGLE   : 0
#LIVETIME    : 239.905
#REALTIME    : 252.1939
#PROBECUR    : 1.02902
#TAUWIND     : 0
#TDEADLYR    : 0
#TACTLYR     : 0.045
#TALWIND     : 0.025
#CHOFFSET    : 0.0
#XLABEL      : Energy (eV)
#YLABEL      : Counts
#XPOSITION   : -0.11887
#YPOSITION   : -2.84361
#ZPOSITION   : 30.9284
#EDSDET      : SD
##SPECIMEN   : SPI MM1 Calcite[3][all]
##D2STDCMP   : Calcite,(C:12.0003),(O:47.9565),(Ca:40.0432),5.0
##DET_HASH   : 12273538-fd48-a23f-0a19-f1e6fa85caef
##CALIB_HASH : 6abaa72c-aa41-8738-0be9-f592914732f3
##WORKING    : 15.0 mm
##DET_NAME   : EDAX All
##DET_MODE   : MediumLE
#SPECTRUM    :
25,
28,
8,
17,
85,
469,
1855,
8719,
30084,
43290,
23508,
7678,
3313,
2170,
2877,
9135,
34931,
68162,
50707,
13835,
2335,
1352,
1482,
1639,
1643,
1652,
1788,
1929,
2090,
2147,
2250,
2323,
2338,
2428,
2632,
2738,
2965,
2929,
3076,
3178,
3323,
3306,
3498,
3480,
3602,
3629,
3699,
3773,
3890,
4142,
4113,
4039,
3891,
3991,
4206,
4154,
4210,
4452,
4634,
4743,
4570,
4152,
4036,
4409,
5438,
5869,
5066,
4161,
3780,
3659,
3510,
3655,
3527,
3606,
3675,
3646,
3661,
3696,
3477,
3253,
3298,
3224,
3268,
3213,
3168,
3235,
3215,
3028,
3083,
3001,
2969,
3015,
2977,
2941,
2939,
2854,
2963,
2939,
2856,
2793,
2787,
2811,
2836,
2737,
2734,
2781,
2774,
2719,
2676,
2699,
2635,
2526,
2433,
2476,
2522,
2639,
2934,
3592,
5250,
10838,
30857,
80523,
151683,
192373,
162096,
89947,
34680,
10455,
4028,
3324,
4372,
7950,
14587,
22405,
24838,
19775,
11166,
5129,
2479,
1697,
1657,
1637,
1562,
1532,
1506,
1460,
1545,
1502,
1437,
1485,
1443,
1435,
1350,
1450,
1462,
1405,
1335,
1369,
1290,
1422,
1362,
1344,
1332,
1277,
1344,
1316,
1353,
1290,
1336,
1326,
1257,
1281,
1251,
1289,
1257,
1291,
1244,
1216,
1227,
1201,
1243,
1254,
1191,
1168,
1245,
1222,
1110,
1212,
1178,
1149,
1125,
1156,
1118,
1117,
1176,
1191,
1224,
1232,
1174,
1137,
1092,
1111,
1071,
995,
1136,
1021,
1017,
1031,
990,
1049,
1023,
1075,
1085,
1047,
1072,
1058,
1013,
974,
895,
973,
912,
929,
919,
921,
862,
921,
915,
916,
874,
884,
902,
866,
885,
857,
845,
884,
827,
870,
857,
800,
799,
803,
830,
838,
890,
924,
970,
956,
931,
942,
838,
799,
761,
738,
777,
786,
714,
726,
751,
751,
661,
683,
647,
664,
697,
665,
699,
656,
657,
684,
717,
697,
645,
661,
676,
613,
657,
656,
671,
594,
606,
589,
612,
587,
603,
593,
601,
563,
561,
576,
583,
595,
541,
518,
585,
553,
565,
542,
564,
526,
522,
534,
541,
528,
554,
548,
516,
522,
477,
528,
519,
508,
490,
464,
488,
491,
483,
462,
471,
449,
480,
425,
486,
458,
452,
473,
450,
440,
457,
502,
410,
417,
455,
442,
427,
429,
428,
386,
426,
412,
410,
363,
407,
380,
431,
383,
418,
391,
368,
360,
368,
379,
387,
375,
365,
357,
357,
370,
343,
334,
318,
328,
315,
327,
307,
307,
295,
316,
315,
312,
341,
283,
326,
317,
283,
315,
287,
299,
310,
256,
288,
260,
290,
291,
268,
268,
286,
276,
266,
265,
237,
266,
264,
259,
277,
237,
225,
250,
238,
226,
251,
271,
219,
250,
250,
206,
213,
252,
256,
201,
240,
211,
232,
212,
208,
202,
230,
182,
213,
198,
200,
205,
201,
204,
174,
187,
200,
188,
189,
185,
184,
176,
156,
176,
178,
190,
180,
194,
154,
156,
142,
171,
149,
141,
168,
166,
139,
152,
143,
140,
138,
121,
134,
168,
126,
123,
146,
122,
145,
136,
143,
141,
139,
138,
142,
128,
111,
117,
114,
124,
140,
103,
116,
114,
105,
103,
108,
97,
115,
108,
108,
113,
103,
102,
116,
102,
95,
100,
93,
85,
105,
84,
85,
92,
82,
93,
88,
73,
85,
91,
67,
91,
91,
76,
74,
75,
95,
73,
84,
54,
70,
66,
64,
83,
68,
72,
80,
59,
65,
61,
61,
62,
67,
49,
54,
45,
63,
62,
54,
58,
61,
61,
49,
49,
52,
62,
49,
46,
64,
46,
51,
60,
42,
44,
40,
52,
43,
33,
57,
37,
47,
38,
44,
44,
33,
36,
39,
39,
35,
32,
33,
28,
31,
36,
32,
39,
29,
27,
32,
27,
31,
36,
21,
27,
30,
32,
22,
25,
38,
31,
33,
25,
18,
25,
28,
21,
17,
22,
27,
19,
24,
25,
17,
20,
18,
27,
21,
19,
16,
28,
19,
13,
15,
15,
10,
16,
15,
12,
9,
16,
13,
15,
11,
8,
12,
10,
10,
12,
12,
17,
11,
10,
11,
10,
15,
6,
3,
6,
3,
4,
13,
8,
10,
7,
5,
2,
5,
2,
4,
5,
8,
2,
7,
5,
4,
2,
3,
4,
1,
5,
5,
3,
3,
4,
5,
0,
1,
2,
1,
1,
2,
1,
2,
0,
0,
0,
0,
0,
0,
2,
0,
1,
0,
1,
0,
0,
2,
0,
0,
0,
0,
0,
0,
0,
0,
0,
0,
0,
1,
0,
0,
0,
0,
0,
0,
0,
0,
0,
0,
0,
0,
0,
0,
1,
0,
0,
1,
0,
0,
0,
0,
0,
0,
0,
0,
0,
0,
0,
0,
0,
0,
0,
0,
1,
1,
0,
0,
0,
0,
0,
0,
0,
0,
0,
0,
0,
0,
0,
0,
1,
0,
0,
0,
2,
0,
0,
1,
1,
0,
0,
0,
0,
0,
0,
0,
0,
0,
0,
0,
0,
0,
0,
0,
0,
0,
0,
0,
0,
0,
0,
0,
0,
0,
0,
0,
1,
0,
0,
0,
0,
0,
0,
0,
0,
0,
0,
0,
0,
0,
0,
0,
0,
0,
0,
0,
0,
0,
0,
0,
0,
0,
0,
0,
0,
0,
0,
0,
1,
0,
0,
0,
0,
0,
0,
0,
0,
0,
0,
0,
0,
0,
0,
0,
0,
0,
0,
0,
0,
1,
0,
0,
0,
0,
0,
0,
0,
0,
0,
0,
0,
0,
0,
0,
0,
0,
0,
0,
0,
0,
0,
0,
0,
0,
0,
0,
0,
0,
0,
0,
0,
0,
0,
0,
0,
0,
0,
0,
0,
0,
0,
0,
0,
0,
0,
0,
0,
0,
0,
0,
0,
0,
0,
0,
0,
0,
0,
0,
0,
0,
0,
0,
0,
0,
0,
0,
0,
0,
0,
0,
0,
0,
0,
0,
0,
0,
0,
0,
0,
0,
0,
0,
0,
0,
0,
0,
0,
0,
0,
0,
0,
0,
0,
0,
0,
0,
0,
0,
0,
0,
0,
0,
0,
0,
0,
0,
0,
0,
0,
0,
0,
0,
0,
0,
0,
0,
0,
0,
0,
0,
0,
0,
0,
0,
0,
0,
0,
0,
0,
0,
0,
0,
0,
0,
0,
0,
0,
0,
0,
0,
0,
0,
0,
0,
0,
0,
0,
0,
0,
0,
0,
0,
0,
0,
0,
0,
0,
0,
0,
0,
0,
0,
0,
0,
0,
0,
0,
0,
0,
0,
0,
0,
0,
0,
0,
0,
0,
0,
0,
0,
0,
0,
0,
0,
0,
0,
0,
0,
0,
0,
0,
0,
0,
0,
0,
0,
0,
0,
0,
0,
0,
0,
0,
0,
0,
0,
0,
0,
0,
0,
0,
0,
0,
0,
0,
0,
0,
0,
0,
0,
0,
0,
0,
0,
0,
0,
0,
0,
0,
0,
0,
0,
0,
0,
0,
0,
0,
0,
0,
0,
0,
0,
0,
0,
0,
0,
0,
0,
0,
0,
0,
0,
0,
0,
0,
0,
0,
0,
0,
0,
0,
0,
0,
0,
0,
0,
0,
0,
0,
0,
0,
0,
0,
0,
0,
0,
0,
0,
0,
0,
0,
0,
0,
0,
0,
0,
0,
0,
0,
0,
0,
0,
0,
0,
0,
0,
0,
0,
0,
0,
0,
0,
0,
0,
0,
0,
0,
0,
0,
0,
0,
0,
0,
0,
0,
0,
0,
0,
0,
0,
0,
0,
0,
0,
0,
0,
0,
0,
0,
0,
0,
0,
0,
0,
0,
0,
0,
0,
0,
0,
0,
0,
0,
0,
0,
0,
0,
0,
0,
0,
0,
0,
0,
0,
0,
0,
0,
0,
0,
0,
0,
0,
0,
0,
0,
0,
0,
0,
0,
0,
0,
0,
0,
0,
0,
0,
0,
0,
0,
0,
0,
0,
0,
0,
0,
0,
0,
0,
0,
0,
0,
0,
0,
0,
0,
0,
0,
0,
0,
0,
0,
0,
0,
0,
0,
0,
0,
0,
0,
0,
0,
0,
0,
0,
0,
0,
0,
0,
0,
0,
0,
0,
0,
0,
0,
0,
0,
0,
0,
0,
0,
0,
0,
0,
0,
0,
0,
0,
0,
0,
0,
0,
0,
0,
0,
0,
0,
0,
0,
0,
0,
0,
0,
0,
0,
0,
0,
0,
0,
0,
0,
0,
0,
0,
0,
0,
0,
0,
0,
0,
0,
0,
0,
0,
0,
0,
0,
0,
0,
0,
0,
0,
0,
0,
0,
0,
0,
0,
0,
0,
0,
0,
0,
0,
0,
0,
0,
0,
0,
0,
0,
0,
0,
0,
0,
0,
0,
0,
0,
0,
0,
0,
0,
0,
0,
0,
0,
0,
0,
0,
0,
0,
0,
0,
0,
0,
0,
0,
0,
0,
0,
0,
0,
0,
0,
0,
0,
#ENDOFDATA   :