File: N132962/Standards/20 keV/Ag std.msa
#FORMAT      : EMSA/MAS Spectral Data File
#VERSION     : 1.0
#TITLE       : G588 Ag[2][all]+G588 Ag[3][all]+G588 Ag[4][all]
#NPOINTS     : 4096
#NCOLUMNS    : 1
#XUNITS      : eV
#YUNITS      : counts
#DATATYPE    : Y
#SIGNALTYPE  : EDS
#XLABEL      : Energy (eV)
#YLABEL      : Counts
#XPERCHAN -eV: 9.99778
#OFFSET   -eV: 1.69135
#CHOFFSET    : 0
#OWNER       : Unknown
#ELEVANGLE   : 35
#BEAMKV   -kV: 20
#LIVETIME  -s: 717.687
#REALTIME  -s: 793.972
#PROBECUR -nA: 0.83562
##WORKING -mm: 15
##D2STDCMP   : Ag,(Ag:100.0000),5.000
#SPECTRUM    :
76,
100,
54,
271,
1707,
6327,
13099,
23909,
51662,
87529,
88375,
54639,
30455,
20826,
14865,
15107,
19484,
21647,
18864,
15985,
14321,
13847,
15041,
15349,
13903,
12760,
12796,
14415,
15777,
16442,
16249,
15856,
15802,
16155,
17020,
17473,
17828,
18943,
19612,
21087,
25750,
31312,
30566,
25864,
23454,
23637,
26178,
28540,
30232,
32433,
32420,
29144,
26815,
26730,
26502,
26879,
28967,
31862,
33243,
31983,
29316,
27740,
26097,
24893,
25066,
25111,
25141,
25560,
25940,
26248,
27790,
32079,
40473,
48622,
50742,
53285,
61645,
62368,
49525,
34943,
28247,
27340,
28201,
28596,
29179,
34719,
48829,
68188,
71939,
57120,
39585,
31246,
31445,
36449,
41000,
47363,
78107,
191150,
435730,
696353,
712956,
471382,
236013,
177660,
254261,
327890,
299630,
207796,
131116,
91060,
80540,
88907,
88098,
68000,
43370,
31496,
31613,
35649,
33417,
25638,
18263,
14880,
14517,
16398,
19188,
20393,
18915,
16512,
15521,
17629,
22538,
26310,
25116,
20260,
15661,
13373,
12634,
12571,
13751,
15802,
18434,
19146,
18675,
16608,
14937,
14012,
13273,
12884,
13231,
13821,
14315,
14292,
13634,
13099,
12522,
12287,
12248,
12262,
12688,
12946,
12941,
12837,
12456,
12286,
12109,
11983,
12149,
12211,
12341,
12198,
12227,
11987,
12103,
11970,
11936,
11802,
11704,
11782,
11805,
11703,
11815,
11896,
11663,
11603,
11459,
11485,
11578,
11427,
11332,
11261,
11546,
11332,
11336,
11260,
11162,
11366,
11201,
11577,
11833,
11710,
11684,
11576,
11471,
11292,
11539,
11478,
11271,
10951,
11078,
10973,
11169,
11519,
11825,
11969,
12017,
11316,
10844,
10341,
10249,
10018,
10186,
9862,
9915,
9780,
9848,
9761,
9613,
9732,
9792,
9667,
9480,
9509,
9696,
9595,
9438,
9615,
9545,
9351,
9410,
9378,
9251,
9171,
9063,
9007,
8972,
8940,
9194,
9176,
9647,
9686,
9224,
8950,
8856,
8557,
8413,
8506,
8409,
8398,
8401,
8175,
8134,
8119,
8053,
7991,
8268,
8041,
8109,
8015,
7977,
7964,
7916,
7983,
7784,
7773,
7852,
7886,
7789,
7740,
7570,
7461,
7379,
7377,
7407,
7302,
7320,
7297,
7108,
7152,
7253,
7250,
7160,
6945,
7133,
6868,
6982,
7012,
6683,
6772,
6708,
6684,
6634,
6566,
6661,
6622,
6550,
6453,
6379,
6356,
6281,
6308,
6339,
6367,
6144,
6173,
6220,
6226,
6188,
6173,
6173,
6020,
6108,
5898,
6049,
6128,
6006,
5899,
5865,
5941,
6014,
6425,
6833,
7249,
7353,
7501,
7385,
6876,
6228,
5824,
5539,
5458,
5324,
5252,
5167,
5201,
5143,
5127,
5239,
5096,
5061,
5060,
4973,
4975,
4915,
4883,
4781,
4978,
4837,
4743,
4846,
4767,
4659,
4557,
4740,
4524,
4525,
4430,
4583,
4513,
4424,
4405,
4426,
4343,
4275,
4357,
4347,
4302,
4100,
4218,
4264,
4094,
4065,
4014,
4042,
3967,
4080,
4020,
3893,
3869,
3921,
3715,
3986,
4072,
4164,
4307,
4417,
4504,
4367,
4547,
4179,
3950,
3819,
3631,
3508,
3374,
3344,
3417,
3299,
3324,
3386,
3320,
3264,
3112,
3171,
3191,
2968,
3171,
3018,
3044,
3022,
2948,
2949,
2928,
2939,
2976,
2935,
2856,
2769,
2867,
2760,
2801,
2820,
2756,
2682,
2583,
2673,
2600,
2649,
2603,
2519,
2476,
2457,
2334,
2464,
2540,
2450,
2408,
2320,
2322,
2278,
2322,
2301,
2264,
2300,
2216,
2231,
2213,
2239,
2193,
2147,
2183,
2078,
2168,
2194,
2065,
2117,
2012,
2046,
1907,
1906,
1911,
1911,
1805,
1892,
1884,
1813,
1779,
1786,
1853,
1766,
1783,
1711,
1760,
1704,
1635,
1665,
1620,
1604,
1578,
1618,
1542,
1584,
1492,
1529,
1535,
1568,
1431,
1469,
1455,
1427,
1469,
1394,
1397,
1400,
1383,
1264,
1344,
1345,
1295,
1268,
1307,
1269,
1271,
1212,
1222,
1173,
1172,
1180,
1138,
1139,
1159,
1181,
1126,
1100,
1081,
1069,
1093,
1058,
1038,
1033,
991,
993,
1012,
974,
931,
939,
936,
933,
906,
929,
836,
918,
887,
849,
857,
866,
851,
894,
816,
819,
813,
759,
785,
718,
713,
772,
780,
716,
700,
744,
690,
722,
649,
684,
653,
688,
643,
630,
605,
615,
636,
628,
593,
588,
573,
558,
527,
571,
520,
554,
534,
514,
497,
497,
465,
488,
493,
449,
449,
425,
448,
393,
465,
364,
380,
416,
429,
376,
379,
436,
374,
377,
367,
372,
341,
308,
318,
333,
309,
278,
286,
284,
275,
272,
283,
269,
255,
297,
245,
231,
256,
238,
218,
222,
213,
212,
201,
210,
208,
191,
188,
195,
164,
177,
200,
164,
143,
140,
148,
143,
136,
143,
143,
127,
125,
115,
121,
118,
86,
85,
101,
82,
75,
78,
59,
65,
58,
62,
44,
42,
32,
22,
32,
43,
27,
26,
27,
17,
14,
12,
11,
11,
7,
5,
10,
13,
8,
7,
14,
13,
10,
7,
11,
6,
13,
4,
14,
13,
12,
4,
12,
8,
10,
8,
11,
7,
11,
5,
10,
9,
5,
7,
4,
12,
7,
7,
8,
10,
5,
5,
10,
9,
5,
4,
7,
4,
6,
4,
11,
6,
2,
6,
7,
2,
5,
4,
5,
9,
3,
2,
3,
7,
4,
7,
4,
4,
6,
3,
7,
7,
2,
4,
4,
3,
3,
6,
0,
2,
4,
3,
3,
4,
4,
2,
4,
4,
4,
1,
3,
1,
1,
2,
4,
1,
1,
2,
1,
2,
5,
7,
1,
7,
5,
0,
1,
5,
1,
1,
2,
3,
3,
5,
0,
3,
0,
2,
1,
3,
2,
1,
3,
2,
3,
1,
2,
1,
3,
0,
3,
4,
1,
3,
2,
3,
0,
0,
0,
2,
3,
1,
0,
2,
0,
2,
3,
1,
4,
4,
1,
2,
0,
1,
0,
3,
4,
5,
4,
3,
3,
1,
3,
1,
2,
3,
2,
3,
4,
2,
2,
1,
0,
3,
2,
4,
2,
2,
1,
1,
1,
2,
1,
0,
1,
1,
0,
1,
3,
3,
1,
0,
0,
2,
1,
1,
1,
3,
1,
1,
1,
0,
2,
0,
3,
0,
0,
1,
1,
1,
1,
1,
0,
3,
0,
2,
2,
1,
3,
0,
1,
0,
2,
0,
3,
3,
2,
2,
0,
0,
1,
1,
4,
0,
3,
1,
0,
1,
0,
2,
0,
1,
0,
0,
1,
1,
1,
1,
1,
1,
1,
1,
0,
1,
0,
1,
1,
0,
0,
1,
1,
0,
1,
0,
2,
2,
1,
0,
0,
0,
0,
0,
0,
0,
1,
0,
1,
1,
1,
2,
0,
1,
1,
0,
1,
0,
0,
1,
1,
1,
1,
0,
0,
1,
1,
1,
2,
1,
0,
0,
0,
0,
0,
0,
0,
1,
0,
0,
1,
0,
1,
0,
0,
0,
0,
2,
0,
0,
1,
1,
0,
0,
0,
0,
0,
0,
1,
0,
0,
0,
0,
0,
0,
1,
0,
0,
0,
0,
0,
0,
0,
0,
0,
0,
0,
0,
0,
0,
0,
1,
0,
0,
0,
1,
1,
1,
0,
0,
0,
1,
0,
0,
1,
0,
0,
0,
0,
0,
0,
0,
0,
0,
1,
0,
0,
0,
0,
0,
0,
0,
0,
0,
0,
0,
0,
0,
0,
0,
0,
0,
0,
0,
0,
0,
0,
0,
0,
0,
0,
0,
0,
0,
0,
0,
1,
0,
0,
0,
0,
0,
0,
0,
0,
0,
0,
0,
0,
0,
0,
0,
0,
1,
1,
0,
0,
0,
0,
1,
0,
0,
0,
0,
0,
0,
0,
0,
1,
0,
0,
0,
0,
0,
0,
0,
1,
0,
0,
0,
0,
0,
0,
0,
0,
0,
0,
0,
0,
0,
0,
1,
0,
0,
1,
0,
0,
0,
0,
0,
0,
0,
0,
0,
0,
0,
0,
0,
0,
0,
0,
0,
0,
0,
0,
0,
0,
0,
0,
0,
0,
0,
0,
0,
0,
1,
0,
0,
0,
0,
0,
0,
0,
0,
0,
0,
0,
0,
0,
0,
0,
0,
0,
0,
0,
0,
0,
0,
0,
0,
0,
0,
0,
0,
0,
0,
0,
0,
0,
0,
0,
0,
0,
0,
0,
0,
0,
0,
0,
0,
0,
0,
1,
0,
0,
0,
0,
0,
0,
0,
0,
0,
0,
0,
0,
0,
0,
0,
0,
0,
0,
0,
0,
0,
0,
0,
0,
0,
0,
0,
0,
0,
0,
0,
0,
0,
0,
0,
0,
0,
0,
0,
0,
0,
0,
0,
0,
0,
0,
0,
0,
0,
0,
0,
0,
0,
0,
0,
0,
0,
0,
0,
0,
0,
0,
0,
0,
0,
0,
0,
0,
0,
0,
0,
0,
0,
0,
0,
0,
0,
0,
0,
0,
0,
0,
0,
0,
0,
0,
0,
0,
0,
0,
0,
0,
0,
0,
0,
0,
0,
0,
0,
0,
0,
0,
0,
0,
0,
0,
0,
0,
0,
0,
0,
0,
0,
0,
0,
0,
0,
0,
0,
0,
0,
0,
0,
0,
0,
0,
0,
0,
0,
0,
0,
0,
0,
0,
0,
0,
0,
0,
0,
0,
0,
0,
0,
0,
0,
0,
0,
0,
0,
0,
0,
0,
0,
0,
0,
0,
0,
0,
#ENDOFDATA   :