File: N132962/Standards/20 keV/Al std.msa
#FORMAT      : EMSA/MAS Spectral Data File
#VERSION     : 1.0
#TITLE       : Al std
#DATE        : 20-FEB-2025
#TIME        : 16:03
#OWNER       : Unknown
#NPOINTS     : 4096
#NCOLUMNS    : 1
#XUNITS      : eV
#YUNITS      : counts
#DATATYPE    : Y
#XPERCHAN    : 9.99778
#OFFSET      : 1.69135
#BEAMKV      : 20
#SIGNALTYPE  : EDS
#ELEVANGLE   : 35
#AZIMANGLE   : 0
#LIVETIME    : 719.233
#REALTIME    : 825.443
#PROBECUR    : 1.04971
#TAUWIND     : 0
#TDEADLYR    : 0
#TACTLYR     : 0.045
#TALWIND     : 0.025
#CHOFFSET    : 0.0
#XLABEL      : Energy (eV)
#YLABEL      : Counts
#EDSDET      : SD
##SPECIMEN   : Al std
##D2STDCMP   : Al,(Al:100.0),5.0
##DET_HASH   : 12273538-fd48-a23f-0a19-f1e6fa85caef
##CALIB_HASH : 6abaa72c-aa41-8738-0be9-f592914732f3
##WORKING    : 15.0 mm
##SAMPLE     : <BulkSample id="1">\n<mOrientation id="2">\n<double>0.0</double>\n<double>0.0</double>\n<double>-1.0</double>\n</mOrientation>\n</BulkSample>
##MULTISPEC  : 1.83723
##DET_NAME   : EDAX All
##DET_MODE   : MediumLE
#SPECTRUM    :
75,
89,
125,
120,
265,
993,
2407,
4706,
9175,
11297,
8288,
6327,
6941,
7583,
8715,
12764,
26774,
43522,
35028,
18161,
13551,
15934,
18916,
19833,
18591,
18428,
19342,
20340,
21345,
22074,
22356,
23269,
23805,
24278,
24970,
25400,
26064,
26703,
27586,
28719,
31003,
33323,
36470,
40871,
45741,
54278,
106208,
469317,
1803806,
3686263,
3682120,
1828945,
510047,
110854,
25953,
8787,
6471,
6694,
6969,
6727,
6213,
5803,
5581,
5668,
5582,
5973,
6435,
6635,
6446,
6321,
6348,
6506,
6397,
6559,
6708,
6808,
6787,
6985,
7120,
7035,
6963,
7027,
7114,
7116,
7237,
7140,
7264,
7317,
7316,
7330,
7154,
7357,
7658,
7661,
7856,
8484,
11218,
19448,
32187,
41522,
35936,
22766,
12937,
8496,
7079,
6634,
6518,
6670,
6656,
6509,
6679,
6503,
6306,
6452,
6414,
6313,
6419,
6382,
6384,
6154,
6243,
6386,
6149,
6209,
6160,
6092,
6056,
6087,
5964,
5969,
6046,
5844,
5883,
5806,
5796,
5620,
5888,
5876,
5558,
5686,
5624,
5532,
5568,
5462,
5535,
5505,
5410,
5366,
5668,
5446,
5433,
5281,
5272,
5154,
5021,
5055,
5167,
4967,
5068,
4880,
4883,
4706,
4827,
4815,
4756,
4728,
4665,
4520,
4586,
4737,
4668,
4626,
4583,
4592,
4405,
4533,
4490,
4593,
4340,
4216,
4366,
4351,
4312,
4113,
4195,
4207,
4165,
4009,
4089,
4139,
4051,
3982,
3983,
3977,
3933,
3996,
3884,
3859,
3834,
3841,
3739,
3758,
3708,
3648,
3674,
3515,
3591,
3596,
3413,
3553,
3539,
3736,
3784,
3871,
3680,
3612,
3579,
3281,
3293,
3348,
3194,
3117,
3190,
3123,
3128,
3134,
3077,
3038,
3040,
3026,
3114,
3065,
2948,
2906,
2952,
3062,
2840,
2943,
2778,
2803,
2729,
2819,
2687,
2760,
2792,
2704,
2754,
2789,
2822,
2766,
2838,
2793,
2651,
2595,
2456,
2520,
2498,
2491,
2525,
2518,
2437,
2467,
2402,
2383,
2450,
2326,
2405,
2348,
2354,
2196,
2317,
2307,
2189,
2251,
2194,
2229,
2168,
2144,
2191,
2157,
2065,
2079,
2073,
2010,
2040,
2069,
2027,
2034,
1955,
2076,
2031,
1863,
1961,
1866,
1988,
1930,
1943,
1885,
1937,
1834,
1841,
1838,
1821,
1748,
1779,
1770,
1754,
1766,
1746,
1759,
1686,
1695,
1720,
1723,
1625,
1715,
1621,
1645,
1587,
1635,
1574,
1574,
1544,
1563,
1593,
1561,
1519,
1477,
1471,
1523,
1455,
1523,
1449,
1444,
1467,
1395,
1396,
1481,
1380,
1370,
1426,
1341,
1384,
1390,
1312,
1331,
1356,
1232,
1209,
1299,
1293,
1311,
1231,
1243,
1262,
1199,
1256,
1283,
1149,
1206,
1159,
1165,
1149,
1152,
1178,
1143,
1089,
1105,
1101,
1096,
1112,
1045,
1051,
1049,
1072,
1013,
1077,
995,
1017,
1017,
986,
988,
945,
923,
953,
980,
986,
976,
880,
874,
895,
885,
876,
883,
842,
892,
845,
813,
853,
846,
877,
779,
785,
806,
770,
825,
778,
807,
749,
775,
744,
704,
749,
715,
726,
711,
641,
677,
699,
694,
643,
706,
627,
666,
667,
677,
649,
640,
604,
599,
582,
635,
597,
616,
537,
632,
575,
558,
517,
548,
511,
573,
584,
526,
560,
579,
520,
539,
532,
513,
515,
510,
493,
466,
455,
511,
489,
430,
465,
455,
446,
471,
430,
428,
426,
451,
407,
415,
403,
416,
400,
385,
399,
362,
379,
387,
383,
417,
325,
360,
367,
338,
345,
327,
375,
321,
314,
323,
334,
340,
365,
290,
315,
316,
307,
281,
282,
310,
309,
260,
305,
256,
276,
276,
290,
272,
272,
225,
224,
242,
255,
277,
234,
256,
259,
242,
227,
212,
239,
221,
215,
233,
210,
204,
198,
223,
207,
221,
181,
200,
202,
207,
212,
172,
191,
169,
190,
170,
168,
158,
157,
161,
150,
155,
168,
164,
139,
144,
129,
146,
151,
153,
142,
135,
134,
122,
142,
113,
114,
127,
112,
121,
111,
122,
125,
121,
118,
98,
95,
110,
103,
103,
102,
90,
86,
103,
92,
73,
93,
83,
106,
73,
83,
98,
80,
84,
78,
91,
68,
59,
66,
76,
63,
63,
80,
77,
57,
62,
69,
61,
57,
64,
56,
63,
58,
53,
47,
57,
48,
43,
52,
39,
45,
42,
49,
40,
32,
32,
36,
44,
43,
39,
30,
41,
28,
30,
30,
28,
23,
33,
29,
30,
25,
23,
28,
22,
22,
29,
22,
27,
25,
23,
17,
19,
18,
22,
16,
14,
15,
12,
12,
12,
12,
10,
8,
14,
4,
7,
9,
3,
6,
3,
3,
5,
4,
2,
4,
0,
1,
0,
2,
0,
0,
0,
2,
1,
0,
1,
0,
1,
1,
1,
2,
0,
2,
1,
0,
0,
1,
1,
1,
1,
5,
1,
1,
0,
0,
2,
0,
0,
0,
0,
0,
0,
0,
0,
0,
0,
0,
0,
0,
0,
3,
1,
0,
0,
1,
0,
1,
0,
2,
0,
0,
0,
0,
0,
1,
0,
1,
0,
0,
0,
0,
0,
0,
0,
0,
0,
0,
1,
0,
0,
0,
0,
3,
0,
1,
0,
1,
1,
1,
2,
1,
0,
0,
0,
0,
2,
0,
0,
0,
0,
0,
0,
0,
0,
0,
0,
0,
2,
0,
0,
1,
0,
0,
0,
0,
1,
0,
0,
0,
0,
0,
0,
0,
0,
0,
0,
0,
0,
0,
0,
0,
0,
0,
0,
0,
1,
0,
0,
0,
0,
0,
0,
0,
0,
0,
0,
0,
0,
0,
0,
0,
1,
0,
0,
0,
0,
0,
0,
1,
0,
0,
0,
0,
1,
0,
1,
0,
0,
1,
0,
0,
0,
0,
0,
0,
0,
0,
0,
0,
0,
0,
0,
0,
0,
0,
0,
0,
0,
0,
0,
0,
0,
0,
0,
0,
0,
0,
1,
0,
0,
0,
1,
0,
0,
0,
0,
0,
0,
0,
0,
0,
0,
0,
0,
0,
0,
0,
0,
0,
0,
0,
0,
0,
0,
0,
0,
0,
0,
0,
0,
0,
0,
0,
0,
0,
0,
0,
0,
0,
0,
0,
0,
0,
0,
0,
0,
0,
0,
0,
0,
0,
0,
0,
0,
0,
0,
0,
0,
0,
0,
0,
0,
0,
0,
0,
0,
0,
0,
0,
0,
0,
0,
0,
0,
0,
0,
0,
0,
0,
0,
0,
0,
0,
0,
0,
0,
0,
0,
0,
0,
0,
0,
0,
0,
0,
0,
0,
0,
0,
0,
0,
0,
0,
0,
0,
0,
0,
0,
0,
0,
0,
0,
0,
0,
0,
0,
0,
0,
0,
0,
0,
0,
0,
0,
0,
0,
0,
0,
0,
0,
0,
0,
0,
0,
0,
0,
0,
0,
0,
0,
0,
0,
0,
0,
0,
0,
0,
0,
0,
0,
0,
0,
0,
0,
0,
0,
0,
0,
0,
0,
0,
0,
0,
0,
0,
0,
0,
0,
0,
0,
0,
0,
0,
0,
0,
0,
0,
0,
0,
0,
0,
0,
0,
1,
0,
0,
0,
0,
0,
0,
0,
0,
0,
0,
0,
0,
0,
0,
0,
0,
0,
0,
0,
0,
0,
0,
0,
0,
0,
0,
0,
0,
0,
0,
0,
0,
0,
0,
0,
0,
0,
0,
0,
0,
0,
0,
0,
0,
0,
0,
0,
0,
0,
0,
0,
0,
0,
0,
0,
0,
0,
0,
0,
0,
0,
0,
0,
0,
0,
0,
0,
0,
0,
0,
0,
0,
0,
0,
0,
0,
0,
0,
0,
0,
0,
0,
0,
0,
0,
0,
0,
0,
0,
0,
0,
0,
0,
0,
0,
0,
0,
0,
0,
0,
0,
0,
0,
0,
0,
0,
0,
0,
0,
0,
0,
0,
0,
0,
0,
0,
0,
0,
0,
0,
0,
0,
0,
0,
0,
0,
0,
0,
0,
0,
0,
0,
0,
0,
0,
0,
0,
0,
0,
0,
0,
0,
0,
0,
0,
0,
0,
0,
0,
0,
0,
0,
0,
0,
0,
0,
0,
0,
0,
0,
0,
0,
0,
0,
0,
0,
0,
0,
0,
0,
0,
0,
0,
0,
0,
0,
0,
0,
0,
0,
0,
0,
0,
0,
0,
0,
0,
0,
0,
0,
0,
0,
0,
0,
0,
0,
0,
0,
0,
0,
0,
0,
0,
0,
0,
0,
0,
0,
0,
0,
0,
0,
0,
0,
0,
0,
0,
0,
0,
0,
0,
0,
0,
0,
0,
0,
0,
0,
0,
0,
0,
0,
0,
0,
0,
0,
0,
0,
0,
0,
0,
0,
0,
0,
0,
0,
0,
0,
0,
0,
0,
0,
0,
0,
0,
0,
0,
0,
0,
0,
0,
0,
0,
0,
0,
0,
0,
0,
0,
0,
0,
0,
0,
0,
0,
0,
0,
0,
0,
0,
0,
0,
0,
0,
0,
0,
0,
0,
0,
0,
0,
0,
0,
0,
0,
0,
0,
0,
0,
0,
0,
0,
0,
0,
0,
0,
0,
0,
0,
0,
0,
0,
0,
0,
0,
0,
0,
0,
0,
0,
#ENDOFDATA   :