File: N132962/Standards/20 keV/Al2O3 std.msa
#FORMAT      : EMSA/MAS Spectral Data File
#VERSION     : 1.0
#TITLE       : Al2O3 std
#DATE        : 12-SEP-2025
#TIME        : 09:28
#OWNER       : Unknown
#NPOINTS     : 4096
#NCOLUMNS    : 1
#XUNITS      : eV
#YUNITS      : counts
#DATATYPE    : Y
#XPERCHAN    : 9.99778
#OFFSET      : 1.69135
#BEAMKV      : 20
#SIGNALTYPE  : EDS
#ELEVANGLE   : 35
#AZIMANGLE   : 0
#LIVETIME    : 1200.97
#REALTIME    : 1317.01
#PROBECUR    : 1.23853
#TAUWIND     : 0
#TDEADLYR    : 0
#TACTLYR     : 0.045
#TALWIND     : 0.025
#CHOFFSET    : 0.0
#XLABEL      : Energy (eV)
#YLABEL      : Counts
#EDSDET      : SD
##SPECIMEN   : Al2O3 std
##D2STDCMP   : Al2O3,(O:47.0749),(Al:52.9251),4.0
##DET_HASH   : 12273538-fd48-a23f-0a19-f1e6fa85caef
##CALIB_HASH : 6abaa72c-aa41-8738-0be9-f592914732f3
##WORKING    : 15.0 mm
##SAMPLE     : <BulkSample id="1">\n<mOrientation id="2">\n<double>0.0</double>\n<double>0.0</double>\n<double>-1.0</double>\n</mOrientation>\n</BulkSample>
##MULTISPEC  : 1.24231
##DET_NAME   : EDAX All
##DET_MODE   : MediumLE
#SPECTRUM    :
174,
194,
76,
95,
484,
1668,
4333,
9662,
20911,
26044,
18153,
14041,
16613,
22737,
46643,
185967,
705035,
1317316,
958276,
258324,
33614,
11583,
12139,
13522,
13729,
13307,
13544,
15200,
16290,
17267,
17787,
18510,
19912,
21029,
23057,
24155,
23732,
24336,
24991,
26621,
28778,
30845,
33567,
37713,
42612,
50834,
93710,
377457,
1407500,
2866663,
2902925,
1478756,
429589,
100013,
29475,
14480,
12340,
12420,
13212,
13568,
13317,
12861,
12279,
12396,
13568,
17539,
22356,
24069,
20132,
15301,
13076,
12713,
12668,
12741,
13057,
13011,
12880,
12833,
12936,
13027,
12875,
13019,
13136,
12969,
13041,
12993,
12956,
13078,
13168,
12976,
13116,
12868,
12973,
13044,
13044,
13213,
13900,
16754,
21549,
25111,
23299,
18206,
14480,
12807,
11996,
12111,
11776,
11779,
11737,
11466,
11619,
11471,
11140,
11266,
11236,
11169,
11185,
11141,
10733,
10911,
10850,
10620,
10770,
10580,
10540,
10390,
10441,
10357,
10156,
10048,
10074,
9924,
9683,
9652,
9741,
9825,
9633,
9403,
9527,
9420,
9391,
9302,
9197,
9297,
8851,
9017,
8906,
8877,
8682,
8791,
9015,
8670,
8425,
8607,
8615,
8425,
8243,
8223,
8190,
8057,
8183,
7790,
7893,
7944,
7982,
7727,
7792,
7700,
7651,
7529,
7351,
7381,
7424,
7316,
7208,
7129,
7161,
6859,
6942,
7097,
7164,
6944,
6866,
6796,
6689,
6675,
6618,
6488,
6486,
6453,
6349,
6314,
6410,
6359,
6306,
6110,
6074,
6072,
5999,
5985,
5931,
5798,
5841,
5927,
5544,
5682,
5728,
5648,
5548,
5583,
5783,
5788,
5980,
6227,
6106,
5859,
5453,
5337,
5088,
5103,
5101,
5104,
4960,
4941,
4966,
4928,
4747,
4697,
4677,
4905,
4776,
4738,
4715,
4707,
4747,
4623,
4624,
4611,
4369,
4443,
4301,
4308,
4402,
4263,
4223,
4225,
4237,
4313,
4444,
4416,
4232,
4197,
4044,
4047,
3998,
3904,
3798,
3793,
3823,
3842,
3722,
3857,
3660,
3783,
3674,
3736,
3612,
3568,
3538,
3624,
3544,
3555,
3506,
3376,
3435,
3350,
3373,
3478,
3392,
3292,
3350,
3189,
3260,
3226,
3128,
3138,
3121,
3009,
3092,
3108,
3058,
2994,
3095,
2920,
2885,
2898,
2890,
2917,
2918,
2816,
2725,
2750,
2783,
2667,
2724,
2741,
2685,
2651,
2682,
2631,
2565,
2611,
2547,
2478,
2480,
2641,
2498,
2525,
2445,
2431,
2447,
2419,
2337,
2355,
2345,
2287,
2275,
2321,
2197,
2340,
2200,
2275,
2129,
2185,
2154,
2160,
2157,
2055,
2093,
2128,
2046,
1993,
2042,
1978,
2035,
2099,
1940,
1914,
1983,
1892,
1870,
1841,
1900,
1931,
1746,
1865,
1771,
1815,
1843,
1832,
1803,
1680,
1774,
1714,
1692,
1771,
1739,
1614,
1644,
1612,
1612,
1599,
1622,
1558,
1582,
1501,
1518,
1491,
1552,
1452,
1476,
1402,
1489,
1434,
1456,
1430,
1393,
1305,
1408,
1392,
1339,
1272,
1340,
1267,
1262,
1231,
1248,
1291,
1279,
1225,
1189,
1239,
1218,
1222,
1200,
1157,
1188,
1146,
1182,
1099,
1068,
1153,
1157,
1137,
1039,
965,
1083,
1025,
1035,
1077,
1037,
987,
937,
952,
972,
920,
942,
915,
920,
969,
955,
927,
886,
893,
857,
844,
884,
848,
839,
851,
844,
840,
782,
770,
807,
768,
767,
780,
793,
792,
724,
686,
745,
738,
745,
671,
726,
691,
683,
673,
701,
645,
653,
609,
637,
588,
635,
588,
632,
613,
595,
591,
610,
650,
537,
569,
555,
598,
532,
527,
547,
553,
477,
529,
478,
491,
486,
481,
483,
457,
483,
465,
453,
482,
451,
471,
446,
437,
440,
384,
403,
403,
436,
399,
412,
384,
399,
414,
390,
370,
361,
400,
352,
312,
372,
373,
324,
330,
350,
314,
296,
294,
320,
353,
295,
304,
308,
275,
273,
299,
303,
285,
266,
278,
249,
256,
226,
269,
249,
255,
248,
241,
239,
221,
222,
228,
255,
238,
202,
239,
209,
179,
213,
205,
182,
209,
231,
207,
193,
173,
180,
181,
187,
188,
191,
158,
175,
175,
160,
159,
140,
128,
166,
107,
155,
133,
136,
123,
144,
123,
111,
120,
144,
116,
141,
120,
108,
101,
124,
101,
113,
88,
80,
107,
86,
89,
80,
83,
97,
90,
91,
93,
93,
90,
84,
65,
76,
73,
75,
73,
70,
72,
68,
63,
50,
64,
56,
64,
62,
60,
68,
53,
52,
41,
49,
44,
43,
33,
44,
36,
32,
28,
32,
38,
25,
30,
36,
28,
25,
30,
22,
25,
23,
23,
26,
17,
13,
18,
24,
17,
12,
12,
15,
7,
10,
10,
11,
5,
7,
6,
6,
4,
3,
6,
6,
5,
3,
2,
1,
0,
1,
1,
0,
0,
1,
1,
1,
3,
4,
0,
1,
2,
0,
0,
4,
0,
0,
1,
1,
0,
0,
0,
0,
1,
1,
1,
1,
1,
0,
0,
1,
0,
0,
0,
0,
0,
2,
0,
2,
1,
1,
1,
0,
0,
0,
0,
0,
0,
0,
0,
1,
0,
0,
0,
0,
0,
0,
0,
1,
0,
0,
1,
0,
0,
0,
0,
0,
0,
0,
0,
0,
0,
0,
0,
0,
0,
0,
0,
0,
0,
0,
1,
0,
0,
0,
0,
0,
0,
1,
0,
1,
0,
0,
0,
0,
0,
0,
1,
0,
0,
0,
0,
1,
0,
0,
0,
0,
0,
0,
0,
0,
0,
0,
1,
0,
0,
0,
0,
0,
0,
0,
0,
0,
0,
0,
0,
0,
0,
0,
0,
0,
1,
0,
0,
0,
0,
0,
0,
0,
0,
0,
0,
0,
0,
0,
0,
0,
0,
0,
0,
0,
0,
0,
0,
0,
0,
0,
0,
0,
0,
0,
0,
0,
0,
1,
1,
0,
0,
0,
0,
0,
0,
1,
0,
0,
0,
0,
0,
0,
0,
0,
0,
0,
0,
1,
0,
0,
0,
1,
0,
0,
0,
0,
0,
0,
0,
0,
0,
0,
0,
0,
0,
1,
0,
0,
0,
1,
0,
0,
0,
0,
1,
0,
0,
0,
0,
0,
0,
0,
0,
0,
0,
0,
0,
0,
0,
0,
0,
0,
0,
0,
0,
0,
0,
0,
0,
0,
0,
0,
0,
0,
1,
0,
0,
0,
0,
0,
0,
0,
0,
1,
0,
0,
0,
0,
0,
0,
0,
0,
0,
0,
0,
0,
0,
0,
0,
0,
0,
0,
0,
0,
0,
0,
0,
0,
0,
0,
0,
0,
0,
0,
0,
0,
0,
0,
1,
0,
0,
0,
0,
0,
0,
0,
0,
0,
0,
0,
0,
0,
0,
0,
0,
0,
0,
0,
0,
0,
0,
0,
0,
0,
0,
0,
0,
0,
0,
0,
0,
0,
0,
0,
0,
0,
0,
1,
0,
0,
0,
0,
0,
0,
0,
0,
0,
0,
0,
0,
0,
0,
0,
0,
0,
0,
0,
0,
0,
0,
0,
0,
0,
0,
0,
0,
0,
0,
0,
0,
0,
0,
0,
0,
0,
0,
0,
0,
0,
0,
0,
0,
0,
0,
0,
0,
0,
0,
0,
0,
0,
0,
0,
0,
0,
0,
0,
0,
0,
0,
0,
0,
0,
0,
0,
0,
0,
0,
0,
0,
1,
0,
0,
0,
0,
0,
0,
0,
0,
0,
0,
0,
0,
0,
0,
0,
0,
0,
0,
0,
0,
0,
0,
0,
0,
0,
0,
0,
0,
0,
0,
0,
0,
0,
0,
1,
0,
0,
0,
0,
0,
0,
0,
0,
0,
0,
0,
0,
0,
0,
0,
0,
0,
0,
0,
0,
0,
0,
0,
0,
0,
0,
0,
0,
0,
0,
0,
0,
0,
0,
0,
0,
0,
0,
0,
0,
0,
0,
0,
0,
0,
0,
0,
0,
0,
0,
0,
0,
0,
0,
0,
0,
0,
0,
0,
0,
0,
0,
0,
0,
0,
0,
0,
0,
0,
0,
0,
0,
0,
0,
0,
0,
0,
0,
0,
0,
0,
0,
0,
0,
0,
0,
0,
0,
0,
0,
0,
0,
0,
0,
0,
0,
0,
0,
0,
0,
0,
0,
0,
0,
0,
0,
0,
0,
0,
0,
0,
0,
0,
0,
0,
0,
0,
0,
0,
0,
0,
0,
0,
0,
0,
0,
0,
0,
0,
0,
0,
0,
0,
0,
0,
0,
0,
0,
0,
0,
0,
0,
0,
0,
0,
0,
0,
0,
0,
0,
0,
0,
0,
0,
0,
0,
0,
0,
0,
0,
0,
0,
0,
0,
0,
0,
0,
0,
0,
0,
0,
0,
0,
0,
0,
0,
0,
0,
0,
0,
0,
0,
0,
0,
0,
0,
0,
0,
0,
0,
0,
0,
0,
0,
0,
0,
0,
0,
0,
0,
0,
0,
0,
0,
0,
0,
0,
0,
0,
0,
0,
0,
0,
0,
0,
0,
0,
0,
0,
0,
0,
0,
0,
0,
0,
0,
0,
0,
0,
0,
0,
0,
0,
0,
0,
0,
0,
0,
0,
0,
0,
0,
0,
0,
0,
0,
0,
0,
0,
0,
0,
0,
0,
0,
0,
0,
0,
0,
0,
0,
0,
0,
0,
#ENDOFDATA   :