File: N132962/Standards/20 keV/Albite std.msa
#FORMAT      : EMSA/MAS Spectral Data File
#VERSION     : 1.0
#TITLE       : Albite std
#DATE        : 24-FEB-2025
#TIME        : 09:51
#OWNER       : Unknown
#NPOINTS     : 4096
#NCOLUMNS    : 1
#XUNITS      : eV
#YUNITS      : counts
#DATATYPE    : Y
#XPERCHAN    : 9.99778
#OFFSET      : 1.69135
#BEAMKV      : 20
#SIGNALTYPE  : EDS
#ELEVANGLE   : 35
#AZIMANGLE   : 0
#LIVETIME    : 719.633
#REALTIME    : 768.693
#PROBECUR    : 1.03053
#TAUWIND     : 0
#TDEADLYR    : 0
#TACTLYR     : 0.045
#TALWIND     : 0.025
#CHOFFSET    : 0.0
#XLABEL      : Energy (eV)
#YLABEL      : Counts
#EDSDET      : SD
##SPECIMEN   : Albite std
##D2STDCMP   : Albite,(O:48.8112),(Na:8.7674),(Al:10.2897),(Si:32.1316)
##DET_HASH   : 12273538-fd48-a23f-0a19-f1e6fa85caef
##CALIB_HASH : 6abaa72c-aa41-8738-0be9-f592914732f3
##WORKING    : 15.0 mm
##SAMPLE     : <BulkSample id="1">\n<mOrientation id="2">\n<double>0.0</double>\n<double>0.0</double>\n<double>-1.0</double>\n</mOrientation>\n</BulkSample>
##MULTISPEC  : 1.43837
##DET_NAME   : EDAX All
##DET_MODE   : MediumLE
#SPECTRUM    :
113,
127,
40,
58,
221,
836,
2157,
4950,
10891,
14155,
9715,
7150,
8059,
10807,
20963,
82220,
322272,
621552,
461150,
125907,
16644,
5507,
5617,
6098,
6400,
6467,
7133,
7710,
8543,
9288,
10503,
12818,
22008,
63705,
143513,
158999,
81735,
25306,
11419,
9872,
10187,
10800,
11310,
11888,
12439,
13283,
17608,
41382,
128190,
252242,
256159,
138472,
50748,
22276,
20451,
55948,
224656,
572402,
776760,
551929,
225078,
74456,
31855,
14695,
7868,
6710,
6621,
6929,
6667,
6247,
6289,
6233,
6422,
6889,
7936,
8660,
8248,
7345,
6849,
6350,
6432,
6385,
6453,
6478,
6454,
6480,
6448,
6439,
6273,
6245,
6208,
6514,
6769,
6742,
6599,
6216,
6105,
6132,
6404,
6184,
6158,
6070,
6040,
6008,
5973,
5982,
6403,
6701,
7092,
7547,
7652,
7509,
6827,
6125,
6198,
6522,
6722,
6371,
6058,
5882,
5577,
5625,
5529,
5342,
5292,
5055,
5106,
5179,
5081,
5034,
5104,
4969,
4969,
4764,
4798,
4690,
4741,
4711,
4758,
4591,
4530,
4501,
4586,
4425,
4463,
4410,
4388,
4365,
4309,
4168,
4237,
4286,
4257,
4228,
4147,
4181,
4038,
3958,
3976,
4033,
4037,
4020,
3919,
3842,
3838,
3756,
3762,
3783,
3787,
3623,
3787,
3713,
3647,
3538,
3516,
3534,
3554,
3645,
3422,
3365,
3401,
3382,
3326,
3378,
3322,
3246,
3316,
3159,
3233,
3139,
3100,
3131,
3154,
3066,
2995,
3100,
3015,
2995,
2914,
2986,
2939,
2934,
2905,
2898,
2893,
2793,
2705,
2701,
2808,
2713,
2693,
2772,
2839,
2922,
2781,
2781,
2654,
2607,
2542,
2568,
2439,
2585,
2532,
2452,
2388,
2346,
2331,
2384,
2330,
2504,
2352,
2368,
2341,
2357,
2263,
2291,
2300,
2207,
2253,
2287,
2273,
2143,
2128,
2126,
2080,
2136,
2173,
2134,
2181,
2124,
2056,
2043,
2054,
1962,
1923,
1937,
1890,
1846,
1944,
1890,
1881,
1834,
1819,
1816,
1852,
1863,
1879,
1926,
1883,
1840,
1859,
1758,
1758,
1699,
1660,
1681,
1567,
1633,
1598,
1643,
1624,
1596,
1617,
1624,
1571,
1589,
1657,
1667,
1666,
1612,
1520,
1585,
1498,
1479,
1443,
1421,
1390,
1483,
1439,
1431,
1335,
1423,
1318,
1435,
1368,
1357,
1320,
1262,
1353,
1338,
1293,
1268,
1311,
1340,
1159,
1219,
1268,
1299,
1240,
1262,
1248,
1232,
1170,
1186,
1132,
1070,
1184,
1149,
1125,
1078,
1102,
1156,
1099,
1078,
1107,
1037,
1030,
1089,
1050,
1071,
1004,
1069,
1047,
1028,
1006,
1084,
940,
980,
934,
987,
972,
977,
914,
947,
944,
937,
900,
901,
913,
909,
873,
882,
862,
839,
833,
900,
835,
835,
802,
793,
763,
754,
773,
800,
790,
740,
750,
755,
763,
742,
674,
757,
748,
703,
720,
695,
688,
712,
669,
655,
730,
668,
641,
609,
649,
640,
641,
630,
598,
617,
639,
576,
601,
651,
634,
614,
594,
595,
554,
525,
589,
535,
521,
550,
564,
570,
548,
525,
551,
521,
508,
494,
540,
485,
470,
522,
484,
492,
460,
461,
489,
427,
490,
415,
442,
493,
422,
431,
394,
421,
399,
416,
399,
387,
393,
408,
364,
380,
377,
374,
408,
365,
359,
373,
353,
331,
373,
365,
314,
346,
354,
365,
310,
302,
308,
293,
310,
320,
318,
300,
272,
274,
288,
304,
291,
268,
263,
281,
261,
278,
275,
230,
232,
254,
277,
261,
249,
225,
249,
240,
238,
225,
235,
216,
226,
219,
228,
212,
185,
224,
210,
230,
204,
204,
195,
196,
205,
188,
162,
215,
185,
186,
183,
182,
168,
168,
184,
184,
164,
140,
169,
183,
150,
151,
153,
146,
150,
137,
142,
140,
137,
121,
128,
137,
145,
156,
144,
124,
132,
109,
111,
98,
101,
114,
90,
120,
126,
104,
107,
104,
101,
88,
109,
109,
96,
104,
99,
98,
68,
99,
96,
88,
74,
77,
84,
75,
76,
91,
86,
74,
67,
71,
59,
74,
80,
72,
56,
75,
66,
76,
54,
66,
63,
60,
51,
56,
60,
56,
57,
53,
45,
54,
61,
53,
44,
36,
31,
48,
37,
33,
34,
46,
44,
32,
35,
36,
30,
32,
34,
30,
36,
32,
25,
40,
40,
25,
31,
31,
38,
30,
16,
20,
25,
17,
22,
19,
29,
23,
15,
22,
18,
23,
16,
15,
18,
19,
13,
20,
10,
9,
12,
9,
11,
13,
12,
13,
5,
13,
11,
13,
6,
9,
6,
5,
6,
10,
7,
8,
2,
3,
3,
2,
3,
4,
2,
3,
0,
0,
0,
0,
2,
1,
1,
0,
0,
0,
0,
1,
0,
0,
1,
0,
0,
0,
0,
0,
0,
0,
0,
0,
1,
0,
0,
0,
1,
0,
0,
0,
0,
0,
1,
0,
0,
0,
0,
0,
1,
0,
0,
0,
0,
1,
0,
0,
0,
0,
0,
0,
0,
0,
2,
1,
0,
1,
0,
0,
0,
1,
0,
0,
1,
0,
0,
0,
0,
0,
0,
0,
0,
0,
0,
0,
0,
0,
0,
1,
0,
0,
0,
0,
0,
0,
2,
0,
0,
0,
0,
0,
0,
0,
0,
0,
0,
0,
0,
0,
0,
0,
0,
1,
0,
0,
0,
0,
0,
0,
0,
0,
0,
0,
0,
0,
0,
0,
0,
0,
0,
0,
0,
0,
0,
0,
0,
0,
0,
0,
0,
0,
0,
0,
0,
0,
0,
0,
0,
0,
0,
0,
0,
1,
0,
1,
0,
0,
0,
0,
0,
0,
0,
0,
0,
0,
0,
0,
0,
0,
0,
0,
0,
0,
0,
0,
0,
0,
0,
0,
0,
0,
0,
0,
1,
0,
0,
0,
0,
0,
0,
0,
1,
0,
0,
0,
0,
0,
0,
0,
0,
0,
0,
0,
0,
0,
0,
0,
0,
1,
0,
0,
0,
0,
0,
0,
0,
0,
0,
0,
1,
0,
0,
0,
0,
0,
0,
0,
0,
0,
0,
0,
0,
0,
0,
0,
0,
0,
0,
0,
0,
0,
0,
0,
0,
0,
0,
0,
0,
0,
0,
0,
0,
0,
0,
0,
0,
0,
0,
0,
0,
0,
0,
0,
0,
0,
0,
0,
0,
0,
0,
0,
0,
0,
0,
0,
0,
0,
0,
0,
0,
0,
0,
0,
0,
0,
0,
0,
0,
0,
0,
0,
0,
0,
0,
0,
0,
0,
0,
0,
0,
0,
0,
0,
0,
0,
0,
0,
0,
0,
0,
0,
0,
0,
0,
0,
0,
0,
0,
0,
0,
0,
0,
0,
0,
0,
0,
0,
0,
0,
0,
0,
0,
0,
0,
0,
0,
0,
0,
0,
0,
0,
0,
0,
0,
0,
0,
0,
0,
0,
0,
0,
0,
0,
0,
0,
0,
0,
0,
0,
0,
0,
0,
0,
0,
0,
0,
0,
0,
0,
0,
0,
0,
0,
0,
0,
0,
0,
0,
0,
0,
0,
0,
0,
0,
0,
0,
0,
0,
0,
0,
0,
0,
0,
0,
0,
0,
0,
0,
0,
0,
0,
0,
0,
0,
0,
0,
0,
0,
0,
0,
0,
0,
0,
0,
0,
0,
0,
0,
0,
0,
0,
0,
0,
0,
0,
0,
0,
0,
0,
0,
0,
0,
0,
0,
0,
0,
0,
0,
0,
0,
0,
0,
0,
0,
0,
0,
0,
0,
0,
0,
0,
0,
0,
0,
0,
0,
0,
0,
0,
0,
0,
0,
0,
0,
0,
0,
0,
0,
0,
0,
0,
0,
0,
0,
0,
0,
0,
0,
0,
0,
0,
0,
0,
0,
0,
0,
0,
0,
0,
0,
0,
0,
0,
0,
0,
0,
0,
0,
0,
0,
0,
0,
0,
0,
0,
0,
0,
0,
0,
0,
0,
0,
0,
0,
0,
0,
0,
0,
0,
0,
0,
0,
0,
0,
0,
0,
0,
0,
0,
0,
0,
0,
0,
0,
0,
0,
0,
0,
0,
0,
0,
0,
0,
0,
0,
0,
0,
0,
0,
0,
0,
0,
0,
0,
0,
0,
0,
0,
0,
0,
0,
0,
0,
0,
0,
0,
0,
0,
0,
0,
0,
0,
0,
0,
0,
0,
0,
0,
0,
0,
0,
0,
0,
0,
0,
0,
0,
0,
0,
0,
0,
0,
0,
0,
0,
0,
0,
0,
0,
0,
0,
0,
0,
0,
0,
0,
0,
0,
0,
0,
0,
0,
0,
0,
0,
0,
0,
0,
0,
0,
0,
0,
0,
0,
0,
0,
0,
0,
0,
0,
0,
0,
0,
0,
0,
0,
0,
0,
0,
0,
0,
0,
0,
0,
0,
0,
0,
0,
0,
0,
0,
0,
0,
0,
0,
0,
0,
0,
0,
0,
0,
0,
0,
0,
0,
0,
0,
0,
0,
0,
0,
0,
0,
0,
0,
0,
0,
0,
0,
0,
0,
0,
0,
0,
0,
0,
0,
0,
0,
0,
0,
0,
0,
0,
0,
0,
0,
0,
0,
0,
0,
0,
0,
0,
0,
0,
0,
0,
0,
#ENDOFDATA   :