File: N132962/Standards/20 keV/AlN std.msa
#FORMAT      : EMSA/MAS Spectral Data File
#VERSION     : 1.0
#TITLE       : AlN std
#DATE        : 24-FEB-2025
#TIME        : 09:57
#OWNER       : Unknown
#NPOINTS     : 4096
#NCOLUMNS    : 1
#XUNITS      : eV
#YUNITS      : counts
#DATATYPE    : Y
#XPERCHAN    : 9.99778
#OFFSET      : 1.69135
#BEAMKV      : 20
#SIGNALTYPE  : EDS
#ELEVANGLE   : 35
#AZIMANGLE   : 0
#LIVETIME    : 959.449
#REALTIME    : 1045.87
#PROBECUR    : 1.03053
#TAUWIND     : 0
#TDEADLYR    : 0
#TACTLYR     : 0.045
#TALWIND     : 0.025
#CHOFFSET    : 0.0
#XLABEL      : Energy (eV)
#YLABEL      : Counts
#EDSDET      : SD
##SPECIMEN   : AlN std
##D2STDCMP   : AlN,(N:34.173),(Al:65.827)
##DET_HASH   : 12273538-fd48-a23f-0a19-f1e6fa85caef
##CALIB_HASH : 6abaa72c-aa41-8738-0be9-f592914732f3
##WORKING    : 15.0 mm
##SAMPLE     : <BulkSample id="1">\n<mOrientation id="2">\n<double>0.0</double>\n<double>0.0</double>\n<double>-1.0</double>\n</mOrientation>\n</BulkSample>
##MULTISPEC  : 6.15043
##DET_NAME   : EDAX All
##DET_MODE   : MediumLE
#SPECTRUM    :
195,
228,
76,
87,
334,
1194,
2915,
6719,
14961,
19719,
21228,
64777,
183171,
215370,
93253,
19365,
9342,
10973,
10362,
8708,
8947,
9707,
10674,
11615,
12638,
13364,
14157,
15426,
16370,
17474,
18694,
19616,
20072,
20453,
21100,
21094,
21514,
22209,
23188,
24374,
25752,
27912,
30464,
33788,
37585,
45303,
87674,
369313,
1366387,
2742912,
2759138,
1423982,
425788,
98963,
25690,
10276,
7923,
8139,
8659,
8919,
8971,
9804,
10286,
9824,
8711,
7948,
7805,
7836,
8075,
8021,
8109,
8051,
8183,
8083,
8288,
8328,
8413,
8514,
8638,
8663,
8605,
8712,
8627,
8605,
8703,
8513,
8727,
8534,
8633,
8850,
8694,
8646,
8710,
8532,
8739,
8965,
10073,
13452,
18867,
22365,
20458,
14987,
10746,
8908,
8052,
8019,
7885,
7744,
7717,
7690,
7687,
7546,
7552,
7519,
7301,
7410,
7406,
7268,
7267,
7315,
7232,
7135,
7074,
7091,
6940,
7034,
6863,
6755,
6741,
6743,
6765,
6554,
6543,
6593,
6540,
6446,
6432,
6422,
6393,
6164,
6097,
6289,
6274,
5993,
6120,
6091,
5927,
5946,
5924,
5957,
5937,
5784,
5848,
5634,
5660,
5687,
5565,
5441,
5398,
5464,
5320,
5465,
5391,
5370,
5387,
5149,
5138,
5222,
5144,
5112,
5008,
4988,
5008,
4940,
4901,
4807,
4899,
4819,
4660,
4710,
4521,
4621,
4641,
4536,
4362,
4478,
4483,
4447,
4435,
4370,
4328,
4143,
4195,
4232,
4126,
4171,
4178,
4020,
4078,
3982,
3909,
4046,
3949,
3919,
3926,
3845,
3834,
3816,
3846,
3725,
3823,
3838,
3913,
3967,
3946,
3782,
3807,
3542,
3568,
3469,
3454,
3401,
3365,
3225,
3366,
3309,
3321,
3418,
3175,
3187,
3356,
3227,
3107,
3163,
3208,
3141,
3159,
3076,
3000,
2996,
2967,
2941,
2945,
2857,
2863,
2854,
2961,
2887,
2915,
2937,
2956,
2822,
2782,
2719,
2672,
2623,
2679,
2605,
2669,
2559,
2511,
2523,
2602,
2595,
2496,
2533,
2528,
2619,
2581,
2569,
2556,
2456,
2332,
2422,
2342,
2437,
2297,
2402,
2291,
2261,
2299,
2220,
2239,
2202,
2213,
2151,
2231,
2237,
2141,
2194,
2049,
2099,
2020,
2000,
2031,
2005,
1908,
2057,
1998,
1954,
1858,
1924,
1822,
1909,
1831,
1817,
1808,
1814,
1771,
1779,
1808,
1771,
1792,
1826,
1721,
1726,
1730,
1736,
1769,
1691,
1754,
1648,
1672,
1644,
1631,
1616,
1631,
1543,
1544,
1559,
1510,
1527,
1534,
1535,
1493,
1462,
1446,
1478,
1507,
1416,
1425,
1420,
1373,
1348,
1366,
1345,
1338,
1367,
1302,
1285,
1378,
1324,
1296,
1336,
1221,
1295,
1240,
1287,
1219,
1239,
1243,
1147,
1189,
1107,
1093,
1102,
1159,
1049,
1125,
1145,
1056,
1076,
1087,
1039,
1074,
1006,
1054,
1067,
1086,
1043,
959,
985,
972,
1030,
975,
995,
926,
956,
993,
903,
920,
877,
956,
886,
912,
850,
857,
868,
883,
881,
834,
803,
890,
805,
803,
809,
784,
774,
765,
793,
705,
735,
726,
728,
765,
721,
756,
773,
669,
700,
707,
668,
676,
696,
690,
648,
673,
630,
659,
659,
632,
628,
640,
618,
614,
573,
607,
574,
560,
555,
614,
575,
554,
579,
522,
512,
541,
535,
550,
532,
544,
509,
473,
482,
496,
492,
468,
434,
490,
443,
456,
427,
457,
445,
428,
455,
453,
409,
378,
435,
416,
402,
420,
365,
423,
405,
391,
397,
362,
406,
335,
348,
359,
373,
327,
322,
332,
326,
344,
293,
311,
331,
301,
356,
352,
362,
409,
369,
396,
348,
348,
342,
286,
280,
277,
297,
279,
249,
256,
294,
247,
259,
231,
243,
210,
245,
221,
243,
211,
220,
207,
217,
225,
220,
193,
193,
191,
219,
188,
210,
194,
194,
186,
166,
168,
170,
174,
177,
179,
214,
198,
154,
186,
147,
147,
153,
175,
149,
129,
141,
129,
132,
126,
142,
133,
154,
164,
130,
140,
128,
123,
137,
108,
127,
107,
122,
122,
112,
122,
115,
103,
110,
112,
90,
104,
95,
90,
88,
78,
97,
90,
103,
81,
80,
75,
75,
81,
74,
75,
85,
73,
75,
62,
77,
65,
64,
47,
53,
67,
73,
54,
80,
80,
51,
61,
51,
41,
53,
56,
40,
46,
48,
41,
34,
44,
43,
38,
43,
36,
34,
41,
29,
45,
22,
38,
28,
32,
21,
34,
25,
27,
32,
22,
24,
21,
30,
27,
28,
21,
16,
22,
20,
7,
12,
14,
13,
15,
16,
18,
18,
13,
15,
18,
2,
13,
12,
7,
3,
4,
6,
5,
1,
2,
4,
4,
3,
2,
1,
2,
4,
1,
0,
1,
0,
0,
3,
0,
2,
1,
1,
1,
0,
0,
2,
0,
0,
2,
0,
0,
0,
0,
1,
0,
1,
2,
0,
1,
1,
0,
0,
0,
1,
0,
0,
3,
0,
0,
0,
1,
0,
0,
0,
0,
0,
1,
0,
1,
0,
0,
0,
0,
0,
0,
0,
2,
0,
0,
0,
0,
2,
0,
0,
1,
0,
0,
0,
0,
0,
0,
1,
1,
0,
0,
0,
1,
0,
0,
0,
0,
0,
0,
0,
1,
0,
0,
0,
0,
0,
0,
0,
0,
1,
0,
0,
0,
0,
0,
0,
0,
1,
0,
0,
0,
0,
0,
0,
0,
0,
0,
0,
0,
0,
0,
0,
0,
0,
0,
0,
0,
0,
0,
0,
0,
0,
0,
0,
0,
0,
0,
0,
0,
0,
0,
1,
0,
0,
0,
0,
0,
1,
0,
0,
0,
0,
1,
0,
0,
0,
0,
0,
0,
0,
0,
0,
0,
0,
0,
0,
0,
0,
0,
1,
0,
0,
0,
0,
0,
0,
0,
0,
0,
0,
0,
0,
0,
0,
0,
0,
0,
0,
0,
0,
0,
0,
0,
0,
0,
0,
0,
0,
0,
0,
0,
0,
0,
0,
0,
0,
0,
0,
1,
0,
0,
0,
0,
0,
0,
0,
0,
0,
0,
0,
0,
0,
0,
0,
0,
0,
0,
0,
0,
0,
0,
0,
0,
0,
0,
0,
0,
0,
0,
0,
0,
0,
0,
1,
0,
0,
0,
0,
0,
0,
0,
0,
0,
0,
0,
0,
0,
0,
0,
0,
0,
0,
0,
0,
0,
0,
0,
0,
0,
0,
0,
0,
0,
0,
0,
0,
0,
0,
0,
0,
1,
0,
0,
0,
0,
0,
0,
0,
0,
0,
0,
0,
0,
0,
0,
0,
0,
0,
0,
0,
0,
0,
0,
0,
0,
0,
0,
0,
0,
0,
0,
0,
0,
0,
0,
0,
0,
0,
0,
0,
0,
0,
0,
0,
0,
0,
0,
0,
0,
0,
0,
0,
0,
0,
0,
0,
0,
0,
0,
0,
0,
0,
0,
0,
0,
0,
0,
0,
0,
0,
0,
0,
0,
0,
0,
0,
0,
0,
0,
0,
0,
0,
0,
0,
0,
0,
0,
0,
0,
0,
0,
0,
0,
0,
0,
0,
0,
0,
0,
0,
0,
0,
0,
0,
0,
0,
0,
0,
0,
0,
0,
0,
0,
0,
0,
0,
0,
0,
0,
0,
0,
0,
0,
0,
0,
0,
0,
0,
0,
0,
0,
0,
0,
0,
0,
0,
0,
0,
0,
0,
0,
0,
0,
0,
0,
0,
0,
0,
0,
0,
0,
0,
0,
0,
0,
0,
0,
0,
0,
0,
0,
0,
0,
0,
0,
0,
0,
0,
0,
0,
0,
0,
0,
0,
0,
0,
0,
0,
0,
0,
0,
0,
0,
0,
0,
0,
0,
0,
0,
0,
0,
0,
0,
0,
0,
0,
0,
0,
0,
0,
0,
0,
0,
0,
0,
0,
0,
0,
0,
0,
0,
0,
0,
0,
0,
0,
0,
0,
0,
0,
0,
0,
0,
0,
0,
0,
0,
0,
0,
0,
0,
0,
0,
0,
0,
0,
0,
0,
0,
0,
0,
0,
0,
0,
0,
0,
0,
0,
0,
0,
0,
0,
0,
0,
0,
0,
0,
0,
0,
0,
0,
0,
0,
0,
0,
0,
0,
0,
0,
0,
0,
0,
0,
0,
0,
0,
0,
0,
0,
0,
0,
0,
0,
0,
0,
0,
0,
0,
0,
0,
0,
0,
0,
0,
0,
0,
0,
0,
0,
0,
0,
0,
0,
0,
0,
0,
0,
0,
0,
0,
0,
0,
0,
0,
0,
0,
0,
0,
0,
0,
0,
0,
0,
0,
0,
0,
0,
0,
0,
0,
0,
0,
0,
0,
0,
0,
0,
0,
0,
0,
0,
0,
0,
0,
0,
0,
0,
0,
0,
0,
0,
0,
0,
0,
0,
0,
0,
0,
0,
0,
0,
0,
0,
0,
0,
0,
0,
0,
0,
0,
0,
0,
0,
0,
0,
0,
0,
0,
0,
0,
0,
0,
0,
0,
0,
0,
0,
0,
0,
0,
0,
0,
0,
0,
0,
0,
0,
0,
0,
0,
0,
0,
0,
0,
0,
0,
0,
0,
0,
0,
0,
0,
0,
0,
0,
0,
0,
0,
0,
0,
0,
0,
0,
0,
#ENDOFDATA   :