File: N132962/Standards/20 keV/Au std.msa
#FORMAT      : EMSA/MAS Spectral Data File
#VERSION     : 1.0
#TITLE       : G588 Au[0][all]+G588 Au[1][all]+G588 Au[2][all]+G588 Au[3][all]+G588 Au[4][all]
#NPOINTS     : 4096
#NCOLUMNS    : 1
#XUNITS      : eV
#YUNITS      : counts
#DATATYPE    : Y
#SIGNALTYPE  : EDS
#XLABEL      : Energy (eV)
#YLABEL      : Counts
#XPERCHAN -eV: 9.99778
#OFFSET   -eV: 1.69135
#CHOFFSET    : 0
#OWNER       : Unknown
#ELEVANGLE   : 35
#BEAMKV   -kV: 20
#LIVETIME  -s: 1200.21
#REALTIME  -s: 1361.35
#PROBECUR -nA: 1.0449
##WORKING -mm: 15
##D2STDCMP   : Au,(Au:100.0000),5.000
#SPECTRUM    :
130,
171,
96,
458,
2601,
8960,
19749,
35851,
60825,
67581,
45153,
38531,
54497,
58630,
47043,
49452,
50608,
48389,
41531,
34067,
32976,
34803,
38097,
40629,
40746,
39002,
39387,
41980,
45637,
46573,
46691,
47120,
48042,
48801,
50156,
51337,
52528,
53448,
54841,
55879,
57062,
57960,
58870,
59769,
59866,
61520,
61468,
64443,
69369,
76193,
76879,
72349,
72627,
89367,
128319,
161150,
145478,
109263,
89008,
80576,
75505,
70229,
67174,
66581,
71610,
84171,
103854,
143453,
280912,
668524,
1257919,
1545909,
1375015,
1147636,
884301,
486247,
184319,
70982,
51951,
62228,
73953,
68261,
51409,
37334,
31526,
30635,
31303,
32965,
33956,
33716,
35192,
38420,
41441,
42071,
39627,
34975,
33076,
31184,
30349,
29918,
30198,
30285,
30106,
30171,
30547,
30612,
30399,
29916,
29673,
30050,
30372,
31068,
30800,
30884,
30308,
29772,
29933,
30130,
30274,
30046,
30104,
30157,
30200,
30704,
30726,
30792,
31083,
31089,
30916,
31092,
31131,
31190,
31043,
31008,
31277,
31017,
31249,
31375,
31803,
31882,
33027,
34005,
34264,
34822,
34505,
34313,
33427,
32395,
31847,
31276,
31134,
31368,
30784,
30856,
30841,
30848,
30907,
30566,
30438,
30499,
30522,
30558,
30627,
30251,
30352,
30368,
30301,
30555,
30051,
30057,
30027,
29907,
30029,
29787,
29280,
29506,
29610,
29409,
29875,
29946,
29998,
29906,
29510,
29609,
29073,
28973,
28508,
28726,
28418,
28390,
28361,
28177,
28383,
28188,
27770,
28040,
28068,
27979,
27733,
27584,
27351,
27616,
27494,
27026,
26758,
26878,
26754,
26503,
26681,
26935,
27891,
29029,
30127,
31135,
31144,
29215,
27516,
26261,
25623,
25774,
25550,
25326,
25444,
25204,
24999,
24751,
24726,
24550,
24608,
24498,
24331,
24410,
24245,
24400,
24536,
24413,
24459,
24033,
23770,
23613,
23129,
23037,
23217,
22951,
22980,
22708,
23341,
23803,
24127,
24327,
23945,
23468,
22684,
22100,
22018,
21913,
21453,
21779,
21415,
21160,
21325,
21351,
21216,
21144,
21354,
21169,
21141,
21028,
20787,
20570,
20626,
20486,
20500,
20172,
20234,
20177,
20304,
20260,
20540,
21595,
22459,
24527,
26159,
26958,
26111,
24266,
22094,
20301,
19494,
19026,
18558,
18656,
18356,
18534,
18092,
17972,
17857,
17834,
18176,
17486,
17655,
17588,
17556,
17665,
17180,
17211,
17175,
17155,
17110,
16902,
16743,
16902,
16804,
16805,
17080,
17676,
19416,
23779,
32191,
47195,
72224,
104814,
137425,
158037,
157061,
133557,
97806,
63478,
39621,
25538,
19758,
17248,
16087,
15953,
15449,
15364,
14894,
14903,
14660,
14692,
14598,
15052,
14889,
14917,
14987,
14809,
14126,
13822,
13808,
13478,
13452,
13188,
13287,
13257,
13299,
12923,
12899,
12649,
12727,
12626,
12579,
12521,
12365,
12345,
12492,
12573,
12482,
12741,
13022,
13576,
14765,
15512,
16273,
16427,
16294,
16511,
18060,
22382,
29303,
38005,
46811,
52671,
54705,
53140,
50765,
48417,
44566,
39225,
32299,
25545,
19503,
15470,
13386,
12776,
12467,
12615,
12639,
12681,
12019,
11311,
10490,
9877,
9701,
9109,
8822,
8829,
8632,
8482,
8314,
8414,
8428,
8385,
8123,
8087,
8116,
8051,
7966,
8238,
7896,
7958,
7780,
7593,
7724,
7603,
7482,
7442,
7660,
7571,
7663,
7413,
7613,
7540,
7422,
7257,
7196,
7148,
7141,
7118,
7024,
7150,
7481,
8002,
9006,
10426,
11447,
12166,
12468,
11712,
10372,
8989,
8011,
7106,
7099,
6955,
7122,
7181,
7361,
7434,
7439,
7203,
6869,
6647,
6188,
5969,
5655,
5468,
5463,
5350,
5144,
5225,
5118,
5110,
5101,
5043,
5151,
5203,
5058,
4953,
4873,
4895,
4811,
4663,
4568,
4535,
4566,
4574,
4298,
4541,
4454,
4238,
4193,
4212,
4317,
4166,
4238,
4131,
4090,
4078,
4091,
3969,
3787,
3896,
3914,
3870,
3725,
3649,
3763,
3716,
3674,
3545,
3519,
3445,
3474,
3437,
3429,
3444,
3394,
3300,
3418,
3200,
3109,
3191,
3145,
3120,
3098,
3116,
2959,
2953,
2951,
2950,
2918,
2930,
2890,
2764,
2778,
2774,
2615,
2720,
2712,
2621,
2510,
2552,
2527,
2500,
2479,
2520,
2405,
2339,
2510,
2341,
2340,
2256,
2281,
2259,
2211,
2102,
2117,
2136,
2089,
2074,
2081,
2074,
2015,
2008,
1978,
2006,
1974,
1866,
1870,
1910,
1826,
1887,
1764,
1834,
1647,
1839,
1703,
1720,
1668,
1683,
1707,
1640,
1567,
1552,
1521,
1570,
1469,
1475,
1464,
1386,
1466,
1321,
1354,
1404,
1316,
1335,
1282,
1321,
1314,
1233,
1198,
1212,
1156,
1107,
1102,
1096,
1092,
1078,
1035,
992,
986,
983,
944,
953,
914,
928,
874,
853,
855,
843,
794,
826,
806,
765,
766,
802,
718,
735,
678,
659,
670,
605,
627,
661,
559,
605,
556,
556,
575,
492,
482,
473,
493,
485,
417,
435,
406,
389,
392,
391,
345,
325,
364,
340,
258,
259,
230,
239,
207,
210,
148,
158,
137,
126,
99,
99,
84,
73,
63,
58,
48,
53,
54,
42,
45,
45,
61,
50,
51,
44,
46,
47,
35,
36,
39,
32,
44,
49,
39,
40,
39,
32,
53,
36,
44,
40,
32,
38,
36,
49,
40,
44,
51,
51,
49,
69,
63,
54,
60,
47,
42,
47,
47,
37,
26,
34,
33,
28,
37,
36,
32,
22,
30,
35,
20,
31,
22,
34,
30,
34,
28,
28,
24,
18,
28,
20,
26,
31,
30,
21,
27,
32,
14,
31,
17,
20,
28,
17,
26,
24,
26,
13,
17,
23,
15,
22,
11,
20,
31,
24,
23,
17,
19,
17,
19,
25,
24,
26,
14,
23,
23,
15,
17,
19,
13,
26,
14,
18,
11,
24,
23,
19,
16,
14,
17,
12,
18,
15,
11,
7,
18,
19,
12,
16,
23,
13,
10,
13,
17,
15,
20,
11,
18,
8,
9,
8,
15,
9,
10,
13,
13,
12,
13,
13,
12,
10,
7,
10,
17,
12,
11,
17,
11,
15,
15,
11,
16,
19,
14,
20,
15,
14,
12,
15,
18,
13,
7,
18,
14,
18,
11,
14,
14,
7,
9,
20,
11,
11,
11,
13,
12,
12,
13,
10,
10,
10,
12,
17,
9,
12,
12,
11,
8,
13,
13,
10,
8,
9,
11,
7,
7,
9,
9,
9,
10,
8,
9,
5,
6,
6,
8,
10,
4,
7,
7,
13,
8,
10,
10,
10,
6,
5,
8,
6,
5,
2,
5,
9,
7,
5,
11,
8,
6,
8,
6,
4,
4,
4,
6,
7,
4,
7,
9,
6,
4,
4,
7,
6,
5,
8,
6,
3,
7,
7,
7,
4,
8,
5,
6,
5,
3,
4,
6,
8,
5,
1,
2,
3,
2,
2,
6,
5,
4,
5,
5,
5,
4,
2,
3,
4,
8,
4,
3,
8,
7,
3,
0,
5,
6,
2,
2,
1,
1,
1,
3,
8,
4,
3,
2,
0,
3,
4,
0,
3,
4,
3,
2,
2,
3,
3,
3,
2,
1,
5,
0,
1,
1,
3,
2,
3,
2,
1,
3,
1,
1,
0,
1,
3,
4,
4,
3,
1,
0,
1,
0,
2,
0,
1,
0,
1,
0,
2,
2,
2,
1,
2,
1,
3,
1,
1,
2,
0,
2,
1,
1,
1,
3,
1,
0,
0,
0,
1,
2,
0,
3,
2,
0,
1,
0,
1,
0,
0,
1,
0,
0,
2,
0,
1,
0,
0,
1,
0,
0,
0,
1,
1,
1,
0,
0,
1,
0,
0,
0,
2,
0,
0,
0,
1,
0,
0,
0,
0,
0,
0,
0,
0,
1,
0,
0,
0,
0,
2,
0,
1,
0,
1,
2,
0,
0,
0,
1,
0,
0,
0,
0,
1,
0,
0,
0,
0,
0,
0,
0,
1,
0,
0,
0,
2,
1,
0,
2,
0,
1,
0,
0,
0,
0,
0,
0,
0,
0,
0,
0,
0,
0,
0,
0,
2,
1,
0,
0,
0,
1,
0,
1,
0,
1,
0,
0,
0,
1,
0,
0,
0,
1,
0,
0,
0,
0,
0,
0,
0,
0,
0,
0,
1,
0,
0,
0,
0,
0,
0,
1,
1,
0,
0,
0,
0,
1,
1,
1,
0,
2,
0,
0,
0,
0,
0,
0,
0,
0,
0,
0,
0,
0,
0,
0,
0,
0,
0,
0,
0,
0,
0,
0,
0,
0,
0,
1,
0,
0,
0,
0,
0,
0,
0,
1,
0,
0,
0,
0,
0,
0,
0,
0,
1,
0,
0,
0,
1,
0,
0,
0,
0,
0,
0,
0,
0,
0,
0,
0,
1,
1,
1,
0,
0,
0,
0,
0,
0,
0,
0,
0,
0,
0,
0,
0,
0,
0,
0,
0,
1,
0,
0,
0,
0,
0,
0,
0,
0,
0,
0,
0,
0,
0,
0,
0,
0,
0,
0,
0,
0,
0,
0,
0,
0,
0,
0,
0,
0,
0,
0,
0,
0,
0,
0,
0,
0,
0,
0,
0,
0,
0,
0,
0,
0,
0,
0,
0,
0,
0,
0,
0,
0,
0,
0,
0,
0,
0,
0,
0,
0,
0,
0,
0,
0,
0,
0,
0,
0,
0,
0,
0,
0,
0,
0,
0,
0,
0,
0,
0,
0,
0,
0,
0,
0,
0,
0,
0,
0,
0,
0,
0,
0,
0,
0,
0,
0,
0,
0,
0,
0,
0,
0,
0,
0,
0,
0,
0,
0,
0,
0,
0,
0,
0,
0,
#ENDOFDATA   :