File: N132962/Standards/20 keV/B std.msa
#FORMAT      : EMSA/MAS Spectral Data File
#VERSION     : 1.0
#TITLE       : B std
#DATE        : 19-MAR-2025
#TIME        : 22:46
#OWNER       : Unknown
#NPOINTS     : 4096
#NCOLUMNS    : 1
#XUNITS      : eV
#YUNITS      : counts
#DATATYPE    : Y
#XPERCHAN    : 9.99778
#OFFSET      : 1.69135
#BEAMKV      : 20
#SIGNALTYPE  : EDS
#ELEVANGLE   : 35
#AZIMANGLE   : 0
#LIVETIME    : 1439.24
#REALTIME    : 1458.66
#PROBECUR    : 1.03438
#TAUWIND     : 0
#TDEADLYR    : 0
#TACTLYR     : 0.045
#TALWIND     : 0.025
#CHOFFSET    : 0.0
#XLABEL      : Energy (eV)
#YLABEL      : Counts
#EDSDET      : SD
##SPECIMEN   : B std
##D2STDCMP   : B,(B:100.0),5.0
##DET_HASH   : 12273538-fd48-a23f-0a19-f1e6fa85caef
##CALIB_HASH : 6abaa72c-aa41-8738-0be9-f592914732f3
##WORKING    : 15.0 mm
##SAMPLE     : <BulkSample id="1">\n<mOrientation id="2">\n<double>0.0</double>\n<double>0.0</double>\n<double>-1.0</double>\n</mOrientation>\n</BulkSample>
##MULTISPEC  : 0.872488
##DET_NAME   : EDAX All
##DET_MODE   : MediumLE
#SPECTRUM    :
151,
154,
114,
2139,
43094,
267457,
431292,
176101,
30074,
15516,
7910,
4284,
3726,
3030,
3198,
3812,
5689,
7819,
7308,
5934,
6095,
6694,
7726,
8623,
9112,
9846,
10620,
11012,
12118,
12939,
13814,
14746,
14601,
14590,
15011,
15275,
15402,
15510,
15456,
15880,
15629,
15987,
15738,
15733,
15725,
15590,
15791,
15859,
15513,
15659,
15364,
15168,
14842,
14444,
14131,
14391,
15683,
18102,
19755,
17695,
14910,
13372,
12058,
11192,
10737,
10556,
10397,
10328,
10226,
9927,
9821,
9648,
9479,
9334,
9440,
9108,
8739,
8923,
8843,
8499,
8496,
8492,
8142,
8088,
7916,
7904,
7615,
7615,
7491,
7484,
7405,
7270,
7263,
7113,
6757,
6872,
6722,
6483,
6723,
6429,
6331,
6313,
6196,
6248,
5779,
5952,
5875,
5769,
5716,
5709,
5428,
5340,
5382,
5302,
5257,
5195,
5103,
5195,
5155,
4907,
4861,
4885,
4864,
4701,
4811,
4610,
4642,
4401,
4480,
4460,
4340,
4364,
4277,
4199,
4207,
4086,
4105,
4003,
4037,
3890,
3975,
3866,
3802,
3802,
3786,
3746,
3720,
3600,
3558,
3612,
3604,
3517,
3397,
3395,
3360,
3384,
3243,
3331,
3289,
3358,
3164,
3181,
3163,
3147,
3075,
3059,
3147,
2981,
2976,
2958,
2917,
2888,
2940,
2875,
2853,
2828,
2761,
2703,
2716,
2752,
2686,
2697,
2630,
2604,
2546,
2600,
2441,
2482,
2547,
2492,
2378,
2349,
2391,
2350,
2421,
2345,
2448,
2386,
2323,
2277,
2164,
2209,
2158,
2218,
2159,
2205,
2137,
2146,
2170,
2014,
2148,
2268,
2340,
2438,
2360,
2246,
2128,
2017,
1905,
1844,
1907,
1801,
1808,
1776,
1763,
1845,
1714,
1699,
1771,
1653,
1776,
1713,
1701,
1682,
1657,
1658,
1651,
1651,
1674,
1593,
1558,
1568,
1494,
1518,
1539,
1503,
1504,
1556,
1588,
1513,
1471,
1370,
1413,
1431,
1368,
1404,
1355,
1381,
1392,
1255,
1295,
1294,
1385,
1335,
1449,
1418,
1644,
1718,
1787,
1757,
1498,
1373,
1260,
1165,
1142,
1226,
1162,
1145,
1160,
1162,
1095,
1067,
1115,
1142,
1178,
1216,
1269,
1338,
1402,
1324,
1206,
1107,
1104,
1054,
1070,
1034,
1078,
1072,
1053,
999,
939,
962,
956,
903,
917,
914,
914,
907,
912,
856,
855,
842,
897,
880,
838,
816,
807,
822,
832,
841,
841,
749,
810,
768,
830,
762,
788,
741,
722,
696,
729,
663,
751,
672,
706,
700,
735,
639,
658,
667,
669,
657,
683,
645,
596,
611,
675,
622,
656,
685,
607,
607,
570,
615,
591,
589,
571,
585,
524,
578,
537,
503,
558,
524,
502,
524,
512,
500,
489,
511,
502,
516,
462,
516,
474,
461,
509,
498,
482,
452,
463,
454,
449,
477,
478,
431,
467,
408,
437,
425,
422,
447,
442,
397,
383,
425,
393,
387,
362,
394,
376,
365,
384,
344,
347,
368,
384,
330,
389,
306,
316,
340,
341,
334,
351,
300,
313,
313,
301,
327,
325,
314,
311,
313,
336,
265,
298,
289,
273,
246,
271,
248,
274,
270,
242,
265,
251,
264,
255,
233,
248,
245,
226,
267,
230,
230,
213,
212,
233,
236,
199,
203,
198,
227,
201,
224,
191,
210,
176,
191,
181,
201,
208,
177,
192,
199,
197,
189,
184,
160,
159,
190,
159,
168,
170,
131,
142,
154,
153,
150,
149,
162,
122,
139,
124,
120,
155,
135,
138,
120,
123,
111,
135,
138,
127,
120,
119,
120,
138,
112,
113,
99,
98,
109,
100,
86,
112,
109,
113,
93,
114,
101,
109,
92,
78,
105,
102,
89,
102,
90,
110,
79,
81,
74,
69,
84,
67,
73,
87,
86,
78,
54,
79,
67,
69,
68,
72,
63,
62,
58,
72,
60,
74,
66,
65,
44,
55,
55,
48,
48,
63,
69,
52,
61,
54,
45,
60,
43,
42,
38,
48,
46,
28,
50,
50,
40,
41,
34,
43,
43,
37,
40,
52,
32,
34,
47,
38,
29,
47,
30,
24,
32,
23,
19,
23,
20,
33,
18,
31,
31,
29,
23,
15,
30,
16,
25,
18,
28,
20,
17,
19,
19,
22,
22,
23,
21,
19,
12,
19,
13,
16,
17,
14,
21,
20,
8,
19,
20,
18,
18,
16,
15,
19,
6,
13,
9,
15,
14,
8,
5,
13,
3,
3,
11,
11,
14,
7,
8,
4,
9,
4,
5,
4,
5,
4,
6,
6,
2,
9,
1,
7,
4,
2,
2,
0,
1,
4,
2,
2,
3,
1,
0,
2,
1,
0,
1,
1,
0,
0,
1,
0,
0,
0,
0,
0,
0,
0,
0,
0,
0,
1,
0,
0,
0,
0,
0,
0,
0,
0,
0,
0,
0,
0,
0,
0,
0,
0,
0,
0,
0,
0,
0,
0,
0,
0,
0,
0,
0,
0,
0,
0,
0,
0,
0,
0,
0,
0,
0,
0,
0,
1,
0,
0,
0,
0,
0,
0,
0,
0,
0,
0,
0,
0,
0,
0,
0,
0,
0,
0,
0,
0,
0,
0,
0,
0,
0,
0,
0,
0,
0,
0,
0,
0,
0,
0,
0,
0,
0,
0,
0,
0,
0,
0,
0,
0,
0,
0,
0,
0,
0,
0,
0,
0,
0,
0,
0,
0,
0,
0,
0,
0,
0,
0,
0,
0,
0,
0,
0,
0,
0,
0,
0,
0,
0,
0,
0,
0,
0,
0,
0,
0,
0,
0,
0,
0,
0,
0,
0,
0,
0,
0,
0,
0,
0,
0,
0,
0,
0,
0,
0,
0,
0,
0,
0,
0,
0,
0,
0,
0,
0,
0,
0,
0,
0,
0,
0,
0,
0,
0,
0,
0,
0,
0,
0,
0,
0,
0,
0,
0,
0,
0,
0,
0,
0,
0,
0,
0,
0,
0,
0,
0,
0,
0,
1,
0,
0,
0,
0,
0,
0,
1,
0,
0,
0,
0,
0,
0,
0,
0,
0,
0,
0,
0,
0,
0,
0,
0,
0,
0,
0,
0,
0,
0,
0,
0,
0,
0,
0,
0,
0,
0,
0,
0,
0,
0,
0,
0,
0,
0,
0,
0,
0,
0,
0,
0,
0,
0,
0,
0,
0,
0,
0,
0,
0,
0,
0,
0,
0,
0,
0,
0,
0,
0,
0,
0,
0,
0,
0,
0,
0,
0,
0,
0,
0,
0,
0,
0,
0,
0,
0,
0,
0,
0,
0,
0,
0,
0,
0,
0,
0,
0,
0,
0,
0,
0,
0,
0,
0,
0,
0,
0,
0,
0,
0,
0,
0,
0,
0,
0,
0,
0,
0,
0,
0,
0,
0,
0,
0,
0,
0,
0,
0,
0,
0,
0,
0,
0,
0,
0,
0,
0,
0,
0,
0,
0,
0,
0,
0,
0,
0,
0,
0,
0,
0,
0,
0,
0,
0,
0,
0,
0,
0,
0,
0,
0,
0,
0,
0,
0,
0,
0,
0,
0,
0,
0,
0,
0,
0,
0,
0,
0,
0,
0,
0,
0,
0,
0,
0,
0,
0,
0,
0,
0,
0,
0,
0,
1,
0,
0,
0,
0,
0,
0,
0,
0,
0,
0,
0,
0,
0,
0,
0,
0,
0,
0,
0,
0,
0,
0,
0,
0,
0,
0,
0,
0,
0,
0,
0,
0,
0,
0,
0,
0,
0,
0,
0,
0,
0,
0,
0,
0,
0,
0,
0,
0,
0,
0,
0,
0,
0,
0,
0,
0,
0,
0,
0,
0,
0,
0,
0,
0,
0,
0,
0,
0,
0,
0,
0,
0,
0,
0,
0,
0,
0,
0,
0,
0,
0,
0,
0,
0,
0,
0,
0,
0,
0,
0,
0,
0,
0,
0,
0,
0,
0,
0,
0,
0,
0,
0,
0,
0,
0,
0,
0,
0,
0,
0,
0,
0,
0,
0,
0,
0,
0,
0,
0,
0,
0,
0,
0,
0,
0,
0,
0,
0,
0,
0,
0,
0,
0,
0,
0,
0,
0,
0,
0,
0,
0,
0,
0,
0,
0,
0,
0,
0,
0,
0,
0,
0,
0,
0,
0,
0,
0,
0,
0,
0,
0,
0,
0,
0,
0,
0,
0,
0,
0,
0,
0,
0,
0,
0,
0,
0,
0,
0,
0,
0,
0,
0,
0,
0,
0,
0,
0,
0,
0,
0,
0,
0,
0,
0,
0,
0,
0,
0,
0,
0,
0,
0,
0,
0,
0,
0,
0,
0,
0,
0,
0,
0,
0,
0,
0,
0,
0,
0,
0,
0,
0,
0,
0,
0,
0,
0,
0,
0,
0,
0,
0,
0,
0,
0,
0,
0,
0,
0,
0,
0,
0,
0,
0,
0,
0,
0,
0,
0,
0,
0,
0,
0,
0,
0,
0,
0,
0,
0,
0,
0,
0,
0,
0,
0,
0,
0,
0,
0,
0,
0,
0,
0,
0,
0,
0,
0,
0,
0,
0,
0,
0,
0,
0,
0,
0,
0,
0,
0,
0,
0,
0,
0,
0,
0,
0,
0,
0,
0,
0,
0,
0,
0,
0,
0,
0,
0,
0,
0,
0,
#ENDOFDATA   :