File: N132962/Standards/20 keV/BaCl std.msa
#FORMAT      : EMSA/MAS Spectral Data File
#VERSION     : 1.0
#TITLE       : BaCl std
#DATE        : 15-SEP-2025
#TIME        : 14:17
#OWNER       : Unknown
#NPOINTS     : 4096
#NCOLUMNS    : 1
#XUNITS      : eV
#YUNITS      : counts
#DATATYPE    : Y
#XPERCHAN    : 9.99778
#OFFSET      : 1.69135
#BEAMKV      : 20
#SIGNALTYPE  : EDS
#ELEVANGLE   : 35
#AZIMANGLE   : 0
#LIVETIME    : 1202.71
#REALTIME    : 1331.1
#PROBECUR    : 1.23578
#TAUWIND     : 0
#TDEADLYR    : 0
#TACTLYR     : 0.045
#TALWIND     : 0.025
#CHOFFSET    : 0.0
#XLABEL      : Energy (eV)
#YLABEL      : Counts
#EDSDET      : SD
##SPECIMEN   : BaCl std
##D2STDCMP   : BaCl,(Cl:20.5178),(Ba:79.4822)
##DET_HASH   : 12273538-fd48-a23f-0a19-f1e6fa85caef
##CALIB_HASH : 6abaa72c-aa41-8738-0be9-f592914732f3
##WORKING    : 15.0 mm
##SAMPLE     : <BulkSample id="1">\n<mOrientation id="2">\n<double>0.0</double>\n<double>0.0</double>\n<double>-1.0</double>\n</mOrientation>\n</BulkSample>
##MULTISPEC  : 184.193
##DET_NAME   : EDAX All
##DET_MODE   : MediumLE
#SPECTRUM    :
623,
876,
574,
1645,
11911,
46258,
66302,
45786,
37270,
38148,
28363,
22382,
21957,
22659,
24712,
29976,
43090,
61555,
80509,
108698,
116132,
81544,
52558,
47392,
56449,
73434,
77498,
60465,
48547,
47913,
43026,
38069,
39307,
39839,
38097,
36942,
33579,
29893,
27209,
26439,
26745,
27369,
27671,
28142,
28056,
28694,
29191,
30223,
31787,
33869,
34534,
33490,
32732,
32920,
32959,
33789,
35140,
38000,
39992,
40503,
39236,
37244,
34928,
33791,
33320,
33179,
33354,
33672,
33935,
33936,
34654,
35045,
35066,
35586,
35823,
36479,
36434,
36719,
37186,
36679,
37492,
40042,
47611,
66735,
128231,
318833,
702224,
1071151,
1038829,
640502,
269891,
112025,
93908,
120021,
131385,
105083,
65377,
38763,
29567,
26976,
26659,
27250,
28047,
28446,
28026,
27294,
27494,
27637,
27216,
26859,
27073,
26762,
26966,
26974,
27091,
27251,
26690,
26698,
26356,
26486,
26838,
26599,
26245,
26143,
26316,
26274,
26506,
26636,
27597,
30275,
35789,
41719,
43882,
40895,
34788,
29984,
27491,
26407,
26293,
26033,
26529,
27743,
29796,
34812,
45194,
76833,
159065,
309073,
471765,
528802,
432869,
261500,
125290,
57283,
33967,
28959,
31769,
45058,
82627,
151123,
230946,
274274,
252763,
192168,
130453,
89637,
62564,
45944,
41223,
50371,
73381,
98404,
109329,
96478,
68778,
44184,
29485,
23102,
21090,
20472,
21732,
25352,
32819,
42604,
49496,
49029,
40270,
29714,
22742,
19754,
20668,
23794,
27738,
29697,
28755,
25285,
22033,
19344,
18430,
18377,
17841,
16540,
15739,
15557,
15355,
14844,
15046,
14949,
14922,
15191,
15379,
15794,
16397,
16782,
16254,
16035,
15399,
15053,
14671,
14816,
14403,
14607,
14397,
14017,
14320,
14357,
14288,
14146,
14059,
13925,
14022,
14202,
14204,
14388,
14545,
14774,
15073,
14952,
14627,
14167,
13851,
13775,
13549,
13489,
13474,
13756,
13699,
14403,
14711,
14565,
14542,
13812,
13427,
13274,
13102,
12728,
12800,
12871,
12541,
12707,
12410,
12290,
12432,
12189,
12348,
12180,
12221,
11963,
12235,
11894,
12104,
11756,
11878,
11904,
11848,
11873,
11866,
11621,
11503,
11494,
11435,
11441,
11396,
11146,
11300,
11255,
11131,
11062,
10901,
11053,
10791,
10643,
10783,
10553,
10710,
10594,
10929,
10708,
10642,
10541,
10381,
10289,
10113,
10254,
10189,
10099,
9866,
9943,
10272,
10147,
9867,
9919,
9958,
9694,
9628,
9410,
9449,
9639,
9594,
9232,
9575,
9355,
9340,
9310,
9311,
9185,
9172,
8972,
8792,
8865,
8999,
8774,
8771,
8686,
8777,
8836,
8551,
8441,
8477,
8464,
8201,
8108,
8239,
8345,
8230,
8129,
8101,
8091,
7873,
8010,
7783,
7727,
7659,
7745,
7617,
7655,
7619,
7572,
7575,
7412,
7303,
7273,
7282,
7129,
7143,
7143,
7015,
7165,
6973,
6931,
6870,
6943,
6872,
6843,
6546,
6683,
6542,
6612,
6343,
6378,
6534,
6281,
6120,
6318,
6224,
6226,
6208,
5997,
5881,
5996,
5886,
6077,
5754,
5910,
5901,
5801,
5669,
5644,
5645,
5783,
5530,
5446,
5472,
5392,
5465,
5296,
5213,
5252,
5155,
5062,
5109,
5084,
5104,
5016,
5038,
4951,
4868,
4779,
4717,
4765,
4769,
4569,
4684,
4654,
4642,
4601,
4482,
4510,
4443,
4371,
4385,
4364,
4162,
4260,
4215,
4253,
4099,
4067,
4054,
4070,
3990,
3975,
3935,
3840,
3872,
3828,
3826,
3619,
3672,
3647,
3639,
3519,
3637,
3641,
3468,
3412,
3493,
3462,
3435,
3384,
3342,
3230,
3245,
3296,
3191,
3184,
3171,
3055,
3174,
3218,
3040,
3082,
3030,
2897,
2953,
2895,
2996,
2787,
2818,
2779,
2809,
2705,
2712,
2750,
2636,
2582,
2651,
2532,
2592,
2451,
2567,
2515,
2430,
2509,
2366,
2353,
2306,
2211,
2252,
2248,
2194,
2217,
2088,
2169,
2201,
2104,
2141,
2114,
2012,
2077,
1989,
1960,
1863,
1980,
1906,
1881,
1839,
1839,
1790,
1782,
1795,
1795,
1797,
1764,
1705,
1709,
1671,
1691,
1642,
1612,
1592,
1569,
1522,
1558,
1537,
1485,
1489,
1393,
1517,
1479,
1434,
1332,
1471,
1335,
1322,
1348,
1317,
1290,
1245,
1284,
1278,
1251,
1255,
1210,
1145,
1147,
1145,
1137,
1096,
1084,
1034,
1125,
1075,
1074,
976,
1109,
977,
1021,
1002,
958,
972,
918,
894,
909,
889,
899,
854,
858,
882,
824,
856,
836,
754,
719,
746,
756,
748,
733,
708,
760,
714,
711,
717,
662,
663,
609,
630,
606,
596,
589,
593,
553,
563,
527,
550,
538,
539,
508,
519,
476,
504,
444,
460,
478,
444,
425,
411,
408,
381,
380,
375,
338,
347,
334,
328,
336,
315,
304,
296,
264,
286,
289,
247,
263,
257,
280,
212,
230,
232,
225,
205,
222,
194,
173,
179,
174,
168,
149,
135,
154,
119,
130,
140,
124,
110,
113,
101,
85,
77,
66,
68,
55,
64,
66,
42,
38,
33,
20,
22,
24,
16,
14,
16,
14,
11,
23,
19,
18,
13,
10,
11,
22,
18,
10,
14,
21,
18,
12,
11,
13,
12,
19,
23,
15,
12,
16,
11,
13,
11,
15,
11,
11,
13,
14,
12,
16,
10,
14,
11,
10,
13,
11,
8,
10,
8,
11,
8,
10,
12,
9,
9,
10,
6,
8,
7,
15,
16,
7,
12,
6,
6,
8,
12,
6,
12,
7,
11,
5,
9,
3,
6,
2,
11,
6,
5,
6,
10,
10,
8,
3,
6,
9,
3,
7,
4,
3,
1,
2,
7,
4,
0,
5,
5,
6,
10,
12,
8,
2,
3,
5,
5,
5,
4,
3,
3,
4,
3,
0,
4,
3,
1,
4,
2,
0,
5,
7,
2,
5,
6,
2,
1,
3,
1,
6,
0,
1,
2,
6,
4,
3,
3,
3,
2,
5,
1,
5,
0,
2,
1,
0,
2,
1,
1,
1,
2,
5,
2,
1,
1,
2,
4,
2,
2,
4,
9,
4,
2,
1,
1,
1,
2,
5,
0,
2,
4,
1,
3,
2,
4,
6,
1,
0,
3,
2,
0,
4,
0,
2,
0,
3,
1,
5,
1,
1,
1,
1,
3,
0,
2,
1,
0,
1,
2,
1,
3,
1,
3,
2,
2,
0,
2,
0,
0,
1,
1,
4,
3,
2,
1,
0,
1,
2,
1,
2,
0,
5,
3,
0,
3,
1,
2,
2,
2,
0,
1,
2,
3,
1,
1,
0,
1,
2,
2,
1,
1,
0,
1,
0,
1,
0,
2,
2,
0,
1,
0,
3,
1,
3,
0,
2,
0,
2,
2,
0,
0,
1,
0,
1,
2,
1,
0,
0,
1,
1,
1,
1,
1,
1,
0,
3,
0,
0,
1,
2,
0,
0,
0,
0,
0,
0,
1,
2,
0,
2,
3,
1,
0,
2,
0,
0,
2,
1,
0,
0,
0,
0,
1,
1,
3,
2,
1,
1,
0,
2,
1,
0,
0,
1,
0,
0,
0,
1,
0,
0,
0,
0,
1,
1,
1,
1,
0,
0,
1,
0,
0,
0,
0,
0,
0,
0,
0,
0,
1,
0,
0,
0,
0,
0,
0,
0,
0,
0,
0,
0,
0,
0,
0,
0,
1,
0,
0,
0,
0,
0,
0,
0,
1,
0,
0,
0,
0,
1,
1,
0,
0,
0,
1,
0,
0,
0,
0,
0,
0,
1,
0,
0,
0,
0,
2,
0,
0,
0,
0,
0,
1,
0,
0,
0,
0,
0,
0,
0,
0,
0,
1,
1,
0,
0,
0,
0,
0,
1,
1,
0,
0,
0,
1,
0,
0,
2,
0,
0,
0,
0,
0,
0,
0,
0,
0,
0,
0,
0,
0,
0,
0,
0,
0,
0,
0,
0,
0,
0,
0,
1,
0,
0,
0,
0,
1,
0,
0,
0,
0,
0,
0,
0,
1,
0,
0,
0,
0,
0,
0,
0,
0,
0,
1,
0,
0,
0,
0,
0,
0,
0,
0,
0,
0,
0,
0,
0,
0,
0,
0,
0,
0,
0,
0,
0,
0,
0,
0,
0,
0,
0,
0,
0,
0,
0,
0,
0,
1,
0,
0,
0,
0,
0,
0,
0,
0,
0,
0,
0,
0,
0,
0,
0,
0,
0,
0,
0,
0,
0,
0,
0,
0,
0,
0,
0,
0,
0,
0,
0,
0,
0,
0,
0,
0,
0,
0,
0,
0,
0,
0,
0,
0,
0,
0,
0,
0,
0,
0,
0,
0,
0,
0,
0,
0,
0,
0,
0,
0,
0,
0,
0,
0,
0,
0,
0,
0,
0,
0,
0,
0,
0,
0,
0,
0,
0,
0,
0,
0,
0,
0,
0,
0,
0,
0,
0,
0,
0,
0,
0,
0,
0,
0,
0,
0,
0,
0,
0,
0,
0,
0,
0,
0,
0,
0,
0,
0,
0,
0,
0,
0,
0,
0,
0,
0,
0,
0,
0,
0,
0,
0,
0,
0,
0,
0,
0,
0,
0,
0,
0,
0,
0,
0,
0,
0,
0,
0,
0,
0,
0,
0,
0,
0,
0,
0,
0,
0,
0,
0,
0,
0,
0,
0,
0,
0,
0,
0,
0,
0,
0,
0,
0,
0,
0,
0,
0,
0,
0,
0,
0,
0,
0,
0,
0,
0,
0,
0,
0,
0,
0,
0,
0,
0,
0,
0,
0,
0,
0,
0,
0,
0,
0,
0,
0,
0,
0,
0,
0,
0,
0,
0,
0,
0,
0,
#ENDOFDATA   :