File: N132962/Standards/20 keV/BaF2 std.msa
#FORMAT      : EMSA/MAS Spectral Data File
#VERSION     : 1.0
#TITLE       : BaF2 std
#DATE        : 20-FEB-2025
#TIME        : 14:09
#OWNER       : Unknown
#NPOINTS     : 4096
#NCOLUMNS    : 1
#XUNITS      : eV
#YUNITS      : counts
#DATATYPE    : Y
#XPERCHAN    : 9.99778
#OFFSET      : 1.69135
#BEAMKV      : 20
#SIGNALTYPE  : EDS
#ELEVANGLE   : 35
#AZIMANGLE   : 0
#LIVETIME    : 956.824
#REALTIME    : 1049.65
#PROBECUR    : 1.04758
#TAUWIND     : 0
#TDEADLYR    : 0
#TACTLYR     : 0.045
#TALWIND     : 0.025
#CHOFFSET    : 0.0
#XLABEL      : Energy (eV)
#YLABEL      : Counts
#EDSDET      : SD
##SPECIMEN   : BaF2 std
##D2STDCMP   : BaF2,(F:21.672),(Ba:78.328),5.0
##DET_HASH   : 12273538-fd48-a23f-0a19-f1e6fa85caef
##CALIB_HASH : 6abaa72c-aa41-8738-0be9-f592914732f3
##WORKING    : 15.0 mm
##SAMPLE     : <BulkSample id="1">\n<mOrientation id="2">\n<double>0.0</double>\n<double>0.0</double>\n<double>-1.0</double>\n</mOrientation>\n</BulkSample>
##MULTISPEC  : 8.67636
##DET_NAME   : EDAX All
##DET_MODE   : MediumLE
#SPECTRUM    :
899,
1273,
710,
662,
2758,
9784,
22058,
38102,
60087,
66026,
47904,
35262,
33384,
33615,
34864,
39194,
49237,
67835,
104958,
172935,
258504,
451800,
720283,
628580,
277526,
95522,
58351,
40553,
25548,
18454,
17440,
20162,
24304,
25772,
24643,
23542,
20827,
18502,
17075,
16831,
17026,
17696,
18293,
18866,
19514,
19445,
19882,
19742,
20064,
21124,
21476,
21780,
21574,
21817,
22392,
23165,
23967,
25255,
27277,
27246,
27354,
26189,
24321,
23076,
22929,
22826,
22974,
23054,
23601,
23526,
23693,
24016,
24133,
24344,
24465,
24650,
24612,
24735,
25317,
24733,
24769,
24900,
24736,
24587,
25296,
25181,
25946,
26424,
26796,
27579,
28306,
28386,
26884,
25843,
24933,
24659,
24626,
24566,
24408,
24509,
24668,
24981,
25152,
25558,
25155,
24687,
24275,
24162,
23849,
23905,
23828,
23827,
23799,
23745,
23503,
23391,
22822,
22600,
22321,
22341,
22597,
22336,
22335,
22999,
22404,
22356,
22214,
22453,
23300,
25751,
30586,
36279,
38477,
35417,
29610,
25538,
22592,
21778,
21497,
21183,
21531,
22357,
24702,
28578,
38520,
67000,
141464,
275097,
418793,
470872,
389717,
237172,
113843,
50240,
28051,
23355,
25444,
38090,
70385,
130305,
199787,
236442,
220471,
167289,
114814,
77301,
53117,
38523,
34034,
42276,
61708,
84510,
92833,
81876,
58083,
36254,
23129,
17170,
16261,
16450,
17692,
20547,
27028,
35358,
41164,
40457,
33278,
24161,
18332,
15661,
15835,
18541,
21697,
23623,
22817,
20446,
17138,
15372,
14679,
14205,
13331,
12906,
11933,
11771,
11462,
11366,
11144,
11459,
11593,
11556,
12062,
12920,
13591,
14203,
14071,
13268,
12082,
11513,
10992,
10838,
10831,
10666,
10716,
10724,
10780,
10693,
10616,
10564,
10557,
10372,
10536,
10504,
10581,
10559,
10489,
10731,
10345,
10445,
10109,
10034,
10048,
9896,
9837,
9890,
9832,
9938,
10109,
10285,
10563,
10611,
10453,
10261,
9823,
9732,
9474,
9349,
9328,
9181,
9287,
9104,
9137,
9294,
9127,
9049,
8821,
9035,
8978,
8951,
8915,
8676,
8811,
8729,
8773,
8818,
8578,
8845,
8628,
8566,
8323,
8520,
8420,
8319,
8341,
8136,
8111,
8143,
8041,
8023,
8143,
7990,
7871,
7888,
7941,
7817,
7877,
7810,
7812,
7840,
7737,
7640,
7571,
7413,
7279,
7321,
7261,
7319,
7312,
7177,
7292,
7289,
7414,
7257,
7232,
7356,
7037,
6931,
6989,
6747,
6995,
6981,
6896,
6926,
7069,
6778,
6642,
6547,
6646,
6526,
6605,
6383,
6386,
6367,
6490,
6350,
6274,
6293,
6235,
6125,
6020,
5887,
5928,
6061,
5879,
5912,
5829,
5851,
5753,
5811,
5651,
5677,
5713,
5550,
5536,
5489,
5595,
5523,
5439,
5495,
5254,
5235,
5287,
5231,
5175,
5147,
5136,
5116,
5049,
5171,
5035,
4925,
4817,
4911,
4867,
4764,
4914,
4787,
4704,
4785,
4618,
4508,
4623,
4582,
4509,
4419,
4502,
4376,
4349,
4356,
4352,
4216,
4303,
4275,
4282,
4060,
4180,
4171,
4044,
3943,
3957,
4078,
3895,
3877,
3898,
3958,
3771,
3723,
3733,
3697,
3697,
3642,
3728,
3699,
3495,
3466,
3568,
3388,
3440,
3476,
3347,
3368,
3413,
3304,
3255,
3294,
3273,
3186,
3078,
3145,
3150,
3015,
3035,
3046,
3034,
3061,
2977,
2973,
2951,
2905,
2907,
2796,
2766,
2841,
2625,
2762,
2659,
2789,
2742,
2658,
2577,
2617,
2572,
2552,
2483,
2452,
2510,
2471,
2349,
2408,
2413,
2313,
2325,
2320,
2236,
2222,
2183,
2206,
2158,
2265,
2154,
2179,
2161,
2130,
2042,
2115,
2097,
2005,
2014,
1969,
1940,
1947,
1954,
1907,
1939,
1910,
1818,
1813,
1835,
1788,
1810,
1803,
1798,
1720,
1685,
1643,
1609,
1682,
1639,
1592,
1591,
1572,
1525,
1496,
1464,
1521,
1473,
1424,
1411,
1377,
1445,
1351,
1363,
1383,
1370,
1348,
1257,
1261,
1281,
1299,
1233,
1227,
1270,
1171,
1189,
1156,
1148,
1193,
1104,
1137,
1093,
1085,
1098,
1082,
1038,
1049,
982,
990,
980,
986,
949,
1020,
947,
870,
898,
926,
827,
849,
844,
845,
850,
771,
791,
780,
756,
800,
779,
773,
752,
745,
744,
740,
725,
744,
698,
709,
686,
660,
627,
609,
613,
660,
615,
673,
599,
621,
581,
541,
582,
542,
562,
564,
529,
537,
515,
472,
486,
482,
483,
446,
458,
463,
457,
442,
457,
439,
394,
379,
350,
395,
391,
345,
358,
339,
355,
336,
326,
322,
286,
286,
291,
264,
264,
284,
262,
283,
273,
236,
228,
212,
217,
245,
213,
191,
191,
179,
178,
170,
164,
152,
174,
164,
145,
138,
133,
126,
111,
125,
114,
100,
109,
95,
82,
80,
65,
67,
70,
54,
48,
55,
38,
35,
30,
14,
22,
16,
14,
18,
23,
8,
11,
8,
10,
6,
12,
9,
9,
9,
12,
7,
8,
8,
10,
13,
10,
8,
11,
10,
8,
10,
11,
7,
13,
12,
9,
4,
8,
7,
6,
14,
11,
13,
4,
6,
6,
6,
6,
6,
7,
7,
6,
5,
8,
3,
3,
5,
3,
9,
4,
1,
10,
7,
6,
7,
3,
7,
6,
7,
5,
6,
2,
9,
0,
5,
6,
7,
7,
10,
5,
6,
4,
2,
6,
5,
4,
5,
4,
6,
3,
7,
5,
4,
5,
3,
4,
5,
3,
3,
3,
3,
3,
3,
5,
2,
3,
3,
4,
6,
6,
2,
4,
1,
1,
2,
4,
1,
3,
4,
4,
5,
3,
0,
6,
3,
1,
5,
1,
4,
2,
5,
0,
7,
5,
2,
0,
5,
3,
3,
3,
4,
2,
1,
2,
3,
5,
2,
1,
3,
2,
0,
1,
1,
2,
0,
2,
0,
2,
0,
1,
1,
3,
1,
3,
3,
3,
1,
1,
1,
4,
1,
1,
3,
2,
1,
2,
2,
2,
3,
1,
0,
0,
2,
0,
0,
2,
0,
4,
1,
1,
3,
2,
2,
5,
1,
4,
4,
3,
2,
1,
1,
1,
1,
1,
0,
1,
0,
2,
4,
4,
1,
1,
1,
0,
3,
1,
0,
2,
2,
1,
1,
0,
0,
0,
0,
1,
0,
4,
1,
2,
1,
3,
1,
3,
2,
1,
1,
1,
3,
0,
0,
1,
1,
0,
0,
0,
0,
1,
0,
1,
1,
1,
1,
1,
0,
0,
1,
1,
1,
1,
3,
2,
0,
0,
1,
0,
1,
0,
3,
2,
0,
0,
0,
1,
0,
0,
0,
0,
0,
0,
0,
0,
1,
1,
0,
0,
0,
1,
1,
0,
0,
0,
0,
0,
0,
2,
1,
0,
1,
0,
1,
1,
0,
0,
0,
1,
0,
1,
0,
2,
2,
0,
0,
0,
0,
0,
0,
1,
1,
1,
1,
1,
1,
1,
0,
0,
0,
1,
1,
1,
0,
0,
0,
1,
0,
0,
1,
0,
0,
0,
0,
0,
0,
0,
0,
0,
0,
0,
0,
1,
0,
0,
0,
0,
0,
0,
1,
0,
1,
1,
0,
2,
0,
0,
0,
0,
0,
2,
0,
0,
0,
0,
0,
0,
0,
1,
0,
0,
1,
0,
0,
0,
0,
0,
0,
0,
0,
0,
0,
0,
0,
0,
0,
0,
0,
0,
0,
1,
0,
0,
0,
0,
0,
1,
0,
1,
0,
0,
0,
0,
0,
0,
0,
0,
0,
0,
0,
0,
0,
0,
0,
0,
0,
0,
0,
0,
0,
0,
0,
0,
0,
0,
0,
0,
0,
0,
0,
0,
0,
0,
0,
0,
1,
0,
0,
0,
1,
0,
0,
0,
1,
0,
0,
0,
0,
0,
0,
0,
0,
0,
0,
0,
0,
0,
0,
0,
0,
0,
0,
0,
0,
0,
0,
1,
0,
0,
0,
0,
0,
0,
0,
0,
0,
0,
0,
0,
0,
0,
0,
0,
0,
0,
0,
1,
0,
0,
0,
0,
0,
0,
0,
0,
0,
0,
0,
0,
0,
0,
0,
0,
0,
0,
0,
0,
0,
0,
0,
0,
0,
0,
0,
0,
1,
0,
0,
0,
0,
0,
0,
0,
0,
0,
0,
0,
0,
0,
0,
0,
0,
0,
0,
0,
0,
0,
0,
0,
0,
0,
0,
0,
0,
0,
0,
0,
0,
0,
0,
0,
0,
0,
0,
0,
0,
0,
0,
0,
0,
0,
0,
0,
0,
0,
0,
0,
0,
0,
0,
0,
0,
0,
0,
0,
0,
0,
0,
0,
0,
0,
0,
0,
0,
0,
0,
0,
0,
0,
0,
0,
0,
0,
0,
0,
0,
0,
0,
0,
0,
0,
0,
0,
0,
0,
0,
0,
0,
0,
0,
0,
0,
0,
0,
0,
0,
0,
0,
0,
0,
0,
0,
0,
0,
0,
0,
0,
0,
0,
0,
0,
0,
0,
0,
0,
0,
0,
0,
0,
0,
0,
0,
0,
0,
0,
0,
0,
0,
0,
0,
0,
0,
0,
0,
0,
0,
0,
0,
0,
0,
0,
0,
0,
0,
0,
0,
0,
0,
0,
0,
0,
0,
0,
0,
0,
0,
0,
0,
0,
0,
0,
0,
0,
0,
0,
0,
0,
0,
0,
0,
0,
0,
0,
0,
0,
0,
0,
0,
0,
0,
0,
0,
0,
0,
0,
0,
0,
0,
0,
0,
0,
0,
#ENDOFDATA   :