File: N132962/Standards/20 keV/Bi std.msa
#FORMAT      : EMSA/MAS Spectral Data File
#VERSION     : 1.0
#TITLE       : Bi std
#DATE        : 20-FEB-2025
#TIME        : 14:03
#OWNER       : Unknown
#NPOINTS     : 4096
#NCOLUMNS    : 1
#XUNITS      : eV
#YUNITS      : counts
#DATATYPE    : Y
#XPERCHAN    : 9.99778
#OFFSET      : 1.69135
#BEAMKV      : 20
#SIGNALTYPE  : EDS
#ELEVANGLE   : 35
#AZIMANGLE   : 0
#LIVETIME    : 964.528
#REALTIME    : 1088.75
#PROBECUR    : 1.04741
#TAUWIND     : 0
#TDEADLYR    : 0
#TACTLYR     : 0.045
#TALWIND     : 0.025
#CHOFFSET    : 0.0
#XLABEL      : Energy (eV)
#YLABEL      : Counts
#EDSDET      : SD
##SPECIMEN   : Bi std
##D2STDCMP   : Bi,(Bi:100.0)
##DET_HASH   : 12273538-fd48-a23f-0a19-f1e6fa85caef
##CALIB_HASH : 6abaa72c-aa41-8738-0be9-f592914732f3
##WORKING    : 15.0 mm
##SAMPLE     : <BulkSample id="1">\n<mOrientation id="2">\n<double>0.0</double>\n<double>0.0</double>\n<double>-1.0</double>\n</mOrientation>\n</BulkSample>
##MULTISPEC  : 1.22291
##DET_NAME   : EDAX All
##DET_MODE   : MediumLE
#SPECTRUM    :
113,
123,
90,
587,
4083,
15730,
36155,
55218,
71043,
74627,
51993,
35774,
30376,
26577,
24967,
26213,
33022,
39931,
35836,
30215,
30828,
36750,
49712,
54151,
44355,
39997,
43370,
41110,
37926,
36271,
34733,
34479,
35423,
37189,
37456,
37997,
37979,
38628,
39846,
40536,
41195,
42013,
42819,
42962,
43782,
44755,
45883,
46230,
47564,
48467,
49165,
49132,
48459,
48482,
48843,
49114,
50902,
53706,
56418,
58153,
61009,
71620,
89467,
99716,
88166,
67121,
54476,
51261,
49150,
48229,
48063,
48325,
51180,
55845,
61795,
66264,
71645,
97606,
197424,
476343,
887825,
1075553,
899919,
732546,
708732,
573600,
316646,
129386,
60155,
48663,
56427,
63745,
57992,
43557,
31782,
26068,
24557,
24506,
24922,
25929,
26719,
27343,
27246,
28054,
30610,
33833,
35295,
35570,
32924,
29833,
27696,
26093,
24746,
24407,
24079,
23778,
24110,
24314,
24394,
24077,
24683,
24944,
25237,
25251,
24686,
24214,
23940,
23919,
24240,
25053,
24846,
24667,
24445,
24318,
23729,
23819,
23980,
23611,
23766,
24153,
23982,
23618,
24169,
23979,
24195,
24387,
24067,
24347,
24020,
24115,
23973,
23984,
24131,
23974,
23697,
23899,
23873,
24068,
24069,
24734,
24917,
25133,
25489,
25281,
25777,
25646,
24999,
24890,
24780,
24170,
23916,
23383,
23284,
23119,
23391,
23264,
23372,
23456,
24160,
25004,
25509,
25394,
24464,
23361,
22906,
22667,
22401,
22560,
22414,
22338,
22378,
21977,
22144,
21915,
22038,
22047,
22206,
22135,
22032,
22062,
21743,
21336,
21718,
21593,
21304,
21374,
20914,
21429,
21178,
21552,
22753,
25201,
27811,
29501,
28748,
26399,
23620,
21405,
20535,
20129,
20133,
20153,
20066,
19679,
19947,
19509,
19589,
19593,
19350,
19287,
19268,
19314,
19402,
19745,
19917,
19861,
19871,
19486,
19108,
18918,
18631,
18196,
18297,
18178,
17838,
18189,
18810,
19434,
19645,
19681,
19748,
18964,
18111,
17465,
17324,
17327,
16985,
17029,
17141,
16846,
16721,
16546,
16588,
16683,
16471,
16327,
16494,
16297,
16285,
16243,
16145,
16059,
15923,
15892,
16060,
15893,
15926,
15733,
15763,
15686,
15255,
15245,
15165,
15151,
15059,
15083,
15070,
14645,
14780,
14769,
14779,
14669,
14549,
14378,
14386,
14266,
14236,
14067,
14128,
13945,
14230,
14089,
13929,
13935,
13805,
13798,
13664,
13499,
13861,
13554,
14365,
15189,
15831,
16610,
16766,
16321,
15279,
14512,
13824,
13126,
12751,
12795,
12702,
12502,
12398,
12463,
12318,
12286,
12164,
12003,
11989,
12098,
12064,
11965,
11998,
11680,
11553,
11398,
11329,
11579,
11319,
11342,
11285,
11236,
11089,
11177,
11146,
11073,
10980,
10823,
11126,
11294,
11503,
12395,
14601,
18187,
23666,
32999,
45312,
59773,
70723,
73939,
68874,
55697,
40484,
27346,
18238,
13586,
11213,
10269,
9787,
9602,
9512,
9595,
9267,
9232,
9065,
9026,
9086,
9090,
8916,
9025,
8791,
8831,
8806,
8534,
8474,
8645,
8729,
8816,
8557,
8366,
8493,
8406,
8156,
8063,
7917,
7770,
7813,
7769,
7646,
7576,
7649,
7619,
7376,
7381,
7459,
7304,
7242,
7191,
7316,
7237,
7368,
7471,
7765,
7576,
7856,
7799,
7599,
7462,
7433,
7422,
7272,
7426,
7441,
7481,
7707,
8854,
10794,
14127,
18399,
23181,
26739,
28282,
26690,
23101,
18502,
14296,
10954,
8921,
8229,
7402,
7056,
7165,
7162,
7103,
6992,
6705,
6349,
5966,
5561,
5132,
5083,
4919,
4874,
4808,
4855,
4639,
4645,
4541,
4576,
4553,
4551,
4509,
4488,
4408,
4436,
4318,
4262,
4205,
4268,
4207,
4186,
4073,
4003,
3963,
3998,
3917,
4034,
3923,
3769,
3822,
3759,
3779,
3745,
3643,
3717,
3656,
3667,
3555,
3520,
3589,
3568,
3547,
3416,
3502,
3457,
3358,
3352,
3319,
3327,
3414,
3450,
3566,
3965,
4278,
4620,
4765,
5021,
4621,
4308,
3922,
3539,
3328,
3098,
3027,
2999,
3052,
3047,
3079,
3121,
3000,
3028,
3104,
2885,
2784,
2609,
2498,
2452,
2397,
2402,
2290,
2317,
2259,
2243,
2186,
2142,
2230,
2047,
2185,
2196,
2063,
2126,
2165,
2108,
2037,
2007,
1978,
1974,
1902,
1950,
1856,
1734,
1886,
1741,
1809,
1672,
1719,
1683,
1648,
1683,
1666,
1693,
1708,
1607,
1581,
1631,
1554,
1519,
1538,
1547,
1465,
1455,
1472,
1396,
1461,
1387,
1409,
1326,
1342,
1328,
1307,
1260,
1281,
1290,
1158,
1192,
1152,
1190,
1164,
1141,
1081,
1170,
1113,
1062,
1047,
1048,
1044,
1046,
976,
1008,
922,
957,
899,
881,
888,
838,
900,
835,
916,
810,
777,
795,
731,
753,
778,
717,
730,
713,
671,
653,
656,
607,
660,
615,
596,
577,
582,
567,
565,
559,
505,
552,
522,
510,
484,
456,
434,
421,
411,
386,
366,
389,
387,
340,
397,
320,
307,
285,
284,
299,
272,
254,
227,
216,
192,
204,
172,
160,
146,
127,
120,
119,
92,
83,
62,
61,
49,
54,
47,
46,
33,
37,
41,
30,
26,
35,
39,
21,
33,
34,
34,
38,
28,
37,
32,
33,
31,
29,
27,
23,
27,
33,
40,
29,
28,
32,
22,
22,
29,
27,
20,
22,
27,
22,
30,
19,
25,
16,
21,
22,
29,
26,
26,
20,
26,
19,
31,
28,
23,
37,
38,
24,
26,
26,
19,
25,
28,
22,
24,
20,
24,
19,
19,
21,
18,
26,
18,
19,
22,
12,
18,
17,
8,
10,
14,
19,
25,
14,
13,
12,
19,
18,
14,
19,
12,
14,
13,
10,
12,
12,
15,
14,
14,
17,
10,
14,
18,
7,
15,
13,
11,
14,
25,
9,
4,
16,
9,
13,
20,
8,
13,
12,
10,
15,
12,
19,
11,
16,
18,
11,
12,
8,
15,
10,
10,
9,
13,
11,
6,
15,
12,
15,
13,
14,
13,
7,
14,
11,
8,
12,
10,
12,
9,
5,
14,
13,
8,
3,
12,
11,
8,
16,
6,
10,
9,
10,
9,
14,
12,
11,
10,
12,
14,
13,
13,
7,
9,
8,
12,
11,
14,
7,
7,
9,
11,
8,
7,
8,
15,
14,
7,
8,
8,
10,
7,
5,
7,
13,
7,
10,
5,
5,
10,
6,
7,
9,
12,
11,
8,
9,
11,
14,
4,
14,
13,
4,
10,
4,
7,
3,
6,
6,
7,
8,
7,
6,
2,
4,
8,
9,
4,
6,
7,
4,
11,
4,
4,
10,
1,
6,
5,
3,
8,
5,
0,
2,
8,
6,
2,
4,
2,
4,
4,
7,
4,
14,
1,
7,
4,
4,
5,
7,
11,
6,
8,
4,
3,
1,
3,
5,
1,
2,
9,
5,
6,
0,
1,
5,
2,
3,
2,
3,
2,
4,
1,
0,
3,
5,
3,
0,
5,
4,
3,
2,
2,
3,
2,
1,
3,
7,
4,
0,
1,
3,
1,
0,
3,
4,
7,
4,
3,
3,
3,
1,
1,
1,
1,
1,
2,
2,
2,
0,
3,
1,
3,
2,
0,
0,
2,
3,
0,
1,
2,
1,
0,
1,
2,
1,
1,
2,
0,
2,
1,
0,
0,
1,
1,
2,
1,
1,
2,
3,
1,
0,
1,
2,
2,
0,
1,
1,
1,
2,
2,
0,
0,
1,
0,
1,
1,
2,
1,
0,
1,
0,
0,
1,
1,
2,
0,
0,
0,
0,
2,
1,
2,
0,
3,
2,
1,
0,
1,
0,
1,
0,
1,
0,
1,
2,
1,
0,
0,
1,
1,
1,
0,
0,
1,
0,
1,
1,
0,
0,
0,
0,
0,
0,
0,
2,
1,
2,
0,
0,
1,
0,
1,
0,
1,
1,
1,
0,
2,
2,
1,
0,
1,
0,
1,
1,
0,
0,
0,
0,
0,
0,
0,
1,
2,
0,
1,
0,
1,
0,
0,
0,
0,
1,
0,
1,
0,
0,
0,
0,
0,
0,
0,
2,
1,
1,
1,
0,
1,
0,
0,
1,
0,
0,
0,
0,
1,
0,
0,
0,
0,
0,
0,
0,
0,
0,
0,
0,
0,
1,
0,
0,
0,
0,
0,
0,
0,
0,
0,
0,
0,
0,
0,
0,
1,
0,
1,
0,
1,
0,
0,
0,
0,
0,
0,
0,
0,
0,
0,
0,
0,
0,
0,
0,
0,
0,
0,
0,
0,
0,
0,
0,
0,
0,
0,
1,
0,
0,
0,
0,
0,
0,
0,
0,
0,
1,
0,
0,
0,
1,
0,
0,
0,
0,
0,
0,
0,
0,
0,
1,
0,
0,
0,
0,
0,
0,
0,
0,
0,
1,
0,
0,
0,
0,
0,
0,
0,
0,
0,
0,
0,
0,
0,
0,
0,
0,
0,
0,
0,
0,
0,
0,
0,
0,
0,
0,
0,
0,
0,
0,
0,
0,
0,
0,
0,
0,
0,
0,
0,
0,
0,
0,
0,
0,
0,
0,
1,
0,
0,
0,
0,
0,
0,
0,
1,
0,
0,
0,
0,
0,
0,
0,
0,
0,
0,
0,
0,
0,
0,
0,
0,
0,
0,
0,
0,
0,
0,
0,
0,
0,
0,
0,
0,
0,
0,
0,
0,
0,
0,
0,
0,
0,
0,
0,
0,
0,
0,
0,
0,
0,
0,
0,
0,
0,
0,
0,
0,
0,
0,
0,
0,
0,
0,
0,
0,
0,
0,
0,
0,
0,
0,
0,
0,
0,
0,
0,
0,
0,
0,
0,
0,
0,
0,
#ENDOFDATA   :