File: N132962/Standards/20 keV/BN std.msa
#FORMAT      : EMSA/MAS Spectral Data File
#VERSION     : 1.0
#TITLE       : BN std
#DATE        : 21-FEB-2025
#TIME        : 14:42
#OWNER       : Unknown
#NPOINTS     : 4096
#NCOLUMNS    : 1
#XUNITS      : eV
#YUNITS      : counts
#DATATYPE    : Y
#XPERCHAN    : 9.99778
#OFFSET      : 1.69135
#BEAMKV      : 20
#SIGNALTYPE  : EDS
#ELEVANGLE   : 35
#AZIMANGLE   : 0
#LIVETIME    : 720.474
#REALTIME    : 732.351
#PROBECUR    : 1.06019
#TAUWIND     : 0
#TDEADLYR    : 0
#TACTLYR     : 0.045
#TALWIND     : 0.025
#CHOFFSET    : 0.0
#XLABEL      : Energy (eV)
#YLABEL      : Counts
#EDSDET      : SD
##SPECIMEN   : BN std
##D2STDCMP   : BN,(B:43.5617),(N:56.4384),5.0
##DET_HASH   : 12273538-fd48-a23f-0a19-f1e6fa85caef
##CALIB_HASH : 6abaa72c-aa41-8738-0be9-f592914732f3
##WORKING    : 15.0 mm
##SAMPLE     : <BulkSample id="1">\n<mOrientation id="2">\n<double>0.0</double>\n<double>0.0</double>\n<double>-1.0</double>\n</mOrientation>\n</BulkSample>
##MULTISPEC  : 1.40919
##DET_NAME   : EDAX All
#SPECTRUM    :
117,
107,
52,
287,
4435,
24797,
38352,
19871,
15161,
19056,
21603,
79870,
243127,
284444,
115855,
18300,
6844,
9963,
7894,
4107,
2852,
2989,
3574,
3941,
3926,
4062,
4282,
4499,
4782,
5011,
5256,
5450,
5700,
5884,
6167,
6418,
6464,
6617,
6787,
6817,
7025,
7052,
6983,
7216,
7292,
7072,
7295,
7179,
7523,
7890,
7762,
7241,
7117,
6934,
6726,
7006,
7217,
7998,
8330,
7879,
7089,
6652,
5958,
5673,
5544,
5560,
5510,
5425,
5395,
5111,
5095,
4932,
5024,
4823,
4830,
4757,
4729,
4747,
4710,
4447,
4356,
4462,
4295,
4302,
4119,
4159,
4052,
4055,
3916,
3990,
3945,
3830,
3697,
3746,
3582,
3614,
3605,
3454,
3472,
3495,
3377,
3275,
3297,
3261,
3122,
3168,
3091,
3084,
3196,
3113,
2952,
2981,
2873,
2778,
2833,
2757,
2783,
2760,
2760,
2690,
2626,
2683,
2665,
2608,
2634,
2432,
2506,
2392,
2383,
2374,
2356,
2252,
2294,
2277,
2297,
2235,
2179,
2208,
2169,
2075,
2021,
2139,
2030,
2030,
2017,
1951,
2044,
1938,
1854,
1906,
1849,
1904,
1821,
1794,
1834,
1842,
1818,
1780,
1812,
1731,
1756,
1722,
1662,
1590,
1631,
1605,
1659,
1592,
1577,
1575,
1543,
1575,
1595,
1481,
1560,
1465,
1483,
1515,
1492,
1444,
1457,
1444,
1475,
1441,
1327,
1369,
1296,
1356,
1317,
1281,
1297,
1286,
1267,
1231,
1237,
1296,
1226,
1245,
1199,
1191,
1112,
1193,
1183,
1221,
1144,
1160,
1126,
1131,
1117,
1106,
1091,
1157,
1254,
1308,
1288,
1185,
1110,
1074,
992,
979,
991,
966,
950,
929,
911,
931,
932,
922,
870,
892,
911,
886,
871,
884,
892,
878,
869,
849,
797,
825,
803,
820,
771,
814,
755,
753,
761,
831,
819,
844,
786,
758,
739,
760,
737,
671,
686,
736,
674,
680,
712,
681,
701,
735,
676,
631,
660,
659,
627,
654,
635,
683,
656,
565,
587,
613,
604,
647,
560,
559,
553,
593,
554,
557,
530,
531,
536,
553,
522,
490,
500,
510,
504,
498,
496,
494,
466,
464,
491,
447,
481,
469,
495,
483,
452,
483,
497,
464,
433,
474,
423,
436,
406,
445,
416,
395,
401,
366,
430,
408,
386,
380,
333,
431,
378,
372,
412,
353,
372,
333,
358,
317,
354,
345,
328,
357,
319,
360,
303,
320,
318,
337,
359,
358,
299,
300,
294,
303,
314,
265,
243,
296,
307,
301,
322,
289,
298,
294,
272,
262,
272,
252,
244,
273,
247,
234,
267,
219,
236,
230,
255,
222,
225,
216,
241,
242,
227,
225,
210,
234,
238,
235,
209,
211,
219,
198,
222,
186,
158,
209,
199,
177,
178,
186,
181,
187,
168,
171,
157,
162,
167,
147,
147,
163,
155,
161,
163,
165,
137,
152,
123,
155,
149,
142,
126,
137,
142,
146,
136,
135,
133,
143,
128,
139,
122,
119,
109,
138,
106,
117,
131,
113,
116,
112,
100,
117,
104,
94,
115,
99,
115,
105,
96,
81,
94,
93,
75,
80,
110,
86,
70,
90,
75,
75,
77,
80,
81,
70,
67,
78,
98,
64,
69,
59,
64,
68,
68,
81,
56,
67,
61,
71,
53,
59,
59,
53,
49,
57,
59,
68,
48,
48,
54,
38,
46,
42,
41,
44,
56,
47,
43,
47,
42,
55,
47,
36,
42,
41,
33,
39,
34,
38,
33,
41,
29,
31,
32,
34,
31,
33,
24,
27,
23,
29,
29,
23,
21,
26,
30,
25,
30,
22,
23,
13,
15,
14,
19,
18,
21,
16,
14,
21,
18,
18,
12,
14,
15,
15,
19,
9,
13,
11,
12,
8,
10,
12,
13,
5,
15,
11,
11,
10,
10,
6,
9,
12,
10,
7,
2,
7,
5,
5,
4,
6,
5,
3,
4,
5,
4,
1,
3,
1,
1,
1,
2,
2,
1,
1,
1,
0,
0,
1,
0,
1,
0,
0,
0,
1,
0,
0,
1,
1,
0,
1,
0,
0,
0,
0,
0,
0,
0,
0,
1,
0,
0,
0,
0,
0,
0,
0,
0,
0,
1,
2,
0,
0,
0,
0,
0,
0,
0,
0,
0,
0,
0,
0,
0,
0,
0,
0,
0,
1,
0,
0,
1,
0,
0,
0,
1,
0,
0,
0,
0,
0,
0,
0,
0,
0,
0,
0,
0,
0,
0,
1,
0,
0,
0,
0,
0,
0,
0,
0,
0,
0,
0,
0,
0,
0,
0,
0,
0,
0,
0,
0,
0,
0,
0,
0,
0,
0,
0,
0,
0,
0,
1,
0,
0,
0,
0,
0,
0,
0,
0,
0,
0,
0,
0,
0,
0,
0,
0,
0,
0,
0,
0,
0,
0,
0,
0,
0,
0,
0,
0,
0,
0,
0,
0,
0,
0,
0,
0,
0,
0,
0,
0,
0,
0,
0,
0,
0,
0,
0,
0,
0,
0,
0,
0,
0,
0,
0,
0,
0,
0,
0,
0,
0,
0,
0,
0,
0,
0,
0,
0,
0,
0,
0,
0,
0,
0,
0,
0,
0,
0,
0,
0,
0,
0,
0,
0,
0,
0,
0,
0,
0,
0,
0,
0,
0,
0,
0,
0,
0,
0,
0,
0,
0,
0,
0,
0,
0,
0,
0,
0,
0,
0,
0,
0,
0,
0,
0,
0,
0,
0,
0,
0,
0,
0,
0,
0,
0,
0,
0,
0,
0,
0,
0,
1,
0,
0,
0,
0,
0,
0,
0,
0,
0,
0,
0,
0,
0,
0,
0,
0,
0,
0,
0,
0,
0,
0,
0,
0,
0,
0,
0,
0,
0,
0,
0,
0,
0,
0,
0,
0,
0,
0,
0,
0,
0,
0,
0,
0,
0,
0,
0,
0,
0,
0,
0,
0,
0,
0,
0,
0,
0,
0,
0,
0,
0,
0,
0,
0,
0,
0,
0,
0,
0,
0,
0,
0,
0,
0,
0,
0,
0,
0,
0,
0,
0,
0,
0,
0,
0,
0,
0,
0,
0,
0,
0,
0,
0,
0,
0,
0,
0,
0,
0,
0,
0,
0,
0,
0,
0,
0,
0,
0,
0,
0,
0,
0,
0,
0,
0,
0,
0,
0,
0,
0,
0,
0,
0,
0,
0,
0,
0,
0,
0,
0,
0,
0,
0,
0,
0,
0,
0,
0,
0,
0,
0,
0,
0,
0,
0,
0,
0,
0,
0,
0,
0,
0,
0,
0,
0,
0,
0,
0,
0,
0,
0,
0,
0,
0,
0,
0,
0,
0,
0,
0,
0,
0,
0,
0,
0,
0,
0,
0,
0,
0,
0,
0,
0,
0,
0,
0,
0,
0,
0,
0,
0,
0,
0,
0,
0,
0,
0,
0,
0,
0,
0,
0,
0,
0,
0,
0,
0,
0,
0,
0,
0,
0,
0,
0,
0,
0,
0,
0,
0,
0,
0,
0,
0,
0,
0,
0,
0,
0,
0,
0,
0,
0,
0,
0,
0,
0,
0,
0,
0,
0,
0,
0,
0,
0,
0,
0,
0,
0,
0,
0,
0,
0,
0,
0,
0,
0,
0,
0,
0,
0,
0,
0,
0,
0,
0,
0,
0,
0,
0,
0,
0,
0,
0,
0,
0,
0,
0,
0,
0,
0,
0,
0,
0,
0,
0,
0,
0,
0,
0,
0,
0,
0,
0,
0,
0,
0,
0,
0,
0,
0,
0,
0,
0,
0,
0,
0,
0,
0,
0,
0,
0,
0,
0,
0,
0,
0,
0,
0,
0,
0,
0,
0,
0,
0,
0,
0,
0,
0,
0,
0,
0,
0,
0,
0,
0,
0,
0,
0,
0,
0,
0,
0,
0,
0,
0,
0,
0,
0,
0,
0,
0,
0,
0,
0,
0,
0,
0,
0,
0,
0,
0,
0,
0,
0,
0,
0,
0,
0,
0,
0,
0,
0,
0,
0,
0,
0,
0,
0,
0,
0,
0,
0,
0,
0,
0,
0,
0,
0,
0,
0,
0,
0,
0,
0,
0,
0,
0,
0,
0,
0,
0,
0,
0,
0,
0,
0,
0,
0,
0,
0,
0,
0,
0,
0,
0,
0,
0,
0,
0,
0,
0,
0,
0,
0,
0,
0,
0,
0,
0,
0,
0,
0,
0,
0,
0,
0,
0,
0,
0,
0,
0,
0,
0,
0,
0,
0,
0,
0,
0,
0,
0,
0,
0,
0,
0,
0,
0,
0,
0,
0,
0,
0,
0,
0,
0,
0,
0,
0,
0,
0,
0,
0,
0,
0,
0,
0,
0,
0,
0,
0,
0,
0,
0,
0,
0,
0,
0,
0,
0,
0,
0,
0,
0,
0,
0,
0,
0,
0,
0,
0,
0,
0,
0,
0,
0,
0,
0,
0,
0,
0,
0,
0,
0,
0,
0,
0,
0,
0,
0,
0,
0,
0,
0,
0,
0,
0,
0,
0,
0,
0,
0,
0,
0,
0,
0,
0,
0,
0,
0,
0,
0,
0,
0,
0,
0,
0,
0,
0,
0,
#ENDOFDATA   :