File: N132962/Standards/20 keV/C std.msa
#FORMAT      : EMSA/MAS Spectral Data File
#VERSION     : 1.0
#TITLE       : C std
#DATE        : 19-MAR-2025
#TIME        : 21:50
#OWNER       : Unknown
#NPOINTS     : 4096
#NCOLUMNS    : 1
#XUNITS      : eV
#YUNITS      : counts
#DATATYPE    : Y
#XPERCHAN    : 9.99778
#OFFSET      : 1.69135
#BEAMKV      : 20
#SIGNALTYPE  : EDS
#ELEVANGLE   : 35
#AZIMANGLE   : 0
#LIVETIME    : 1439.86
#REALTIME    : 1505.41
#PROBECUR    : 1.03427
#TAUWIND     : 0
#TDEADLYR    : 0
#TACTLYR     : 0.045
#TALWIND     : 0.025
#CHOFFSET    : 0.0
#XLABEL      : Energy (eV)
#YLABEL      : Counts
#EDSDET      : SD
##SPECIMEN   : C std
##D2STDCMP   : C,(C:100.0)
##DET_HASH   : 12273538-fd48-a23f-0a19-f1e6fa85caef
##CALIB_HASH : 6abaa72c-aa41-8738-0be9-f592914732f3
##WORKING    : 15.0 mm
##SAMPLE     : <BulkSample id="1">\n<mOrientation id="2">\n<double>0.0</double>\n<double>0.0</double>\n<double>-1.0</double>\n</mOrientation>\n</BulkSample>
##MULTISPEC  : 1.63967
##DET_NAME   : EDAX All
##DET_MODE   : MediumLE
#SPECTRUM    :
137,
153,
79,
330,
1950,
10095,
68692,
558791,
2284000,
3122724,
1291981,
167534,
10673,
3789,
3627,
4818,
10169,
19904,
20312,
10852,
5934,
5589,
6011,
6949,
7234,
7598,
8370,
9125,
9556,
10376,
11020,
11834,
12271,
12282,
12937,
13292,
13509,
13826,
13785,
14574,
14712,
14809,
15306,
15121,
15401,
15711,
15598,
15752,
15764,
16075,
16270,
15507,
15443,
15277,
15151,
15394,
15500,
15695,
16193,
15778,
15437,
14342,
13175,
12851,
12392,
12244,
12322,
11833,
12018,
11611,
11432,
11254,
11395,
11147,
11114,
10954,
10557,
10459,
10444,
10117,
10264,
9926,
9709,
9765,
9434,
9289,
9300,
9189,
9228,
8978,
8856,
8732,
8512,
8310,
8398,
8275,
8189,
7921,
7849,
7725,
7843,
7605,
7479,
7528,
7405,
7299,
7128,
7228,
6986,
7060,
6801,
6768,
6717,
6488,
6572,
6501,
6552,
6154,
6179,
6205,
6103,
6117,
5906,
5939,
5855,
5827,
5755,
5578,
5525,
5463,
5469,
5384,
5171,
5208,
5159,
5200,
5034,
5031,
5024,
5090,
4880,
4847,
4798,
4751,
4553,
4659,
4632,
4592,
4653,
4395,
4446,
4467,
4257,
4238,
4233,
4259,
4260,
4149,
4195,
3977,
3959,
3988,
3887,
3906,
3957,
3974,
3708,
3727,
3650,
3775,
3670,
3661,
3646,
3525,
3534,
3507,
3570,
3341,
3373,
3434,
3427,
3366,
3236,
3268,
3318,
3298,
3236,
3175,
3106,
3134,
2955,
3028,
3094,
2912,
2992,
2934,
2846,
2915,
2846,
2889,
2833,
2838,
2685,
2706,
2721,
2630,
2715,
2633,
2727,
2638,
2608,
2669,
2640,
2769,
2631,
2494,
2508,
2485,
2388,
2415,
2387,
2289,
2235,
2331,
2237,
2269,
2239,
2164,
2202,
2177,
2181,
2189,
2046,
2090,
2083,
2163,
1998,
2151,
1943,
2065,
1979,
1965,
1909,
1983,
1972,
1893,
1901,
1895,
2005,
2006,
1917,
1833,
1888,
1777,
1734,
1758,
1796,
1799,
1655,
1658,
1700,
1695,
1723,
1635,
1736,
1858,
1953,
2060,
2094,
2045,
1912,
1827,
1663,
1596,
1573,
1559,
1485,
1527,
1467,
1417,
1429,
1368,
1417,
1420,
1490,
1544,
1675,
1693,
1681,
1605,
1487,
1419,
1363,
1317,
1346,
1338,
1369,
1317,
1336,
1171,
1287,
1252,
1223,
1198,
1128,
1200,
1139,
1150,
1137,
1174,
1066,
1067,
1123,
1057,
1025,
1058,
1031,
1105,
1008,
1061,
1047,
1046,
1045,
1034,
1056,
958,
1000,
982,
963,
944,
928,
975,
925,
904,
928,
889,
872,
883,
861,
924,
856,
864,
826,
883,
808,
852,
820,
792,
786,
789,
750,
826,
796,
750,
819,
777,
751,
754,
742,
751,
717,
742,
732,
686,
699,
711,
678,
665,
702,
658,
648,
582,
611,
673,
623,
610,
581,
602,
595,
566,
619,
617,
575,
584,
551,
551,
572,
572,
538,
574,
528,
472,
513,
550,
492,
560,
506,
500,
547,
514,
485,
480,
425,
453,
460,
467,
472,
460,
450,
443,
440,
394,
427,
420,
442,
413,
434,
395,
456,
426,
418,
400,
384,
380,
361,
397,
353,
371,
388,
351,
349,
328,
323,
319,
346,
345,
362,
346,
324,
304,
293,
304,
284,
304,
296,
320,
336,
319,
303,
293,
250,
272,
267,
282,
272,
249,
271,
268,
278,
231,
258,
226,
262,
258,
224,
228,
267,
224,
208,
230,
202,
218,
211,
236,
206,
201,
177,
206,
192,
209,
189,
175,
204,
151,
206,
177,
186,
205,
148,
163,
166,
185,
186,
182,
168,
177,
159,
166,
152,
161,
154,
159,
145,
141,
140,
134,
150,
154,
146,
134,
125,
145,
136,
125,
150,
122,
100,
112,
125,
126,
105,
115,
119,
113,
115,
90,
105,
87,
91,
90,
109,
117,
106,
96,
101,
96,
85,
98,
90,
82,
84,
85,
88,
77,
85,
83,
90,
74,
76,
74,
78,
61,
66,
77,
56,
61,
62,
69,
67,
74,
52,
56,
82,
59,
67,
61,
58,
52,
60,
52,
48,
67,
55,
51,
45,
42,
56,
52,
43,
40,
51,
31,
40,
41,
43,
35,
44,
36,
33,
30,
34,
33,
24,
37,
33,
28,
32,
37,
25,
29,
29,
51,
30,
26,
26,
34,
23,
21,
23,
19,
18,
24,
14,
22,
23,
19,
23,
13,
14,
21,
24,
15,
20,
13,
14,
18,
16,
13,
20,
13,
13,
12,
14,
8,
12,
12,
9,
8,
14,
11,
9,
9,
6,
5,
4,
8,
10,
4,
4,
5,
3,
5,
4,
6,
4,
1,
3,
4,
6,
2,
0,
1,
1,
0,
5,
1,
0,
1,
0,
0,
1,
0,
0,
0,
0,
1,
0,
0,
0,
0,
0,
0,
0,
0,
1,
0,
0,
0,
0,
0,
0,
0,
0,
0,
0,
0,
0,
0,
0,
0,
0,
0,
0,
1,
0,
0,
0,
0,
0,
0,
0,
0,
0,
0,
1,
0,
0,
0,
0,
0,
0,
0,
0,
0,
0,
0,
0,
1,
0,
0,
0,
0,
0,
0,
0,
0,
1,
0,
1,
0,
0,
0,
0,
0,
0,
0,
0,
0,
0,
0,
0,
0,
0,
0,
0,
0,
0,
0,
0,
0,
0,
0,
0,
0,
0,
0,
0,
0,
0,
0,
0,
0,
0,
0,
0,
1,
0,
0,
0,
0,
0,
0,
0,
0,
0,
0,
0,
0,
0,
0,
0,
0,
0,
0,
0,
0,
0,
0,
0,
0,
0,
1,
0,
0,
0,
0,
0,
0,
0,
1,
0,
0,
0,
0,
0,
0,
0,
0,
0,
0,
0,
0,
0,
0,
0,
1,
0,
1,
0,
0,
0,
0,
0,
0,
0,
0,
0,
0,
0,
0,
0,
0,
0,
0,
1,
0,
0,
0,
0,
0,
0,
0,
0,
0,
0,
0,
0,
0,
0,
0,
0,
0,
0,
0,
0,
0,
0,
0,
0,
0,
0,
0,
0,
0,
0,
0,
0,
0,
0,
0,
0,
0,
0,
0,
0,
0,
0,
0,
0,
0,
0,
0,
0,
0,
0,
0,
0,
0,
0,
0,
0,
0,
0,
0,
0,
0,
0,
0,
0,
0,
0,
0,
0,
0,
0,
0,
0,
0,
0,
0,
0,
0,
0,
0,
0,
0,
0,
0,
0,
0,
0,
0,
0,
0,
0,
0,
0,
0,
0,
0,
0,
0,
0,
0,
0,
0,
0,
0,
0,
0,
0,
0,
0,
0,
0,
0,
0,
0,
0,
0,
0,
0,
0,
0,
0,
0,
0,
0,
0,
0,
0,
0,
0,
0,
0,
0,
0,
0,
0,
0,
0,
0,
0,
0,
0,
0,
0,
0,
0,
0,
0,
0,
0,
0,
0,
0,
0,
0,
0,
0,
0,
0,
0,
0,
0,
0,
0,
0,
0,
0,
0,
0,
0,
0,
0,
0,
0,
0,
0,
0,
0,
0,
0,
0,
0,
0,
0,
0,
0,
0,
0,
0,
0,
0,
0,
0,
0,
0,
0,
0,
0,
0,
0,
0,
0,
0,
0,
0,
0,
0,
0,
0,
0,
0,
0,
0,
0,
0,
0,
0,
0,
0,
0,
0,
0,
0,
0,
0,
0,
0,
0,
0,
0,
0,
0,
0,
0,
0,
0,
0,
0,
0,
0,
0,
0,
0,
0,
0,
0,
0,
0,
0,
0,
0,
0,
0,
0,
0,
0,
0,
0,
0,
0,
0,
0,
0,
0,
0,
0,
0,
0,
0,
0,
0,
0,
0,
0,
0,
0,
0,
0,
0,
0,
0,
0,
0,
0,
0,
0,
0,
0,
0,
0,
0,
0,
0,
0,
0,
0,
0,
0,
0,
0,
0,
0,
0,
0,
0,
0,
0,
0,
0,
0,
0,
0,
0,
0,
0,
0,
0,
0,
0,
0,
0,
0,
0,
0,
0,
0,
0,
0,
0,
0,
0,
0,
0,
0,
0,
0,
0,
0,
0,
0,
0,
0,
0,
0,
0,
0,
0,
0,
0,
0,
0,
0,
0,
0,
0,
0,
0,
0,
0,
0,
0,
0,
0,
0,
0,
0,
0,
0,
0,
0,
0,
0,
0,
0,
0,
0,
0,
0,
0,
0,
0,
0,
0,
0,
0,
0,
0,
0,
0,
0,
0,
0,
0,
0,
0,
0,
0,
0,
0,
0,
0,
0,
0,
0,
0,
0,
0,
0,
0,
0,
0,
0,
0,
0,
0,
0,
0,
0,
0,
0,
0,
0,
0,
0,
0,
0,
0,
0,
0,
0,
0,
0,
0,
0,
0,
0,
0,
0,
0,
0,
0,
0,
0,
0,
0,
0,
0,
0,
0,
0,
0,
0,
0,
0,
0,
0,
0,
0,
0,
0,
0,
0,
0,
0,
0,
0,
0,
0,
0,
0,
0,
0,
0,
0,
0,
0,
0,
0,
0,
0,
0,
0,
0,
0,
0,
0,
0,
0,
0,
0,
0,
0,
0,
0,
0,
0,
0,
0,
0,
0,
0,
0,
0,
0,
0,
0,
0,
0,
0,
0,
0,
0,
0,
0,
0,
0,
0,
0,
0,
0,
0,
0,
0,
#ENDOFDATA   :