File: N132962/Standards/20 keV/CaF2 std.msa
#FORMAT      : EMSA/MAS Spectral Data File
#VERSION     : 1.0
#TITLE       : CaF2 std
#DATE        : 12-SEP-2025
#TIME        : 09:46
#OWNER       : Unknown
#NPOINTS     : 4096
#NCOLUMNS    : 1
#XUNITS      : eV
#YUNITS      : counts
#DATATYPE    : Y
#XPERCHAN    : 9.99778
#OFFSET      : 1.69135
#BEAMKV      : 20
#SIGNALTYPE  : EDS
#ELEVANGLE   : 35
#AZIMANGLE   : 0
#LIVETIME    : 1200.62
#REALTIME    : 1296.22
#PROBECUR    : 1.23853
#TAUWIND     : 0
#TDEADLYR    : 0
#TACTLYR     : 0.045
#TALWIND     : 0.025
#CHOFFSET    : 0.0
#XLABEL      : Energy (eV)
#YLABEL      : Counts
#EDSDET      : SD
##SPECIMEN   : CaF2 std
##D2STDCMP   : CaF2,(F:48.6667),(Ca:51.3333)
##DET_HASH   : 12273538-fd48-a23f-0a19-f1e6fa85caef
##CALIB_HASH : 6abaa72c-aa41-8738-0be9-f592914732f3
##WORKING    : 15.0 mm
##SAMPLE     : <BulkSample id="1">\n<mOrientation id="2">\n<double>0.0</double>\n<double>0.0</double>\n<double>-1.0</double>\n</mOrientation>\n</BulkSample>
##MULTISPEC  : 0.89472
##DET_NAME   : EDAX All
##DET_MODE   : MediumLE
#SPECTRUM    :
1695,
2376,
1387,
681,
1330,
4173,
10285,
29128,
75071,
125394,
120648,
73161,
33367,
16104,
11225,
11220,
13398,
16611,
19678,
33159,
107928,
341945,
625835,
554292,
235944,
55075,
14916,
11418,
12401,
13167,
13399,
13558,
13835,
14553,
15094,
15716,
16401,
16942,
18074,
18621,
19794,
20517,
21274,
22245,
22703,
23175,
23414,
23999,
24546,
25028,
24646,
24910,
25208,
24866,
25186,
25740,
26880,
28336,
29675,
29847,
28510,
27493,
27485,
31127,
36814,
39387,
35099,
28534,
24691,
23980,
23385,
23450,
23457,
23764,
24090,
24392,
24452,
23931,
23159,
22722,
22553,
22517,
22165,
21868,
21797,
21584,
21233,
21388,
21229,
21201,
20857,
20682,
20455,
20530,
20469,
20319,
20108,
19930,
19755,
19594,
19585,
19772,
19401,
19036,
19307,
19584,
19151,
19201,
18881,
18722,
18237,
17946,
17861,
17967,
18655,
19621,
22803,
29153,
44604,
100723,
279519,
670759,
1176512,
1444901,
1228621,
726108,
306622,
101828,
37291,
26690,
36070,
65704,
117704,
172434,
188460,
151393,
90016,
42658,
19934,
12406,
10627,
10252,
10249,
11041,
11979,
12434,
12255,
11717,
10898,
10398,
9979,
9794,
9666,
9859,
9700,
9725,
10011,
9872,
9533,
9509,
9597,
9404,
9285,
9380,
9398,
9260,
9262,
9212,
9079,
8970,
9074,
8972,
9040,
8657,
8862,
8774,
8695,
8884,
8693,
8842,
8580,
8708,
8656,
8366,
8451,
8322,
8426,
8254,
8119,
8023,
8163,
8026,
7994,
7959,
7885,
7758,
7763,
7915,
7766,
7711,
7740,
7493,
7545,
7579,
7578,
7459,
7284,
7441,
7330,
7171,
7497,
7601,
7886,
8120,
7938,
7637,
7331,
7011,
6933,
6674,
6757,
6693,
6675,
6525,
6576,
6553,
6607,
6472,
6201,
6335,
6279,
6411,
6369,
6190,
5998,
6185,
6150,
6035,
6084,
6041,
6010,
5914,
6156,
6320,
6856,
7359,
7810,
7648,
7178,
6678,
6280,
5737,
5764,
5575,
5568,
5584,
5755,
5751,
5670,
5486,
5327,
5217,
5263,
5098,
4939,
4938,
5027,
4953,
4953,
4896,
4909,
4867,
4866,
4791,
4733,
4789,
4745,
4561,
4542,
4464,
4618,
4598,
4557,
4375,
4488,
4436,
4431,
4344,
4207,
4280,
4188,
4095,
4077,
4037,
4152,
4103,
3907,
3905,
3957,
3932,
3920,
3969,
3921,
3800,
3876,
3772,
3659,
3783,
3643,
3759,
3656,
3622,
3574,
3515,
3509,
3547,
3451,
3560,
3438,
3513,
3336,
3347,
3301,
3313,
3381,
3286,
3373,
3192,
3204,
3262,
3279,
3106,
3241,
3140,
3192,
3128,
3091,
3040,
2963,
3069,
2926,
3029,
2903,
2939,
2942,
2893,
2863,
2907,
2787,
2709,
2756,
2764,
2725,
2687,
2739,
2572,
2648,
2655,
2629,
2614,
2438,
2543,
2499,
2524,
2401,
2512,
2478,
2391,
2273,
2352,
2320,
2375,
2380,
2356,
2319,
2315,
2229,
2124,
2226,
2259,
2083,
2188,
2161,
2135,
2162,
2131,
2091,
2100,
1972,
2021,
1995,
1955,
1961,
1964,
1957,
1849,
1946,
1872,
1892,
1800,
1869,
1822,
1823,
1806,
1794,
1743,
1639,
1775,
1668,
1667,
1642,
1627,
1609,
1595,
1612,
1613,
1514,
1541,
1553,
1526,
1478,
1519,
1479,
1486,
1520,
1388,
1425,
1350,
1400,
1400,
1387,
1302,
1359,
1328,
1324,
1266,
1359,
1289,
1258,
1309,
1223,
1254,
1202,
1189,
1193,
1206,
1180,
1149,
1169,
1094,
1081,
1117,
1052,
1012,
1088,
1072,
1071,
1054,
1053,
1009,
943,
995,
992,
991,
989,
911,
962,
930,
875,
884,
862,
933,
881,
860,
841,
800,
868,
835,
799,
790,
776,
801,
744,
769,
772,
719,
795,
694,
720,
695,
700,
707,
705,
704,
698,
643,
671,
681,
692,
621,
621,
659,
632,
626,
625,
623,
582,
614,
538,
574,
528,
557,
504,
528,
531,
529,
514,
503,
528,
535,
455,
484,
483,
456,
462,
420,
441,
450,
468,
375,
427,
399,
402,
417,
401,
389,
427,
404,
401,
340,
375,
406,
356,
330,
352,
331,
338,
320,
320,
309,
325,
280,
310,
290,
296,
312,
309,
279,
260,
272,
261,
293,
270,
243,
270,
245,
273,
246,
237,
237,
229,
231,
242,
227,
241,
202,
239,
194,
220,
211,
235,
203,
184,
229,
173,
155,
193,
190,
194,
175,
159,
163,
174,
147,
153,
151,
167,
141,
132,
140,
136,
144,
117,
123,
113,
117,
139,
119,
129,
108,
119,
113,
87,
108,
101,
92,
103,
87,
84,
71,
108,
79,
83,
53,
80,
67,
76,
65,
67,
59,
45,
45,
56,
44,
48,
60,
50,
38,
56,
41,
46,
42,
33,
32,
35,
33,
37,
44,
33,
32,
21,
22,
18,
20,
22,
16,
11,
23,
14,
15,
11,
9,
7,
11,
4,
4,
2,
4,
1,
6,
3,
2,
3,
2,
2,
8,
4,
1,
2,
2,
1,
3,
1,
5,
4,
4,
4,
4,
1,
5,
4,
1,
1,
3,
0,
5,
0,
7,
4,
1,
0,
0,
0,
0,
2,
1,
2,
1,
2,
0,
2,
2,
2,
0,
2,
1,
0,
2,
0,
2,
0,
2,
2,
1,
0,
1,
2,
2,
1,
2,
1,
1,
1,
1,
0,
0,
3,
1,
0,
0,
0,
0,
1,
1,
1,
0,
0,
1,
1,
0,
0,
1,
0,
1,
2,
1,
1,
0,
0,
0,
0,
0,
0,
0,
1,
0,
0,
0,
0,
1,
2,
0,
1,
0,
1,
1,
1,
0,
0,
0,
1,
1,
0,
0,
1,
0,
1,
0,
1,
0,
1,
1,
0,
0,
0,
0,
1,
0,
0,
0,
0,
0,
0,
1,
0,
1,
0,
0,
1,
0,
0,
0,
0,
0,
0,
0,
0,
0,
0,
1,
0,
0,
0,
0,
1,
0,
0,
0,
0,
0,
0,
0,
0,
0,
0,
0,
0,
0,
0,
0,
0,
0,
0,
0,
0,
0,
0,
0,
0,
0,
2,
0,
0,
0,
0,
0,
0,
0,
0,
0,
0,
0,
0,
0,
0,
0,
0,
0,
0,
1,
1,
0,
0,
0,
0,
0,
0,
0,
1,
0,
0,
0,
1,
1,
1,
0,
0,
0,
0,
0,
0,
0,
0,
0,
0,
0,
0,
0,
1,
0,
0,
0,
0,
0,
0,
0,
0,
0,
0,
0,
0,
0,
0,
1,
0,
0,
0,
1,
1,
0,
0,
0,
0,
0,
1,
0,
0,
0,
0,
0,
0,
0,
0,
0,
0,
0,
0,
0,
0,
0,
0,
0,
0,
0,
0,
0,
0,
0,
0,
0,
0,
0,
0,
0,
0,
0,
0,
0,
0,
0,
0,
0,
1,
0,
0,
0,
0,
0,
0,
0,
0,
0,
0,
0,
1,
0,
0,
0,
0,
0,
0,
0,
0,
0,
0,
0,
0,
0,
0,
0,
0,
0,
0,
0,
0,
0,
0,
0,
0,
0,
0,
0,
0,
0,
0,
0,
0,
0,
0,
0,
0,
0,
0,
0,
0,
0,
0,
0,
1,
0,
0,
0,
0,
0,
0,
0,
0,
0,
0,
0,
0,
0,
0,
0,
0,
0,
0,
0,
0,
0,
0,
0,
0,
0,
0,
0,
0,
0,
0,
0,
0,
0,
0,
0,
0,
0,
0,
0,
0,
0,
0,
0,
0,
0,
0,
0,
0,
0,
0,
0,
0,
0,
0,
0,
0,
0,
0,
0,
0,
0,
0,
0,
0,
0,
0,
0,
0,
0,
0,
0,
0,
0,
0,
0,
0,
0,
0,
0,
0,
0,
0,
0,
0,
0,
0,
0,
0,
0,
0,
0,
0,
0,
0,
0,
0,
0,
0,
0,
0,
0,
0,
0,
0,
0,
0,
0,
0,
0,
0,
0,
0,
0,
0,
0,
0,
0,
0,
0,
0,
0,
0,
0,
0,
0,
0,
0,
0,
0,
0,
0,
0,
0,
0,
0,
0,
0,
0,
0,
0,
0,
0,
0,
0,
0,
0,
0,
0,
0,
0,
0,
0,
0,
0,
0,
0,
0,
0,
0,
0,
0,
0,
0,
0,
0,
0,
0,
0,
0,
0,
0,
0,
0,
0,
0,
0,
0,
0,
0,
0,
0,
0,
0,
0,
0,
0,
0,
0,
0,
0,
0,
0,
0,
0,
0,
0,
0,
0,
0,
0,
0,
0,
0,
0,
0,
0,
0,
0,
0,
0,
0,
0,
0,
0,
0,
0,
0,
0,
0,
0,
0,
0,
0,
0,
0,
0,
0,
0,
0,
0,
0,
0,
0,
0,
0,
0,
0,
0,
0,
0,
0,
0,
0,
0,
0,
0,
0,
0,
0,
0,
0,
0,
0,
0,
0,
0,
0,
0,
0,
0,
0,
0,
0,
0,
0,
0,
0,
0,
0,
0,
0,
0,
0,
0,
0,
0,
0,
0,
0,
0,
0,
0,
0,
0,
0,
0,
0,
0,
0,
0,
0,
0,
0,
0,
0,
0,
0,
0,
0,
0,
0,
0,
0,
0,
0,
0,
0,
0,
0,
0,
0,
0,
0,
0,
0,
0,
0,
0,
0,
0,
0,
0,
0,
0,
0,
0,
0,
0,
0,
0,
0,
0,
0,
0,
0,
0,
0,
0,
0,
0,
0,
0,
0,
0,
0,
0,
0,
#ENDOFDATA   :