File: N132962/Standards/20 keV/Cd std.msa
#FORMAT      : EMSA/MAS Spectral Data File
#VERSION     : 1.0
#TITLE       : G588 Cd[0][all]+G588 Cd[1][all]+G588 Cd[2][all]
#NPOINTS     : 4096
#NCOLUMNS    : 1
#XUNITS      : eV
#YUNITS      : counts
#DATATYPE    : Y
#SIGNALTYPE  : EDS
#XLABEL      : Energy (eV)
#YLABEL      : Counts
#XPERCHAN -eV: 9.99778
#OFFSET   -eV: 1.69135
#CHOFFSET    : 0
#OWNER       : Unknown
#ELEVANGLE   : 35
#BEAMKV   -kV: 20
#LIVETIME  -s: 719.877
#REALTIME  -s: 800.851
#PROBECUR -nA: 1.04548
##WORKING -mm: 15
##D2STDCMP   : Cd,(Cd:100.0000),5.000
#SPECTRUM    :
86,
101,
44,
271,
1901,
7242,
16385,
28485,
47190,
72317,
121575,
153975,
96598,
45423,
25831,
16249,
16461,
20648,
18218,
14387,
14732,
14779,
13700,
13832,
13155,
12366,
12037,
13195,
14439,
15178,
14793,
14857,
15560,
16282,
17291,
17547,
18077,
18067,
19015,
19566,
20043,
20535,
21064,
22061,
24187,
28274,
33831,
32993,
28597,
26542,
26755,
27885,
29671,
29595,
28182,
27597,
28270,
29808,
30997,
31595,
30481,
28473,
26774,
25875,
25779,
25840,
26175,
26314,
26229,
25948,
26257,
25960,
26230,
26237,
26203,
26314,
26492,
26578,
26434,
26100,
26033,
25913,
26035,
26141,
26464,
27365,
29269,
31763,
32213,
31807,
35230,
44998,
54303,
52896,
42724,
33091,
30253,
32012,
36755,
41817,
50355,
88222,
221464,
494338,
771477,
778808,
514821,
244557,
151783,
216405,
330063,
364050,
290786,
190729,
121385,
87793,
87081,
101828,
104814,
81314,
50737,
32810,
30591,
37119,
40465,
34745,
24974,
17636,
14892,
15434,
18449,
21370,
21800,
19487,
15949,
13569,
12442,
11880,
12114,
12075,
12263,
12103,
11976,
12158,
12145,
12226,
12302,
12543,
12445,
12394,
12146,
12270,
12448,
12135,
12285,
12469,
12418,
12513,
12339,
12376,
12265,
12219,
12519,
12567,
12266,
12119,
12071,
12280,
12363,
12165,
12233,
12150,
12200,
12130,
12108,
11916,
11947,
12011,
11907,
12405,
12108,
11883,
12098,
11754,
11824,
11996,
11650,
11505,
11770,
11834,
11647,
11678,
11502,
11403,
11442,
11472,
11679,
11484,
11308,
11262,
11313,
11185,
11207,
11128,
11163,
11205,
11241,
11503,
11762,
12127,
12084,
12547,
13064,
13290,
13210,
12833,
12387,
11623,
11092,
10852,
10768,
10616,
10491,
10684,
10396,
10427,
9922,
10109,
10224,
10000,
10042,
9762,
9849,
10004,
10043,
10039,
9818,
9754,
9607,
9605,
9511,
9315,
9266,
9244,
9159,
9439,
9489,
9364,
9707,
9551,
9691,
9476,
9051,
8818,
8939,
8804,
8720,
8757,
8499,
8599,
8510,
8395,
8516,
8343,
8327,
8187,
8283,
8112,
8091,
8175,
8120,
7933,
8221,
7955,
8080,
8042,
7928,
7977,
7764,
7734,
7701,
7496,
7673,
7680,
7626,
7535,
7353,
7416,
7378,
7342,
7532,
7342,
7244,
7194,
7303,
7068,
7333,
6806,
6910,
6988,
6916,
6881,
6938,
6718,
6833,
6785,
6836,
6742,
6664,
6506,
6566,
6565,
6446,
6365,
6485,
6321,
6360,
6236,
6367,
6222,
6053,
6145,
6178,
6231,
6133,
5944,
6063,
6067,
5998,
5902,
5805,
5831,
5841,
5772,
5710,
5827,
5659,
5691,
5574,
5470,
5427,
5468,
5485,
5405,
5490,
5292,
5284,
5369,
5305,
5251,
5271,
5103,
5196,
5134,
5126,
4971,
5049,
4957,
4892,
4929,
4814,
4849,
4828,
4828,
4771,
4690,
4628,
4646,
4663,
4661,
4573,
4510,
4627,
4424,
4480,
4359,
4380,
4335,
4267,
4344,
4092,
4239,
4109,
4093,
3938,
4069,
4050,
4110,
4090,
3962,
3978,
3859,
3836,
3915,
3803,
3639,
3746,
3777,
3809,
3754,
3667,
3556,
3534,
3533,
3524,
3609,
3519,
3508,
3389,
3375,
3348,
3370,
3357,
3364,
3228,
3137,
3261,
3180,
3190,
3169,
3199,
3035,
3030,
3038,
3007,
2982,
3007,
2967,
2838,
2981,
2835,
2846,
2806,
2787,
2837,
2669,
2725,
2743,
2673,
2612,
2678,
2514,
2649,
2625,
2581,
2427,
2484,
2538,
2409,
2479,
2391,
2459,
2311,
2229,
2316,
2288,
2314,
2324,
2215,
2295,
2211,
2194,
2180,
2210,
2082,
2024,
2061,
1980,
2034,
2033,
2111,
1998,
2036,
1935,
1922,
1904,
1928,
1805,
1947,
1856,
1848,
1824,
1765,
1750,
1802,
1773,
1768,
1788,
1596,
1630,
1631,
1613,
1591,
1570,
1534,
1608,
1494,
1456,
1526,
1545,
1544,
1457,
1476,
1455,
1477,
1419,
1365,
1463,
1321,
1416,
1272,
1366,
1313,
1315,
1298,
1276,
1254,
1207,
1288,
1193,
1191,
1200,
1198,
1143,
1116,
1131,
1186,
1149,
1127,
1074,
1113,
1010,
1079,
1052,
1005,
1051,
961,
994,
1005,
936,
967,
922,
945,
915,
880,
893,
877,
897,
861,
852,
844,
827,
783,
774,
822,
760,
803,
699,
805,
685,
795,
687,
731,
709,
688,
717,
692,
698,
640,
674,
636,
631,
638,
653,
624,
578,
592,
581,
560,
562,
627,
546,
549,
547,
514,
530,
500,
514,
530,
515,
425,
462,
429,
433,
442,
440,
428,
393,
396,
396,
372,
398,
390,
362,
388,
363,
375,
337,
368,
306,
309,
293,
296,
309,
299,
285,
267,
263,
283,
273,
266,
259,
279,
237,
260,
240,
241,
219,
212,
211,
200,
194,
170,
167,
169,
178,
173,
157,
164,
150,
156,
153,
126,
139,
148,
102,
127,
108,
106,
97,
92,
102,
96,
93,
82,
80,
66,
60,
54,
52,
51,
54,
39,
30,
27,
20,
26,
10,
11,
15,
14,
9,
10,
9,
11,
12,
8,
16,
14,
4,
11,
10,
8,
14,
8,
11,
11,
10,
9,
9,
12,
12,
12,
12,
8,
9,
9,
5,
7,
6,
11,
2,
7,
5,
6,
10,
6,
2,
8,
6,
8,
2,
7,
14,
11,
4,
8,
12,
5,
4,
3,
4,
9,
7,
8,
3,
11,
4,
5,
10,
6,
1,
4,
1,
4,
3,
7,
4,
7,
3,
10,
8,
6,
2,
8,
5,
5,
7,
9,
5,
2,
3,
1,
1,
8,
6,
5,
1,
4,
5,
5,
1,
2,
0,
2,
2,
3,
2,
5,
4,
0,
5,
4,
6,
0,
1,
5,
3,
1,
1,
1,
0,
1,
3,
4,
2,
1,
5,
3,
1,
3,
2,
0,
1,
2,
2,
2,
1,
4,
2,
4,
1,
0,
5,
2,
4,
1,
2,
2,
1,
1,
2,
0,
1,
1,
2,
5,
2,
0,
3,
4,
3,
3,
2,
5,
4,
2,
3,
1,
1,
2,
3,
1,
1,
1,
1,
1,
1,
2,
2,
2,
4,
2,
3,
4,
1,
0,
3,
1,
0,
0,
1,
0,
1,
1,
2,
0,
0,
2,
5,
1,
3,
0,
1,
5,
0,
2,
2,
0,
4,
0,
2,
4,
1,
1,
0,
2,
1,
0,
3,
2,
1,
1,
1,
0,
1,
3,
1,
4,
0,
2,
1,
1,
5,
1,
1,
0,
1,
0,
0,
0,
0,
3,
1,
2,
0,
0,
0,
0,
2,
0,
0,
2,
1,
1,
0,
1,
1,
3,
1,
1,
1,
1,
0,
1,
1,
0,
0,
3,
1,
0,
1,
2,
0,
1,
0,
0,
0,
1,
1,
0,
0,
0,
1,
0,
1,
1,
1,
0,
2,
1,
1,
0,
0,
0,
1,
2,
0,
1,
1,
0,
1,
3,
0,
0,
0,
1,
0,
0,
2,
0,
1,
0,
1,
1,
0,
0,
0,
0,
0,
0,
0,
0,
0,
0,
0,
2,
0,
1,
0,
0,
0,
1,
0,
1,
0,
1,
0,
0,
0,
0,
0,
0,
0,
0,
0,
0,
0,
0,
1,
0,
0,
0,
0,
0,
1,
1,
0,
0,
0,
0,
0,
0,
0,
0,
1,
0,
0,
0,
0,
0,
1,
0,
0,
0,
0,
0,
0,
0,
0,
0,
0,
0,
0,
0,
0,
0,
0,
0,
0,
0,
0,
0,
0,
0,
0,
0,
0,
0,
0,
0,
0,
0,
0,
0,
0,
0,
0,
0,
0,
0,
0,
0,
0,
0,
0,
0,
0,
0,
0,
0,
0,
0,
0,
0,
0,
0,
0,
0,
0,
0,
0,
1,
0,
1,
0,
0,
0,
0,
0,
0,
0,
0,
0,
0,
0,
0,
0,
0,
0,
0,
0,
0,
0,
0,
0,
0,
0,
0,
0,
0,
0,
0,
0,
0,
0,
0,
1,
0,
0,
0,
0,
0,
0,
0,
0,
0,
0,
0,
0,
0,
0,
0,
0,
0,
0,
0,
0,
0,
0,
0,
0,
0,
0,
0,
0,
0,
0,
0,
0,
0,
0,
0,
0,
0,
0,
0,
0,
0,
0,
0,
0,
0,
0,
0,
0,
0,
0,
0,
0,
0,
0,
0,
0,
0,
0,
0,
0,
0,
0,
0,
0,
0,
0,
0,
0,
0,
0,
0,
0,
0,
0,
0,
0,
0,
0,
0,
0,
0,
0,
0,
0,
0,
0,
0,
0,
0,
0,
0,
0,
0,
0,
0,
0,
0,
0,
0,
0,
0,
0,
0,
0,
0,
0,
0,
0,
0,
0,
0,
0,
0,
0,
0,
0,
0,
0,
0,
0,
0,
0,
0,
0,
0,
0,
0,
0,
0,
0,
0,
0,
0,
0,
0,
0,
0,
0,
0,
0,
0,
0,
0,
0,
0,
1,
0,
0,
0,
0,
0,
0,
0,
0,
0,
0,
0,
0,
0,
0,
0,
0,
0,
0,
0,
0,
0,
0,
0,
0,
0,
0,
0,
0,
0,
0,
0,
0,
0,
0,
0,
0,
0,
0,
0,
0,
0,
0,
0,
0,
0,
0,
0,
0,
0,
0,
0,
0,
0,
0,
0,
0,
0,
0,
0,
0,
0,
0,
0,
0,
0,
0,
0,
0,
0,
0,
0,
0,
0,
0,
0,
0,
0,
0,
0,
0,
0,
0,
0,
0,
0,
0,
0,
0,
0,
0,
0,
0,
#ENDOFDATA   :