File: N132962/Standards/20 keV/CeAl2 std.msa
#FORMAT      : EMSA/MAS Spectral Data File
#VERSION     : 1.0
#TITLE       : CeAl2 std
#DATE        : 24-FEB-2025
#TIME        : 09:13
#OWNER       : Unknown
#NPOINTS     : 4096
#NCOLUMNS    : 1
#XUNITS      : eV
#YUNITS      : counts
#DATATYPE    : Y
#XPERCHAN    : 9.99778
#OFFSET      : 1.69135
#BEAMKV      : 20
#SIGNALTYPE  : EDS
#ELEVANGLE   : 35
#AZIMANGLE   : 0
#LIVETIME    : 1919.68
#REALTIME    : 2088.466
#PROBECUR    : 1.02857
#TAUWIND     : 0
#TDEADLYR    : 0
#TACTLYR     : 0.045
#TALWIND     : 0.025
#CHOFFSET    : 0.0
#XLABEL      : Energy (eV)
#YLABEL      : Counts
#EDSDET      : SD
##SPECIMEN   : CeAl2 std
##D2STDCMP   : CeAl2,(Al:27.8047),(Ce:72.1953)
##DET_HASH   : 12273538-fd48-a23f-0a19-f1e6fa85caef
##CALIB_HASH : 6abaa72c-aa41-8738-0be9-f592914732f3
##WORKING    : 15.0 mm
##SAMPLE     : <BulkSample id="1">\n<mOrientation id="2">\n<double>0.0</double>\n<double>0.0</double>\n<double>-1.0</double>\n</mOrientation>\n</BulkSample>
##MULTISPEC  : 1.1531
##DET_NAME   : EDAX All
##DET_MODE   : MediumLE
#SPECTRUM    :
217,
233,
157,
310,
1163,
4834,
14455,
33997,
72608,
91041,
61483,
45174,
46145,
47484,
50054,
56392,
70884,
87447,
82919,
78018,
111613,
210294,
311202,
265350,
148781,
96876,
93680,
116773,
170899,
213257,
174955,
103231,
59807,
48013,
52504,
63519,
67878,
61514,
59276,
57415,
50201,
45763,
43907,
43677,
44369,
47514,
62760,
158746,
508940,
1001333,
999370,
516822,
174574,
70303,
44674,
38542,
38768,
41620,
43612,
43807,
42699,
41065,
38891,
37936,
38477,
38563,
39169,
39726,
40039,
40569,
40990,
41970,
41908,
42196,
42456,
43033,
42823,
43704,
43751,
44122,
43972,
44089,
44613,
44769,
44408,
44741,
44877,
45056,
45020,
44582,
45069,
45099,
45202,
45183,
45144,
44649,
45029,
45107,
45693,
45817,
46712,
46905,
49019,
49719,
48706,
46797,
45277,
44444,
43851,
44064,
43914,
43583,
43656,
43330,
43650,
43790,
44465,
44959,
44923,
44332,
43178,
42821,
42283,
41819,
42076,
41480,
41948,
41594,
41958,
41609,
41357,
41044,
40499,
40482,
40520,
40071,
40039,
39986,
40408,
41906,
45958,
54606,
64165,
68691,
63590,
53985,
45133,
40995,
39351,
38428,
38548,
38513,
38376,
39244,
41183,
45523,
56574,
88428,
179833,
368543,
626771,
801392,
748082,
512740,
267032,
118024,
58709,
41892,
37994,
38241,
41055,
54017,
92564,
175724,
294261,
391112,
397539,
321506,
225309,
151896,
106801,
75762,
57840,
52955,
66594,
98863,
138690,
163118,
150516,
112723,
72646,
46510,
34004,
29343,
27779,
28098,
28521,
29708,
33729,
43836,
58849,
71339,
74189,
64589,
49059,
36575,
29429,
28355,
31183,
37032,
42938,
45400,
42784,
37361,
32024,
28075,
26309,
25830,
25209,
24075,
22844,
22055,
21470,
21286,
21133,
21180,
20895,
21050,
20658,
20420,
20493,
20513,
20321,
20363,
20362,
20629,
20546,
20466,
20006,
20035,
19730,
19508,
19744,
19350,
19522,
19497,
19764,
20208,
20815,
20664,
20517,
20026,
19438,
18908,
18575,
18290,
18600,
18318,
18367,
18312,
18585,
17904,
17984,
17946,
18088,
17909,
18210,
17978,
18206,
17977,
17483,
17489,
17417,
17337,
17098,
16886,
16963,
16884,
16791,
16746,
16719,
17032,
16419,
16148,
16540,
16231,
16302,
16392,
16303,
16348,
15963,
15706,
15505,
15653,
15475,
15332,
15347,
15386,
15319,
15435,
14760,
14906,
14821,
14830,
14790,
14787,
14775,
14339,
14416,
14161,
14234,
14175,
14073,
13676,
13695,
13885,
13985,
14028,
13619,
13712,
13909,
13674,
13900,
13563,
13732,
13493,
13244,
12998,
12892,
12867,
12808,
12739,
12875,
12454,
12649,
12971,
12734,
12584,
12512,
12556,
12260,
11976,
12049,
11856,
11906,
11891,
11694,
11774,
11709,
11578,
11491,
11643,
11428,
11221,
11182,
10991,
11131,
10747,
10829,
10603,
10669,
10570,
10619,
10481,
10492,
10319,
10236,
10049,
9919,
10139,
9856,
9870,
9994,
9822,
9634,
9719,
9598,
9706,
9426,
9359,
9314,
9183,
9048,
9069,
8958,
8944,
8793,
8594,
8810,
8814,
8682,
8619,
8402,
8280,
8397,
8368,
8291,
8198,
8091,
8001,
7961,
7949,
7883,
7850,
7798,
7629,
7749,
7509,
7475,
7423,
7607,
7390,
7306,
7134,
7097,
7138,
7182,
6937,
6826,
7050,
6921,
6634,
6827,
6612,
6675,
6623,
6553,
6332,
6400,
6250,
6216,
6295,
6161,
6177,
6183,
6052,
6012,
5943,
5727,
5975,
5713,
5587,
5621,
5675,
5642,
5507,
5452,
5432,
5284,
5361,
5196,
5204,
5152,
5178,
5025,
5060,
4833,
5127,
4864,
4862,
4774,
4698,
4606,
4671,
4730,
4528,
4651,
4473,
4388,
4399,
4470,
4274,
4280,
4217,
4264,
4242,
4050,
3967,
4136,
4030,
3916,
3897,
3980,
3887,
3760,
3823,
3780,
3787,
3645,
3645,
3530,
3524,
3583,
3520,
3459,
3442,
3342,
3325,
3209,
3258,
3289,
3068,
3168,
3133,
3176,
2985,
3029,
2932,
2953,
2854,
2950,
2916,
2919,
2805,
2671,
2781,
2637,
2678,
2721,
2590,
2602,
2551,
2419,
2501,
2421,
2432,
2493,
2352,
2308,
2331,
2292,
2269,
2310,
2265,
2226,
2125,
2185,
2129,
2076,
2006,
2003,
2017,
1958,
2010,
1972,
1919,
1888,
1871,
1904,
1782,
1820,
1714,
1798,
1818,
1695,
1694,
1706,
1624,
1575,
1605,
1515,
1515,
1573,
1533,
1463,
1484,
1465,
1397,
1392,
1378,
1379,
1321,
1275,
1314,
1350,
1279,
1298,
1251,
1215,
1258,
1225,
1228,
1169,
1178,
1156,
1084,
1081,
1017,
1015,
977,
1107,
962,
971,
959,
891,
900,
903,
856,
901,
848,
797,
787,
810,
822,
752,
764,
732,
753,
769,
677,
666,
677,
653,
617,
663,
632,
639,
579,
590,
571,
546,
549,
516,
517,
532,
449,
447,
476,
421,
449,
426,
358,
413,
389,
349,
352,
334,
323,
331,
326,
303,
270,
308,
275,
254,
235,
242,
218,
192,
198,
186,
199,
180,
162,
151,
135,
112,
116,
110,
107,
105,
71,
78,
64,
41,
45,
30,
40,
33,
40,
30,
23,
27,
21,
22,
18,
18,
23,
14,
29,
26,
22,
18,
16,
16,
21,
19,
21,
24,
28,
20,
17,
18,
23,
21,
27,
17,
15,
18,
23,
15,
15,
13,
14,
10,
16,
14,
15,
13,
12,
17,
16,
9,
16,
13,
12,
10,
14,
8,
16,
11,
12,
9,
11,
12,
14,
13,
15,
14,
7,
21,
24,
9,
8,
6,
13,
6,
7,
9,
16,
13,
13,
13,
11,
7,
20,
7,
10,
10,
6,
9,
14,
13,
15,
5,
8,
8,
8,
7,
9,
8,
6,
4,
3,
10,
4,
3,
7,
11,
5,
6,
7,
10,
14,
6,
12,
9,
5,
10,
4,
6,
2,
11,
8,
3,
5,
6,
7,
8,
9,
6,
5,
1,
10,
3,
8,
5,
5,
7,
5,
4,
7,
5,
3,
6,
2,
6,
2,
4,
2,
5,
2,
3,
4,
7,
2,
1,
7,
1,
3,
2,
4,
4,
7,
3,
3,
9,
7,
2,
4,
5,
2,
5,
2,
3,
5,
2,
7,
1,
0,
8,
4,
2,
6,
0,
3,
3,
3,
5,
2,
2,
3,
3,
3,
2,
4,
5,
7,
2,
5,
1,
0,
2,
3,
3,
2,
3,
2,
3,
5,
0,
3,
1,
1,
5,
2,
5,
1,
2,
1,
1,
3,
4,
3,
1,
0,
1,
2,
2,
4,
3,
4,
2,
0,
0,
1,
3,
2,
1,
1,
2,
1,
0,
3,
2,
1,
1,
2,
0,
0,
3,
2,
0,
1,
0,
0,
2,
2,
4,
0,
2,
2,
1,
1,
2,
0,
1,
3,
2,
1,
0,
1,
5,
0,
2,
0,
1,
0,
0,
2,
0,
1,
0,
1,
1,
1,
0,
2,
1,
0,
1,
2,
1,
2,
2,
1,
0,
0,
1,
0,
2,
1,
0,
2,
0,
1,
3,
1,
1,
1,
2,
1,
0,
0,
0,
1,
0,
1,
1,
0,
0,
1,
1,
0,
1,
0,
0,
0,
0,
0,
2,
0,
0,
2,
1,
0,
0,
0,
2,
0,
0,
0,
0,
0,
1,
0,
0,
0,
0,
1,
2,
1,
0,
1,
0,
0,
2,
1,
0,
1,
0,
1,
0,
0,
0,
1,
1,
1,
1,
1,
1,
0,
0,
1,
0,
0,
0,
0,
0,
1,
0,
0,
0,
0,
0,
0,
0,
0,
1,
0,
0,
2,
0,
0,
1,
0,
0,
1,
0,
0,
0,
1,
0,
0,
0,
0,
0,
0,
0,
0,
0,
0,
0,
0,
0,
0,
0,
0,
1,
0,
0,
0,
0,
0,
0,
0,
0,
0,
0,
0,
0,
0,
0,
1,
0,
0,
0,
1,
0,
0,
0,
0,
0,
0,
0,
0,
0,
1,
1,
0,
0,
0,
0,
0,
0,
0,
0,
0,
0,
0,
0,
0,
0,
0,
0,
0,
0,
0,
0,
1,
0,
1,
0,
0,
0,
0,
0,
0,
0,
0,
0,
0,
0,
1,
0,
0,
1,
0,
0,
0,
0,
0,
0,
0,
0,
0,
0,
1,
0,
0,
0,
0,
0,
0,
0,
0,
0,
0,
0,
0,
0,
0,
0,
0,
0,
0,
0,
0,
0,
0,
0,
0,
0,
0,
0,
0,
0,
0,
0,
0,
0,
0,
0,
0,
0,
0,
0,
0,
0,
0,
0,
0,
0,
0,
0,
0,
0,
0,
0,
0,
0,
0,
0,
0,
0,
0,
0,
0,
0,
0,
0,
0,
0,
0,
0,
0,
0,
0,
0,
0,
0,
0,
0,
0,
0,
0,
0,
0,
0,
0,
0,
0,
0,
0,
0,
0,
0,
0,
0,
0,
0,
0,
0,
0,
0,
0,
0,
0,
0,
0,
0,
0,
0,
0,
0,
0,
0,
0,
0,
0,
0,
0,
0,
0,
0,
0,
0,
0,
0,
0,
0,
0,
0,
0,
0,
0,
0,
0,
0,
0,
0,
0,
0,
0,
0,
0,
0,
0,
0,
0,
0,
0,
0,
0,
0,
0,
0,
0,
0,
0,
0,
0,
0,
0,
0,
0,
0,
0,
0,
0,
0,
0,
0,
0,
0,
0,
0,
0,
0,
0,
0,
0,
0,
0,
0,
0,
0,
0,
0,
0,
0,
0,
0,
0,
0,
0,
0,
0,
0,
0,
0,
0,
0,
0,
0,
0,
0,
0,
0,
0,
0,
0,
0,
0,
0,
0,
#ENDOFDATA   :