File: N132962/Standards/20 keV/Celsian std.msa
#FORMAT      : EMSA/MAS Spectral Data File
#VERSION     : 1.0
#TITLE       : Celsian std
#DATE        : 24-FEB-2025
#TIME        : 10:39
#OWNER       : Unknown
#NPOINTS     : 4096
#NCOLUMNS    : 1
#XUNITS      : eV
#YUNITS      : counts
#DATATYPE    : Y
#XPERCHAN    : 9.99778
#OFFSET      : 1.69135
#BEAMKV      : 20
#SIGNALTYPE  : EDS
#ELEVANGLE   : 35
#AZIMANGLE   : 0
#LIVETIME    : 959.261
#REALTIME    : 1028.39
#PROBECUR    : 1.03242
#TAUWIND     : 0
#TDEADLYR    : 0
#TACTLYR     : 0.045
#TALWIND     : 0.025
#CHOFFSET    : 0.0
#XLABEL      : Energy (eV)
#YLABEL      : Counts
#EDSDET      : SD
##SPECIMEN   : Celsian std
##D2STDCMP   : Celsian,(O:34.0901),(Al:14.3728),(Si:14.9606),(Ba:36.5764)
##DET_HASH   : 12273538-fd48-a23f-0a19-f1e6fa85caef
##CALIB_HASH : 6abaa72c-aa41-8738-0be9-f592914732f3
##WORKING    : 15.0 mm
##SAMPLE     : <BulkSample id="1">\n<mOrientation id="2">\n<double>0.0</double>\n<double>0.0</double>\n<double>-1.0</double>\n</mOrientation>\n</BulkSample>
##MULTISPEC  : 2.98893
##DET_NAME   : EDAX All
##DET_MODE   : MediumLE
#SPECTRUM    :
117,
123,
43,
88,
391,
1595,
4364,
10925,
25319,
32899,
22155,
16319,
17450,
21144,
32678,
100915,
378141,
728464,
538040,
159594,
42295,
22383,
16028,
15927,
19343,
25813,
30013,
24819,
18208,
15944,
17333,
20451,
23167,
22949,
23122,
21692,
18811,
16614,
16111,
15873,
16339,
17177,
17927,
18631,
18910,
20255,
25412,
57829,
176364,
349568,
353300,
187893,
66867,
29466,
23245,
40153,
125496,
305215,
410351,
294583,
125114,
50268,
28126,
18990,
15056,
14818,
15274,
15179,
15112,
14978,
14784,
14625,
14842,
15469,
15728,
16392,
16098,
15621,
15799,
15376,
15300,
15308,
15338,
15372,
15537,
15417,
15308,
15409,
15411,
15949,
16820,
16715,
16197,
15617,
15044,
14943,
15096,
14840,
15071,
15076,
15162,
15147,
15149,
14997,
15249,
15019,
15134,
15444,
16569,
18870,
20798,
20527,
18338,
15916,
14460,
14312,
13939,
14215,
14071,
14109,
14295,
13717,
13517,
13435,
13086,
13233,
13037,
13084,
13488,
14236,
16367,
18612,
19764,
18478,
15856,
13731,
12793,
12696,
12471,
12291,
12348,
12539,
13374,
15219,
18557,
29312,
59108,
116120,
178667,
202829,
164186,
97284,
46085,
21746,
13889,
12410,
13225,
17594,
30863,
56322,
86107,
102649,
93902,
70743,
48536,
33890,
24376,
18491,
16571,
19597,
27548,
37011,
41285,
36413,
26045,
17275,
11878,
9991,
9565,
9363,
9938,
10993,
13692,
17549,
20502,
20064,
17004,
12756,
10246,
9197,
9414,
10548,
12144,
13043,
12604,
11279,
9803,
8995,
8712,
8484,
8286,
7892,
7617,
7425,
7118,
7250,
7071,
7215,
7213,
7258,
7215,
7361,
7535,
7796,
7686,
7336,
7164,
6926,
6792,
6701,
6757,
6701,
6687,
6601,
6442,
6441,
6260,
6406,
6434,
6331,
6275,
6309,
6311,
6183,
6375,
6125,
6139,
6104,
5884,
5927,
5918,
5873,
5753,
5769,
5820,
5880,
5927,
5946,
5954,
6030,
5873,
5897,
5649,
5591,
5345,
5388,
5438,
5459,
5404,
5381,
5296,
5329,
5291,
5255,
5180,
5330,
5322,
5190,
5187,
5175,
5189,
4998,
4948,
4936,
4966,
4962,
5066,
4882,
4738,
4841,
4623,
4750,
4622,
4676,
4643,
4624,
4606,
4589,
4565,
4560,
4462,
4463,
4486,
4369,
4319,
4218,
4258,
4387,
4222,
4289,
4173,
4110,
4045,
4108,
4095,
4101,
4009,
4024,
3949,
3994,
4015,
3939,
3955,
3955,
3813,
3812,
3856,
3854,
3881,
3803,
3664,
3665,
3725,
3665,
3618,
3553,
3656,
3616,
3516,
3516,
3431,
3526,
3493,
3425,
3378,
3363,
3352,
3250,
3338,
3244,
3248,
3293,
3208,
3187,
3183,
3146,
3069,
3085,
3092,
3131,
2981,
3141,
3139,
2815,
2935,
2843,
2918,
2898,
2956,
2770,
2841,
2774,
2733,
2694,
2808,
2713,
2716,
2656,
2675,
2650,
2591,
2587,
2504,
2536,
2550,
2459,
2537,
2485,
2458,
2432,
2371,
2337,
2452,
2342,
2370,
2326,
2259,
2254,
2307,
2330,
2239,
2249,
2080,
2199,
2208,
2059,
2154,
2026,
2041,
2040,
2134,
2038,
2115,
1940,
1941,
1989,
2018,
1935,
1984,
1974,
1954,
1873,
1872,
1794,
1845,
1778,
1790,
1834,
1795,
1770,
1665,
1737,
1710,
1611,
1691,
1688,
1614,
1554,
1623,
1563,
1565,
1549,
1538,
1563,
1535,
1549,
1478,
1552,
1423,
1434,
1371,
1437,
1389,
1388,
1427,
1382,
1457,
1381,
1267,
1345,
1304,
1230,
1251,
1215,
1243,
1277,
1227,
1232,
1302,
1262,
1171,
1177,
1157,
1148,
1067,
1089,
1117,
1123,
1080,
1100,
1024,
1078,
1071,
1064,
1018,
1046,
1048,
974,
1099,
1061,
993,
977,
959,
908,
974,
913,
913,
889,
905,
869,
909,
845,
850,
822,
844,
816,
795,
824,
791,
820,
780,
777,
758,
743,
786,
744,
748,
733,
720,
686,
647,
701,
631,
674,
638,
661,
694,
611,
662,
597,
600,
589,
630,
592,
642,
575,
583,
594,
545,
529,
539,
542,
507,
540,
510,
495,
490,
488,
447,
508,
460,
500,
479,
413,
472,
443,
367,
449,
423,
424,
421,
433,
389,
387,
427,
350,
369,
367,
370,
370,
360,
335,
330,
337,
333,
353,
354,
316,
322,
317,
304,
319,
303,
315,
283,
294,
285,
233,
233,
262,
274,
242,
251,
235,
260,
243,
221,
215,
225,
246,
240,
194,
213,
204,
178,
188,
207,
184,
207,
186,
177,
181,
171,
185,
177,
169,
160,
153,
164,
158,
135,
144,
117,
140,
146,
134,
139,
128,
121,
105,
103,
117,
121,
107,
114,
99,
85,
87,
104,
78,
74,
84,
79,
75,
79,
77,
70,
72,
67,
66,
57,
61,
55,
56,
52,
56,
48,
47,
42,
45,
53,
43,
35,
30,
26,
32,
20,
25,
14,
13,
22,
12,
15,
10,
12,
9,
4,
7,
3,
1,
1,
6,
3,
5,
4,
2,
4,
3,
3,
3,
4,
3,
3,
1,
1,
2,
3,
5,
2,
2,
3,
2,
2,
2,
2,
2,
0,
5,
2,
3,
3,
1,
7,
2,
3,
0,
2,
2,
1,
0,
3,
3,
3,
3,
1,
0,
4,
3,
4,
0,
0,
2,
2,
0,
1,
2,
3,
1,
4,
2,
1,
2,
0,
0,
0,
2,
1,
0,
4,
1,
2,
3,
3,
3,
0,
0,
0,
2,
1,
0,
0,
1,
0,
0,
2,
0,
1,
0,
1,
0,
1,
3,
0,
0,
0,
1,
0,
0,
1,
2,
0,
1,
1,
0,
0,
0,
2,
0,
2,
1,
1,
2,
0,
1,
2,
3,
1,
0,
1,
0,
0,
0,
0,
0,
2,
1,
1,
2,
0,
0,
0,
0,
0,
0,
1,
0,
1,
1,
0,
0,
0,
1,
0,
2,
0,
1,
0,
1,
0,
0,
1,
2,
0,
0,
2,
1,
0,
0,
2,
0,
0,
0,
0,
1,
1,
0,
2,
0,
1,
2,
0,
0,
2,
1,
0,
1,
0,
0,
0,
2,
0,
0,
0,
1,
0,
0,
0,
1,
0,
1,
0,
1,
0,
0,
0,
0,
1,
1,
1,
1,
0,
1,
1,
0,
1,
0,
0,
0,
2,
1,
0,
0,
0,
0,
0,
0,
0,
0,
0,
0,
1,
1,
0,
0,
0,
0,
0,
0,
0,
0,
0,
1,
0,
1,
0,
0,
0,
0,
0,
0,
1,
0,
0,
0,
0,
0,
0,
0,
0,
0,
0,
0,
0,
0,
0,
0,
0,
2,
0,
0,
0,
0,
0,
0,
0,
0,
0,
0,
0,
0,
0,
1,
0,
0,
0,
0,
1,
1,
0,
0,
0,
0,
1,
0,
0,
0,
0,
0,
0,
0,
0,
0,
1,
1,
0,
0,
0,
0,
0,
0,
0,
0,
0,
0,
0,
0,
0,
0,
0,
0,
1,
0,
0,
1,
0,
0,
0,
0,
0,
1,
0,
0,
0,
0,
0,
0,
0,
0,
0,
0,
0,
0,
0,
0,
0,
0,
0,
0,
0,
0,
0,
0,
0,
0,
0,
0,
0,
0,
0,
0,
0,
0,
0,
0,
0,
0,
0,
0,
0,
0,
0,
0,
0,
0,
0,
0,
0,
0,
0,
0,
0,
0,
0,
0,
0,
0,
0,
0,
0,
0,
0,
0,
0,
0,
0,
0,
0,
0,
0,
0,
0,
0,
0,
0,
0,
0,
0,
0,
0,
0,
0,
0,
0,
0,
0,
0,
0,
0,
0,
0,
0,
0,
0,
0,
0,
0,
0,
0,
0,
0,
0,
1,
0,
0,
0,
0,
0,
0,
0,
0,
0,
0,
0,
0,
0,
0,
0,
0,
0,
0,
0,
0,
0,
0,
0,
0,
0,
0,
0,
0,
0,
0,
0,
0,
0,
0,
0,
0,
0,
0,
0,
0,
0,
0,
0,
0,
0,
0,
0,
0,
0,
0,
0,
0,
0,
0,
0,
0,
0,
0,
0,
0,
0,
0,
0,
0,
0,
0,
0,
0,
0,
0,
0,
0,
0,
0,
0,
0,
0,
0,
0,
0,
0,
0,
0,
0,
0,
0,
0,
0,
0,
0,
0,
0,
0,
0,
0,
0,
0,
0,
0,
0,
0,
0,
0,
0,
0,
0,
0,
0,
0,
0,
0,
0,
0,
0,
0,
0,
0,
1,
0,
0,
0,
0,
0,
0,
0,
0,
0,
0,
0,
0,
0,
0,
0,
0,
0,
0,
0,
0,
0,
0,
0,
0,
0,
0,
0,
0,
0,
0,
0,
0,
0,
0,
0,
0,
0,
0,
0,
0,
0,
1,
0,
0,
0,
0,
0,
0,
0,
0,
0,
0,
0,
0,
0,
0,
0,
0,
0,
0,
0,
0,
0,
0,
0,
0,
0,
0,
0,
0,
0,
0,
0,
0,
0,
0,
0,
0,
0,
0,
0,
0,
0,
0,
0,
0,
0,
0,
0,
0,
0,
0,
0,
0,
0,
0,
0,
0,
0,
0,
0,
0,
0,
0,
0,
0,
0,
0,
0,
0,
0,
0,
0,
0,
0,
0,
0,
0,
0,
0,
0,
0,
0,
0,
0,
0,
0,
0,
0,
0,
0,
0,
0,
0,
0,
0,
0,
0,
0,
0,
0,
0,
0,
0,
0,
0,
0,
0,
0,
0,
0,
0,
0,
0,
0,
0,
#ENDOFDATA   :