File: N132962/Standards/20 keV/Co std.msa
#FORMAT      : EMSA/MAS Spectral Data File
#VERSION     : 1.0
#TITLE       : Co std
#DATE        : 21-FEB-2025
#TIME        : 09:44
#OWNER       : Unknown
#NPOINTS     : 4096
#NCOLUMNS    : 1
#XUNITS      : eV
#YUNITS      : counts
#DATATYPE    : Y
#XPERCHAN    : 9.99778
#OFFSET      : 1.69135
#BEAMKV      : 20
#SIGNALTYPE  : EDS
#ELEVANGLE   : 35
#AZIMANGLE   : 0
#LIVETIME    : 1193.39
#REALTIME    : 1301
#PROBECUR    : 1.05789
#TAUWIND     : 0
#TDEADLYR    : 0
#TACTLYR     : 0.045
#TALWIND     : 0.025
#CHOFFSET    : 0.0
#XLABEL      : Energy (eV)
#YLABEL      : Counts
#EDSDET      : SD
##SPECIMEN   : Co std
##D2STDCMP   : Co,(Co:100.0),8.9
##DET_HASH   : 12273538-fd48-a23f-0a19-f1e6fa85caef
##CALIB_HASH : 6abaa72c-aa41-8738-0be9-f592914732f3
##WORKING    : 15.0 mm
##SAMPLE     : <BulkSample id="1">\n<mOrientation id="2">\n<double>0.0</double>\n<double>0.0</double>\n<double>-1.0</double>\n</mOrientation>\n</BulkSample>
##MULTISPEC  : 1.16555
##DET_NAME   : EDAX All
##DET_MODE   : MediumLE
#SPECTRUM    :
132,
160,
58,
145,
640,
2484,
6760,
15944,
34788,
44494,
30904,
24317,
26470,
28892,
31865,
36946,
48794,
61188,
60491,
58787,
84685,
181188,
335980,
372930,
463368,
894971,
1003948,
481868,
111790,
28836,
15962,
12745,
12266,
12386,
13055,
13765,
14333,
15051,
15640,
15746,
16757,
17350,
18364,
18843,
19668,
20304,
21137,
21970,
22856,
23626,
23783,
24633,
24016,
23807,
23417,
23821,
24913,
26084,
27306,
27623,
26911,
25820,
24551,
23927,
24006,
24083,
24657,
24981,
25341,
25161,
25371,
25689,
25607,
25739,
26122,
25967,
26506,
26679,
26624,
26092,
26176,
26617,
26342,
26253,
25955,
26461,
26710,
26664,
26512,
26276,
25844,
25989,
25630,
25818,
25612,
25223,
25319,
24778,
25201,
25041,
24904,
24594,
24740,
24479,
24599,
24081,
24018,
23854,
23923,
23852,
23678,
23343,
23639,
23705,
23475,
22961,
23085,
22598,
22678,
22363,
22120,
22143,
22059,
22158,
21896,
21694,
21603,
21269,
21249,
20954,
20709,
21060,
20842,
20679,
20491,
20134,
20275,
20028,
19883,
19813,
19561,
19536,
19506,
19494,
19049,
19104,
19021,
19096,
18745,
18629,
18373,
18080,
18336,
18037,
17971,
18066,
17917,
17857,
17736,
17431,
17518,
17289,
17216,
17130,
16934,
16916,
16963,
16655,
16601,
17042,
17453,
18143,
18740,
18840,
18027,
17168,
16410,
16360,
16637,
17668,
18325,
17854,
17266,
16057,
15239,
14938,
14701,
14939,
14777,
14658,
14642,
14710,
14472,
14454,
14635,
14856,
14805,
15308,
14719,
14678,
14112,
13950,
13808,
13331,
13460,
13389,
13182,
12955,
13092,
13331,
13777,
14798,
16123,
17059,
16828,
15759,
14316,
13573,
13108,
13186,
13126,
13500,
14298,
14968,
18091,
29367,
65727,
159435,
343466,
597810,
819803,
875890,
731592,
480514,
248739,
105253,
41305,
19180,
13237,
11482,
11313,
11020,
11017,
11245,
11363,
11527,
12089,
12890,
14017,
16556,
22240,
35080,
57919,
88150,
114310,
121919,
105855,
75402,
45225,
24509,
13846,
9599,
7914,
7281,
7272,
7214,
7113,
7262,
7197,
6992,
7101,
7217,
7188,
7004,
7149,
7166,
7093,
7130,
7234,
7080,
7205,
7073,
6956,
6938,
6698,
6721,
6661,
6592,
6554,
6514,
6639,
6438,
6515,
6481,
6446,
6381,
6284,
6359,
6064,
6186,
6332,
6145,
6124,
5993,
6049,
6035,
6077,
6041,
6054,
5993,
5958,
5785,
5899,
5842,
5736,
5691,
5775,
5585,
5750,
5826,
5653,
5618,
5547,
5601,
5586,
5426,
5401,
5291,
5323,
5465,
5294,
5279,
5262,
5368,
5217,
5188,
5112,
5059,
4961,
5088,
4986,
4932,
4860,
4962,
4859,
4932,
4790,
4877,
4771,
4770,
4692,
4594,
4583,
4613,
4619,
4507,
4516,
4520,
4418,
4370,
4432,
4363,
4352,
4322,
4272,
4225,
4208,
4188,
4177,
4169,
4118,
3889,
4007,
4060,
3938,
3833,
3876,
3852,
3861,
3894,
3743,
3723,
3612,
3720,
3680,
3770,
3577,
3582,
3671,
3480,
3447,
3443,
3467,
3442,
3472,
3458,
3355,
3282,
3275,
3165,
3314,
3328,
3277,
3205,
3130,
3166,
3198,
3042,
2977,
3017,
2970,
2975,
2912,
3009,
2961,
2980,
2928,
2788,
2767,
2772,
2749,
2747,
2741,
2665,
2652,
2568,
2633,
2635,
2616,
2487,
2569,
2510,
2477,
2502,
2382,
2338,
2400,
2358,
2264,
2230,
2319,
2233,
2244,
2176,
2187,
2214,
2178,
2213,
2213,
2097,
2149,
2025,
2095,
2039,
2043,
2064,
2149,
2166,
2246,
2441,
2618,
2531,
2672,
2500,
2424,
2144,
1986,
1869,
1794,
1809,
1694,
1641,
1662,
1668,
1643,
1640,
1590,
1583,
1507,
1582,
1547,
1592,
1569,
1552,
1697,
1661,
1672,
1679,
1568,
1535,
1492,
1364,
1397,
1348,
1348,
1312,
1335,
1315,
1322,
1207,
1279,
1222,
1263,
1200,
1130,
1165,
1200,
1156,
1069,
1156,
1156,
1045,
1055,
1095,
1097,
1066,
1011,
1051,
1068,
971,
1002,
933,
879,
1010,
942,
925,
954,
851,
895,
862,
858,
879,
892,
845,
796,
818,
813,
755,
810,
793,
738,
718,
743,
741,
722,
750,
694,
692,
731,
695,
663,
698,
585,
627,
647,
627,
582,
598,
596,
574,
561,
584,
600,
559,
597,
552,
539,
571,
556,
506,
481,
498,
534,
513,
449,
508,
483,
452,
450,
438,
441,
438,
392,
379,
397,
418,
371,
373,
373,
392,
345,
414,
355,
340,
377,
369,
321,
352,
333,
317,
291,
292,
285,
274,
278,
272,
264,
246,
278,
262,
259,
246,
244,
229,
207,
220,
224,
224,
210,
204,
187,
191,
177,
189,
166,
168,
176,
170,
170,
152,
154,
158,
141,
141,
128,
127,
98,
122,
113,
122,
93,
111,
112,
103,
87,
81,
99,
61,
77,
65,
72,
54,
51,
68,
57,
55,
46,
50,
44,
43,
39,
30,
30,
28,
24,
17,
16,
16,
15,
8,
14,
10,
14,
13,
13,
9,
9,
10,
9,
13,
14,
13,
9,
9,
5,
10,
8,
11,
9,
6,
10,
13,
5,
8,
7,
9,
4,
5,
5,
7,
6,
9,
10,
10,
7,
8,
13,
7,
9,
6,
9,
6,
9,
7,
5,
9,
6,
8,
3,
4,
6,
11,
8,
5,
10,
8,
3,
2,
9,
7,
7,
6,
7,
8,
8,
12,
5,
5,
5,
5,
8,
7,
8,
8,
4,
5,
4,
4,
4,
5,
4,
4,
4,
7,
2,
2,
9,
3,
6,
2,
5,
5,
2,
6,
8,
7,
3,
5,
4,
4,
7,
5,
7,
4,
3,
3,
2,
4,
0,
3,
4,
3,
5,
1,
4,
5,
2,
1,
4,
1,
3,
1,
3,
1,
1,
2,
4,
3,
1,
3,
6,
1,
3,
2,
4,
1,
0,
3,
3,
1,
1,
2,
4,
1,
1,
5,
3,
0,
1,
1,
1,
1,
4,
4,
2,
2,
4,
2,
4,
1,
4,
7,
3,
1,
3,
3,
7,
1,
3,
1,
1,
2,
1,
2,
0,
0,
1,
2,
4,
1,
1,
0,
2,
0,
1,
1,
1,
2,
0,
0,
1,
2,
2,
1,
2,
1,
2,
0,
0,
2,
1,
0,
0,
4,
0,
1,
0,
0,
2,
1,
1,
0,
0,
0,
0,
0,
1,
1,
1,
1,
0,
1,
0,
1,
0,
2,
2,
0,
1,
0,
1,
1,
1,
1,
2,
0,
0,
0,
0,
0,
1,
1,
0,
1,
0,
1,
0,
0,
1,
2,
1,
0,
0,
0,
0,
0,
0,
0,
0,
0,
0,
0,
0,
0,
0,
0,
0,
0,
0,
0,
1,
0,
0,
0,
1,
0,
0,
0,
0,
0,
0,
0,
0,
0,
0,
0,
0,
0,
1,
0,
0,
1,
0,
1,
0,
0,
0,
1,
0,
0,
0,
0,
0,
2,
1,
0,
2,
1,
1,
1,
0,
0,
0,
0,
1,
0,
0,
0,
0,
0,
0,
0,
0,
0,
0,
0,
0,
0,
0,
0,
0,
0,
0,
0,
0,
0,
0,
0,
0,
0,
0,
0,
0,
1,
0,
0,
0,
0,
0,
1,
0,
0,
0,
0,
0,
0,
0,
0,
0,
0,
0,
0,
0,
0,
0,
0,
0,
0,
1,
0,
0,
0,
0,
0,
0,
0,
0,
1,
0,
0,
0,
0,
1,
0,
2,
0,
0,
0,
0,
0,
0,
2,
0,
0,
0,
0,
0,
0,
0,
0,
0,
0,
0,
0,
0,
0,
0,
0,
0,
0,
0,
0,
0,
0,
0,
0,
0,
0,
0,
0,
0,
0,
0,
0,
0,
0,
0,
0,
0,
0,
1,
1,
0,
0,
0,
0,
0,
0,
0,
0,
0,
0,
0,
1,
0,
0,
0,
0,
0,
0,
0,
0,
0,
0,
0,
0,
0,
0,
0,
0,
0,
0,
0,
0,
0,
0,
0,
0,
0,
0,
0,
0,
0,
0,
0,
0,
0,
0,
0,
0,
0,
0,
0,
0,
0,
0,
0,
0,
0,
0,
0,
0,
0,
0,
0,
0,
0,
0,
0,
0,
0,
0,
0,
0,
0,
0,
0,
0,
0,
0,
0,
0,
0,
0,
0,
0,
0,
0,
0,
0,
0,
0,
0,
0,
0,
0,
0,
0,
0,
0,
0,
0,
0,
0,
0,
0,
0,
0,
0,
0,
0,
0,
0,
0,
0,
0,
0,
0,
0,
0,
0,
0,
0,
0,
0,
0,
0,
0,
0,
0,
0,
0,
0,
0,
0,
0,
0,
0,
0,
0,
0,
0,
0,
0,
0,
0,
0,
0,
0,
0,
0,
0,
0,
0,
0,
0,
0,
0,
0,
0,
0,
0,
0,
0,
0,
0,
0,
0,
0,
0,
0,
0,
0,
0,
0,
0,
0,
0,
0,
0,
0,
0,
0,
0,
0,
0,
0,
0,
0,
0,
0,
0,
0,
0,
0,
0,
0,
0,
0,
0,
0,
0,
0,
0,
0,
0,
0,
0,
0,
0,
0,
0,
0,
0,
0,
0,
0,
0,
0,
0,
0,
0,
0,
0,
0,
0,
0,
0,
0,
0,
0,
0,
0,
0,
0,
0,
0,
0,
0,
0,
0,
0,
0,
0,
0,
0,
0,
0,
0,
0,
0,
0,
0,
0,
0,
0,
0,
0,
0,
0,
0,
0,
0,
0,
0,
0,
#ENDOFDATA   :