File: N132962/Standards/20 keV/Cr std.msa
#FORMAT      : EMSA/MAS Spectral Data File
#VERSION     : 1.0
#TITLE       : Cr std
#DATE        : 20-FEB-2025
#TIME        : 16:50
#OWNER       : Unknown
#NPOINTS     : 4096
#NCOLUMNS    : 1
#XUNITS      : eV
#YUNITS      : counts
#DATATYPE    : Y
#XPERCHAN    : 9.99778
#OFFSET      : 1.69135
#BEAMKV      : 20
#SIGNALTYPE  : EDS
#ELEVANGLE   : 35
#AZIMANGLE   : 0
#LIVETIME    : 1199.09
#REALTIME    : 1312.2
#PROBECUR    : 1.04967
#TAUWIND     : 0
#TDEADLYR    : 0
#TACTLYR     : 0.045
#TALWIND     : 0.025
#CHOFFSET    : 0.0
#XLABEL      : Energy (eV)
#YLABEL      : Counts
#EDSDET      : SD
##SPECIMEN   : Cr std
##D2STDCMP   : Cr,(Cr:100.0),5.0
##DET_HASH   : 12273538-fd48-a23f-0a19-f1e6fa85caef
##CALIB_HASH : 6abaa72c-aa41-8738-0be9-f592914732f3
##WORKING    : 15.0 mm
##SAMPLE     : <BulkSample id="1">\n<mOrientation id="2">\n<double>0.0</double>\n<double>0.0</double>\n<double>-1.0</double>\n</mOrientation>\n</BulkSample>
##MULTISPEC  : 1.13889
##DET_NAME   : EDAX All
##DET_MODE   : MediumLE
#SPECTRUM    :
141,
160,
58,
125,
679,
2710,
7176,
15084,
28145,
35273,
31205,
30645,
35192,
43421,
75048,
195759,
391282,
447070,
499068,
505429,
235682,
51753,
16915,
13533,
12058,
10748,
10675,
11971,
13382,
13695,
13653,
13930,
14595,
15424,
16471,
17379,
18304,
18263,
19242,
19890,
20283,
21415,
21982,
22701,
23301,
23848,
24368,
24789,
26111,
28090,
28410,
27013,
26694,
26583,
26963,
28202,
31258,
38379,
41859,
38422,
33373,
30388,
28110,
27011,
26449,
26707,
27046,
27079,
27402,
27389,
27602,
27078,
27306,
27545,
27647,
27713,
27709,
28079,
27782,
27364,
27045,
26909,
26864,
26945,
26662,
26869,
26744,
26635,
26377,
26349,
26174,
26045,
26031,
25871,
25542,
25648,
25095,
24931,
24568,
24564,
24528,
24507,
24516,
23819,
24015,
23694,
23910,
23500,
23476,
23638,
23060,
23328,
22817,
22690,
22405,
22561,
22437,
22571,
22599,
23247,
24861,
27820,
29348,
28231,
25339,
22670,
21322,
20823,
20327,
20484,
20162,
20092,
20162,
20015,
19817,
19605,
19474,
19934,
19722,
19971,
19948,
19661,
18979,
18828,
18690,
18407,
18501,
18375,
18163,
18493,
18139,
17916,
17926,
17845,
17875,
17640,
17421,
17624,
17313,
16954,
16956,
16735,
16624,
16611,
17162,
16945,
17083,
16861,
16462,
16493,
16932,
17601,
18732,
20620,
25240,
41002,
99696,
273202,
627030,
1111072,
1457301,
1407732,
1000221,
527473,
212706,
72426,
27526,
17498,
15787,
15503,
15781,
16480,
18236,
23402,
36358,
66672,
115634,
171582,
200374,
180723,
127595,
71342,
34091,
17220,
11050,
9243,
8891,
8804,
8921,
9029,
9721,
10759,
12076,
12816,
12462,
11432,
10634,
9626,
8859,
8627,
8766,
8375,
8644,
8488,
8546,
8339,
8453,
8269,
8468,
8439,
8277,
8334,
8040,
8587,
8689,
8673,
8707,
8355,
8213,
8197,
7959,
8003,
7754,
7874,
7726,
7849,
7912,
8043,
8272,
8182,
8108,
7979,
7713,
7580,
7367,
7436,
7334,
7434,
7312,
7239,
7377,
7146,
6997,
7115,
7001,
7061,
6950,
6848,
6951,
6845,
6922,
6856,
6848,
6819,
6922,
6894,
6814,
6577,
6820,
6622,
6493,
6540,
6499,
6251,
6237,
6200,
6303,
6239,
6263,
6205,
6115,
6040,
5951,
6046,
5944,
5918,
5914,
5896,
5858,
5866,
5683,
5773,
5805,
5612,
5619,
5609,
5631,
5680,
5533,
5539,
5542,
5374,
5277,
5329,
5293,
5261,
5358,
5346,
5261,
5061,
5242,
5034,
5088,
5108,
5039,
4945,
4918,
4915,
4992,
4848,
4917,
4795,
4949,
4775,
4772,
4671,
4736,
4576,
4700,
4527,
4645,
4515,
4464,
4354,
4406,
4474,
4446,
4217,
4268,
4272,
4258,
4212,
4236,
4066,
4214,
4320,
4444,
4861,
5158,
5708,
6269,
6349,
6098,
5619,
4851,
4276,
4066,
3826,
3744,
3719,
3687,
3697,
3682,
3642,
3634,
3736,
3947,
3944,
4081,
4121,
3942,
3765,
3551,
3411,
3401,
3319,
3312,
3225,
3084,
3202,
3142,
3113,
3069,
3097,
3018,
3108,
3058,
2959,
3075,
2906,
2881,
2883,
2933,
2848,
2855,
2775,
2808,
2696,
2733,
2697,
2660,
2697,
2557,
2525,
2544,
2560,
2549,
2560,
2435,
2483,
2431,
2439,
2411,
2385,
2361,
2362,
2315,
2399,
2202,
2185,
2284,
2284,
2192,
2137,
2105,
2070,
2118,
2074,
2039,
2047,
2007,
2021,
1930,
1986,
1883,
1957,
1868,
1840,
1827,
1836,
1927,
1847,
1894,
1769,
1711,
1763,
1688,
1618,
1739,
1694,
1658,
1709,
1652,
1639,
1621,
1586,
1556,
1548,
1552,
1519,
1539,
1459,
1457,
1459,
1388,
1455,
1424,
1446,
1427,
1421,
1324,
1407,
1385,
1348,
1302,
1410,
1244,
1217,
1260,
1343,
1225,
1225,
1163,
1239,
1177,
1141,
1157,
1171,
1139,
1133,
1113,
1085,
1035,
1093,
1039,
1073,
1053,
992,
997,
971,
956,
979,
953,
962,
896,
894,
830,
914,
921,
774,
864,
837,
855,
833,
828,
808,
824,
795,
784,
719,
786,
736,
757,
744,
719,
714,
733,
667,
665,
670,
676,
661,
666,
606,
634,
649,
621,
629,
595,
583,
581,
559,
593,
536,
518,
565,
523,
528,
528,
506,
503,
515,
530,
550,
507,
468,
464,
436,
447,
468,
458,
386,
394,
435,
377,
393,
375,
390,
384,
383,
345,
340,
384,
345,
356,
385,
358,
336,
323,
307,
314,
299,
304,
290,
279,
292,
293,
270,
227,
238,
253,
248,
245,
251,
249,
247,
245,
236,
221,
212,
188,
206,
190,
203,
191,
186,
189,
181,
156,
178,
152,
186,
155,
169,
175,
146,
122,
136,
123,
147,
125,
129,
139,
106,
102,
116,
122,
98,
94,
92,
103,
75,
66,
78,
80,
63,
61,
72,
74,
56,
54,
56,
43,
57,
45,
48,
42,
27,
35,
33,
27,
11,
23,
22,
19,
13,
13,
8,
12,
14,
11,
11,
7,
12,
8,
8,
9,
8,
9,
13,
8,
7,
11,
8,
8,
4,
4,
9,
9,
11,
10,
11,
8,
7,
3,
7,
13,
7,
5,
5,
8,
4,
8,
6,
7,
2,
7,
1,
6,
0,
5,
4,
3,
4,
5,
8,
5,
3,
7,
7,
5,
4,
6,
5,
5,
8,
2,
5,
4,
8,
3,
2,
3,
2,
6,
3,
10,
3,
2,
9,
5,
1,
5,
3,
2,
4,
6,
8,
5,
3,
3,
3,
5,
9,
1,
4,
6,
2,
3,
2,
6,
3,
2,
0,
2,
4,
7,
1,
6,
2,
1,
2,
4,
0,
2,
1,
2,
1,
3,
1,
5,
2,
0,
1,
2,
2,
4,
3,
2,
1,
1,
2,
0,
5,
0,
2,
1,
1,
1,
0,
3,
0,
1,
1,
0,
0,
2,
3,
1,
0,
2,
2,
1,
1,
1,
0,
4,
0,
1,
2,
0,
1,
3,
1,
1,
0,
0,
1,
0,
0,
0,
0,
1,
0,
4,
0,
2,
2,
0,
2,
2,
0,
0,
0,
2,
0,
0,
0,
1,
1,
1,
0,
0,
1,
0,
0,
0,
0,
0,
0,
0,
1,
3,
0,
1,
1,
0,
0,
1,
0,
1,
0,
1,
0,
0,
2,
0,
2,
1,
0,
0,
2,
0,
0,
0,
0,
0,
0,
1,
0,
0,
1,
0,
1,
0,
1,
1,
0,
0,
0,
0,
0,
1,
0,
0,
0,
0,
0,
0,
0,
0,
1,
1,
0,
0,
0,
0,
0,
0,
0,
0,
0,
0,
0,
0,
1,
1,
0,
0,
0,
0,
0,
0,
1,
0,
0,
0,
0,
0,
0,
0,
0,
0,
0,
0,
0,
0,
0,
0,
0,
1,
0,
1,
0,
0,
0,
0,
0,
0,
0,
0,
0,
0,
1,
0,
0,
0,
1,
0,
0,
0,
0,
0,
0,
0,
1,
0,
0,
0,
0,
0,
0,
0,
0,
0,
0,
0,
0,
0,
0,
0,
0,
0,
0,
0,
0,
1,
0,
0,
0,
0,
0,
0,
0,
0,
0,
0,
0,
0,
0,
0,
0,
0,
0,
0,
0,
0,
0,
0,
0,
0,
1,
0,
0,
1,
1,
0,
0,
0,
0,
0,
0,
1,
0,
0,
0,
0,
0,
0,
0,
0,
0,
0,
0,
0,
0,
0,
0,
1,
0,
0,
0,
0,
0,
0,
0,
0,
0,
0,
0,
0,
0,
0,
0,
0,
0,
1,
0,
0,
0,
0,
0,
0,
0,
0,
0,
0,
0,
0,
0,
0,
0,
0,
0,
0,
0,
0,
0,
0,
0,
0,
0,
0,
0,
0,
0,
0,
0,
0,
0,
0,
0,
0,
0,
0,
0,
0,
0,
0,
0,
0,
0,
0,
0,
0,
0,
0,
0,
0,
0,
0,
0,
0,
0,
0,
0,
0,
0,
0,
0,
0,
0,
0,
0,
0,
0,
0,
0,
0,
0,
0,
0,
0,
0,
0,
0,
0,
0,
0,
0,
0,
0,
0,
0,
0,
0,
0,
0,
0,
0,
0,
0,
0,
0,
0,
0,
0,
0,
0,
0,
0,
0,
0,
0,
0,
0,
0,
0,
0,
0,
0,
0,
0,
0,
0,
0,
0,
0,
0,
0,
0,
0,
0,
0,
0,
0,
0,
0,
0,
0,
0,
0,
0,
0,
0,
0,
0,
0,
0,
0,
0,
0,
0,
0,
0,
0,
0,
0,
0,
0,
0,
0,
0,
0,
0,
0,
0,
0,
0,
0,
0,
0,
0,
0,
0,
0,
0,
0,
0,
0,
0,
0,
0,
0,
0,
0,
0,
0,
0,
0,
0,
0,
0,
0,
0,
0,
0,
0,
0,
0,
0,
0,
0,
0,
0,
0,
0,
0,
0,
0,
0,
0,
0,
0,
0,
0,
0,
0,
0,
0,
0,
0,
0,
0,
0,
0,
0,
0,
0,
0,
0,
0,
0,
0,
0,
0,
0,
0,
0,
0,
0,
0,
0,
0,
0,
0,
0,
0,
0,
0,
0,
0,
0,
0,
0,
0,
0,
0,
0,
0,
0,
0,
0,
0,
0,
0,
0,
0,
0,
0,
0,
0,
0,
0,
0,
0,
0,
0,
0,
0,
0,
0,
0,
0,
0,
0,
0,
0,
0,
0,
0,
0,
0,
0,
0,
0,
0,
0,
0,
0,
0,
0,
0,
0,
0,
0,
#ENDOFDATA   :