File: N132962/Standards/20 keV/Cryolite std.msa
#FORMAT      : EMSA/MAS Spectral Data File
#VERSION     : 1.0
#TITLE       : Cryolite std
#DATE        : 24-FEB-2025
#TIME        : 10:46
#OWNER       : Unknown
#NPOINTS     : 4096
#NCOLUMNS    : 1
#XUNITS      : eV
#YUNITS      : counts
#DATATYPE    : Y
#XPERCHAN    : 9.99778
#OFFSET      : 1.69135
#BEAMKV      : 20
#SIGNALTYPE  : EDS
#ELEVANGLE   : 35
#AZIMANGLE   : 0
#LIVETIME    : 959.356
#REALTIME    : 1035.75
#PROBECUR    : 1.03242
#TAUWIND     : 0
#TDEADLYR    : 0
#TACTLYR     : 0.045
#TALWIND     : 0.025
#CHOFFSET    : 0.0
#XLABEL      : Energy (eV)
#YLABEL      : Counts
#EDSDET      : SD
##SPECIMEN   : Cryolite std
##D2STDCMP   : Cryolite,(F:54.2963),(Na:32.8517),(Al:12.8519)
##DET_HASH   : 12273538-fd48-a23f-0a19-f1e6fa85caef
##CALIB_HASH : 6abaa72c-aa41-8738-0be9-f592914732f3
##WORKING    : 15.0 mm
##SAMPLE     : <BulkSample id="1">\n<mOrientation id="2">\n<double>0.0</double>\n<double>0.0</double>\n<double>-1.0</double>\n</mOrientation>\n</BulkSample>
##MULTISPEC  : 4.55737
##DET_NAME   : EDAX All
##DET_MODE   : MediumLE
#SPECTRUM    :
112,
136,
62,
113,
608,
2141,
4935,
9857,
19231,
23816,
17094,
13482,
14588,
15961,
18224,
21527,
26861,
33298,
41314,
67944,
229644,
925144,
2025313,
1783114,
588751,
80674,
12533,
9540,
10796,
12491,
16040,
23674,
65186,
263092,
648314,
720693,
346671,
77585,
14257,
8011,
7914,
8351,
9428,
11813,
16089,
18559,
19806,
43435,
142122,
286662,
292717,
151650,
48831,
17520,
11459,
10891,
13213,
14995,
13850,
11461,
10032,
9398,
8865,
8549,
8591,
8745,
8756,
9105,
9540,
9995,
10686,
11286,
11449,
10671,
9765,
9426,
9193,
9010,
9093,
9056,
9114,
9056,
9288,
9585,
9736,
9628,
9254,
8870,
8662,
8736,
8834,
8671,
8549,
8561,
8570,
8468,
8500,
8503,
8382,
8279,
8308,
8238,
8345,
8053,
8001,
7875,
7775,
7847,
7878,
7849,
7740,
7671,
7526,
7589,
7503,
7429,
7409,
7184,
7246,
7139,
7055,
7036,
6964,
6970,
7023,
6862,
6789,
6879,
6720,
6539,
6430,
6498,
6452,
6309,
6328,
6442,
6154,
6102,
6232,
6128,
6090,
6012,
5884,
6025,
5898,
5827,
5776,
5829,
5669,
5579,
5726,
5626,
5413,
5365,
5392,
5481,
5365,
5300,
5153,
5234,
5090,
5068,
4956,
5128,
4855,
4987,
4895,
4845,
4801,
4760,
4882,
4725,
4678,
4708,
4504,
4568,
4514,
4661,
4457,
4468,
4446,
4285,
4468,
4262,
4320,
4277,
4210,
4142,
4067,
4117,
4033,
4017,
4012,
4051,
3989,
4003,
3884,
3870,
3868,
3762,
3760,
3788,
3710,
3688,
3616,
3670,
3515,
3662,
3505,
3484,
3534,
3560,
3715,
3681,
3703,
3630,
3349,
3285,
3246,
3363,
3210,
3183,
3167,
3218,
3069,
3156,
3158,
3057,
3019,
3074,
2944,
2923,
3018,
3000,
2898,
2949,
2882,
2899,
2792,
2727,
2749,
2726,
2743,
2848,
2661,
2739,
2709,
2711,
2801,
2818,
2772,
2659,
2584,
2525,
2568,
2477,
2489,
2448,
2448,
2394,
2377,
2352,
2373,
2389,
2322,
2361,
2484,
2486,
2574,
2585,
2404,
2328,
2255,
2143,
2171,
2175,
2169,
2125,
2094,
2072,
2063,
2019,
1988,
2085,
2048,
2111,
2194,
2104,
2152,
1989,
2028,
1920,
1941,
1902,
1960,
1945,
1839,
1877,
1822,
1902,
1818,
1660,
1717,
1781,
1659,
1655,
1694,
1688,
1695,
1632,
1598,
1616,
1591,
1543,
1659,
1577,
1599,
1553,
1569,
1612,
1502,
1533,
1500,
1551,
1523,
1415,
1509,
1360,
1436,
1461,
1413,
1386,
1320,
1363,
1376,
1398,
1297,
1328,
1292,
1335,
1292,
1332,
1290,
1305,
1238,
1249,
1249,
1268,
1195,
1195,
1165,
1196,
1227,
1152,
1124,
1141,
1156,
1186,
1080,
1184,
1120,
1158,
1062,
1035,
1093,
1109,
1087,
1008,
992,
1044,
1004,
1046,
985,
1002,
996,
911,
998,
892,
875,
913,
919,
917,
913,
922,
885,
836,
929,
827,
865,
870,
852,
853,
797,
821,
847,
777,
797,
839,
758,
803,
744,
783,
742,
696,
752,
736,
778,
678,
722,
711,
677,
643,
653,
663,
724,
680,
719,
630,
630,
674,
656,
620,
635,
653,
586,
614,
592,
573,
570,
575,
539,
600,
581,
551,
529,
552,
543,
524,
509,
488,
464,
451,
561,
473,
544,
498,
451,
437,
497,
447,
398,
443,
434,
490,
449,
459,
405,
442,
456,
462,
431,
431,
379,
374,
391,
364,
391,
398,
402,
369,
356,
379,
389,
391,
368,
362,
361,
316,
325,
340,
364,
315,
351,
316,
296,
279,
321,
286,
308,
315,
292,
292,
275,
261,
298,
286,
293,
267,
262,
263,
273,
277,
244,
245,
251,
276,
236,
225,
260,
215,
208,
217,
243,
204,
191,
196,
184,
185,
197,
203,
192,
180,
181,
176,
177,
199,
181,
206,
175,
190,
182,
152,
143,
151,
145,
162,
173,
169,
160,
130,
128,
158,
143,
146,
161,
119,
121,
135,
132,
146,
123,
149,
135,
124,
130,
132,
122,
115,
118,
100,
122,
104,
119,
105,
116,
115,
97,
105,
90,
101,
95,
82,
95,
69,
94,
94,
81,
84,
74,
88,
83,
67,
71,
78,
84,
63,
61,
66,
66,
61,
60,
66,
56,
82,
45,
58,
69,
59,
55,
55,
53,
42,
45,
49,
55,
38,
39,
45,
53,
46,
38,
41,
40,
42,
39,
43,
38,
36,
32,
36,
35,
39,
35,
28,
26,
27,
35,
33,
32,
23,
29,
27,
22,
29,
22,
21,
22,
25,
16,
14,
17,
12,
21,
21,
15,
12,
10,
12,
9,
16,
11,
9,
9,
10,
7,
9,
4,
3,
8,
4,
3,
6,
3,
1,
4,
0,
2,
1,
1,
3,
2,
1,
0,
0,
0,
1,
2,
0,
1,
0,
0,
1,
0,
2,
1,
0,
1,
1,
0,
0,
0,
0,
0,
1,
0,
0,
0,
0,
0,
0,
0,
0,
0,
0,
0,
0,
0,
0,
0,
0,
0,
1,
2,
0,
0,
0,
0,
0,
0,
1,
0,
0,
0,
0,
0,
0,
0,
1,
0,
0,
0,
0,
0,
0,
1,
0,
0,
0,
0,
0,
0,
0,
0,
0,
0,
0,
0,
0,
0,
0,
0,
0,
0,
0,
0,
1,
0,
0,
2,
0,
0,
0,
0,
0,
0,
0,
0,
0,
0,
0,
0,
0,
0,
0,
0,
1,
0,
0,
0,
0,
0,
0,
0,
0,
0,
0,
0,
0,
0,
1,
0,
0,
0,
0,
1,
0,
0,
0,
1,
0,
0,
0,
0,
0,
1,
0,
0,
0,
0,
1,
0,
0,
0,
0,
0,
0,
0,
0,
0,
0,
0,
0,
0,
0,
0,
1,
0,
0,
0,
0,
0,
0,
0,
1,
0,
0,
0,
0,
0,
0,
1,
0,
0,
0,
0,
0,
0,
0,
0,
0,
0,
0,
0,
0,
0,
0,
0,
0,
0,
1,
0,
0,
0,
0,
0,
0,
0,
0,
0,
0,
0,
0,
0,
0,
0,
0,
0,
0,
0,
0,
0,
0,
0,
0,
0,
0,
0,
0,
0,
0,
0,
0,
0,
0,
0,
0,
0,
0,
0,
0,
0,
0,
0,
0,
0,
0,
0,
0,
0,
0,
0,
0,
0,
0,
0,
0,
0,
0,
0,
0,
0,
0,
0,
0,
0,
0,
0,
0,
0,
0,
1,
0,
0,
0,
0,
0,
0,
0,
0,
0,
0,
0,
0,
0,
0,
0,
0,
0,
0,
0,
0,
0,
0,
0,
0,
0,
0,
0,
0,
0,
0,
0,
0,
0,
0,
0,
0,
0,
0,
0,
0,
0,
0,
0,
0,
0,
0,
0,
0,
0,
0,
0,
0,
0,
0,
0,
0,
0,
0,
0,
0,
0,
0,
0,
0,
0,
0,
0,
0,
0,
0,
0,
0,
0,
0,
0,
0,
0,
0,
0,
0,
0,
0,
0,
0,
0,
0,
0,
0,
0,
0,
0,
0,
0,
0,
0,
0,
0,
0,
0,
0,
0,
0,
0,
0,
0,
0,
0,
0,
0,
0,
0,
0,
0,
0,
0,
0,
0,
0,
0,
0,
0,
0,
0,
0,
0,
0,
0,
0,
0,
0,
0,
0,
0,
0,
0,
0,
0,
0,
0,
0,
0,
0,
0,
0,
0,
0,
0,
0,
0,
0,
0,
0,
0,
0,
0,
0,
0,
0,
0,
0,
0,
0,
0,
0,
0,
0,
0,
0,
0,
0,
0,
0,
0,
0,
0,
0,
0,
0,
0,
0,
0,
0,
0,
0,
0,
0,
0,
0,
0,
1,
0,
0,
0,
0,
0,
0,
0,
0,
0,
0,
0,
0,
0,
0,
0,
0,
0,
0,
0,
0,
0,
0,
0,
0,
0,
0,
0,
0,
0,
0,
0,
0,
0,
0,
0,
0,
0,
0,
0,
0,
0,
0,
0,
0,
0,
0,
0,
0,
0,
0,
0,
0,
0,
0,
0,
0,
0,
0,
0,
0,
0,
0,
0,
0,
0,
0,
0,
0,
0,
0,
0,
0,
0,
0,
0,
0,
0,
0,
0,
0,
0,
0,
0,
0,
0,
0,
0,
0,
0,
0,
0,
0,
0,
0,
0,
0,
0,
0,
0,
0,
0,
0,
0,
0,
0,
0,
0,
0,
0,
0,
0,
0,
0,
0,
0,
0,
0,
0,
0,
0,
0,
0,
0,
0,
0,
0,
0,
0,
0,
0,
0,
0,
0,
0,
0,
0,
0,
0,
0,
0,
0,
0,
0,
0,
0,
0,
0,
0,
0,
0,
0,
0,
0,
0,
0,
0,
0,
0,
0,
0,
0,
0,
0,
0,
0,
0,
0,
0,
0,
0,
0,
0,
0,
0,
0,
0,
0,
0,
0,
0,
0,
0,
0,
0,
0,
0,
0,
0,
0,
0,
0,
0,
0,
0,
0,
0,
0,
0,
0,
0,
0,
0,
0,
0,
0,
0,
0,
0,
0,
0,
0,
0,
0,
0,
0,
0,
0,
0,
0,
0,
0,
0,
0,
0,
0,
0,
0,
0,
0,
0,
0,
0,
0,
0,
0,
0,
0,
0,
0,
0,
0,
0,
0,
0,
0,
#ENDOFDATA   :