File: N132962/Standards/20 keV/CsBr std.msa
#FORMAT      : EMSA/MAS Spectral Data File
#VERSION     : 1.0
#TITLE       : CsBr std
#DATE        : 12-SEP-2025
#TIME        : 11:03
#OWNER       : Unknown
#NPOINTS     : 4096
#NCOLUMNS    : 1
#XUNITS      : eV
#YUNITS      : counts
#DATATYPE    : Y
#XPERCHAN    : 9.99778
#OFFSET      : 1.69135
#BEAMKV      : 20
#SIGNALTYPE  : EDS
#ELEVANGLE   : 35
#AZIMANGLE   : 0
#LIVETIME    : 2395.44
#REALTIME    : 2660.15
#PROBECUR    : 1.23977
#TAUWIND     : 0
#TDEADLYR    : 0
#TACTLYR     : 0.045
#TALWIND     : 0.025
#CHOFFSET    : 0.0
#XLABEL      : Energy (eV)
#YLABEL      : Counts
#EDSDET      : SD
##SPECIMEN   : CsBr std
##D2STDCMP   : CsBr,(Br:37.5475),(Cs:62.4525),5.0
##DET_HASH   : 12273538-fd48-a23f-0a19-f1e6fa85caef
##CALIB_HASH : 6abaa72c-aa41-8738-0be9-f592914732f3
##WORKING    : 15.0 mm
##SAMPLE     : <BulkSample id="1">\n<mOrientation id="2">\n<double>0.0</double>\n<double>0.0</double>\n<double>-1.0</double>\n</mOrientation>\n</BulkSample>
##MULTISPEC  : 1.73358
##DET_NAME   : EDAX All
##DET_MODE   : MediumLE
#SPECTRUM    :
292,
326,
305,
560,
2417,
9370,
23315,
50103,
102108,
122898,
80988,
58793,
59273,
62527,
66161,
76910,
109941,
188995,
279063,
265928,
167973,
118975,
125083,
153140,
155805,
111631,
75880,
66432,
69853,
76069,
88928,
95772,
91040,
84527,
76953,
70168,
66446,
65518,
67325,
69073,
73319,
82190,
105743,
129109,
129218,
116009,
124982,
265406,
734886,
1343607,
1445317,
997896,
495819,
211153,
110757,
78121,
71084,
73966,
77133,
76528,
72920,
67009,
63127,
60563,
61084,
62401,
63063,
64771,
65723,
66599,
66914,
67799,
68251,
69338,
69726,
70242,
70684,
71224,
71233,
71217,
71529,
72329,
73715,
77675,
82024,
83196,
79998,
76583,
74874,
73884,
73593,
73874,
74154,
74722,
75690,
78088,
78090,
77957,
76863,
77046,
76593,
75330,
74358,
73863,
73820,
74162,
74340,
74617,
73843,
73056,
72723,
72149,
71633,
71565,
71630,
71462,
71881,
71262,
71207,
70892,
70517,
70897,
71901,
74995,
83177,
97141,
109533,
111746,
99606,
83856,
75075,
71019,
69807,
69570,
70517,
73274,
78850,
88997,
107859,
168601,
346786,
699617,
1100460,
1248890,
1005559,
587329,
269930,
126127,
82796,
78822,
102254,
175229,
327386,
522944,
639611,
598874,
455100,
311614,
212656,
149114,
111625,
104652,
132436,
189564,
240937,
246153,
197199,
131385,
84252,
61889,
55015,
54307,
57259,
67341,
87191,
110432,
122010,
112121,
88788,
67165,
55203,
52205,
56959,
65303,
73818,
75115,
69881,
60000,
52974,
49611,
48794,
48102,
45945,
44484,
42733,
41990,
41402,
40986,
41209,
40531,
40602,
40594,
40307,
40622,
40558,
40539,
39953,
39863,
39693,
39869,
41083,
42577,
44639,
46265,
45683,
43437,
41198,
39253,
38586,
37468,
37498,
37612,
37326,
37140,
37449,
36749,
36501,
36714,
36835,
36127,
36168,
35880,
35810,
36238,
36642,
36442,
35927,
35693,
34925,
35227,
34379,
34196,
34219,
34381,
34017,
34595,
34315,
35081,
36011,
36277,
35613,
34519,
33494,
33063,
32538,
31897,
32135,
31951,
31851,
31888,
31338,
31143,
31473,
31219,
30959,
30720,
30494,
30480,
30630,
29775,
30304,
30243,
30011,
29507,
29724,
29444,
29200,
29420,
29094,
28928,
28627,
28409,
28627,
28111,
28361,
28321,
28202,
28112,
27720,
27388,
27132,
26804,
27090,
26672,
26998,
26715,
26709,
26543,
26812,
26235,
25828,
25932,
25643,
25523,
25150,
25003,
25059,
24855,
24932,
24752,
24550,
24321,
24077,
24000,
23783,
23890,
23729,
23816,
23735,
23508,
23232,
23340,
22818,
22996,
22622,
22548,
22363,
22339,
22331,
22047,
22037,
21831,
21750,
21591,
21399,
21270,
21175,
21262,
21275,
20889,
20631,
20363,
20278,
19882,
20123,
19742,
19695,
19658,
19676,
19388,
19230,
19295,
18927,
19177,
18736,
18454,
18437,
18336,
18213,
18199,
18221,
18312,
17785,
17966,
17521,
17276,
17492,
17385,
17230,
16850,
16702,
17217,
16700,
16517,
16606,
16278,
16369,
16034,
16068,
15951,
15821,
15629,
15596,
15521,
15461,
15192,
15286,
15345,
15812,
16663,
19379,
25394,
36329,
53260,
74853,
96184,
110238,
111618,
98907,
78080,
56091,
37318,
25219,
18523,
15057,
13854,
13294,
13129,
12926,
12905,
12625,
12887,
12585,
12341,
12250,
12151,
12183,
12020,
12021,
11893,
11672,
11713,
11504,
11731,
11531,
11144,
11295,
11175,
10887,
10928,
11089,
10776,
10650,
10644,
10432,
10773,
11156,
11808,
13423,
15767,
18698,
21032,
23096,
22858,
21314,
18873,
15846,
13736,
12113,
10870,
10000,
9511,
9056,
8743,
8474,
8239,
8322,
8307,
8117,
8107,
8153,
7924,
7711,
7655,
7868,
7811,
7576,
7396,
7546,
7267,
7320,
7255,
7378,
7131,
6976,
6883,
6825,
6845,
6786,
6774,
6557,
6666,
6474,
6425,
6429,
6384,
6302,
6175,
6035,
6168,
6033,
6075,
5844,
5954,
5769,
5887,
5608,
5731,
5638,
5458,
5453,
5421,
5295,
5217,
5216,
5212,
5137,
4929,
5050,
4927,
4848,
4762,
4798,
4667,
4753,
4556,
4627,
4497,
4458,
4349,
4277,
4376,
4336,
4276,
4159,
4103,
4108,
3992,
4013,
3975,
3898,
3852,
3804,
3783,
3767,
3698,
3746,
3641,
3601,
3614,
3590,
3597,
3482,
3467,
3320,
3337,
3283,
3287,
3105,
3075,
3122,
3052,
3017,
3035,
2995,
2866,
2863,
2800,
2819,
2718,
2800,
2687,
2678,
2579,
2597,
2588,
2515,
2505,
2441,
2368,
2387,
2310,
2289,
2229,
2237,
2251,
2104,
2198,
2110,
2135,
2020,
2072,
2027,
1887,
1894,
1935,
1896,
1823,
1804,
1819,
1779,
1763,
1704,
1657,
1606,
1572,
1563,
1548,
1550,
1491,
1420,
1455,
1310,
1439,
1303,
1281,
1294,
1261,
1325,
1221,
1201,
1225,
1138,
1145,
1056,
1041,
1070,
1018,
1055,
1025,
983,
921,
886,
918,
889,
875,
773,
751,
851,
716,
733,
760,
661,
681,
650,
602,
600,
574,
551,
550,
533,
535,
500,
479,
479,
434,
399,
400,
417,
362,
353,
311,
273,
266,
266,
239,
202,
202,
193,
166,
139,
147,
113,
87,
74,
80,
60,
64,
65,
56,
40,
55,
56,
49,
39,
43,
51,
45,
44,
42,
35,
35,
53,
45,
38,
46,
39,
47,
46,
50,
40,
46,
35,
51,
31,
38,
32,
38,
46,
39,
34,
32,
43,
33,
43,
34,
34,
41,
29,
34,
38,
25,
52,
49,
31,
31,
32,
32,
20,
29,
23,
24,
28,
31,
28,
39,
29,
19,
18,
31,
37,
26,
37,
27,
20,
35,
25,
34,
26,
31,
20,
31,
18,
20,
21,
22,
34,
27,
20,
32,
29,
29,
20,
26,
22,
17,
21,
26,
17,
16,
22,
21,
16,
19,
14,
26,
17,
22,
19,
23,
14,
14,
12,
15,
8,
9,
19,
12,
23,
17,
11,
17,
21,
15,
9,
9,
12,
17,
8,
13,
20,
25,
17,
17,
20,
21,
20,
20,
9,
17,
13,
12,
8,
10,
8,
11,
5,
10,
6,
12,
9,
10,
15,
11,
13,
8,
15,
8,
8,
16,
15,
9,
8,
10,
18,
17,
13,
9,
14,
12,
6,
9,
3,
16,
7,
10,
9,
14,
13,
12,
12,
12,
5,
13,
16,
12,
6,
14,
21,
7,
9,
10,
11,
9,
10,
4,
7,
4,
9,
6,
14,
2,
5,
10,
10,
5,
10,
6,
6,
6,
7,
12,
9,
5,
6,
7,
7,
3,
6,
4,
7,
7,
10,
6,
3,
6,
5,
4,
9,
7,
7,
3,
7,
5,
3,
5,
6,
5,
5,
4,
4,
7,
1,
4,
3,
3,
4,
5,
3,
3,
4,
6,
5,
9,
4,
8,
2,
3,
6,
4,
5,
4,
3,
2,
4,
1,
3,
3,
5,
4,
2,
3,
3,
7,
8,
7,
7,
2,
4,
4,
3,
6,
0,
5,
3,
1,
5,
6,
2,
1,
3,
2,
0,
3,
4,
1,
1,
3,
1,
3,
2,
5,
2,
0,
2,
1,
2,
1,
2,
3,
1,
4,
0,
3,
1,
3,
2,
2,
3,
2,
2,
3,
1,
0,
1,
2,
1,
1,
2,
1,
1,
2,
2,
0,
1,
2,
2,
2,
1,
1,
2,
0,
0,
1,
1,
1,
2,
1,
2,
2,
1,
0,
3,
4,
1,
2,
0,
1,
0,
0,
1,
3,
3,
2,
0,
1,
1,
2,
0,
2,
0,
0,
0,
1,
2,
0,
1,
2,
0,
0,
1,
1,
0,
0,
2,
0,
0,
0,
0,
0,
0,
1,
2,
0,
0,
0,
1,
0,
1,
0,
0,
1,
0,
0,
0,
0,
1,
0,
1,
0,
1,
0,
1,
0,
0,
1,
0,
0,
0,
0,
0,
0,
0,
0,
0,
0,
1,
1,
0,
1,
0,
1,
0,
1,
0,
0,
0,
1,
0,
1,
0,
1,
0,
2,
0,
0,
0,
1,
0,
0,
0,
0,
1,
0,
0,
0,
0,
1,
0,
0,
0,
2,
0,
0,
0,
0,
0,
0,
0,
0,
0,
1,
0,
0,
0,
0,
0,
0,
0,
0,
0,
0,
0,
1,
0,
1,
0,
0,
0,
0,
0,
0,
0,
0,
0,
0,
0,
0,
0,
0,
0,
0,
0,
0,
0,
0,
0,
0,
1,
0,
0,
0,
0,
0,
0,
0,
0,
0,
0,
0,
0,
0,
0,
0,
0,
0,
0,
0,
0,
1,
0,
0,
0,
1,
0,
0,
0,
0,
0,
0,
0,
0,
0,
0,
0,
0,
0,
0,
1,
0,
0,
0,
0,
0,
0,
1,
0,
0,
0,
0,
0,
0,
0,
0,
0,
0,
0,
0,
0,
0,
0,
0,
0,
0,
0,
0,
0,
0,
0,
0,
0,
0,
0,
0,
0,
0,
0,
1,
0,
0,
0,
0,
1,
0,
0,
0,
0,
0,
0,
0,
0,
0,
0,
0,
0,
0,
0,
0,
0,
0,
0,
0,
0,
0,
0,
0,
0,
0,
0,
0,
0,
0,
0,
0,
0,
0,
0,
0,
0,
0,
0,
0,
0,
0,
0,
0,
0,
0,
0,
0,
0,
0,
0,
0,
0,
0,
0,
0,
0,
0,
0,
0,
0,
0,
0,
0,
0,
0,
0,
0,
0,
0,
1,
0,
0,
0,
0,
0,
0,
0,
0,
0,
0,
0,
0,
0,
0,
0,
0,
0,
0,
0,
0,
0,
0,
0,
0,
0,
0,
0,
0,
0,
0,
0,
0,
0,
0,
0,
0,
0,
0,
0,
0,
0,
0,
0,
#ENDOFDATA   :