File: N132962/Standards/20 keV/CsI std.msa
#FORMAT      : EMSA/MAS Spectral Data File
#VERSION     : 1.0
#TITLE       : CsI std
#DATE        : 21-MAR-2025
#TIME        : 14:29
#OWNER       : Unknown
#NPOINTS     : 4096
#NCOLUMNS    : 1
#XUNITS      : eV
#YUNITS      : counts
#DATATYPE    : Y
#XPERCHAN    : 9.99778
#OFFSET      : 1.69135
#BEAMKV      : 20
#SIGNALTYPE  : EDS
#ELEVANGLE   : 35
#AZIMANGLE   : 0
#LIVETIME    : 958.41
#REALTIME    : 1057.4
#PROBECUR    : 1.02926
#TAUWIND     : 0
#TDEADLYR    : 0
#TACTLYR     : 0.045
#TALWIND     : 0.025
#CHOFFSET    : 0.0
#XLABEL      : Energy (eV)
#YLABEL      : Counts
#EDSDET      : SD
##SPECIMEN   : CsI std
##D2STDCMP   : CsI,(I:48.8451),(Cs:51.1549)
##DET_HASH   : 12273538-fd48-a23f-0a19-f1e6fa85caef
##CALIB_HASH : 6abaa72c-aa41-8738-0be9-f592914732f3
##WORKING    : 15.0 mm
##SAMPLE     : <BulkSample id="1">\n<mOrientation id="2">\n<double>0.0</double>\n<double>0.0</double>\n<double>-1.0</double>\n</mOrientation>\n</BulkSample>
##MULTISPEC  : 0.917527
##DET_NAME   : EDAX All
##DET_MODE   : MediumLE
#SPECTRUM    :
102,
143,
82,
291,
2538,
12376,
29722,
47957,
73532,
81362,
55039,
40101,
38623,
40850,
53481,
93104,
139018,
149077,
149749,
134012,
87977,
53196,
35497,
31769,
32162,
26850,
22705,
24392,
26166,
27451,
31877,
33459,
29360,
25642,
23761,
20720,
18891,
18376,
18678,
19034,
19466,
20060,
20491,
21278,
21700,
22252,
23252,
23729,
24722,
25553,
25888,
25872,
26250,
26320,
26662,
27873,
28618,
30586,
32416,
32576,
31018,
29427,
28336,
27648,
27340,
27405,
28019,
28157,
28548,
29022,
29520,
30162,
31967,
32882,
32677,
31355,
30159,
30087,
30072,
30438,
30640,
31142,
32480,
33160,
33782,
33736,
32626,
31316,
30825,
30242,
30339,
30528,
30434,
30225,
30532,
30738,
31240,
30633,
30063,
30049,
30213,
29842,
29758,
29282,
29103,
28995,
29200,
29394,
29183,
29101,
28746,
28642,
28832,
30137,
32833,
37876,
41442,
39808,
35706,
30996,
28845,
28140,
28360,
29879,
34255,
40693,
48020,
58212,
87072,
167015,
294326,
384425,
354451,
231367,
114760,
55245,
39568,
47085,
78269,
146968,
256621,
382349,
473902,
469547,
360817,
215110,
106687,
59219,
53746,
68328,
87190,
102823,
123795,
155281,
175186,
161439,
123737,
89512,
69991,
60078,
54381,
49321,
49002,
56088,
65234,
66067,
56187,
42995,
33451,
28316,
24405,
21325,
20313,
22097,
26274,
31690,
34354,
31941,
25691,
20311,
17084,
16704,
17655,
20321,
22261,
22726,
21408,
19167,
17195,
16275,
15808,
15312,
15066,
14200,
14035,
14361,
14022,
14044,
13716,
13927,
14108,
13920,
13926,
13959,
13707,
13690,
13660,
13795,
14008,
13948,
14258,
14525,
15003,
15489,
15116,
14388,
14149,
13587,
13469,
13294,
13312,
13220,
13339,
13296,
12992,
13061,
12830,
13058,
12955,
12993,
12897,
12887,
12854,
12678,
12837,
12694,
12649,
12826,
12281,
12479,
12268,
12251,
12232,
12180,
12142,
12234,
12492,
12731,
13186,
13255,
12816,
12688,
11994,
11914,
11736,
11513,
11483,
11518,
11397,
11299,
11399,
11507,
11360,
11542,
11506,
11476,
11506,
11543,
11534,
11535,
11434,
11241,
11135,
11244,
11219,
11126,
10875,
10785,
10404,
10691,
10691,
10480,
10693,
10600,
10533,
10779,
10544,
10619,
10449,
10224,
10148,
10137,
9978,
9995,
9957,
9921,
9880,
9927,
9758,
9557,
9506,
9452,
9487,
9293,
9372,
9459,
9397,
9056,
9129,
9099,
8973,
8851,
8801,
8604,
8759,
8671,
8752,
8758,
8814,
8608,
8527,
8475,
8440,
8296,
8396,
8298,
8201,
8199,
8162,
8191,
8026,
7973,
7943,
7778,
7912,
7920,
7709,
7784,
7542,
7828,
7587,
7524,
7492,
7528,
7482,
7504,
7112,
7371,
7257,
7102,
7089,
7183,
7123,
7018,
7003,
6920,
6808,
6863,
6654,
6726,
6797,
6717,
6495,
6720,
6595,
6570,
6443,
6462,
6437,
6229,
6328,
6277,
6223,
6108,
6043,
6188,
6117,
5988,
5964,
5956,
5851,
5960,
5869,
5902,
5705,
5801,
5657,
5638,
5527,
5466,
5488,
5376,
5377,
5410,
5331,
5306,
5249,
5182,
5120,
5113,
5092,
5011,
4998,
4936,
4928,
4982,
4848,
4873,
4778,
4761,
4701,
4571,
4689,
4605,
4534,
4546,
4630,
4517,
4444,
4484,
4329,
4484,
4283,
4381,
4157,
4217,
4191,
4236,
3998,
4038,
4086,
4056,
3999,
3916,
3997,
3927,
3871,
3818,
3701,
3731,
3635,
3641,
3705,
3566,
3530,
3673,
3474,
3428,
3386,
3539,
3275,
3375,
3357,
3342,
3370,
3178,
3109,
3067,
3159,
3139,
3146,
3031,
3090,
2897,
3117,
2976,
2913,
2838,
2933,
2945,
2809,
2739,
2759,
2699,
2625,
2680,
2646,
2682,
2668,
2536,
2639,
2555,
2470,
2574,
2442,
2482,
2455,
2335,
2350,
2326,
2308,
2354,
2339,
2340,
2297,
2229,
2264,
2214,
2154,
2099,
2076,
2059,
2118,
2061,
1976,
2032,
1896,
1917,
1947,
1821,
1903,
1935,
1938,
1791,
1877,
1890,
1858,
1831,
1702,
1710,
1722,
1694,
1697,
1640,
1639,
1691,
1637,
1613,
1573,
1506,
1515,
1499,
1535,
1482,
1409,
1391,
1416,
1368,
1336,
1321,
1315,
1384,
1245,
1286,
1298,
1315,
1175,
1240,
1208,
1245,
1311,
1182,
1149,
1128,
1209,
1062,
1086,
1099,
1068,
1049,
1081,
1025,
1039,
1021,
1030,
953,
900,
971,
960,
954,
915,
899,
862,
898,
845,
854,
829,
840,
854,
868,
827,
799,
744,
743,
726,
760,
714,
683,
747,
744,
676,
723,
682,
645,
636,
613,
599,
617,
616,
593,
575,
541,
580,
583,
529,
494,
509,
468,
526,
478,
486,
487,
447,
435,
423,
413,
383,
372,
401,
360,
376,
378,
382,
339,
364,
342,
339,
298,
316,
261,
305,
297,
262,
286,
273,
263,
241,
221,
239,
224,
188,
216,
187,
191,
177,
177,
176,
175,
156,
145,
130,
137,
116,
94,
99,
104,
82,
87,
69,
70,
70,
57,
53,
46,
31,
29,
25,
21,
15,
17,
17,
18,
11,
16,
10,
15,
10,
13,
15,
13,
13,
12,
13,
14,
18,
15,
15,
17,
17,
6,
12,
17,
12,
13,
17,
15,
9,
14,
12,
8,
13,
12,
12,
13,
17,
13,
15,
13,
10,
9,
8,
9,
11,
14,
22,
6,
9,
9,
6,
5,
9,
11,
9,
8,
5,
10,
7,
8,
8,
7,
7,
11,
7,
5,
8,
9,
7,
7,
7,
8,
9,
10,
7,
7,
4,
4,
9,
9,
12,
7,
5,
4,
8,
6,
5,
8,
9,
10,
3,
5,
5,
4,
2,
5,
4,
5,
6,
4,
5,
2,
2,
4,
4,
5,
3,
6,
7,
3,
1,
3,
4,
4,
6,
4,
5,
3,
5,
3,
1,
1,
3,
7,
3,
4,
4,
6,
2,
6,
0,
3,
0,
5,
3,
2,
5,
3,
1,
2,
2,
4,
2,
2,
3,
1,
3,
3,
1,
5,
6,
2,
3,
2,
2,
1,
2,
2,
3,
3,
2,
3,
2,
2,
2,
5,
5,
2,
5,
5,
4,
2,
1,
7,
1,
2,
0,
3,
4,
5,
4,
2,
5,
2,
0,
4,
2,
3,
2,
3,
3,
3,
5,
5,
5,
4,
2,
0,
1,
3,
0,
2,
2,
4,
1,
2,
3,
2,
2,
3,
2,
3,
2,
1,
4,
2,
1,
3,
0,
1,
3,
1,
0,
0,
3,
5,
0,
2,
1,
2,
1,
1,
2,
1,
1,
1,
2,
0,
2,
3,
2,
3,
1,
2,
3,
0,
1,
0,
2,
0,
0,
2,
1,
2,
2,
1,
2,
2,
1,
1,
1,
1,
0,
1,
2,
1,
1,
1,
3,
0,
1,
0,
1,
0,
1,
2,
1,
1,
1,
0,
1,
0,
0,
0,
0,
0,
0,
1,
1,
1,
0,
1,
0,
1,
0,
1,
1,
1,
0,
0,
0,
0,
1,
1,
1,
0,
1,
0,
0,
2,
0,
0,
0,
0,
0,
0,
0,
0,
0,
0,
2,
0,
0,
0,
1,
0,
1,
0,
0,
1,
1,
0,
0,
1,
0,
0,
1,
2,
0,
1,
0,
0,
1,
0,
0,
0,
0,
0,
1,
1,
0,
0,
0,
0,
0,
1,
1,
0,
0,
0,
0,
0,
0,
0,
0,
0,
0,
0,
0,
1,
0,
0,
0,
0,
0,
1,
1,
0,
1,
0,
0,
0,
0,
0,
0,
0,
0,
0,
0,
0,
1,
0,
0,
0,
0,
0,
0,
0,
0,
0,
1,
0,
0,
0,
1,
0,
0,
0,
0,
0,
0,
1,
1,
0,
1,
0,
0,
0,
0,
0,
1,
0,
0,
0,
0,
0,
0,
1,
1,
0,
0,
0,
0,
0,
0,
0,
0,
0,
0,
0,
0,
0,
0,
0,
0,
0,
0,
1,
0,
0,
0,
0,
0,
0,
0,
0,
0,
0,
0,
0,
0,
0,
0,
0,
1,
0,
0,
0,
0,
0,
0,
0,
0,
0,
0,
0,
0,
0,
0,
0,
0,
0,
0,
0,
0,
0,
0,
0,
0,
0,
0,
0,
0,
0,
0,
0,
0,
0,
0,
0,
0,
0,
0,
0,
0,
0,
0,
0,
0,
0,
0,
0,
0,
0,
0,
0,
0,
0,
0,
0,
0,
0,
0,
0,
0,
0,
0,
0,
0,
0,
0,
0,
0,
0,
0,
0,
0,
0,
0,
0,
0,
0,
0,
0,
0,
0,
0,
0,
0,
0,
0,
0,
0,
0,
0,
0,
0,
0,
0,
0,
0,
0,
0,
0,
0,
0,
0,
0,
0,
0,
0,
0,
0,
0,
0,
0,
0,
0,
0,
0,
0,
0,
0,
0,
0,
0,
0,
0,
0,
0,
0,
0,
0,
0,
0,
0,
0,
0,
0,
0,
0,
0,
0,
0,
0,
0,
0,
0,
0,
0,
0,
0,
0,
0,
0,
0,
0,
0,
0,
0,
0,
0,
0,
0,
0,
0,
0,
0,
0,
0,
0,
0,
0,
0,
0,
0,
0,
0,
0,
0,
0,
0,
0,
0,
0,
0,
0,
0,
0,
0,
0,
0,
0,
0,
0,
0,
0,
0,
0,
0,
0,
0,
0,
0,
0,
0,
0,
0,
0,
0,
0,
0,
0,
0,
0,
0,
0,
0,
0,
0,
0,
0,
0,
0,
0,
0,
0,
0,
0,
0,
0,
0,
0,
0,
0,
0,
0,
0,
#ENDOFDATA   :