File: N132962/Standards/20 keV/Cu std.msa
#FORMAT      : EMSA/MAS Spectral Data File
#VERSION     : 1.0
#TITLE       : Cu std
#DATE        : 21-FEB-2025
#TIME        : 09:32
#OWNER       : Unknown
#NPOINTS     : 4096
#NCOLUMNS    : 1
#XUNITS      : eV
#YUNITS      : counts
#DATATYPE    : Y
#XPERCHAN    : 9.99778
#OFFSET      : 1.69135
#BEAMKV      : 20
#SIGNALTYPE  : EDS
#ELEVANGLE   : 35
#AZIMANGLE   : 0
#LIVETIME    : 719.216
#REALTIME    : 797.4771
#PROBECUR    : 1.05789
#TAUWIND     : 0
#TDEADLYR    : 0
#TACTLYR     : 0.045
#TALWIND     : 0.025
#CHOFFSET    : 0.0
#XLABEL      : Energy (eV)
#YLABEL      : Counts
#EDSDET      : SD
##SPECIMEN   : Cu std
##D2STDCMP   : Cu,(Cu:100.0)
##DET_HASH   : 12273538-fd48-a23f-0a19-f1e6fa85caef
##CALIB_HASH : 6abaa72c-aa41-8738-0be9-f592914732f3
##WORKING    : 15.0 mm
##SAMPLE     : <BulkSample id="1">\n<mOrientation id="2">\n<double>0.0</double>\n<double>0.0</double>\n<double>-1.0</double>\n</mOrientation>\n</BulkSample>
##MULTISPEC  : 12.9057
##DET_NAME   : EDAX All
##DET_MODE   : MediumLE
#SPECTRUM    :
79,
95,
30,
94,
452,
1781,
4660,
13240,
35833,
46528,
26022,
14565,
16437,
18461,
17152,
20348,
31896,
46527,
40163,
28161,
25894,
27936,
31470,
35707,
42932,
68935,
136175,
190792,
194985,
400963,
1073549,
1476907,
876409,
233768,
41300,
14212,
9711,
8778,
8538,
9104,
9504,
9606,
9973,
10202,
10567,
10981,
11221,
11826,
12295,
13266,
13393,
13168,
12972,
13177,
13558,
14186,
15946,
17475,
18265,
17897,
18305,
19474,
19596,
17299,
15365,
14195,
14472,
14447,
14299,
14627,
15004,
14898,
15075,
15359,
15799,
16035,
16652,
17061,
16947,
15989,
15730,
15813,
15627,
15627,
16047,
16172,
16417,
16882,
16550,
16147,
15841,
15619,
15581,
15646,
15752,
15642,
15638,
15490,
15635,
15418,
15421,
15292,
15309,
15320,
15125,
15211,
14939,
15142,
14962,
14961,
15030,
14745,
14874,
14518,
14537,
14333,
14163,
14208,
14219,
14295,
14076,
13960,
14046,
13943,
13908,
13669,
13548,
13693,
13510,
13412,
13200,
13339,
13019,
13286,
13093,
12959,
12755,
12894,
12511,
12564,
12758,
12385,
12474,
12362,
12294,
12152,
12422,
12119,
12077,
11878,
11884,
11680,
11655,
11753,
11469,
11541,
11492,
11348,
11049,
11238,
11247,
11059,
10944,
10691,
10662,
10786,
10655,
10765,
10708,
10490,
10334,
10467,
10408,
10153,
10247,
10277,
10242,
9984,
10123,
10161,
10311,
10333,
9978,
9899,
9560,
9453,
9513,
9415,
9297,
9330,
9371,
9373,
9231,
9063,
9120,
9051,
9221,
9198,
9147,
8898,
8800,
8659,
8711,
8608,
8495,
8615,
8427,
8508,
8824,
9133,
9608,
9683,
10527,
10441,
10164,
9532,
8838,
8114,
7802,
7819,
7757,
7596,
7726,
7503,
7565,
7474,
7360,
7301,
7371,
7512,
7390,
7321,
7379,
7341,
7369,
7304,
7257,
7335,
6861,
6929,
7016,
6744,
6748,
6559,
6708,
6897,
6678,
6924,
7081,
7047,
6946,
6730,
6659,
6734,
6369,
6664,
6721,
6736,
6920,
6987,
7657,
9437,
15464,
32334,
72515,
144543,
242852,
328170,
359624,
317877,
226056,
130649,
63321,
27474,
12379,
7531,
6194,
5799,
5810,
5620,
5646,
5636,
5534,
5418,
5609,
5720,
5605,
5648,
5755,
5928,
6594,
7900,
11187,
17684,
28222,
40271,
49459,
51305,
44762,
32892,
21100,
12442,
7540,
5088,
4187,
4095,
3780,
3675,
3723,
3775,
3659,
3765,
3642,
3657,
3648,
3595,
3619,
3595,
3594,
3537,
3650,
3562,
3732,
3659,
3539,
3770,
3756,
3750,
3715,
3721,
3575,
3509,
3424,
3371,
3269,
3254,
3330,
3302,
3241,
3322,
3185,
3191,
3174,
3214,
3147,
3101,
3121,
3161,
3048,
3022,
3018,
2922,
3051,
2955,
2873,
2945,
2930,
2906,
2824,
2874,
2802,
2810,
2806,
2779,
2709,
2755,
2653,
2684,
2736,
2730,
2769,
2612,
2515,
2660,
2558,
2564,
2596,
2474,
2542,
2392,
2443,
2479,
2425,
2444,
2431,
2374,
2255,
2430,
2384,
2300,
2249,
2043,
2282,
2281,
2147,
2276,
2252,
2189,
2161,
2204,
2071,
2149,
2059,
2032,
2029,
2077,
2021,
2003,
2001,
1984,
1946,
1922,
1921,
1929,
1845,
1895,
1863,
1933,
1879,
1818,
1808,
1785,
1760,
1786,
1780,
1740,
1741,
1697,
1619,
1691,
1709,
1609,
1630,
1601,
1580,
1561,
1566,
1553,
1570,
1538,
1562,
1547,
1590,
1489,
1582,
1520,
1425,
1477,
1442,
1437,
1393,
1374,
1323,
1328,
1349,
1324,
1238,
1297,
1254,
1265,
1248,
1270,
1281,
1262,
1176,
1193,
1243,
1212,
1139,
1256,
1164,
1129,
1070,
1080,
1095,
1030,
1073,
1047,
1029,
1064,
992,
1057,
1065,
973,
1023,
990,
967,
1028,
931,
901,
941,
923,
899,
879,
845,
897,
831,
883,
819,
851,
825,
888,
794,
815,
817,
795,
789,
810,
735,
744,
753,
741,
751,
714,
670,
752,
669,
687,
684,
639,
650,
641,
633,
660,
639,
631,
612,
628,
573,
598,
604,
634,
645,
701,
678,
734,
753,
707,
676,
629,
606,
523,
569,
483,
511,
483,
458,
502,
440,
453,
435,
413,
448,
443,
419,
403,
457,
469,
398,
371,
383,
371,
452,
401,
457,
446,
468,
408,
361,
386,
305,
327,
335,
320,
311,
295,
288,
310,
329,
283,
282,
304,
276,
263,
273,
284,
275,
260,
239,
249,
231,
218,
236,
248,
239,
189,
212,
209,
215,
214,
218,
207,
188,
212,
173,
193,
180,
164,
171,
153,
183,
169,
163,
131,
143,
142,
159,
135,
146,
128,
135,
129,
117,
134,
126,
107,
110,
115,
125,
116,
110,
91,
86,
106,
89,
89,
76,
87,
68,
75,
70,
72,
71,
56,
58,
47,
62,
57,
42,
52,
45,
35,
40,
32,
41,
42,
34,
26,
27,
18,
29,
18,
21,
13,
12,
8,
9,
6,
14,
12,
11,
6,
3,
4,
11,
11,
14,
5,
3,
9,
9,
8,
8,
8,
16,
7,
9,
5,
7,
2,
6,
7,
10,
6,
5,
8,
2,
8,
8,
7,
4,
5,
7,
7,
1,
7,
4,
9,
8,
5,
6,
4,
7,
5,
4,
4,
4,
6,
10,
5,
6,
5,
1,
5,
9,
1,
9,
3,
6,
5,
3,
4,
3,
6,
3,
3,
4,
3,
1,
6,
4,
4,
7,
6,
3,
5,
5,
6,
3,
1,
7,
3,
2,
5,
0,
4,
1,
3,
2,
3,
5,
3,
3,
5,
1,
4,
0,
2,
2,
6,
3,
1,
4,
2,
4,
5,
3,
4,
1,
0,
2,
2,
3,
4,
4,
3,
4,
0,
0,
3,
0,
3,
0,
1,
1,
0,
2,
3,
3,
4,
2,
1,
2,
3,
3,
1,
3,
2,
2,
2,
1,
1,
2,
3,
1,
1,
0,
2,
2,
1,
2,
1,
0,
0,
2,
5,
5,
2,
4,
5,
4,
5,
1,
1,
2,
2,
3,
1,
1,
3,
2,
1,
3,
1,
0,
2,
3,
0,
2,
2,
2,
2,
1,
0,
2,
1,
1,
1,
0,
1,
0,
2,
2,
1,
0,
0,
1,
1,
1,
0,
2,
0,
1,
2,
0,
1,
2,
2,
3,
0,
1,
1,
0,
3,
1,
0,
1,
1,
0,
1,
1,
0,
1,
0,
1,
0,
1,
0,
0,
1,
1,
1,
0,
0,
1,
1,
1,
0,
1,
0,
0,
0,
1,
1,
0,
2,
0,
0,
0,
1,
1,
1,
2,
0,
0,
0,
0,
0,
0,
0,
1,
0,
1,
0,
0,
0,
0,
0,
1,
0,
0,
1,
0,
0,
0,
0,
0,
0,
1,
0,
0,
0,
0,
1,
0,
2,
0,
0,
1,
1,
0,
0,
0,
0,
0,
0,
0,
0,
1,
1,
0,
1,
0,
0,
0,
0,
0,
0,
0,
0,
0,
0,
0,
0,
0,
0,
1,
0,
0,
0,
0,
0,
0,
0,
0,
0,
0,
0,
0,
0,
0,
0,
0,
0,
0,
0,
0,
0,
0,
0,
0,
0,
1,
0,
1,
0,
0,
0,
0,
0,
0,
0,
0,
0,
0,
0,
0,
0,
1,
0,
1,
0,
0,
0,
0,
0,
0,
0,
0,
0,
0,
0,
0,
0,
0,
0,
0,
0,
0,
0,
0,
0,
0,
0,
0,
0,
0,
0,
0,
0,
0,
0,
0,
0,
0,
0,
0,
0,
0,
0,
0,
0,
0,
0,
0,
0,
0,
0,
0,
0,
0,
0,
0,
0,
0,
0,
0,
0,
0,
0,
0,
0,
0,
0,
0,
0,
0,
0,
0,
0,
0,
0,
0,
0,
0,
0,
0,
0,
0,
0,
0,
1,
0,
0,
0,
0,
0,
0,
0,
0,
0,
0,
1,
0,
0,
0,
0,
0,
0,
0,
0,
0,
0,
0,
0,
0,
0,
0,
0,
0,
0,
0,
0,
0,
0,
0,
0,
0,
0,
0,
0,
0,
0,
0,
0,
0,
0,
0,
0,
0,
0,
0,
0,
0,
0,
0,
0,
0,
0,
0,
0,
0,
0,
0,
0,
0,
0,
0,
0,
0,
0,
0,
0,
0,
0,
0,
0,
0,
0,
0,
0,
0,
0,
0,
0,
0,
0,
0,
0,
0,
0,
0,
0,
0,
0,
0,
0,
0,
0,
0,
0,
0,
0,
0,
0,
0,
0,
0,
0,
0,
0,
0,
0,
0,
0,
0,
0,
0,
0,
0,
0,
0,
0,
0,
0,
0,
0,
0,
0,
0,
0,
0,
0,
0,
0,
0,
0,
0,
0,
0,
0,
0,
0,
0,
0,
0,
0,
0,
0,
0,
0,
0,
0,
0,
0,
0,
0,
0,
0,
0,
0,
0,
0,
0,
0,
0,
0,
0,
0,
0,
0,
0,
0,
0,
0,
0,
0,
0,
0,
0,
0,
0,
0,
0,
0,
0,
0,
0,
0,
0,
0,
0,
0,
0,
0,
0,
0,
0,
0,
0,
0,
0,
0,
0,
0,
0,
0,
0,
0,
0,
0,
0,
0,
0,
0,
0,
0,
0,
0,
0,
0,
0,
0,
0,
0,
0,
0,
0,
0,
0,
0,
0,
0,
0,
0,
0,
0,
0,
0,
0,
0,
0,
0,
0,
0,
0,
0,
0,
0,
0,
0,
0,
0,
0,
0,
0,
#ENDOFDATA   :