File: N132962/Standards/20 keV/Dy std.msa
#FORMAT      : EMSA/MAS Spectral Data File
#VERSION     : 1.0
#TITLE       : Dy std
#DATE        : 20-FEB-2025
#TIME        : 13:26
#OWNER       : Unknown
#NPOINTS     : 4096
#NCOLUMNS    : 1
#XUNITS      : eV
#YUNITS      : counts
#DATATYPE    : Y
#XPERCHAN    : 9.99778
#OFFSET      : 1.69135
#BEAMKV      : 20
#SIGNALTYPE  : EDS
#ELEVANGLE   : 35
#AZIMANGLE   : 0
#LIVETIME    : 719.8913
#REALTIME    : 796.782
#PROBECUR    : 1.04644
#TAUWIND     : 0
#TDEADLYR    : 0
#TACTLYR     : 0.045
#TALWIND     : 0.025
#CHOFFSET    : 0.0
#XLABEL      : Energy (eV)
#YLABEL      : Counts
#EDSDET      : SD
##SPECIMEN   : Dy std
##D2STDCMP   : Dy,(Dy:100.0),5.0
##DET_HASH   : 12273538-fd48-a23f-0a19-f1e6fa85caef
##CALIB_HASH : 6abaa72c-aa41-8738-0be9-f592914732f3
##WORKING    : 15.0 mm
##SAMPLE     : <BulkSample id="1">\n<mOrientation id="2">\n<double>0.0</double>\n<double>0.0</double>\n<double>-1.0</double>\n</mOrientation>\n</BulkSample>
##MULTISPEC  : 1.46467
##DET_NAME   : EDAX All
##DET_MODE   : MediumLE
#SPECTRUM    :
93,
101,
41,
131,
781,
2492,
6043,
13960,
29050,
36740,
26390,
20752,
21342,
22104,
23061,
28200,
47118,
68995,
56869,
34316,
29744,
35694,
46339,
46893,
37668,
33886,
34259,
36275,
38281,
39833,
43606,
61738,
108892,
157425,
134811,
78707,
51088,
44390,
44195,
46505,
56564,
90912,
168040,
252540,
252628,
155607,
62687,
26593,
21557,
26393,
32681,
32306,
25723,
21175,
21563,
23459,
24836,
24135,
22631,
21061,
19215,
17583,
16317,
15748,
15947,
15937,
16353,
16743,
16955,
16799,
16786,
16993,
17142,
17301,
17788,
17894,
18181,
18463,
18431,
18422,
18186,
18586,
18855,
18982,
19224,
19473,
19569,
19678,
19883,
20096,
19706,
19823,
19952,
19665,
20037,
19966,
19926,
20339,
20606,
20392,
20505,
20582,
20831,
20561,
20305,
20628,
20552,
20576,
20347,
20288,
20660,
20466,
20141,
20655,
20375,
20654,
20379,
20544,
20647,
20254,
20578,
20099,
20413,
20442,
20406,
20269,
20330,
20330,
20095,
20152,
20045,
20098,
19985,
20126,
19778,
19985,
19747,
19663,
19648,
19364,
19690,
19460,
19569,
19501,
19247,
18922,
19339,
18967,
19090,
19043,
19046,
18743,
18807,
18862,
19022,
18762,
18948,
19596,
19453,
19319,
19159,
18710,
18343,
18268,
18194,
18228,
17892,
17754,
17946,
17683,
17748,
17494,
17619,
17440,
17265,
17163,
17455,
17533,
17365,
17413,
17575,
17660,
17708,
17308,
17269,
17130,
16958,
17559,
18906,
21586,
24860,
27418,
27134,
24502,
21122,
18528,
17288,
16549,
16150,
15797,
15743,
15654,
15740,
15492,
15531,
15634,
15453,
15725,
15894,
16988,
18970,
26106,
45569,
87107,
157318,
236776,
287791,
275775,
207229,
125875,
64803,
32601,
19957,
15894,
14704,
14295,
14320,
13953,
13739,
13735,
13791,
13834,
13930,
14109,
14436,
15585,
18890,
27832,
46307,
75778,
109355,
132476,
131792,
110944,
82303,
59811,
44862,
34192,
26606,
22397,
22328,
28135,
38642,
50573,
57966,
55159,
45691,
32584,
22583,
16503,
13090,
11606,
10567,
9989,
10001,
9800,
9834,
9906,
9862,
9898,
10002,
10412,
10313,
10351,
10394,
10903,
12505,
15369,
19827,
24171,
26552,
25812,
22194,
17566,
13833,
11322,
10549,
10786,
11616,
13045,
14231,
14550,
13997,
12566,
11029,
9600,
9126,
8616,
8595,
8914,
9178,
8873,
8672,
8364,
7935,
7815,
7691,
7597,
7541,
7549,
7687,
7693,
7538,
7448,
7367,
7364,
7419,
7270,
7249,
7413,
7346,
7116,
7150,
7201,
7105,
7211,
7196,
7053,
6979,
6983,
7091,
6885,
6793,
6794,
6932,
6866,
6766,
6735,
6783,
6544,
6568,
6571,
6510,
6573,
6575,
6524,
6352,
6339,
6290,
6376,
6264,
6316,
6123,
6298,
6151,
6244,
6086,
6024,
5941,
6069,
6033,
5992,
5812,
5971,
5868,
5717,
5725,
5809,
5694,
5790,
5598,
5603,
5565,
5540,
5470,
5447,
5375,
5492,
5258,
5314,
5282,
5181,
5287,
5356,
5179,
5068,
5031,
5081,
4998,
5050,
4968,
4894,
4842,
4951,
4944,
4751,
4844,
4725,
4669,
4657,
4584,
4589,
4649,
4558,
4533,
4408,
4376,
4415,
4245,
4432,
4462,
4358,
4182,
4348,
4143,
4100,
4152,
4117,
4136,
4067,
4015,
4041,
3820,
4052,
3938,
3888,
3830,
3787,
3743,
3962,
3819,
3820,
3831,
3789,
3722,
3679,
3491,
3537,
3529,
3384,
3405,
3467,
3406,
3227,
3340,
3284,
3280,
3248,
3114,
3196,
3143,
3182,
3075,
3148,
3097,
3135,
3172,
3069,
3007,
2983,
2984,
2974,
2967,
2901,
2755,
2785,
2775,
2750,
2747,
2715,
2692,
2633,
2655,
2553,
2546,
2490,
2538,
2495,
2472,
2431,
2488,
2347,
2393,
2338,
2411,
2330,
2289,
2243,
2212,
2235,
2249,
2162,
2183,
2169,
2160,
2152,
2085,
2072,
2016,
2036,
2058,
1958,
1981,
1982,
1839,
1885,
1860,
1921,
1870,
1857,
1796,
1801,
1651,
1779,
1804,
1761,
1669,
1693,
1679,
1616,
1610,
1685,
1633,
1548,
1487,
1583,
1532,
1484,
1376,
1414,
1513,
1449,
1344,
1396,
1410,
1388,
1349,
1320,
1314,
1300,
1346,
1239,
1313,
1235,
1252,
1151,
1217,
1270,
1214,
1146,
1144,
1169,
1143,
1135,
1111,
1109,
1072,
1026,
1073,
1013,
1055,
1011,
998,
995,
1030,
947,
898,
976,
931,
863,
896,
884,
872,
844,
823,
853,
826,
804,
817,
816,
744,
762,
764,
770,
744,
691,
701,
762,
653,
675,
662,
677,
668,
630,
637,
598,
590,
584,
600,
580,
535,
548,
537,
512,
547,
516,
491,
517,
483,
478,
507,
465,
435,
445,
426,
429,
401,
416,
387,
406,
401,
348,
356,
363,
345,
347,
329,
352,
331,
317,
285,
280,
278,
264,
272,
230,
251,
240,
264,
231,
197,
236,
191,
179,
208,
181,
181,
141,
145,
150,
134,
134,
140,
102,
112,
87,
106,
91,
92,
77,
76,
59,
62,
50,
38,
37,
28,
37,
20,
29,
21,
18,
23,
17,
18,
15,
19,
28,
26,
17,
9,
19,
22,
21,
18,
15,
14,
18,
15,
17,
19,
15,
16,
24,
26,
21,
12,
19,
12,
23,
13,
16,
21,
13,
11,
12,
13,
17,
17,
10,
10,
15,
14,
11,
14,
8,
13,
16,
19,
16,
12,
16,
9,
12,
18,
15,
9,
11,
12,
14,
13,
15,
10,
6,
13,
18,
12,
18,
6,
10,
5,
12,
7,
16,
17,
8,
7,
7,
13,
11,
9,
5,
11,
5,
13,
11,
12,
7,
8,
9,
8,
9,
7,
13,
10,
7,
10,
10,
10,
11,
7,
9,
5,
11,
9,
8,
8,
5,
10,
5,
8,
5,
5,
6,
5,
2,
7,
6,
8,
13,
4,
8,
9,
6,
6,
7,
6,
5,
6,
6,
4,
8,
6,
6,
4,
12,
4,
13,
6,
4,
3,
6,
6,
3,
1,
11,
3,
4,
6,
7,
4,
4,
4,
6,
7,
7,
10,
4,
2,
5,
8,
5,
1,
3,
2,
3,
7,
6,
3,
5,
3,
5,
6,
6,
4,
4,
4,
6,
2,
5,
3,
6,
7,
3,
4,
3,
1,
2,
4,
2,
4,
1,
3,
3,
1,
2,
2,
5,
2,
4,
7,
4,
7,
3,
2,
4,
2,
1,
3,
2,
4,
4,
3,
4,
2,
2,
1,
1,
1,
3,
4,
3,
1,
0,
2,
2,
0,
2,
1,
0,
3,
1,
2,
3,
0,
1,
0,
2,
3,
5,
2,
0,
1,
1,
2,
1,
1,
3,
3,
1,
2,
3,
2,
0,
1,
0,
0,
4,
1,
1,
0,
0,
3,
0,
4,
0,
1,
1,
2,
0,
1,
2,
1,
2,
3,
0,
1,
0,
0,
2,
0,
1,
1,
0,
2,
0,
1,
2,
1,
1,
4,
0,
1,
1,
2,
2,
1,
0,
1,
2,
1,
0,
0,
1,
0,
1,
1,
2,
0,
0,
0,
0,
1,
1,
0,
0,
1,
0,
1,
0,
1,
3,
0,
0,
2,
0,
1,
0,
0,
1,
1,
1,
1,
0,
0,
0,
1,
0,
0,
0,
0,
0,
0,
0,
2,
0,
0,
0,
1,
1,
0,
0,
1,
2,
0,
0,
0,
0,
0,
1,
0,
1,
2,
0,
0,
0,
0,
1,
0,
0,
0,
0,
0,
0,
0,
1,
0,
0,
0,
0,
2,
0,
0,
0,
1,
0,
0,
0,
0,
1,
0,
0,
0,
0,
0,
0,
0,
0,
0,
0,
0,
0,
0,
0,
0,
0,
0,
0,
1,
0,
1,
0,
0,
0,
1,
0,
1,
0,
0,
0,
0,
0,
0,
0,
0,
0,
0,
1,
0,
1,
0,
0,
0,
0,
0,
0,
0,
1,
0,
0,
0,
0,
0,
0,
0,
0,
0,
0,
0,
1,
1,
0,
2,
1,
0,
0,
0,
0,
0,
1,
0,
0,
0,
0,
0,
0,
0,
0,
0,
0,
0,
0,
1,
0,
0,
0,
0,
0,
1,
0,
0,
0,
0,
1,
0,
0,
0,
0,
0,
0,
0,
0,
0,
0,
0,
0,
1,
0,
0,
0,
0,
0,
0,
0,
0,
0,
0,
0,
0,
0,
0,
0,
0,
0,
0,
0,
0,
0,
0,
0,
0,
0,
0,
0,
0,
0,
0,
0,
0,
0,
0,
0,
0,
0,
0,
0,
0,
0,
0,
0,
0,
0,
0,
0,
0,
0,
0,
0,
0,
0,
0,
0,
0,
0,
0,
0,
0,
0,
0,
0,
0,
0,
0,
0,
0,
0,
0,
0,
0,
0,
0,
0,
0,
0,
0,
0,
0,
0,
0,
0,
0,
0,
0,
0,
0,
0,
0,
0,
0,
0,
0,
0,
0,
0,
0,
0,
0,
0,
0,
0,
0,
0,
0,
0,
0,
0,
0,
0,
0,
0,
0,
0,
0,
0,
0,
0,
0,
0,
0,
0,
0,
0,
0,
0,
0,
0,
0,
0,
0,
0,
0,
0,
0,
0,
0,
0,
0,
0,
0,
0,
0,
0,
0,
0,
0,
0,
0,
0,
0,
0,
0,
0,
0,
0,
0,
0,
0,
0,
0,
0,
0,
0,
0,
0,
0,
0,
0,
0,
0,
0,
0,
0,
0,
0,
0,
0,
0,
0,
0,
0,
0,
0,
0,
0,
0,
0,
0,
0,
0,
0,
0,
0,
0,
0,
0,
0,
#ENDOFDATA   :