File: N132962/Standards/20 keV/EuF3 std.msa
#FORMAT      : EMSA/MAS Spectral Data File
#VERSION     : 1.0
#TITLE       : EuF3 std
#DATE        : 19-MAR-2025
#TIME        : 17:25
#OWNER       : Unknown
#NPOINTS     : 4096
#NCOLUMNS    : 1
#XUNITS      : eV
#YUNITS      : counts
#DATATYPE    : Y
#XPERCHAN    : 9.99778
#OFFSET      : 1.69135
#BEAMKV      : 20
#SIGNALTYPE  : EDS
#ELEVANGLE   : 35
#AZIMANGLE   : 0
#LIVETIME    : 1199.57
#REALTIME    : 1303.14
#PROBECUR    : 1.03276
#TAUWIND     : 0
#TDEADLYR    : 0
#TACTLYR     : 0.045
#TALWIND     : 0.025
#CHOFFSET    : 0.0
#XLABEL      : Energy (eV)
#YLABEL      : Counts
#EDSDET      : SD
##SPECIMEN   : EuF3 std
##D2STDCMP   : EuF3,(F:27.2758),(Eu:72.7242)
##DET_HASH   : 12273538-fd48-a23f-0a19-f1e6fa85caef
##CALIB_HASH : 6abaa72c-aa41-8738-0be9-f592914732f3
##WORKING    : 15.0 mm
##SAMPLE     : <BulkSample id="1">\n<mOrientation id="2">\n<double>0.0</double>\n<double>0.0</double>\n<double>-1.0</double>\n</mOrientation>\n</BulkSample>
##MULTISPEC  : 2.10539
##DET_NAME   : EDAX All
##DET_MODE   : MediumLE
#SPECTRUM    :
135,
145,
60,
204,
960,
3553,
9721,
23302,
48323,
60426,
44168,
35335,
35835,
36240,
38122,
41964,
47103,
53673,
55476,
64286,
132501,
422617,
872766,
759586,
265469,
60743,
41341,
64762,
115957,
144471,
108246,
66555,
49373,
45332,
48184,
60030,
103853,
181862,
219668,
159304,
72733,
33068,
25878,
29974,
38276,
40626,
33913,
29788,
31023,
32571,
30668,
27638,
25572,
24024,
23071,
23605,
24136,
25879,
27138,
27492,
26826,
25284,
24093,
22972,
22659,
23097,
23462,
23967,
24040,
24407,
24958,
24910,
24936,
25306,
25306,
25926,
26113,
25975,
26068,
26503,
26315,
26657,
26557,
26718,
26679,
26858,
26858,
26727,
27280,
27245,
27186,
27072,
26826,
27139,
27319,
27311,
27140,
27136,
27110,
27241,
27255,
27447,
27005,
26884,
26673,
26786,
26766,
27100,
26864,
26776,
26654,
26791,
26711,
26620,
26678,
26348,
26186,
26538,
26045,
26040,
25828,
26064,
25853,
25766,
25801,
25183,
25393,
25443,
25142,
25065,
24889,
24909,
25058,
25293,
25642,
25582,
26113,
26050,
25540,
24720,
24272,
24104,
23850,
23543,
23638,
23661,
23242,
23202,
22940,
23461,
22851,
22942,
22996,
22705,
22828,
22732,
23091,
22570,
22726,
22429,
22343,
21801,
21712,
21666,
21529,
21816,
21385,
21277,
22303,
23473,
26974,
31307,
35135,
34760,
31504,
26504,
23257,
21403,
20590,
20374,
20339,
20028,
19951,
19971,
19873,
20075,
19872,
20615,
21576,
25384,
38499,
74796,
151999,
262185,
359912,
380917,
309887,
194064,
99016,
46887,
26377,
20695,
18764,
18291,
18282,
17954,
17978,
17935,
18258,
19738,
23963,
37290,
66103,
112091,
160431,
186356,
173973,
135327,
95871,
68405,
50471,
37852,
28929,
25216,
27593,
37965,
54626,
70491,
75947,
68612,
51219,
34453,
23462,
17355,
14834,
14012,
13619,
13269,
13389,
13344,
13472,
13566,
13673,
14089,
14733,
17083,
21617,
28107,
34469,
36852,
34212,
27709,
21053,
16408,
14011,
14065,
15240,
17264,
19019,
19960,
19348,
17257,
14760,
13132,
12324,
12062,
12404,
12592,
12819,
12282,
11826,
10889,
10648,
10351,
10614,
10420,
10169,
10246,
10180,
10067,
9886,
10055,
9988,
9748,
9832,
9927,
9931,
9926,
9769,
9645,
9733,
9395,
9626,
9464,
9441,
9511,
9345,
9169,
9391,
9311,
9041,
9003,
9100,
9008,
8801,
8931,
8770,
8725,
8673,
8769,
8680,
8729,
8549,
8702,
8471,
8471,
8472,
8431,
8372,
8451,
8315,
8364,
8158,
8407,
8053,
8175,
8132,
7855,
7896,
7877,
7909,
7892,
7775,
7676,
7734,
7539,
7399,
7568,
7583,
7525,
7468,
7227,
7355,
7302,
7404,
7340,
7292,
7113,
7119,
7034,
6940,
6955,
6796,
6974,
6769,
6715,
6823,
6564,
6622,
6715,
6616,
6410,
6477,
6394,
6476,
6446,
6486,
6306,
6397,
6399,
6124,
6145,
6149,
5952,
6036,
6053,
5889,
5923,
5873,
5822,
5578,
5665,
5874,
5584,
5650,
5729,
5682,
5648,
5634,
5700,
5426,
5488,
5427,
5296,
5177,
5203,
5145,
5149,
5170,
5116,
4994,
4972,
4843,
4887,
4781,
4790,
4722,
4886,
4784,
4754,
4747,
4814,
4758,
4533,
4519,
4455,
4489,
4322,
4385,
4384,
4280,
4224,
4324,
4216,
4206,
4242,
4064,
4049,
3956,
3934,
4016,
3934,
3850,
3828,
3857,
3900,
3852,
3715,
3661,
3619,
3609,
3555,
3549,
3522,
3641,
3494,
3556,
3511,
3397,
3302,
3298,
3403,
3237,
3292,
3184,
3289,
3172,
3209,
3114,
3015,
3067,
3073,
3021,
3057,
2903,
2940,
2855,
2852,
2860,
2698,
2800,
2743,
2687,
2680,
2741,
2616,
2680,
2624,
2552,
2576,
2583,
2492,
2403,
2431,
2449,
2418,
2318,
2380,
2430,
2264,
2240,
2291,
2231,
2278,
2281,
2120,
2152,
2093,
1934,
2055,
2069,
1969,
1992,
1987,
1994,
1915,
1882,
1903,
1913,
1878,
1829,
1818,
1839,
1803,
1818,
1755,
1727,
1704,
1593,
1654,
1645,
1619,
1595,
1506,
1552,
1600,
1519,
1482,
1530,
1530,
1530,
1421,
1407,
1355,
1390,
1323,
1343,
1359,
1331,
1359,
1309,
1272,
1277,
1242,
1290,
1213,
1181,
1175,
1236,
1148,
1108,
1161,
1066,
1123,
1071,
1088,
1107,
1091,
1036,
1047,
992,
1005,
1068,
1028,
927,
940,
957,
959,
933,
931,
900,
861,
857,
855,
831,
797,
840,
759,
768,
734,
722,
761,
737,
738,
752,
707,
722,
697,
629,
644,
660,
632,
664,
631,
588,
623,
599,
528,
509,
553,
519,
532,
545,
544,
517,
490,
482,
453,
477,
428,
458,
423,
475,
425,
419,
380,
388,
341,
367,
371,
337,
364,
363,
341,
345,
305,
309,
293,
281,
308,
240,
270,
255,
274,
205,
222,
218,
197,
190,
213,
235,
201,
186,
173,
171,
163,
132,
159,
128,
114,
136,
117,
108,
111,
90,
79,
97,
90,
63,
58,
37,
56,
37,
36,
38,
28,
19,
18,
9,
18,
18,
9,
9,
15,
17,
13,
12,
14,
17,
13,
15,
13,
8,
13,
10,
20,
13,
9,
8,
14,
13,
13,
11,
9,
11,
13,
8,
8,
14,
9,
8,
7,
13,
12,
16,
14,
11,
15,
10,
5,
7,
11,
10,
10,
11,
8,
7,
12,
5,
11,
5,
5,
16,
13,
5,
7,
4,
7,
10,
6,
8,
6,
4,
8,
8,
6,
10,
7,
7,
4,
9,
7,
7,
13,
8,
4,
9,
5,
7,
8,
7,
4,
6,
7,
10,
1,
7,
9,
5,
6,
4,
2,
3,
5,
7,
7,
8,
9,
1,
5,
5,
10,
6,
7,
1,
5,
4,
0,
1,
8,
2,
2,
0,
5,
3,
2,
5,
3,
0,
3,
1,
3,
3,
4,
4,
3,
5,
5,
2,
4,
2,
5,
3,
2,
5,
3,
3,
4,
6,
3,
5,
4,
3,
1,
5,
2,
1,
6,
3,
7,
5,
2,
0,
3,
6,
0,
4,
2,
6,
3,
5,
5,
6,
2,
3,
5,
4,
2,
5,
2,
1,
3,
2,
6,
1,
2,
6,
2,
0,
2,
1,
0,
4,
1,
1,
1,
4,
2,
0,
2,
2,
1,
0,
2,
2,
2,
0,
1,
4,
2,
2,
2,
1,
1,
1,
1,
0,
3,
2,
2,
1,
0,
2,
0,
1,
1,
1,
1,
1,
0,
2,
1,
1,
0,
0,
1,
5,
1,
1,
0,
1,
0,
1,
1,
1,
1,
0,
0,
2,
1,
2,
1,
0,
1,
0,
1,
0,
1,
0,
3,
1,
1,
0,
0,
0,
1,
0,
0,
2,
0,
1,
1,
0,
0,
2,
0,
0,
0,
0,
0,
0,
1,
0,
2,
1,
1,
0,
3,
2,
0,
0,
0,
0,
1,
0,
0,
0,
0,
0,
0,
1,
1,
2,
1,
0,
0,
1,
0,
0,
1,
1,
0,
0,
0,
0,
0,
1,
0,
0,
0,
0,
1,
0,
0,
0,
0,
0,
1,
1,
1,
1,
0,
0,
0,
0,
1,
1,
0,
0,
0,
0,
0,
0,
0,
0,
0,
0,
0,
0,
0,
0,
0,
1,
0,
0,
0,
0,
0,
0,
0,
0,
0,
0,
0,
0,
0,
1,
0,
0,
1,
0,
0,
0,
0,
0,
0,
0,
0,
0,
0,
2,
0,
0,
1,
0,
0,
0,
0,
1,
0,
0,
0,
0,
0,
0,
0,
0,
0,
0,
0,
0,
0,
0,
0,
0,
0,
0,
0,
0,
1,
0,
0,
0,
0,
0,
0,
0,
0,
0,
0,
0,
0,
0,
0,
0,
0,
0,
0,
0,
0,
0,
0,
0,
0,
0,
1,
0,
0,
0,
0,
0,
0,
0,
0,
0,
0,
0,
0,
0,
0,
0,
0,
0,
0,
0,
0,
0,
0,
1,
0,
0,
0,
0,
0,
0,
0,
0,
0,
0,
0,
0,
0,
0,
0,
0,
1,
0,
0,
0,
0,
0,
0,
0,
0,
0,
0,
0,
0,
0,
0,
0,
0,
0,
0,
0,
0,
0,
0,
0,
0,
0,
0,
0,
0,
0,
0,
0,
0,
0,
0,
0,
0,
0,
0,
0,
0,
0,
0,
0,
0,
0,
0,
0,
0,
0,
0,
0,
0,
0,
0,
0,
0,
0,
0,
0,
0,
0,
0,
0,
0,
0,
0,
0,
0,
0,
0,
0,
0,
0,
0,
0,
0,
0,
0,
0,
0,
0,
0,
0,
0,
0,
0,
0,
0,
0,
0,
0,
0,
0,
0,
0,
0,
0,
0,
0,
0,
0,
0,
0,
1,
0,
0,
0,
0,
0,
0,
0,
0,
0,
0,
0,
0,
0,
0,
0,
0,
0,
0,
0,
0,
0,
0,
0,
0,
0,
0,
0,
0,
0,
0,
0,
0,
0,
0,
0,
0,
0,
0,
0,
0,
0,
0,
0,
0,
0,
0,
0,
0,
0,
0,
0,
0,
0,
0,
0,
0,
0,
0,
0,
0,
0,
0,
0,
0,
0,
0,
0,
0,
0,
0,
0,
0,
0,
0,
0,
0,
0,
0,
0,
0,
0,
0,
0,
0,
0,
0,
0,
0,
0,
0,
0,
0,
0,
0,
0,
0,
0,
0,
0,
0,
0,
0,
0,
0,
0,
0,
0,
0,
0,
0,
0,
0,
0,
0,
0,
0,
0,
0,
0,
0,
0,
0,
0,
0,
0,
0,
#ENDOFDATA   :