File: N132962/Standards/20 keV/Fe std.msa
#FORMAT      : EMSA/MAS Spectral Data File
#VERSION     : 1.0
#TITLE       : Fe std
#DATE        : 12-SEP-2025
#TIME        : 09:40
#OWNER       : Unknown
#NPOINTS     : 4096
#NCOLUMNS    : 1
#XUNITS      : eV
#YUNITS      : counts
#DATATYPE    : Y
#XPERCHAN    : 9.99778
#OFFSET      : 1.69135
#BEAMKV      : 20
#SIGNALTYPE  : EDS
#ELEVANGLE   : 35
#AZIMANGLE   : 0
#LIVETIME    : 1201.7
#REALTIME    : 1330.14
#PROBECUR    : 1.23853
#TAUWIND     : 0
#TDEADLYR    : 0
#TACTLYR     : 0.045
#TALWIND     : 0.025
#CHOFFSET    : 0.0
#XLABEL      : Energy (eV)
#YLABEL      : Counts
#EDSDET      : SD
##SPECIMEN   : Fe std
##D2STDCMP   : Fe,(Fe:100.0)
##DET_HASH   : 12273538-fd48-a23f-0a19-f1e6fa85caef
##CALIB_HASH : 6abaa72c-aa41-8738-0be9-f592914732f3
##WORKING    : 15.0 mm
##SAMPLE     : <BulkSample id="1">\n<mOrientation id="2">\n<double>0.0</double>\n<double>0.0</double>\n<double>-1.0</double>\n</mOrientation>\n</BulkSample>
##MULTISPEC  : 1.17334
##DET_NAME   : EDAX All
##DET_MODE   : MediumLE
#SPECTRUM    :
127,
136,
51,
137,
788,
3014,
8264,
19298,
42097,
52331,
37094,
29828,
32575,
35618,
39793,
48065,
61121,
79644,
116074,
244872,
435599,
469633,
609206,
939772,
723339,
233682,
46803,
20032,
16492,
14699,
13713,
13970,
14595,
15165,
16049,
16602,
17294,
18229,
18917,
19960,
20676,
21825,
23027,
23977,
25156,
25857,
26655,
27165,
27324,
27309,
27803,
27929,
27939,
28091,
28386,
29633,
31387,
34657,
37243,
36062,
34380,
32538,
29924,
29213,
29472,
29416,
29952,
30224,
30587,
30553,
30631,
30972,
30997,
31021,
31222,
31418,
31462,
31687,
31444,
31786,
31363,
31471,
31417,
31140,
31204,
31497,
31109,
31441,
31172,
31103,
30806,
30610,
30647,
30315,
30371,
30059,
29676,
30003,
29786,
29738,
29347,
29296,
29028,
29175,
28979,
28931,
28527,
28416,
28265,
28401,
27955,
27699,
27604,
27193,
27513,
27368,
26958,
26933,
26564,
26507,
26064,
26522,
25879,
25655,
25620,
25626,
25567,
25171,
25010,
25079,
24669,
24468,
24259,
23984,
23844,
24128,
23829,
23412,
23095,
23397,
22957,
22929,
22410,
22155,
22074,
22344,
22046,
22308,
21875,
21881,
21774,
21735,
22380,
23427,
25147,
25057,
24772,
23120,
21306,
20854,
20281,
20076,
19614,
19641,
19936,
19587,
19351,
19156,
19143,
18925,
19046,
19147,
18957,
18793,
18674,
18665,
18667,
18834,
18681,
18449,
18475,
18142,
17891,
18223,
17906,
17436,
17108,
16922,
16991,
16574,
16376,
16496,
16488,
16316,
16205,
16201,
16053,
16019,
16032,
16309,
16236,
16238,
16653,
17095,
17616,
18735,
20777,
27786,
52528,
131217,
322743,
651394,
1036570,
1265087,
1184772,
849173,
471187,
205756,
77193,
30664,
18352,
15415,
15102,
14724,
14683,
14771,
15199,
15357,
16575,
18832,
24687,
38862,
67315,
111047,
155174,
175122,
159355,
117576,
70745,
37481,
19996,
12712,
10191,
9534,
9567,
9471,
9529,
9558,
9825,
10023,
9998,
9584,
9641,
9193,
9256,
9328,
9294,
9455,
9237,
9253,
9069,
8906,
8810,
8794,
8704,
8706,
8568,
8548,
8596,
8459,
8584,
8530,
8362,
8594,
8512,
8426,
8293,
8222,
8138,
8172,
7976,
8012,
8089,
7912,
7802,
7804,
7959,
7775,
7685,
7751,
7653,
7652,
7562,
7607,
7568,
7457,
7550,
7412,
7396,
7321,
7128,
7112,
7199,
6971,
7129,
6933,
7170,
6933,
6973,
7008,
7029,
6992,
6833,
6698,
6750,
6837,
6674,
6735,
6720,
6627,
6528,
6331,
6571,
6409,
6547,
6349,
6319,
6364,
6226,
6151,
6278,
6189,
6106,
5946,
6031,
6056,
5999,
5819,
5854,
5831,
5848,
5717,
5661,
5646,
5774,
5561,
5441,
5565,
5537,
5491,
5533,
5373,
5564,
5443,
5340,
5359,
5179,
5322,
5055,
5167,
5089,
5013,
5036,
5015,
4947,
4801,
4778,
4918,
4684,
4726,
4720,
4666,
4571,
4702,
4488,
4536,
4434,
4523,
4357,
4431,
4413,
4407,
4353,
4334,
4352,
4164,
4215,
4143,
3930,
3920,
4046,
4001,
4013,
4047,
3884,
3880,
3949,
3909,
3830,
3759,
3733,
3680,
3755,
3668,
3625,
3583,
3622,
3478,
3501,
3449,
3468,
3514,
3504,
3415,
3310,
3418,
3365,
3285,
3301,
3267,
3248,
3263,
3613,
3711,
4044,
4503,
4680,
4545,
4475,
4011,
3702,
3360,
3085,
2931,
2769,
2817,
2791,
2698,
2720,
2676,
2689,
2644,
2532,
2648,
2672,
2691,
2702,
2910,
2943,
2774,
2759,
2665,
2552,
2564,
2289,
2315,
2259,
2256,
2294,
2127,
2092,
2155,
2100,
2177,
2126,
2181,
2056,
2149,
2102,
2023,
1987,
1931,
1985,
1961,
1957,
1920,
1783,
1858,
1848,
1813,
1764,
1740,
1765,
1703,
1708,
1747,
1636,
1673,
1666,
1574,
1654,
1606,
1597,
1537,
1622,
1534,
1517,
1447,
1499,
1474,
1393,
1405,
1373,
1382,
1374,
1362,
1332,
1330,
1307,
1312,
1274,
1273,
1244,
1236,
1177,
1200,
1185,
1237,
1103,
1176,
1096,
1093,
1110,
1079,
1079,
1151,
1019,
1023,
1011,
1003,
997,
993,
976,
974,
931,
912,
913,
919,
879,
867,
813,
841,
862,
769,
819,
791,
783,
816,
751,
806,
713,
781,
729,
723,
788,
716,
694,
701,
728,
646,
668,
655,
647,
672,
661,
618,
622,
589,
623,
624,
607,
563,
558,
543,
570,
555,
476,
505,
543,
489,
515,
502,
519,
465,
462,
450,
436,
441,
439,
427,
409,
396,
391,
429,
390,
379,
365,
354,
362,
353,
324,
366,
306,
340,
257,
311,
310,
318,
260,
297,
279,
275,
253,
250,
277,
254,
256,
237,
219,
237,
226,
220,
225,
214,
184,
202,
161,
179,
185,
150,
208,
196,
181,
169,
166,
137,
162,
141,
134,
137,
111,
141,
134,
101,
115,
115,
88,
89,
95,
79,
93,
72,
85,
77,
94,
60,
60,
54,
41,
61,
51,
36,
37,
33,
33,
22,
21,
21,
17,
17,
12,
19,
17,
14,
19,
16,
10,
13,
16,
13,
10,
7,
13,
14,
13,
10,
13,
11,
15,
4,
17,
11,
12,
9,
16,
11,
6,
9,
7,
9,
12,
12,
11,
9,
13,
5,
14,
18,
10,
9,
9,
10,
9,
10,
13,
18,
10,
5,
11,
3,
9,
9,
6,
8,
9,
6,
6,
7,
6,
11,
9,
8,
13,
8,
13,
6,
14,
8,
8,
9,
5,
4,
6,
6,
8,
7,
11,
6,
6,
6,
6,
6,
6,
9,
4,
4,
3,
5,
6,
2,
5,
5,
5,
6,
6,
3,
4,
5,
2,
6,
3,
6,
3,
3,
5,
2,
3,
1,
6,
4,
4,
3,
5,
3,
7,
3,
5,
7,
4,
2,
2,
1,
4,
4,
6,
3,
6,
3,
1,
3,
3,
4,
2,
3,
7,
1,
6,
3,
2,
2,
5,
1,
1,
1,
6,
1,
2,
1,
3,
3,
0,
4,
2,
5,
1,
4,
2,
4,
3,
0,
2,
0,
1,
0,
2,
2,
3,
3,
2,
1,
1,
3,
2,
2,
1,
4,
0,
4,
3,
3,
2,
0,
0,
2,
2,
1,
3,
2,
2,
3,
1,
0,
2,
2,
1,
0,
1,
2,
1,
1,
2,
1,
0,
1,
1,
1,
0,
1,
0,
0,
1,
0,
0,
1,
0,
3,
0,
0,
0,
0,
1,
0,
1,
2,
2,
0,
0,
2,
0,
2,
0,
2,
0,
0,
1,
3,
0,
1,
1,
0,
0,
1,
1,
0,
1,
0,
1,
0,
1,
0,
0,
0,
0,
0,
0,
0,
0,
0,
0,
0,
1,
0,
0,
0,
0,
1,
1,
0,
1,
0,
0,
1,
0,
1,
0,
1,
0,
0,
1,
0,
0,
0,
0,
0,
0,
1,
1,
0,
0,
0,
0,
1,
1,
0,
0,
0,
0,
0,
0,
0,
0,
0,
2,
0,
0,
0,
0,
1,
1,
0,
0,
0,
0,
0,
0,
0,
1,
1,
0,
0,
0,
0,
0,
2,
0,
0,
0,
0,
1,
0,
2,
0,
0,
0,
0,
1,
0,
0,
0,
0,
1,
0,
0,
0,
1,
0,
0,
0,
0,
0,
0,
0,
0,
0,
0,
0,
0,
0,
0,
0,
0,
0,
0,
1,
1,
0,
0,
0,
0,
0,
0,
0,
0,
0,
0,
0,
0,
0,
0,
0,
0,
0,
1,
0,
0,
0,
0,
0,
0,
0,
0,
0,
0,
1,
0,
0,
0,
0,
0,
1,
0,
0,
0,
0,
0,
1,
0,
0,
0,
0,
0,
0,
0,
0,
0,
0,
1,
0,
0,
0,
0,
1,
0,
0,
0,
0,
0,
0,
0,
0,
0,
0,
0,
0,
0,
0,
0,
0,
0,
0,
0,
0,
0,
0,
0,
0,
0,
0,
0,
0,
0,
0,
0,
0,
0,
0,
0,
0,
0,
0,
0,
0,
0,
0,
0,
0,
0,
0,
0,
0,
0,
0,
0,
0,
0,
0,
0,
0,
0,
0,
0,
0,
0,
0,
0,
0,
0,
0,
0,
0,
0,
0,
0,
0,
0,
0,
0,
0,
0,
0,
0,
0,
0,
0,
0,
0,
0,
0,
0,
0,
0,
0,
0,
0,
0,
0,
0,
0,
0,
0,
0,
0,
0,
0,
0,
0,
0,
0,
0,
0,
0,
0,
0,
0,
0,
0,
0,
0,
0,
0,
0,
0,
0,
0,
0,
0,
0,
0,
0,
0,
0,
0,
0,
0,
0,
0,
0,
0,
0,
0,
0,
0,
0,
0,
0,
0,
0,
0,
0,
0,
0,
0,
0,
0,
0,
0,
0,
0,
0,
0,
0,
0,
0,
0,
0,
0,
0,
0,
0,
0,
0,
0,
0,
0,
0,
0,
0,
0,
0,
0,
0,
0,
0,
0,
0,
0,
0,
0,
0,
0,
0,
0,
0,
0,
0,
0,
0,
0,
0,
0,
0,
0,
0,
0,
0,
0,
0,
0,
0,
0,
0,
0,
0,
0,
0,
0,
0,
0,
0,
0,
0,
0,
0,
0,
0,
0,
0,
0,
0,
0,
0,
0,
0,
0,
0,
0,
0,
0,
0,
0,
0,
0,
0,
0,
0,
0,
0,
0,
0,
0,
0,
0,
0,
0,
0,
0,
0,
0,
0,
0,
0,
0,
0,
0,
0,
0,
0,
0,
0,
0,
0,
0,
0,
0,
0,
0,
#ENDOFDATA   :