File: N132962/Standards/20 keV/Fe2P std.msa
#FORMAT      : EMSA/MAS Spectral Data File
#VERSION     : 1.0
#TITLE       : Fe2P std
#DATE        : 24-FEB-2025
#TIME        : 10:08
#OWNER       : Unknown
#NPOINTS     : 4096
#NCOLUMNS    : 1
#XUNITS      : eV
#YUNITS      : counts
#DATATYPE    : Y
#XPERCHAN    : 9.99778
#OFFSET      : 1.69135
#BEAMKV      : 20
#SIGNALTYPE  : EDS
#ELEVANGLE   : 35
#AZIMANGLE   : 0
#LIVETIME    : 1199.68
#REALTIME    : 1303.38
#PROBECUR    : 1.03053
#TAUWIND     : 0
#TDEADLYR    : 0
#TACTLYR     : 0.045
#TALWIND     : 0.025
#CHOFFSET    : 0.0
#XLABEL      : Energy (eV)
#YLABEL      : Counts
#EDSDET      : SD
##SPECIMEN   : Fe2P std
##D2STDCMP   : Fe2P,(P:21.711),(Fe:78.289)
##DET_HASH   : 12273538-fd48-a23f-0a19-f1e6fa85caef
##CALIB_HASH : 6abaa72c-aa41-8738-0be9-f592914732f3
##WORKING    : 15.0 mm
##SAMPLE     : <BulkSample id="1">\n<mOrientation id="2">\n<double>0.0</double>\n<double>0.0</double>\n<double>-1.0</double>\n</mOrientation>\n</BulkSample>
##MULTISPEC  : 1.44189
##DET_NAME   : EDAX All
##DET_MODE   : MediumLE
#SPECTRUM    :
149,
177,
57,
147,
728,
2266,
5996,
15160,
41069,
57588,
34294,
19403,
19248,
22130,
24018,
27865,
35041,
45396,
63239,
128269,
225457,
251358,
372183,
605457,
475665,
158272,
36634,
18596,
15840,
15535,
17333,
19512,
18361,
17750,
17865,
17658,
17079,
17504,
18195,
19170,
19668,
20471,
21091,
21817,
22890,
23107,
23682,
24238,
25007,
25254,
25875,
26283,
26196,
26451,
26989,
27671,
28803,
31008,
32798,
33588,
32471,
31562,
34080,
47976,
95268,
239432,
517046,
701915,
543008,
251700,
101585,
69583,
56121,
38206,
26267,
22683,
21642,
21389,
21782,
21806,
21882,
21922,
22014,
22026,
22184,
21963,
22167,
22443,
22644,
22687,
23057,
22943,
22246,
21837,
21633,
21583,
21349,
21361,
21240,
21231,
21269,
21394,
21007,
20863,
21029,
20295,
20343,
20609,
20577,
20396,
20364,
19899,
20114,
19983,
20007,
19651,
19585,
19501,
19177,
19156,
18980,
18958,
18945,
18978,
18955,
18805,
18332,
18192,
18108,
18162,
18012,
18104,
18196,
18198,
18160,
17972,
17897,
17085,
17144,
17561,
16961,
16938,
16680,
16795,
16606,
16652,
16127,
16372,
16138,
16303,
16138,
16165,
16417,
17182,
17898,
18401,
17845,
16950,
15810,
15474,
15038,
14962,
14957,
15046,
14789,
14582,
14315,
14645,
14204,
14261,
14078,
14211,
14218,
14188,
14170,
13961,
14039,
13793,
13920,
13486,
13703,
13616,
13483,
13222,
13381,
13160,
12907,
12925,
12828,
12639,
12619,
12470,
12272,
12433,
12488,
12249,
12146,
12147,
11993,
12123,
12330,
12178,
12456,
12655,
13181,
13555,
14981,
18774,
34886,
84899,
204295,
414452,
657859,
800435,
750003,
539901,
299535,
132343,
50299,
21213,
13190,
11306,
11078,
10692,
10880,
10797,
11028,
11473,
11958,
13210,
17078,
25831,
43953,
71067,
98336,
111356,
101274,
74342,
45325,
24389,
13726,
9298,
7712,
7408,
7189,
7200,
7349,
7534,
7704,
7778,
7679,
7391,
7164,
7199,
7020,
7170,
7017,
7033,
6981,
6958,
6888,
6841,
6747,
6802,
6615,
6681,
6825,
6876,
6855,
6731,
6693,
6677,
6454,
6559,
6476,
6638,
6517,
6570,
6791,
7112,
7050,
7035,
6835,
6574,
6324,
6217,
6020,
6351,
6116,
5959,
5947,
5943,
5917,
5823,
5778,
5712,
5704,
5660,
5621,
5743,
5778,
5770,
5376,
5490,
5522,
5406,
5429,
5382,
5251,
5320,
5240,
5347,
5118,
4908,
5128,
4990,
5173,
4986,
4949,
4881,
4958,
4884,
4841,
4840,
4827,
4841,
4623,
4702,
4729,
4639,
4661,
4678,
4643,
4549,
4471,
4503,
4474,
4396,
4304,
4456,
4265,
4479,
4350,
4204,
4185,
4194,
4078,
4162,
4190,
4063,
4113,
3994,
4105,
4075,
3905,
3931,
3878,
3996,
3823,
3750,
3738,
3747,
3717,
3676,
3607,
3612,
3669,
3592,
3634,
3503,
3574,
3581,
3538,
3316,
3315,
3389,
3256,
3453,
3275,
3224,
3223,
3095,
3352,
3227,
3153,
3205,
3130,
3075,
3167,
3036,
2984,
2913,
2998,
2895,
2841,
2905,
2877,
2790,
2877,
2740,
2813,
2791,
2745,
2769,
2734,
2634,
2666,
2645,
2653,
2531,
2519,
2604,
2478,
2500,
2560,
2519,
2465,
2449,
2425,
2389,
2390,
2415,
2454,
2664,
2744,
2857,
3038,
2936,
2769,
2612,
2428,
2318,
2196,
2164,
2004,
2029,
2030,
2012,
2056,
2046,
1928,
1939,
1868,
1929,
1910,
1913,
1924,
1939,
1924,
1987,
1941,
1881,
1795,
1780,
1748,
1692,
1694,
1587,
1674,
1564,
1593,
1610,
1541,
1507,
1592,
1539,
1490,
1489,
1521,
1483,
1523,
1384,
1445,
1413,
1374,
1410,
1304,
1335,
1326,
1320,
1276,
1253,
1276,
1277,
1193,
1192,
1223,
1245,
1180,
1240,
1187,
1151,
1172,
1142,
1092,
1112,
1099,
1065,
1016,
1087,
1117,
990,
1052,
996,
1062,
1025,
966,
945,
1013,
942,
928,
931,
953,
929,
929,
874,
853,
845,
842,
822,
842,
787,
821,
791,
813,
803,
811,
797,
761,
786,
769,
672,
695,
714,
699,
662,
672,
693,
632,
683,
632,
612,
659,
605,
566,
606,
582,
565,
595,
520,
571,
556,
582,
535,
514,
529,
483,
496,
512,
487,
447,
474,
493,
460,
491,
457,
439,
437,
428,
438,
423,
445,
419,
396,
417,
358,
386,
356,
358,
368,
388,
306,
329,
365,
313,
315,
331,
350,
309,
306,
308,
291,
294,
284,
273,
264,
271,
269,
258,
271,
256,
248,
237,
240,
248,
226,
238,
181,
199,
219,
195,
213,
208,
190,
185,
193,
155,
155,
178,
172,
141,
161,
140,
155,
132,
151,
147,
128,
119,
108,
112,
125,
128,
108,
100,
101,
111,
112,
92,
90,
88,
81,
83,
84,
76,
74,
62,
60,
45,
63,
46,
44,
40,
46,
45,
36,
41,
38,
42,
30,
27,
30,
14,
22,
18,
13,
14,
9,
19,
10,
7,
9,
10,
8,
5,
11,
6,
8,
4,
5,
9,
10,
10,
7,
10,
7,
8,
6,
10,
3,
8,
11,
8,
6,
9,
9,
9,
4,
4,
5,
5,
6,
5,
9,
4,
5,
6,
4,
6,
4,
4,
6,
5,
5,
4,
3,
5,
3,
2,
2,
6,
3,
5,
2,
3,
6,
3,
3,
3,
4,
4,
3,
4,
6,
6,
1,
2,
4,
4,
6,
3,
3,
7,
2,
4,
4,
5,
1,
1,
5,
3,
1,
3,
3,
4,
5,
3,
4,
0,
0,
6,
2,
0,
4,
2,
2,
4,
2,
2,
1,
3,
0,
1,
0,
1,
1,
4,
3,
1,
4,
4,
1,
4,
4,
2,
5,
2,
1,
1,
2,
3,
3,
3,
2,
2,
2,
1,
1,
2,
0,
1,
1,
1,
0,
1,
3,
2,
1,
4,
1,
2,
0,
1,
0,
1,
0,
0,
0,
3,
2,
1,
0,
4,
0,
3,
2,
1,
2,
1,
3,
1,
0,
2,
3,
0,
0,
0,
0,
2,
2,
3,
4,
1,
0,
1,
1,
0,
2,
0,
1,
4,
0,
1,
0,
1,
0,
0,
0,
2,
3,
0,
0,
0,
0,
1,
0,
1,
0,
1,
0,
0,
0,
3,
1,
1,
1,
1,
0,
0,
0,
1,
0,
0,
1,
0,
0,
1,
1,
0,
0,
0,
0,
1,
0,
0,
1,
0,
0,
0,
0,
0,
1,
1,
0,
0,
2,
0,
0,
1,
0,
0,
0,
0,
1,
0,
0,
0,
1,
2,
0,
0,
1,
1,
0,
2,
0,
0,
0,
0,
1,
2,
0,
1,
0,
1,
0,
0,
0,
1,
0,
0,
0,
1,
0,
0,
0,
0,
0,
0,
0,
0,
1,
1,
0,
0,
0,
1,
0,
0,
0,
0,
0,
0,
0,
0,
0,
1,
0,
0,
0,
0,
1,
0,
0,
0,
0,
0,
0,
0,
0,
0,
0,
0,
0,
1,
1,
0,
0,
0,
0,
0,
0,
0,
0,
0,
0,
0,
0,
0,
0,
0,
0,
1,
0,
0,
0,
0,
0,
0,
0,
0,
1,
0,
0,
0,
0,
0,
1,
0,
0,
0,
0,
0,
0,
0,
0,
0,
0,
0,
0,
0,
0,
0,
0,
1,
0,
0,
0,
0,
0,
1,
0,
0,
0,
0,
0,
0,
0,
0,
0,
0,
0,
0,
0,
0,
0,
0,
0,
0,
0,
0,
0,
0,
0,
0,
0,
1,
0,
0,
0,
0,
0,
0,
0,
0,
0,
0,
0,
0,
0,
0,
0,
0,
0,
0,
0,
0,
0,
0,
0,
0,
0,
0,
0,
0,
0,
0,
0,
0,
0,
0,
0,
0,
0,
0,
0,
0,
0,
0,
0,
0,
0,
0,
0,
0,
0,
0,
0,
0,
0,
0,
0,
0,
0,
0,
0,
0,
0,
0,
0,
0,
0,
0,
0,
0,
0,
0,
0,
0,
0,
0,
0,
0,
0,
0,
0,
0,
0,
0,
1,
0,
0,
0,
0,
0,
0,
0,
0,
0,
0,
0,
0,
0,
0,
0,
0,
0,
0,
0,
0,
0,
0,
0,
0,
0,
0,
0,
0,
0,
0,
0,
0,
0,
0,
0,
0,
0,
0,
0,
0,
0,
0,
0,
0,
0,
0,
0,
0,
0,
0,
0,
0,
0,
0,
0,
0,
0,
0,
0,
0,
0,
0,
0,
0,
0,
0,
0,
0,
0,
0,
0,
0,
0,
0,
0,
0,
0,
0,
0,
0,
0,
0,
0,
0,
0,
0,
0,
0,
0,
0,
0,
0,
0,
0,
0,
0,
0,
0,
0,
0,
0,
0,
0,
0,
0,
0,
0,
0,
0,
0,
0,
0,
0,
0,
0,
0,
0,
0,
0,
0,
0,
0,
0,
0,
0,
0,
0,
0,
0,
0,
0,
0,
0,
0,
0,
0,
0,
0,
0,
0,
0,
0,
0,
0,
0,
0,
0,
0,
0,
0,
0,
0,
0,
0,
0,
0,
0,
0,
0,
0,
0,
0,
0,
0,
0,
0,
0,
0,
0,
0,
0,
0,
0,
0,
0,
0,
0,
0,
0,
0,
0,
0,
0,
0,
0,
0,
0,
0,
0,
0,
0,
0,
0,
0,
0,
0,
0,
0,
0,
0,
0,
0,
0,
0,
0,
0,
0,
0,
0,
0,
0,
0,
0,
0,
0,
0,
#ENDOFDATA   :