File: N132962/Standards/20 keV/FeS2 std.msa
#FORMAT      : EMSA/MAS Spectral Data File
#VERSION     : 1.0
#TITLE       : FeS2 std
#DATE        : 24-FEB-2025
#TIME        : 10:14
#OWNER       : Unknown
#NPOINTS     : 4096
#NCOLUMNS    : 1
#XUNITS      : eV
#YUNITS      : counts
#DATATYPE    : Y
#XPERCHAN    : 9.99778
#OFFSET      : 1.69135
#BEAMKV      : 20
#SIGNALTYPE  : EDS
#ELEVANGLE   : 35
#AZIMANGLE   : 0
#LIVETIME    : 1199.52
#REALTIME    : 1312.18
#PROBECUR    : 1.03053
#TAUWIND     : 0
#TDEADLYR    : 0
#TACTLYR     : 0.045
#TALWIND     : 0.025
#CHOFFSET    : 0.0
#XLABEL      : Energy (eV)
#YLABEL      : Counts
#EDSDET      : SD
##SPECIMEN   : FeS2 std
##D2STDCMP   : FeS2,(S:53.4528),(Fe:46.5472)
##DET_HASH   : 12273538-fd48-a23f-0a19-f1e6fa85caef
##CALIB_HASH : 6abaa72c-aa41-8738-0be9-f592914732f3
##WORKING    : 15.0 mm
##SAMPLE     : <BulkSample id="1">\n<mOrientation id="2">\n<double>0.0</double>\n<double>0.0</double>\n<double>-1.0</double>\n</mOrientation>\n</BulkSample>
##MULTISPEC  : 1.304
##DET_NAME   : EDAX All
##DET_MODE   : MediumLE
#SPECTRUM    :
146,
146,
79,
284,
1933,
4502,
5429,
10703,
25581,
33116,
19347,
11546,
11423,
12352,
14055,
17702,
24607,
39222,
65669,
93624,
104406,
106641,
177784,
309116,
258653,
97268,
31409,
20681,
18823,
18627,
20783,
22428,
21734,
20758,
21338,
21056,
21059,
21618,
21933,
22794,
23553,
24230,
24843,
25574,
26215,
26981,
27589,
27877,
28447,
29324,
29800,
29700,
29874,
29509,
29856,
30463,
31666,
33867,
35952,
35510,
34019,
32010,
30482,
29717,
29641,
30280,
31314,
31646,
31988,
32204,
32789,
36789,
53417,
103698,
270469,
761858,
1569860,
1963345,
1420656,
614115,
208176,
141213,
156685,
128541,
71649,
33199,
19220,
16203,
15739,
15491,
15495,
15806,
16029,
16248,
16097,
16343,
16584,
16616,
16786,
17318,
17468,
17547,
17029,
16254,
16251,
15645,
16036,
16057,
15682,
15560,
15776,
15655,
15639,
15599,
15410,
15278,
15435,
15419,
15343,
15328,
15152,
15265,
15306,
15354,
15122,
14943,
14821,
14766,
14718,
14602,
14739,
14342,
14724,
14519,
14351,
14481,
14341,
14304,
14134,
13918,
14005,
13902,
13838,
13717,
13981,
13785,
13527,
13431,
13458,
13683,
13892,
14737,
15916,
17416,
18749,
18232,
16512,
14773,
13884,
13305,
13270,
12867,
12648,
12326,
12306,
12022,
12117,
12060,
11983,
11841,
11711,
11711,
11633,
11797,
11565,
11528,
11763,
11609,
11533,
11432,
11172,
11273,
11143,
11072,
11049,
11121,
10611,
10597,
10716,
10812,
10461,
10616,
10469,
10384,
10204,
10324,
10058,
10181,
10144,
10171,
10198,
10125,
10086,
10358,
10494,
10730,
11509,
13900,
22447,
50610,
117946,
234387,
368961,
450489,
421328,
303895,
169624,
76191,
31315,
14681,
10257,
9048,
8918,
8856,
8881,
8778,
8939,
9161,
9237,
10343,
12377,
17143,
27223,
42525,
58023,
64520,
59421,
44436,
27949,
16347,
10116,
7755,
6907,
6692,
6515,
6663,
6771,
6733,
6871,
6838,
6693,
6672,
6646,
6435,
6435,
6352,
6156,
6267,
6310,
6154,
6201,
6149,
6202,
6051,
6155,
6011,
6046,
6198,
6080,
5969,
5717,
5858,
5814,
5740,
5686,
5749,
5669,
5751,
5558,
5419,
5414,
5460,
5444,
5425,
5400,
5469,
5655,
5791,
6250,
6464,
6883,
6647,
6187,
5875,
5447,
5307,
5223,
5004,
5119,
4868,
4858,
4768,
4736,
4745,
4706,
4721,
4637,
4677,
4588,
4666,
4644,
4682,
4631,
4766,
4596,
4412,
4441,
4450,
4352,
4279,
4332,
4148,
4211,
4235,
4210,
4223,
4037,
4125,
4096,
4083,
4032,
4015,
4001,
3854,
3876,
3904,
3819,
3852,
3812,
3783,
3737,
3734,
3662,
3571,
3699,
3660,
3612,
3527,
3598,
3525,
3612,
3565,
3488,
3476,
3460,
3419,
3399,
3284,
3321,
3343,
3219,
3271,
3274,
3186,
3273,
3271,
3005,
3006,
3114,
3086,
3039,
2948,
3035,
2920,
2919,
2954,
2805,
2861,
2853,
2776,
2892,
2718,
2692,
2750,
2622,
2680,
2704,
2663,
2553,
2580,
2495,
2579,
2545,
2526,
2550,
2501,
2388,
2369,
2325,
2278,
2354,
2452,
2265,
2296,
2335,
2260,
2188,
2174,
2200,
2194,
2207,
2218,
2131,
2136,
2087,
2021,
2084,
2100,
2022,
2004,
1996,
1953,
2021,
1951,
1961,
2040,
2079,
2069,
2062,
1988,
1948,
1850,
1805,
1837,
1684,
1738,
1689,
1794,
1793,
1724,
1674,
1587,
1643,
1711,
1670,
1662,
1530,
1556,
1550,
1592,
1532,
1573,
1504,
1468,
1437,
1450,
1368,
1402,
1403,
1396,
1370,
1325,
1302,
1306,
1322,
1223,
1342,
1258,
1220,
1205,
1164,
1255,
1191,
1201,
1138,
1135,
1150,
1091,
1105,
1145,
1106,
1012,
1007,
1021,
980,
1064,
1037,
1008,
960,
959,
970,
972,
980,
922,
893,
943,
898,
884,
926,
834,
888,
851,
901,
866,
820,
836,
833,
761,
791,
823,
731,
789,
736,
732,
722,
735,
740,
723,
673,
715,
639,
692,
682,
686,
650,
667,
683,
618,
607,
604,
583,
591,
603,
518,
587,
559,
551,
564,
558,
516,
558,
536,
500,
451,
502,
480,
457,
443,
478,
427,
456,
488,
433,
452,
441,
404,
413,
419,
419,
392,
421,
378,
391,
373,
375,
348,
363,
364,
369,
333,
346,
320,
320,
313,
338,
309,
300,
278,
309,
300,
261,
254,
279,
284,
290,
264,
237,
241,
247,
256,
241,
235,
219,
234,
214,
248,
244,
205,
189,
198,
207,
182,
172,
159,
172,
207,
188,
180,
146,
156,
148,
157,
156,
150,
173,
146,
159,
127,
143,
129,
140,
125,
127,
119,
122,
111,
115,
88,
96,
110,
92,
108,
86,
91,
88,
95,
77,
69,
80,
80,
67,
57,
59,
49,
58,
68,
44,
54,
44,
55,
53,
44,
30,
32,
29,
34,
31,
38,
28,
24,
18,
15,
16,
10,
10,
13,
10,
8,
5,
3,
5,
5,
2,
7,
7,
8,
4,
8,
1,
6,
4,
3,
7,
6,
6,
5,
4,
10,
4,
5,
5,
2,
8,
2,
1,
6,
4,
3,
4,
4,
4,
4,
2,
6,
7,
4,
1,
4,
4,
4,
3,
4,
5,
2,
2,
2,
3,
4,
3,
3,
5,
3,
2,
2,
3,
2,
1,
1,
3,
0,
1,
4,
1,
2,
0,
2,
1,
1,
4,
0,
3,
0,
1,
2,
2,
3,
0,
1,
2,
3,
0,
3,
3,
1,
1,
4,
1,
1,
4,
7,
1,
0,
0,
3,
1,
2,
1,
2,
1,
2,
1,
1,
0,
1,
1,
0,
0,
1,
1,
1,
3,
0,
1,
2,
1,
3,
0,
0,
2,
1,
0,
0,
1,
0,
1,
1,
0,
0,
2,
0,
0,
1,
0,
0,
0,
1,
4,
3,
0,
1,
1,
1,
1,
0,
1,
0,
1,
3,
0,
0,
2,
1,
0,
3,
2,
1,
1,
0,
0,
1,
1,
1,
1,
2,
1,
2,
1,
0,
1,
0,
0,
1,
0,
0,
0,
3,
1,
0,
1,
1,
1,
0,
0,
0,
0,
0,
0,
0,
0,
0,
1,
0,
0,
0,
0,
0,
0,
1,
0,
0,
0,
0,
0,
1,
0,
3,
0,
0,
0,
0,
0,
0,
0,
0,
0,
1,
0,
0,
0,
0,
1,
2,
0,
0,
0,
1,
0,
0,
0,
1,
0,
0,
1,
0,
0,
0,
0,
1,
0,
0,
1,
0,
0,
0,
1,
0,
0,
0,
0,
1,
0,
1,
0,
0,
0,
0,
0,
0,
0,
0,
0,
0,
0,
0,
0,
0,
0,
0,
0,
0,
0,
1,
0,
0,
0,
0,
0,
0,
0,
0,
0,
0,
0,
0,
0,
0,
0,
0,
0,
0,
0,
0,
0,
0,
0,
0,
0,
0,
0,
0,
0,
0,
0,
0,
0,
0,
0,
0,
0,
0,
0,
0,
1,
0,
0,
1,
0,
0,
0,
0,
1,
0,
0,
0,
0,
0,
0,
0,
0,
0,
0,
0,
1,
0,
0,
0,
0,
0,
0,
0,
0,
0,
0,
0,
0,
0,
0,
0,
0,
0,
0,
0,
0,
0,
0,
0,
0,
0,
0,
0,
0,
1,
0,
0,
0,
0,
0,
0,
0,
0,
0,
0,
0,
0,
0,
0,
0,
0,
0,
0,
0,
0,
0,
0,
0,
0,
0,
0,
0,
0,
0,
0,
0,
0,
0,
0,
0,
0,
0,
0,
0,
0,
0,
1,
0,
0,
0,
0,
0,
0,
0,
0,
0,
0,
0,
0,
0,
0,
0,
0,
0,
0,
0,
0,
0,
0,
0,
0,
0,
0,
0,
0,
0,
0,
0,
0,
0,
0,
0,
0,
0,
0,
0,
0,
0,
0,
0,
1,
0,
0,
0,
0,
0,
0,
0,
0,
0,
0,
0,
0,
0,
0,
0,
0,
0,
0,
0,
0,
0,
0,
0,
0,
0,
0,
0,
0,
0,
0,
0,
0,
0,
0,
0,
0,
0,
0,
0,
0,
0,
0,
0,
0,
0,
0,
0,
0,
0,
0,
0,
0,
0,
0,
0,
0,
0,
0,
0,
0,
0,
0,
0,
0,
0,
0,
0,
0,
0,
0,
0,
0,
0,
0,
0,
0,
0,
0,
0,
0,
0,
0,
0,
0,
0,
0,
0,
0,
1,
0,
0,
0,
0,
0,
0,
0,
0,
0,
0,
0,
0,
0,
0,
0,
0,
0,
0,
0,
0,
0,
0,
0,
0,
0,
0,
0,
0,
0,
0,
0,
0,
0,
0,
0,
0,
0,
0,
0,
0,
0,
0,
0,
0,
0,
0,
0,
0,
0,
0,
0,
0,
0,
0,
0,
0,
0,
0,
0,
0,
0,
0,
0,
0,
0,
0,
0,
0,
0,
0,
0,
0,
0,
0,
0,
0,
0,
0,
0,
0,
0,
0,
0,
0,
0,
0,
0,
0,
0,
0,
0,
0,
0,
0,
0,
0,
0,
0,
0,
0,
0,
0,
0,
0,
0,
0,
0,
0,
0,
0,
0,
0,
0,
0,
0,
0,
0,
0,
0,
0,
0,
0,
0,
0,
0,
0,
0,
0,
0,
0,
0,
0,
0,
0,
0,
0,
0,
0,
0,
0,
0,
0,
0,
0,
0,
0,
0,
0,
0,
0,
0,
0,
0,
0,
0,
0,
0,
0,
0,
#ENDOFDATA   :