File: N132962/Standards/20 keV/GaAs std.msa
#FORMAT      : EMSA/MAS Spectral Data File
#VERSION     : 1.0
#TITLE       : GaAs std
#DATE        : 21-FEB-2025
#TIME        : 09:57
#OWNER       : Unknown
#NPOINTS     : 4096
#NCOLUMNS    : 1
#XUNITS      : eV
#YUNITS      : counts
#DATATYPE    : Y
#XPERCHAN    : 9.99778
#OFFSET      : 1.69135
#BEAMKV      : 20
#SIGNALTYPE  : EDS
#ELEVANGLE   : 35
#AZIMANGLE   : 0
#LIVETIME    : 957.858
#REALTIME    : 1055.39
#PROBECUR    : 1.05806
#TAUWIND     : 0
#TDEADLYR    : 0
#TACTLYR     : 0.045
#TALWIND     : 0.025
#CHOFFSET    : 0.0
#XLABEL      : Energy (eV)
#YLABEL      : Counts
#EDSDET      : SD
##SPECIMEN   : GaAs std
##D2STDCMP   : GaAs,(Ga:48.203),(As:51.797)
##DET_HASH   : 12273538-fd48-a23f-0a19-f1e6fa85caef
##CALIB_HASH : 6abaa72c-aa41-8738-0be9-f592914732f3
##WORKING    : 15.0 mm
##SAMPLE     : <BulkSample id="1">\n<mOrientation id="2">\n<double>0.0</double>\n<double>0.0</double>\n<double>-1.0</double>\n</mOrientation>\n</BulkSample>
##MULTISPEC  : 0.803038
##DET_NAME   : EDAX All
##DET_MODE   : MediumLE
#SPECTRUM    :
102,
136,
43,
85,
450,
1702,
4477,
9564,
19426,
24593,
17632,
13887,
14668,
16118,
17865,
20725,
24587,
28678,
28896,
28381,
29693,
31623,
34606,
38428,
39481,
39969,
41973,
44483,
48249,
52616,
66256,
100622,
129887,
123383,
166066,
490528,
1121036,
1318271,
773125,
257390,
105251,
207918,
484182,
643468,
473418,
208394,
66642,
27173,
17593,
15618,
15384,
15308,
14793,
14699,
14949,
15396,
15843,
16783,
17830,
18181,
17461,
17128,
16502,
15988,
16334,
16802,
17060,
17522,
17640,
18186,
18203,
18684,
19930,
21237,
21764,
20764,
19953,
19555,
20511,
21819,
22312,
21600,
20925,
19975,
20089,
20459,
20216,
20005,
19821,
19900,
19969,
19675,
19764,
19624,
19676,
19723,
20092,
19723,
19936,
19825,
20000,
19707,
19870,
19697,
19798,
19534,
19761,
19870,
19468,
19427,
19249,
19452,
19400,
19065,
19078,
19185,
18953,
18789,
19003,
18618,
18732,
18861,
19043,
18707,
18784,
18716,
18476,
18361,
18062,
18329,
18273,
18072,
17824,
17910,
17518,
17762,
17636,
17581,
17498,
17297,
17080,
17180,
17181,
16993,
16911,
16838,
16506,
16791,
16474,
16581,
16266,
16114,
16189,
16159,
16184,
15783,
16072,
15759,
15976,
15559,
15472,
15337,
15445,
15301,
15138,
15103,
14867,
14681,
14787,
14503,
14594,
14629,
14479,
14482,
14301,
14230,
14291,
13868,
14696,
14793,
14812,
14712,
14237,
14028,
13618,
13239,
13404,
13448,
13158,
13087,
13050,
12792,
12978,
12779,
12893,
12717,
12571,
12374,
12780,
12311,
12280,
12045,
12043,
12022,
11826,
11843,
11618,
11854,
11718,
11949,
12429,
13404,
14473,
15130,
14790,
13541,
12315,
11626,
11081,
10946,
10925,
10798,
10812,
10621,
10562,
10608,
10142,
10323,
10294,
10176,
10231,
10445,
10320,
10532,
10411,
10561,
10394,
10096,
9751,
9610,
9594,
9520,
9353,
9430,
9321,
9228,
9534,
9908,
10187,
10219,
10048,
9626,
9369,
8968,
8918,
8702,
8645,
8737,
8487,
8715,
8337,
8385,
8297,
8167,
8162,
8148,
8179,
7984,
7986,
8114,
7953,
8061,
8051,
7900,
7926,
7947,
7812,
7820,
7671,
7745,
7595,
7424,
7431,
7561,
7278,
7476,
7310,
7392,
7151,
7441,
7156,
7332,
7159,
7327,
7153,
7151,
7089,
7176,
7271,
7387,
7687,
9069,
12913,
22867,
43616,
77714,
120359,
155766,
168489,
151001,
113408,
71729,
39555,
20062,
11056,
7719,
6495,
6235,
6066,
6164,
5967,
5969,
5891,
6004,
5889,
5750,
5826,
5866,
5809,
5688,
5840,
5781,
5888,
5835,
5935,
6091,
7134,
8483,
11507,
16032,
21567,
25869,
27661,
25904,
22475,
20445,
22515,
31876,
47849,
67636,
81660,
85940,
77037,
59131,
38913,
23187,
12967,
7912,
5467,
4601,
4361,
4285,
4263,
4143,
4173,
4196,
4086,
4066,
4070,
3985,
4099,
3977,
4044,
3988,
3892,
4010,
3924,
3887,
3851,
3897,
3953,
3979,
3974,
4192,
4379,
5047,
6207,
8239,
10425,
13017,
14553,
14663,
12852,
10598,
8181,
6122,
4863,
4019,
3515,
3255,
3172,
3062,
3145,
3025,
2928,
2942,
2892,
2862,
2770,
2799,
2777,
2780,
2714,
2723,
2788,
2697,
2654,
2659,
2608,
2602,
2572,
2632,
2636,
2477,
2544,
2546,
2526,
2517,
2454,
2514,
2453,
2417,
2406,
2314,
2301,
2254,
2183,
2227,
2265,
2138,
2165,
2211,
2137,
2157,
2081,
2093,
1995,
2058,
1996,
2000,
2008,
2017,
1994,
1967,
1972,
1855,
1924,
1829,
1911,
1879,
1839,
1802,
1728,
1762,
1794,
1801,
1769,
1744,
1700,
1727,
1625,
1721,
1632,
1652,
1585,
1639,
1541,
1565,
1570,
1542,
1486,
1501,
1494,
1477,
1500,
1444,
1450,
1416,
1332,
1386,
1466,
1359,
1345,
1331,
1343,
1312,
1327,
1258,
1269,
1212,
1271,
1183,
1243,
1201,
1187,
1191,
1139,
1137,
1056,
1119,
1141,
1099,
1123,
1039,
1061,
1057,
1071,
992,
1050,
928,
1002,
924,
977,
917,
959,
948,
947,
945,
826,
840,
893,
862,
840,
814,
797,
834,
857,
815,
769,
759,
780,
724,
765,
727,
739,
737,
738,
659,
666,
666,
660,
652,
683,
668,
656,
632,
594,
605,
570,
584,
550,
605,
594,
538,
587,
592,
578,
565,
551,
504,
498,
474,
504,
510,
455,
472,
471,
476,
448,
447,
454,
430,
403,
428,
396,
447,
421,
404,
405,
362,
399,
372,
396,
363,
336,
391,
318,
362,
301,
301,
302,
290,
295,
285,
313,
291,
279,
294,
226,
270,
261,
254,
273,
281,
291,
264,
264,
271,
246,
214,
233,
199,
205,
201,
186,
178,
168,
160,
179,
165,
165,
147,
144,
157,
160,
134,
127,
124,
145,
116,
122,
107,
95,
102,
119,
108,
111,
77,
95,
114,
94,
86,
88,
76,
73,
84,
92,
76,
83,
92,
84,
64,
75,
50,
42,
36,
27,
25,
11,
9,
12,
16,
7,
12,
14,
8,
8,
11,
16,
14,
14,
14,
8,
14,
8,
14,
8,
16,
13,
16,
17,
16,
17,
17,
16,
20,
18,
30,
26,
25,
32,
15,
21,
26,
26,
17,
28,
13,
15,
6,
11,
11,
4,
6,
8,
5,
8,
6,
7,
9,
7,
7,
3,
5,
3,
6,
6,
9,
10,
8,
6,
10,
5,
6,
5,
4,
8,
6,
8,
5,
12,
5,
8,
8,
7,
5,
6,
4,
4,
2,
6,
4,
6,
10,
6,
4,
2,
8,
7,
4,
4,
1,
1,
5,
4,
4,
4,
3,
4,
2,
4,
4,
5,
4,
4,
6,
1,
3,
4,
3,
3,
5,
2,
2,
4,
2,
5,
2,
6,
4,
5,
1,
2,
3,
3,
3,
3,
9,
4,
5,
1,
4,
1,
5,
3,
2,
4,
3,
6,
2,
4,
0,
2,
1,
1,
3,
1,
0,
4,
6,
2,
4,
2,
2,
3,
5,
6,
3,
4,
2,
4,
5,
3,
2,
3,
2,
5,
2,
3,
0,
3,
4,
0,
1,
4,
2,
3,
1,
4,
4,
3,
2,
6,
1,
1,
2,
1,
2,
3,
2,
4,
0,
5,
3,
1,
1,
2,
2,
4,
2,
4,
3,
0,
0,
3,
1,
2,
2,
0,
2,
4,
0,
2,
0,
0,
1,
0,
1,
1,
0,
4,
2,
2,
0,
0,
2,
0,
3,
2,
0,
2,
1,
1,
2,
1,
5,
1,
0,
0,
0,
3,
2,
0,
2,
1,
2,
2,
0,
1,
1,
2,
2,
0,
2,
0,
5,
0,
2,
1,
1,
0,
2,
0,
1,
0,
3,
0,
1,
0,
2,
3,
2,
0,
1,
0,
0,
1,
0,
1,
0,
0,
0,
0,
1,
1,
0,
1,
0,
0,
0,
1,
0,
1,
0,
1,
0,
0,
1,
1,
0,
0,
0,
0,
0,
0,
0,
0,
0,
0,
0,
0,
0,
0,
0,
0,
0,
0,
0,
0,
0,
0,
0,
0,
0,
0,
1,
0,
0,
0,
0,
0,
0,
0,
0,
0,
1,
0,
0,
0,
1,
1,
0,
0,
0,
0,
0,
0,
0,
1,
0,
1,
0,
0,
0,
0,
0,
1,
0,
1,
0,
0,
0,
0,
0,
1,
0,
0,
0,
0,
2,
0,
1,
1,
0,
0,
0,
0,
0,
1,
0,
0,
0,
0,
0,
1,
0,
0,
0,
0,
0,
0,
0,
0,
0,
0,
0,
0,
0,
0,
0,
0,
0,
0,
0,
0,
0,
1,
0,
0,
0,
0,
0,
0,
0,
0,
0,
0,
0,
0,
0,
0,
0,
0,
0,
0,
0,
0,
0,
0,
0,
0,
0,
0,
0,
0,
0,
0,
0,
0,
0,
0,
0,
0,
0,
0,
0,
0,
0,
0,
0,
1,
0,
0,
0,
0,
0,
0,
0,
0,
0,
0,
0,
0,
0,
0,
0,
0,
0,
0,
0,
0,
0,
0,
0,
0,
0,
0,
0,
0,
0,
0,
0,
0,
0,
0,
0,
0,
0,
0,
1,
0,
0,
0,
0,
0,
0,
0,
0,
0,
0,
0,
0,
0,
0,
0,
0,
0,
0,
0,
0,
0,
0,
0,
0,
0,
0,
0,
0,
0,
0,
0,
0,
0,
0,
0,
0,
0,
0,
0,
0,
0,
0,
0,
0,
0,
0,
0,
0,
0,
0,
0,
0,
0,
0,
0,
0,
0,
0,
0,
0,
0,
0,
0,
0,
0,
0,
1,
0,
0,
0,
0,
0,
0,
0,
0,
0,
0,
0,
0,
0,
0,
0,
0,
0,
0,
0,
0,
0,
0,
0,
0,
0,
0,
0,
0,
0,
0,
0,
0,
0,
0,
0,
0,
0,
0,
0,
0,
0,
0,
0,
0,
0,
0,
0,
0,
0,
0,
0,
0,
0,
0,
0,
0,
0,
0,
0,
0,
0,
0,
0,
0,
0,
0,
0,
0,
0,
0,
0,
0,
0,
0,
0,
0,
0,
0,
0,
0,
0,
0,
0,
0,
0,
0,
0,
0,
0,
0,
0,
0,
0,
0,
0,
0,
0,
0,
0,
0,
0,
0,
0,
0,
0,
0,
0,
0,
0,
0,
0,
0,
0,
0,
0,
0,
0,
0,
0,
0,
0,
0,
0,
0,
0,
0,
0,
0,
0,
0,
0,
0,
0,
0,
0,
0,
0,
0,
0,
#ENDOFDATA   :