File: N132962/Standards/20 keV/GaP std.msa
#FORMAT      : EMSA/MAS Spectral Data File
#VERSION     : 1.0
#TITLE       : GaP std
#DATE        : 24-FEB-2025
#TIME        : 10:20
#OWNER       : Unknown
#NPOINTS     : 4096
#NCOLUMNS    : 1
#XUNITS      : eV
#YUNITS      : counts
#DATATYPE    : Y
#XPERCHAN    : 9.99778
#OFFSET      : 1.69135
#BEAMKV      : 20
#SIGNALTYPE  : EDS
#ELEVANGLE   : 35
#AZIMANGLE   : 0
#LIVETIME    : 1199.04
#REALTIME    : 1321.15
#PROBECUR    : 1.03204
#TAUWIND     : 0
#TDEADLYR    : 0
#TACTLYR     : 0.045
#TALWIND     : 0.025
#CHOFFSET    : 0.0
#XLABEL      : Energy (eV)
#YLABEL      : Counts
#EDSDET      : SD
##SPECIMEN   : GaP std
##D2STDCMP   : GaP,(P:30.7594),(Ga:69.2406),5.0
##DET_HASH   : 12273538-fd48-a23f-0a19-f1e6fa85caef
##CALIB_HASH : 6abaa72c-aa41-8738-0be9-f592914732f3
##WORKING    : 15.0 mm
##SAMPLE     : <BulkSample id="1">\n<mOrientation id="2">\n<double>0.0</double>\n<double>0.0</double>\n<double>-1.0</double>\n</mOrientation>\n</BulkSample>
##MULTISPEC  : 1.10452
##DET_NAME   : EDAX All
##DET_MODE   : MediumLE
#SPECTRUM    :
151,
161,
70,
153,
683,
2189,
5532,
14530,
41558,
58527,
32913,
16256,
15654,
17087,
18151,
20689,
25255,
30248,
30054,
28847,
29592,
32399,
35278,
38177,
40264,
43540,
46215,
49758,
53670,
61663,
87308,
149032,
194129,
179420,
251337,
789477,
1820095,
2065570,
1136147,
329695,
72949,
28127,
19705,
18034,
17831,
18096,
18538,
18719,
19416,
20283,
20951,
20924,
21422,
21738,
22313,
23107,
24378,
26810,
28075,
28542,
28125,
28130,
31637,
48474,
105411,
278276,
607033,
825188,
632698,
288392,
114284,
79316,
65859,
45210,
30277,
23126,
19990,
18890,
18622,
18676,
18852,
19160,
19074,
19152,
19460,
19210,
19482,
19686,
19732,
19947,
19598,
19803,
19681,
19809,
20123,
19746,
19853,
19932,
20071,
20267,
20437,
20766,
22219,
23706,
23956,
22565,
21443,
20346,
19937,
19621,
19597,
19473,
19169,
18891,
18911,
18998,
19069,
19105,
19051,
18665,
18831,
18531,
18453,
18225,
18376,
18236,
18427,
18298,
17907,
18407,
17994,
17850,
18371,
18295,
18383,
18372,
17750,
17628,
17658,
17141,
17003,
16963,
16986,
16978,
16770,
16819,
16683,
16408,
16486,
16517,
16192,
16297,
16251,
16038,
15708,
16008,
15808,
15626,
15739,
15573,
15318,
15474,
15105,
15172,
15243,
14889,
14727,
14685,
14415,
14589,
14567,
14199,
14417,
14233,
14042,
14261,
13997,
13881,
13863,
13710,
13799,
13558,
13342,
13232,
13317,
13494,
13237,
13009,
12984,
12897,
12836,
12636,
12723,
12481,
12411,
12437,
12402,
12284,
12199,
12147,
12084,
11911,
11848,
11734,
11636,
11836,
11821,
11527,
11476,
11568,
11558,
11880,
12149,
12279,
12091,
11663,
11212,
10997,
10813,
10700,
10736,
10643,
10413,
10375,
10414,
10322,
10117,
10210,
10133,
9907,
9929,
10149,
9670,
9764,
9857,
9944,
9720,
9611,
9598,
9356,
9402,
9399,
9149,
9308,
9277,
9326,
9359,
9716,
9758,
9697,
9753,
9613,
8977,
8983,
8599,
8703,
8618,
8440,
8479,
8280,
8382,
8161,
8126,
8181,
8392,
8036,
8242,
8391,
8130,
8095,
8142,
7831,
7844,
7742,
7805,
7636,
7667,
7533,
7418,
7393,
7361,
7449,
7388,
7117,
7496,
7414,
7217,
7329,
7441,
7039,
7187,
7120,
7102,
7068,
7117,
7028,
6920,
7115,
7217,
7239,
7972,
10082,
16205,
31540,
62762,
113206,
174918,
226327,
243905,
217148,
161089,
99936,
53443,
25726,
13063,
8144,
6731,
6136,
6095,
6098,
5787,
5828,
5719,
5667,
5696,
5527,
5610,
5542,
5556,
5630,
5658,
5670,
5566,
5704,
5968,
6276,
7371,
9732,
13993,
20783,
28548,
34851,
37348,
34006,
27023,
19318,
12896,
8701,
6535,
5118,
4583,
4330,
4077,
4143,
4075,
4078,
3956,
4013,
4022,
3845,
3876,
3948,
3926,
3838,
3803,
3945,
3775,
3797,
3786,
3753,
3807,
3782,
3817,
4023,
4096,
3991,
4087,
4079,
3788,
3709,
3769,
3626,
3447,
3510,
3267,
3411,
3301,
3335,
3235,
3181,
3269,
3192,
3097,
3065,
3125,
3090,
3064,
3060,
2990,
2932,
2869,
2830,
2849,
2965,
2951,
2879,
2852,
2951,
2883,
2846,
2891,
2779,
2701,
2784,
2570,
2646,
2591,
2553,
2562,
2565,
2479,
2477,
2474,
2461,
2446,
2394,
2391,
2295,
2318,
2331,
2275,
2244,
2165,
2191,
2274,
2233,
2088,
2201,
2188,
2159,
2081,
2049,
2109,
2100,
2058,
2048,
1980,
1922,
1947,
2000,
1983,
1865,
1871,
1834,
1850,
1782,
1845,
1756,
1742,
1733,
1739,
1699,
1705,
1710,
1625,
1650,
1634,
1730,
1571,
1583,
1573,
1612,
1542,
1593,
1496,
1465,
1504,
1441,
1463,
1425,
1488,
1407,
1407,
1355,
1403,
1337,
1347,
1335,
1277,
1268,
1285,
1252,
1276,
1224,
1266,
1163,
1220,
1185,
1188,
1114,
1194,
1131,
1127,
1043,
1112,
1104,
1036,
1092,
1014,
1067,
989,
998,
974,
935,
952,
955,
943,
934,
894,
898,
873,
882,
893,
827,
846,
866,
814,
881,
841,
786,
771,
790,
749,
746,
733,
724,
778,
767,
737,
696,
737,
710,
706,
687,
654,
704,
653,
670,
590,
593,
608,
623,
634,
642,
570,
583,
518,
562,
541,
559,
506,
527,
497,
514,
500,
483,
483,
522,
441,
504,
479,
485,
451,
422,
430,
412,
395,
459,
412,
418,
412,
359,
395,
389,
398,
385,
372,
352,
335,
341,
344,
345,
318,
300,
306,
302,
283,
285,
286,
283,
282,
269,
309,
281,
233,
233,
244,
259,
234,
223,
226,
241,
264,
247,
294,
286,
271,
284,
231,
220,
222,
196,
180,
162,
163,
173,
150,
136,
132,
141,
153,
124,
131,
109,
127,
113,
91,
107,
118,
101,
88,
88,
95,
91,
86,
85,
69,
103,
96,
92,
75,
69,
65,
61,
65,
59,
44,
35,
40,
21,
32,
22,
22,
26,
14,
17,
15,
10,
10,
10,
13,
6,
14,
14,
5,
11,
8,
6,
10,
5,
7,
8,
9,
12,
5,
9,
7,
6,
8,
7,
4,
12,
4,
8,
4,
12,
3,
4,
7,
6,
5,
5,
7,
7,
9,
8,
7,
8,
5,
8,
6,
5,
9,
4,
6,
9,
8,
2,
6,
8,
2,
12,
1,
3,
6,
4,
2,
6,
4,
3,
2,
6,
2,
3,
2,
4,
4,
2,
4,
1,
4,
3,
3,
4,
2,
8,
2,
5,
2,
2,
1,
1,
0,
4,
3,
0,
1,
2,
4,
1,
3,
0,
4,
3,
5,
2,
3,
6,
2,
3,
1,
3,
2,
0,
0,
5,
3,
1,
5,
6,
1,
3,
3,
0,
3,
1,
1,
0,
1,
2,
5,
2,
2,
2,
2,
2,
1,
0,
0,
1,
3,
5,
2,
3,
2,
5,
2,
4,
2,
4,
3,
2,
2,
2,
4,
1,
1,
1,
2,
4,
4,
0,
2,
1,
1,
2,
2,
1,
0,
3,
3,
1,
5,
2,
1,
1,
0,
0,
1,
2,
1,
0,
1,
3,
3,
2,
1,
3,
4,
1,
1,
2,
1,
0,
1,
0,
1,
4,
2,
0,
2,
1,
0,
3,
1,
2,
1,
2,
0,
3,
0,
2,
0,
0,
1,
1,
3,
4,
1,
1,
0,
2,
2,
1,
0,
4,
1,
2,
2,
1,
0,
2,
1,
1,
0,
0,
1,
1,
0,
2,
0,
1,
0,
3,
1,
0,
0,
2,
1,
3,
0,
2,
1,
1,
0,
0,
0,
3,
2,
1,
0,
0,
0,
0,
0,
0,
2,
0,
0,
0,
1,
0,
1,
1,
0,
0,
0,
1,
0,
1,
0,
0,
0,
0,
1,
0,
0,
0,
0,
1,
0,
0,
1,
0,
1,
0,
0,
1,
0,
0,
0,
0,
0,
0,
0,
0,
0,
0,
0,
0,
0,
0,
0,
1,
0,
0,
0,
0,
0,
1,
0,
0,
0,
0,
0,
0,
0,
0,
0,
0,
0,
0,
1,
0,
0,
0,
0,
1,
0,
0,
0,
0,
0,
0,
0,
0,
0,
0,
0,
0,
0,
0,
0,
0,
0,
1,
0,
0,
0,
0,
1,
0,
0,
0,
0,
0,
0,
0,
0,
0,
0,
1,
0,
0,
0,
0,
0,
0,
0,
0,
0,
0,
0,
0,
1,
0,
0,
0,
0,
0,
0,
0,
0,
0,
0,
0,
0,
0,
0,
0,
0,
0,
0,
0,
0,
0,
0,
0,
0,
0,
0,
0,
0,
0,
0,
0,
0,
0,
0,
0,
0,
0,
0,
1,
0,
0,
0,
0,
0,
0,
0,
0,
0,
0,
0,
0,
0,
0,
0,
0,
0,
0,
0,
0,
0,
0,
0,
0,
0,
0,
0,
0,
0,
0,
0,
0,
0,
0,
0,
0,
0,
0,
0,
0,
0,
0,
0,
0,
0,
0,
0,
0,
0,
0,
0,
0,
0,
0,
0,
0,
0,
0,
0,
0,
0,
0,
0,
0,
0,
0,
0,
0,
0,
0,
0,
0,
0,
0,
0,
0,
0,
0,
0,
0,
0,
0,
0,
0,
0,
0,
0,
0,
0,
0,
0,
0,
0,
0,
0,
0,
0,
0,
0,
0,
0,
0,
0,
0,
0,
0,
0,
0,
0,
0,
0,
0,
0,
0,
0,
0,
0,
0,
0,
0,
0,
0,
0,
0,
0,
0,
0,
0,
0,
0,
0,
0,
0,
0,
0,
0,
0,
0,
0,
0,
0,
0,
0,
0,
0,
0,
0,
0,
0,
0,
0,
0,
0,
0,
0,
0,
0,
0,
0,
0,
0,
0,
0,
0,
0,
0,
0,
0,
0,
0,
0,
0,
0,
0,
0,
0,
0,
0,
0,
0,
0,
0,
0,
0,
0,
0,
0,
0,
0,
0,
0,
0,
0,
0,
0,
0,
0,
0,
0,
0,
0,
0,
0,
0,
0,
0,
0,
0,
0,
0,
0,
0,
0,
0,
0,
0,
0,
0,
0,
0,
0,
0,
0,
0,
0,
0,
0,
0,
0,
0,
0,
0,
0,
0,
0,
0,
0,
0,
0,
0,
0,
0,
0,
0,
0,
0,
0,
0,
0,
0,
0,
0,
0,
0,
0,
0,
0,
0,
0,
0,
0,
0,
0,
0,
0,
0,
0,
0,
0,
0,
0,
0,
0,
0,
0,
0,
0,
0,
0,
0,
0,
0,
#ENDOFDATA   :