File: N132962/Standards/20 keV/Gd std.msa
#FORMAT      : EMSA/MAS Spectral Data File
#VERSION     : 1.0
#TITLE       : Gd std
#DATE        : 20-FEB-2025
#TIME        : 13:14
#OWNER       : Unknown
#NPOINTS     : 4096
#NCOLUMNS    : 1
#XUNITS      : eV
#YUNITS      : counts
#DATATYPE    : Y
#XPERCHAN    : 9.99778
#OFFSET      : 1.69135
#BEAMKV      : 20
#SIGNALTYPE  : EDS
#ELEVANGLE   : 35
#AZIMANGLE   : 0
#LIVETIME    : 959.989
#REALTIME    : 1062.46
#PROBECUR    : 1.04644
#TAUWIND     : 0
#TDEADLYR    : 0
#TACTLYR     : 0.045
#TALWIND     : 0.025
#CHOFFSET    : 0.0
#XLABEL      : Energy (eV)
#YLABEL      : Counts
#EDSDET      : SD
##SPECIMEN   : Gd std
##D2STDCMP   : Gd,(Gd:100.0),5.0
##DET_HASH   : 12273538-fd48-a23f-0a19-f1e6fa85caef
##CALIB_HASH : 6abaa72c-aa41-8738-0be9-f592914732f3
##WORKING    : 15.0 mm
##SAMPLE     : <BulkSample id="1">\n<mOrientation id="2">\n<double>0.0</double>\n<double>0.0</double>\n<double>-1.0</double>\n</mOrientation>\n</BulkSample>
##MULTISPEC  : 17.1922
##DET_NAME   : EDAX All
##DET_MODE   : MediumLE
#SPECTRUM    :
114,
137,
59,
215,
987,
3155,
8472,
18965,
38184,
47324,
36912,
32126,
32699,
32582,
34787,
44726,
75154,
112458,
92239,
51193,
41412,
48648,
61304,
62351,
51997,
46778,
48325,
55718,
79737,
143569,
216038,
194141,
112570,
68203,
58139,
57760,
63809,
91229,
173182,
284664,
305721,
195334,
79872,
33050,
25993,
30661,
39293,
40239,
33657,
29654,
31768,
33006,
30745,
27140,
25048,
23989,
23844,
24299,
25501,
25476,
24750,
24042,
22542,
21845,
21811,
21927,
22142,
22605,
22796,
23307,
23836,
23719,
24050,
24251,
24438,
24741,
24946,
25251,
25241,
25486,
25749,
26058,
25960,
26032,
26208,
26031,
26767,
27100,
26808,
26969,
27061,
27155,
27064,
27064,
27047,
27127,
27435,
27373,
27728,
27667,
27461,
27463,
27888,
27603,
27590,
27868,
27665,
27830,
27742,
27647,
27831,
27763,
27488,
27575,
27269,
27733,
27500,
27615,
27540,
27520,
27386,
27396,
27295,
27388,
27169,
27451,
27128,
27145,
27131,
26990,
26726,
26749,
26750,
26673,
26824,
26313,
26385,
26119,
26217,
26338,
26265,
26319,
27078,
27152,
27242,
26772,
25944,
25496,
25492,
25289,
25022,
25046,
25256,
24797,
24989,
24591,
24769,
24487,
24449,
24232,
24309,
23781,
24108,
24170,
24217,
24224,
24466,
23927,
23913,
23401,
23463,
23450,
23053,
23466,
23841,
25189,
28772,
33715,
38681,
39685,
37141,
31751,
26932,
24148,
22818,
22322,
22119,
21821,
21993,
22018,
21767,
21720,
21910,
21842,
22347,
24163,
28736,
43488,
84272,
169802,
294275,
405127,
431652,
359203,
231754,
121778,
57849,
31623,
23096,
21148,
20903,
21556,
22410,
23145,
22504,
21783,
21164,
20794,
23602,
32812,
55262,
96546,
151733,
197206,
206083,
178099,
132821,
93426,
67897,
50711,
38351,
30539,
28766,
36322,
51218,
70749,
84782,
84908,
71221,
51680,
34510,
23978,
18737,
16219,
14899,
14248,
14431,
14842,
14992,
15422,
15527,
15643,
15270,
15100,
15589,
18016,
22406,
28929,
36159,
39079,
37742,
31596,
24492,
19156,
15802,
15282,
16130,
17935,
20473,
21649,
21772,
19627,
17035,
14963,
13477,
13073,
12969,
13080,
13043,
12891,
12354,
12012,
11423,
11159,
11160,
11000,
10817,
10883,
10817,
10949,
10682,
10717,
10685,
10628,
10576,
10352,
10519,
10618,
10388,
10360,
10333,
10343,
10346,
10247,
10257,
10206,
10100,
10003,
9766,
9994,
9933,
9770,
9889,
9640,
9716,
9571,
9671,
9760,
9755,
9686,
9537,
9510,
9386,
9374,
9350,
9353,
9405,
9085,
9287,
9300,
9132,
9069,
9176,
8907,
8824,
8895,
8942,
8839,
8628,
8634,
8677,
8604,
8555,
8461,
8630,
8355,
8141,
8207,
8200,
8352,
8106,
8097,
8194,
8008,
8043,
7902,
7942,
7930,
7990,
7792,
7747,
7740,
7460,
7536,
7669,
7513,
7528,
7286,
7284,
7362,
7428,
7247,
7171,
7208,
6881,
6958,
6960,
6988,
7075,
6948,
7017,
6676,
6667,
6891,
6665,
6710,
6532,
6609,
6560,
6496,
6387,
6314,
6281,
6281,
6348,
6225,
6130,
6043,
6054,
5945,
6114,
6136,
6135,
6268,
5945,
5913,
5856,
5856,
5767,
5633,
5572,
5552,
5535,
5451,
5262,
5273,
5342,
5219,
5203,
5114,
5165,
5237,
5170,
5303,
5216,
5054,
5160,
5117,
5044,
4977,
4931,
4811,
4628,
4818,
4634,
4543,
4594,
4564,
4482,
4582,
4549,
4411,
4403,
4335,
4272,
4238,
4200,
4215,
4098,
4092,
4049,
4109,
4073,
3921,
3808,
3940,
3903,
3829,
3813,
3826,
3784,
3740,
3767,
3675,
3509,
3550,
3547,
3523,
3485,
3450,
3440,
3387,
3384,
3343,
3377,
3377,
3185,
3284,
3179,
3105,
3036,
3053,
3050,
3083,
2989,
2888,
2927,
2866,
2708,
2774,
2813,
2839,
2832,
2753,
2691,
2722,
2536,
2640,
2497,
2544,
2568,
2517,
2529,
2510,
2498,
2380,
2448,
2399,
2320,
2330,
2314,
2245,
2160,
2128,
2144,
2223,
2131,
2041,
2120,
2073,
2075,
2036,
2003,
2048,
1972,
1972,
1972,
1934,
1968,
1783,
1920,
1845,
1811,
1820,
1767,
1760,
1674,
1773,
1708,
1675,
1669,
1636,
1622,
1586,
1558,
1534,
1537,
1513,
1495,
1484,
1379,
1396,
1380,
1339,
1405,
1420,
1274,
1367,
1305,
1290,
1350,
1267,
1324,
1280,
1192,
1227,
1197,
1203,
1203,
1204,
1168,
1144,
1085,
1099,
1087,
1078,
1009,
1085,
1019,
1008,
973,
937,
959,
948,
991,
940,
892,
880,
916,
918,
868,
804,
841,
817,
791,
782,
729,
787,
759,
699,
724,
662,
702,
644,
663,
665,
638,
611,
628,
579,
633,
623,
526,
569,
552,
546,
540,
540,
507,
490,
471,
490,
451,
407,
411,
406,
406,
413,
413,
384,
372,
348,
336,
355,
328,
355,
324,
301,
273,
277,
307,
280,
293,
238,
250,
236,
193,
204,
210,
165,
194,
171,
183,
154,
144,
108,
111,
109,
105,
96,
85,
85,
71,
67,
46,
44,
45,
32,
26,
44,
18,
21,
23,
23,
21,
18,
21,
30,
19,
27,
22,
20,
31,
23,
23,
19,
24,
19,
20,
14,
27,
17,
18,
18,
23,
32,
25,
21,
23,
17,
18,
12,
20,
12,
17,
17,
17,
16,
20,
14,
15,
21,
17,
14,
20,
20,
22,
17,
14,
14,
13,
17,
15,
8,
15,
23,
18,
14,
12,
15,
18,
10,
9,
21,
9,
12,
8,
18,
18,
10,
16,
8,
10,
20,
9,
11,
12,
15,
8,
7,
21,
14,
11,
6,
9,
11,
12,
15,
10,
9,
6,
11,
12,
9,
9,
12,
8,
5,
11,
10,
10,
9,
13,
6,
10,
9,
6,
5,
7,
11,
10,
6,
6,
8,
7,
6,
7,
13,
7,
6,
3,
11,
6,
8,
4,
6,
3,
2,
6,
5,
6,
9,
9,
8,
11,
4,
5,
6,
10,
9,
4,
7,
7,
8,
8,
3,
5,
6,
7,
4,
4,
16,
3,
10,
8,
7,
7,
5,
2,
9,
7,
6,
10,
2,
11,
6,
4,
4,
5,
8,
10,
3,
4,
8,
2,
2,
4,
3,
5,
4,
4,
3,
6,
1,
4,
1,
2,
3,
6,
5,
4,
3,
3,
4,
2,
1,
2,
1,
3,
4,
2,
0,
6,
5,
1,
2,
4,
2,
3,
2,
3,
2,
4,
5,
4,
3,
4,
2,
5,
4,
3,
7,
3,
1,
3,
4,
3,
4,
4,
0,
0,
1,
2,
2,
2,
3,
5,
0,
0,
3,
1,
2,
3,
3,
0,
2,
2,
1,
3,
3,
2,
4,
2,
1,
1,
0,
3,
1,
0,
3,
3,
3,
2,
1,
2,
0,
2,
0,
3,
2,
0,
2,
0,
0,
1,
0,
0,
0,
1,
1,
0,
4,
1,
1,
1,
3,
0,
1,
1,
0,
0,
3,
0,
1,
0,
2,
1,
2,
4,
0,
0,
0,
3,
1,
0,
1,
0,
2,
0,
0,
0,
1,
0,
0,
2,
0,
0,
0,
1,
1,
1,
2,
1,
0,
0,
0,
2,
0,
1,
0,
0,
0,
1,
1,
1,
0,
3,
2,
0,
0,
0,
0,
2,
0,
0,
0,
0,
0,
0,
0,
0,
0,
1,
0,
0,
1,
1,
0,
0,
0,
0,
0,
1,
0,
0,
0,
1,
0,
0,
0,
0,
0,
0,
0,
0,
0,
1,
0,
0,
0,
0,
0,
1,
0,
0,
0,
0,
0,
0,
0,
0,
0,
0,
0,
0,
0,
0,
0,
0,
0,
1,
0,
0,
2,
1,
0,
0,
0,
0,
0,
1,
0,
0,
1,
0,
0,
0,
0,
1,
0,
0,
1,
1,
0,
0,
0,
0,
0,
0,
0,
1,
0,
0,
0,
0,
0,
0,
0,
0,
0,
0,
1,
1,
0,
0,
0,
0,
0,
0,
1,
1,
0,
0,
0,
0,
0,
0,
0,
0,
0,
0,
0,
0,
0,
0,
0,
0,
0,
0,
0,
1,
0,
0,
1,
0,
0,
0,
0,
0,
0,
0,
1,
0,
0,
0,
0,
0,
0,
0,
0,
0,
0,
0,
0,
0,
0,
0,
0,
1,
0,
0,
0,
0,
0,
0,
0,
0,
0,
0,
0,
0,
0,
0,
0,
0,
0,
0,
0,
0,
0,
0,
0,
0,
0,
0,
0,
0,
0,
0,
0,
1,
0,
0,
0,
0,
0,
0,
0,
0,
0,
0,
0,
0,
0,
0,
0,
0,
0,
0,
0,
0,
0,
0,
0,
0,
0,
0,
0,
0,
0,
0,
0,
0,
0,
0,
0,
0,
0,
0,
0,
0,
0,
0,
0,
0,
0,
0,
0,
0,
0,
0,
0,
0,
0,
0,
0,
0,
0,
1,
0,
0,
0,
0,
0,
0,
0,
0,
0,
0,
0,
0,
0,
0,
0,
0,
0,
0,
0,
0,
0,
0,
0,
0,
0,
0,
0,
0,
0,
0,
0,
0,
0,
0,
0,
0,
0,
0,
0,
0,
0,
0,
0,
0,
0,
0,
0,
0,
0,
0,
0,
0,
0,
0,
0,
0,
0,
0,
0,
0,
0,
0,
0,
0,
0,
0,
0,
0,
0,
0,
0,
0,
0,
0,
0,
0,
0,
0,
0,
0,
0,
0,
0,
0,
0,
0,
0,
0,
0,
0,
0,
0,
0,
0,
0,
0,
0,
0,
0,
0,
0,
0,
0,
0,
0,
0,
0,
#ENDOFDATA   :