File: N132962/Standards/20 keV/Ge std.msa
#FORMAT      : EMSA/MAS Spectral Data File
#VERSION     : 1.0
#TITLE       : Ge std
#DATE        : 21-FEB-2025
#TIME        : 09:21
#OWNER       : Unknown
#NPOINTS     : 4096
#NCOLUMNS    : 1
#XUNITS      : eV
#YUNITS      : counts
#DATATYPE    : Y
#XPERCHAN    : 9.99778
#OFFSET      : 1.69135
#BEAMKV      : 20
#SIGNALTYPE  : EDS
#ELEVANGLE   : 35
#AZIMANGLE   : 0
#LIVETIME    : 954.361
#REALTIME    : 1068.4
#PROBECUR    : 1.05789
#TAUWIND     : 0
#TDEADLYR    : 0
#TACTLYR     : 0.045
#TALWIND     : 0.025
#CHOFFSET    : 0.0
#XLABEL      : Energy (eV)
#YLABEL      : Counts
#EDSDET      : SD
##SPECIMEN   : Ge std
##D2STDCMP   : Ge,(Ge:100.0),5.0
##DET_HASH   : 12273538-fd48-a23f-0a19-f1e6fa85caef
##CALIB_HASH : 6abaa72c-aa41-8738-0be9-f592914732f3
##WORKING    : 15.0 mm
##SAMPLE     : <BulkSample id="1">\n<mOrientation id="2">\n<double>0.0</double>\n<double>0.0</double>\n<double>-1.0</double>\n</mOrientation>\n</BulkSample>
##MULTISPEC  : 1.49849
##DET_NAME   : EDAX All
##DET_MODE   : MediumLE
#SPECTRUM    :
104,
132,
54,
116,
432,
1794,
4467,
9811,
19994,
25327,
17953,
14076,
14870,
15829,
17159,
19987,
25214,
31023,
30360,
27340,
28387,
30489,
33475,
36705,
37968,
39097,
40587,
43059,
45736,
48197,
49293,
53425,
64561,
106404,
178882,
206516,
177022,
284372,
964323,
2232438,
2606359,
1540511,
494269,
106992,
29646,
16342,
13553,
13177,
13386,
13767,
14173,
14058,
13605,
13935,
14495,
14941,
15690,
17273,
18585,
18374,
17727,
16999,
16307,
15648,
16083,
16261,
16348,
16831,
16870,
17289,
17408,
18005,
18043,
18814,
19662,
20164,
20510,
21797,
25610,
30033,
30871,
26441,
22130,
19672,
19197,
18873,
18946,
19170,
18950,
19092,
19273,
19271,
19417,
19475,
19265,
19310,
19531,
19545,
19597,
19480,
19107,
19399,
19282,
19135,
19256,
19313,
19118,
19313,
19064,
19209,
19102,
18999,
19231,
19200,
18970,
18923,
18812,
18801,
18699,
18398,
18515,
18571,
18507,
18309,
18539,
18295,
17994,
18032,
18015,
17578,
18008,
17660,
17559,
17588,
17460,
17442,
17153,
17356,
17284,
16977,
16896,
16893,
16860,
16525,
16714,
16739,
16245,
16367,
16352,
16289,
15927,
15946,
15689,
15941,
15915,
15939,
15742,
15636,
15547,
15492,
15171,
15232,
15250,
14967,
14692,
15001,
14605,
14697,
14700,
14609,
14664,
14201,
14411,
14310,
14164,
14123,
13927,
14117,
14116,
14258,
14626,
14182,
13950,
13503,
13373,
13254,
13291,
13048,
13109,
13104,
13029,
12382,
12579,
12800,
12637,
12458,
12375,
12682,
12540,
12257,
12045,
12017,
12075,
11937,
11747,
11836,
11527,
11645,
11349,
11758,
11935,
13136,
13747,
14457,
14334,
13402,
12004,
11316,
10968,
10719,
10630,
10746,
10435,
10595,
10561,
10450,
10433,
10305,
10184,
10207,
10069,
10175,
10199,
10275,
10041,
10261,
10128,
9904,
9730,
9648,
9478,
9266,
9427,
9425,
9196,
9303,
9328,
9798,
9714,
10012,
9701,
9321,
8915,
8904,
8751,
8693,
8627,
8501,
8599,
8411,
8357,
8422,
8213,
8187,
8320,
8116,
8203,
8162,
8121,
8182,
8200,
8124,
8187,
7987,
7881,
7952,
7962,
7488,
7704,
7618,
7510,
7505,
7353,
7338,
7370,
7269,
7188,
7298,
7193,
6936,
6981,
6882,
6999,
6909,
6725,
6786,
6655,
6698,
6687,
6704,
6595,
6674,
6757,
6684,
6633,
6531,
6532,
6484,
6293,
6458,
6362,
6391,
6253,
6187,
6126,
6322,
6420,
6390,
6546,
6574,
6832,
7441,
9635,
15700,
30404,
59702,
106760,
162331,
211380,
230377,
211296,
162621,
106227,
59503,
29623,
14592,
8564,
6382,
5679,
5405,
5329,
5335,
5231,
5085,
5165,
5108,
4882,
4979,
4896,
4952,
4795,
5033,
4962,
4841,
4968,
4895,
4984,
5144,
5339,
5701,
6995,
9570,
14057,
20589,
27753,
33402,
35249,
32220,
26282,
18926,
13376,
8963,
6501,
4801,
4212,
3718,
3636,
3388,
3623,
3520,
3423,
3391,
3398,
3390,
3290,
3362,
3306,
3263,
3277,
3220,
3190,
3236,
3197,
3119,
3087,
3105,
3081,
3019,
3097,
2994,
3089,
2996,
3123,
3164,
3109,
3071,
3090,
2958,
3068,
2921,
2822,
2750,
2730,
2654,
2740,
2715,
2617,
2566,
2560,
2530,
2579,
2532,
2544,
2576,
2558,
2508,
2467,
2391,
2469,
2420,
2293,
2422,
2265,
2377,
2375,
2249,
2385,
2184,
2273,
2117,
2199,
2111,
2196,
2138,
2112,
2043,
2048,
2091,
2038,
2029,
1956,
1972,
2005,
1958,
1909,
1826,
1839,
1863,
1895,
1840,
1788,
1880,
1852,
1753,
1740,
1645,
1709,
1710,
1667,
1683,
1607,
1555,
1613,
1618,
1600,
1558,
1529,
1573,
1598,
1518,
1501,
1490,
1401,
1446,
1467,
1394,
1340,
1415,
1362,
1364,
1368,
1354,
1315,
1266,
1322,
1277,
1278,
1284,
1245,
1246,
1197,
1146,
1182,
1162,
1235,
1182,
1175,
1172,
1096,
1073,
1106,
1096,
1092,
1087,
1050,
1034,
955,
972,
951,
1018,
1001,
1007,
982,
952,
916,
832,
928,
923,
859,
863,
907,
893,
806,
835,
895,
795,
827,
768,
825,
800,
761,
773,
696,
720,
700,
769,
690,
648,
683,
641,
622,
628,
706,
634,
679,
631,
572,
574,
592,
577,
617,
615,
614,
570,
523,
566,
520,
540,
528,
540,
468,
510,
537,
488,
487,
506,
479,
449,
454,
454,
447,
430,
415,
423,
445,
424,
395,
352,
360,
341,
357,
355,
350,
349,
322,
330,
344,
352,
345,
330,
321,
282,
276,
290,
327,
263,
277,
286,
247,
267,
248,
257,
247,
256,
216,
206,
236,
206,
206,
204,
202,
224,
188,
172,
204,
199,
186,
160,
150,
153,
156,
163,
129,
150,
150,
158,
126,
114,
121,
125,
112,
106,
123,
113,
82,
95,
86,
90,
100,
81,
85,
89,
91,
85,
106,
96,
124,
130,
143,
135,
110,
84,
86,
56,
41,
38,
22,
21,
15,
16,
17,
12,
13,
14,
17,
14,
12,
12,
10,
11,
14,
13,
10,
7,
6,
11,
14,
10,
14,
18,
24,
18,
15,
30,
38,
26,
20,
35,
33,
26,
19,
12,
9,
6,
9,
8,
4,
10,
3,
11,
9,
9,
14,
6,
7,
10,
5,
6,
5,
11,
8,
5,
5,
6,
6,
8,
5,
8,
5,
13,
7,
9,
10,
9,
7,
6,
7,
6,
6,
7,
7,
3,
5,
4,
3,
4,
6,
7,
8,
3,
3,
3,
5,
3,
6,
3,
8,
4,
7,
5,
3,
4,
8,
5,
7,
3,
3,
8,
3,
7,
2,
3,
5,
7,
11,
5,
6,
4,
4,
2,
5,
6,
4,
4,
3,
4,
5,
1,
3,
2,
2,
4,
4,
3,
1,
3,
2,
3,
1,
3,
1,
5,
3,
3,
2,
5,
2,
1,
2,
1,
6,
1,
3,
2,
1,
4,
4,
2,
3,
4,
3,
4,
2,
3,
4,
2,
5,
6,
4,
4,
1,
1,
2,
3,
1,
2,
3,
3,
1,
1,
2,
2,
3,
2,
1,
1,
5,
3,
2,
7,
2,
4,
3,
0,
4,
2,
2,
2,
2,
3,
3,
2,
2,
2,
0,
2,
2,
2,
0,
1,
3,
1,
2,
1,
0,
2,
0,
2,
1,
0,
0,
2,
2,
0,
6,
2,
3,
3,
3,
1,
0,
2,
1,
1,
3,
1,
0,
3,
3,
0,
0,
1,
1,
0,
2,
1,
0,
1,
3,
1,
1,
5,
1,
2,
1,
0,
1,
1,
1,
2,
2,
0,
0,
3,
0,
2,
1,
2,
3,
2,
1,
0,
0,
0,
1,
4,
0,
0,
0,
0,
1,
0,
1,
0,
0,
3,
0,
1,
1,
0,
0,
0,
0,
0,
0,
0,
0,
1,
0,
0,
0,
1,
1,
0,
0,
0,
0,
0,
0,
0,
0,
0,
0,
1,
0,
1,
1,
0,
1,
0,
0,
2,
1,
0,
0,
0,
1,
0,
0,
0,
0,
0,
1,
0,
0,
1,
0,
0,
0,
1,
0,
0,
0,
0,
0,
0,
1,
0,
0,
0,
0,
0,
1,
0,
0,
0,
0,
0,
0,
0,
0,
0,
0,
0,
1,
0,
1,
1,
0,
0,
0,
0,
0,
0,
0,
0,
0,
0,
0,
0,
0,
0,
0,
0,
0,
0,
0,
0,
0,
0,
0,
0,
0,
0,
0,
0,
0,
0,
0,
0,
0,
0,
0,
0,
0,
0,
0,
1,
0,
0,
0,
0,
0,
0,
0,
0,
1,
0,
0,
0,
0,
0,
0,
0,
0,
0,
0,
0,
0,
0,
0,
0,
0,
0,
0,
0,
0,
0,
0,
0,
0,
0,
0,
0,
0,
0,
0,
1,
0,
0,
0,
0,
0,
0,
0,
0,
0,
0,
0,
0,
0,
0,
0,
0,
0,
0,
0,
0,
0,
0,
0,
0,
0,
0,
0,
0,
0,
0,
0,
0,
0,
0,
0,
0,
0,
0,
0,
0,
0,
0,
0,
0,
0,
0,
0,
0,
0,
0,
0,
1,
0,
0,
0,
0,
0,
0,
0,
0,
0,
0,
0,
0,
0,
0,
0,
0,
0,
0,
0,
0,
0,
0,
0,
0,
0,
0,
0,
0,
0,
0,
0,
0,
0,
0,
0,
0,
0,
0,
0,
0,
0,
0,
0,
0,
0,
0,
0,
0,
0,
0,
0,
0,
0,
0,
0,
0,
0,
0,
0,
0,
0,
0,
0,
0,
0,
0,
0,
0,
0,
0,
0,
0,
0,
0,
0,
0,
0,
0,
0,
0,
0,
0,
0,
0,
0,
0,
0,
0,
0,
0,
0,
0,
0,
0,
0,
0,
0,
0,
0,
0,
0,
0,
0,
0,
0,
0,
0,
0,
0,
0,
0,
0,
0,
0,
0,
0,
0,
0,
0,
0,
0,
0,
0,
0,
0,
0,
0,
0,
0,
0,
0,
0,
0,
0,
0,
0,
0,
0,
0,
0,
0,
0,
0,
0,
0,
0,
0,
0,
0,
0,
0,
0,
0,
0,
0,
0,
0,
0,
0,
0,
0,
0,
0,
0,
0,
0,
0,
0,
0,
0,
0,
0,
0,
0,
0,
0,
0,
0,
0,
0,
0,
0,
0,
0,
0,
0,
0,
0,
0,
0,
0,
0,
0,
0,
0,
0,
0,
0,
0,
0,
0,
0,
0,
0,
0,
0,
#ENDOFDATA   :