File: N132962/Standards/20 keV/Hf std.msa
#FORMAT      : EMSA/MAS Spectral Data File
#VERSION     : 1.0
#TITLE       : Hf std
#DATE        : 20-FEB-2025
#TIME        : 13:44
#OWNER       : Unknown
#NPOINTS     : 4096
#NCOLUMNS    : 1
#XUNITS      : eV
#YUNITS      : counts
#DATATYPE    : Y
#XPERCHAN    : 9.99778
#OFFSET      : 1.69135
#BEAMKV      : 20
#SIGNALTYPE  : EDS
#ELEVANGLE   : 35
#AZIMANGLE   : 0
#LIVETIME    : 960.454
#REALTIME    : 1092.46
#PROBECUR    : 1.04693
#TAUWIND     : 0
#TDEADLYR    : 0
#TACTLYR     : 0.045
#TALWIND     : 0.025
#CHOFFSET    : 0.0
#XLABEL      : Energy (eV)
#YLABEL      : Counts
#EDSDET      : SD
##SPECIMEN   : Hf std
##D2STDCMP   : Hf,(Hf:100.0),5.0
##DET_HASH   : 12273538-fd48-a23f-0a19-f1e6fa85caef
##CALIB_HASH : 6abaa72c-aa41-8738-0be9-f592914732f3
##WORKING    : 15.0 mm
##SAMPLE     : <BulkSample id="1">\n<mOrientation id="2">\n<double>0.0</double>\n<double>0.0</double>\n<double>-1.0</double>\n</mOrientation>\n</BulkSample>
##MULTISPEC  : 2.77254
##DET_NAME   : EDAX All
##DET_MODE   : MediumLE
#SPECTRUM    :
114,
126,
67,
182,
1096,
4726,
12795,
20873,
32532,
39378,
29056,
22783,
22092,
22243,
23589,
27270,
38047,
50671,
44695,
32407,
30355,
32710,
35840,
38751,
38859,
38191,
38874,
41415,
43699,
45407,
45830,
46495,
47681,
48740,
49779,
50744,
52358,
52488,
53781,
56261,
66264,
99319,
150826,
158040,
112640,
76842,
64388,
61098,
62321,
64979,
71214,
91622,
191484,
576304,
1308863,
1699991,
1294546,
670745,
264108,
87298,
40605,
36706,
42852,
47011,
41361,
32809,
32826,
41300,
48335,
46702,
42434,
40574,
36969,
31700,
27575,
25306,
23861,
23270,
22715,
22384,
22601,
22913,
22610,
23055,
23613,
23781,
24000,
23551,
23502,
23708,
23946,
23674,
23929,
23984,
24168,
24628,
25067,
25362,
25332,
25497,
25319,
25317,
25086,
25215,
25653,
25581,
25893,
26490,
27724,
29237,
30392,
29948,
28592,
27260,
26903,
26220,
26148,
26045,
25955,
26093,
26348,
26231,
26362,
26344,
26229,
26135,
26134,
26036,
25957,
25956,
26215,
26015,
25806,
26016,
26071,
25981,
25941,
25810,
25608,
26017,
25371,
25557,
25582,
25887,
25681,
25464,
25344,
25378,
25577,
25348,
25174,
25345,
25083,
25187,
24904,
24712,
25242,
24705,
24770,
24788,
24928,
24760,
24382,
24176,
24455,
24271,
24250,
23987,
24274,
24123,
24036,
23935,
23623,
23870,
23638,
23738,
23614,
23483,
23748,
23976,
24231,
24040,
23627,
23265,
22638,
22717,
22432,
22489,
22424,
22049,
22260,
22257,
21855,
22118,
21612,
21696,
21568,
21627,
21678,
21587,
21475,
21336,
21446,
21335,
21459,
21334,
21234,
20821,
20891,
21182,
21443,
22738,
24549,
25164,
24793,
23525,
22148,
20227,
20066,
19772,
19715,
19365,
19226,
19176,
19108,
19150,
19436,
19583,
20493,
22464,
25492,
27903,
29099,
27989,
25396,
22867,
20561,
19574,
19159,
18179,
18045,
18171,
17675,
17527,
17764,
17765,
17947,
18632,
18596,
19123,
18638,
18294,
18084,
17519,
17504,
17908,
19594,
23445,
34897,
59502,
103363,
162252,
217741,
243376,
222794,
168277,
106255,
60017,
34208,
23268,
19475,
18635,
18066,
17270,
16384,
16036,
15476,
15025,
14908,
14694,
14608,
14477,
14458,
14581,
14259,
14240,
14218,
14196,
14273,
14454,
14218,
14676,
15260,
17171,
20044,
25124,
33786,
47022,
65760,
86439,
99708,
101293,
87785,
68780,
50838,
39427,
32962,
30851,
32914,
38984,
46809,
51867,
50425,
43008,
33287,
24504,
18699,
15897,
14761,
13886,
12938,
12218,
11627,
11168,
10593,
10427,
10436,
10418,
10288,
10189,
10120,
9965,
10343,
9965,
9977,
10201,
10029,
10123,
10274,
10316,
10240,
10208,
10104,
10102,
10386,
10919,
12360,
14977,
18362,
21219,
22515,
22231,
19670,
16554,
13789,
11616,
10974,
10656,
10984,
11571,
12185,
12712,
12945,
12225,
11726,
10607,
10033,
9039,
8749,
8644,
8383,
8235,
8243,
8263,
8406,
8288,
8158,
7887,
7758,
7480,
7480,
7321,
7373,
7362,
7132,
7235,
7208,
7009,
6977,
7025,
6906,
6860,
6917,
6882,
6635,
6709,
6701,
6536,
6591,
6517,
6533,
6384,
6445,
6477,
6580,
6360,
6366,
6326,
6294,
6229,
6105,
6134,
6004,
5965,
5858,
5952,
5835,
5887,
5802,
5750,
5665,
5581,
5446,
5522,
5626,
5416,
5307,
5428,
5278,
5359,
5287,
5223,
5253,
5128,
5226,
5089,
5098,
4936,
4986,
5007,
4923,
4845,
4786,
4807,
4665,
4774,
4601,
4616,
4535,
4667,
4458,
4463,
4360,
4498,
4300,
4278,
4214,
4156,
4241,
4193,
4207,
4164,
3984,
4128,
3981,
3900,
3913,
4083,
3838,
3833,
3873,
3695,
3802,
3704,
3733,
3596,
3667,
3511,
3582,
3533,
3534,
3500,
3339,
3424,
3338,
3383,
3359,
3326,
3203,
3302,
3116,
3189,
3080,
3019,
3019,
3168,
2992,
2936,
3000,
2999,
3015,
2859,
2814,
2763,
2794,
2774,
2766,
2668,
2703,
2723,
2527,
2574,
2659,
2591,
2487,
2490,
2546,
2430,
2459,
2361,
2463,
2417,
2472,
2510,
2497,
2473,
2447,
2313,
2328,
2312,
2155,
2154,
2082,
2092,
2045,
2099,
2026,
1961,
1992,
1982,
1921,
1888,
1809,
1848,
1839,
1776,
1771,
1802,
1677,
1721,
1683,
1657,
1670,
1613,
1708,
1578,
1559,
1588,
1435,
1635,
1515,
1499,
1550,
1508,
1525,
1590,
1483,
1493,
1461,
1312,
1408,
1349,
1349,
1311,
1334,
1252,
1275,
1225,
1203,
1167,
1245,
1093,
1139,
1104,
1083,
1139,
1084,
1101,
1071,
1065,
1046,
948,
989,
943,
1000,
952,
944,
920,
874,
894,
890,
847,
854,
886,
808,
846,
784,
762,
748,
745,
785,
704,
693,
685,
706,
693,
650,
579,
579,
620,
562,
557,
571,
571,
590,
564,
500,
508,
516,
496,
444,
456,
452,
458,
404,
414,
364,
378,
356,
319,
351,
348,
288,
316,
274,
308,
287,
250,
239,
230,
233,
234,
209,
220,
203,
190,
167,
159,
140,
136,
131,
120,
93,
91,
79,
76,
58,
44,
39,
48,
36,
43,
30,
31,
31,
35,
31,
22,
26,
34,
24,
34,
37,
36,
19,
28,
31,
26,
35,
25,
34,
29,
22,
25,
20,
29,
15,
19,
24,
30,
23,
24,
26,
25,
29,
21,
19,
23,
17,
25,
26,
21,
21,
18,
15,
22,
24,
20,
19,
17,
14,
16,
14,
14,
19,
18,
23,
18,
17,
24,
15,
18,
15,
28,
18,
21,
17,
15,
19,
11,
18,
16,
15,
17,
11,
12,
11,
14,
16,
14,
20,
18,
15,
27,
16,
21,
16,
11,
12,
17,
17,
13,
15,
11,
14,
13,
23,
12,
12,
11,
11,
11,
12,
9,
13,
18,
17,
13,
12,
11,
12,
12,
10,
13,
6,
12,
12,
17,
14,
9,
5,
9,
9,
13,
13,
11,
14,
10,
10,
12,
7,
12,
10,
7,
7,
10,
8,
8,
10,
9,
13,
8,
3,
8,
9,
4,
8,
12,
6,
15,
20,
10,
10,
10,
8,
10,
9,
10,
10,
4,
12,
6,
10,
9,
13,
6,
14,
9,
6,
17,
8,
6,
6,
10,
7,
11,
10,
10,
9,
8,
4,
12,
5,
4,
9,
7,
2,
9,
9,
5,
5,
3,
8,
6,
6,
5,
0,
7,
4,
5,
4,
6,
8,
4,
8,
3,
3,
10,
0,
11,
3,
2,
5,
5,
4,
7,
7,
10,
3,
2,
3,
4,
0,
2,
6,
1,
5,
3,
3,
3,
1,
9,
1,
7,
5,
5,
1,
2,
3,
4,
3,
10,
6,
2,
3,
4,
3,
1,
3,
2,
4,
1,
3,
3,
2,
2,
3,
3,
1,
6,
3,
2,
3,
4,
3,
5,
2,
1,
2,
0,
4,
3,
2,
0,
1,
0,
2,
2,
1,
5,
5,
3,
1,
1,
5,
4,
1,
1,
2,
0,
4,
3,
3,
0,
3,
3,
2,
1,
3,
1,
0,
0,
1,
0,
1,
1,
2,
1,
1,
0,
0,
1,
1,
1,
0,
2,
1,
0,
0,
1,
0,
0,
0,
0,
2,
0,
1,
1,
0,
1,
0,
0,
1,
0,
1,
0,
3,
1,
1,
1,
0,
1,
1,
2,
0,
0,
1,
2,
1,
1,
0,
3,
1,
1,
1,
0,
0,
0,
1,
0,
0,
0,
1,
0,
0,
0,
1,
2,
1,
1,
0,
1,
0,
0,
0,
0,
0,
1,
0,
1,
0,
0,
0,
0,
0,
0,
1,
0,
0,
0,
0,
0,
0,
0,
0,
0,
1,
1,
0,
1,
0,
0,
0,
0,
0,
2,
1,
0,
0,
0,
1,
0,
0,
2,
1,
0,
0,
2,
1,
0,
0,
0,
0,
0,
0,
1,
1,
0,
0,
0,
0,
1,
0,
0,
0,
0,
0,
0,
0,
0,
1,
0,
0,
0,
0,
0,
0,
0,
0,
1,
1,
0,
1,
0,
0,
0,
1,
0,
0,
0,
0,
0,
0,
0,
0,
0,
0,
0,
1,
0,
0,
1,
0,
0,
0,
2,
0,
0,
0,
0,
2,
0,
0,
0,
0,
0,
0,
0,
0,
0,
0,
0,
0,
0,
0,
0,
1,
0,
0,
0,
0,
1,
0,
0,
0,
0,
0,
0,
0,
0,
0,
1,
0,
1,
0,
0,
0,
0,
0,
0,
0,
0,
0,
0,
0,
0,
0,
0,
0,
0,
0,
0,
0,
0,
0,
1,
0,
1,
0,
0,
0,
0,
0,
0,
0,
0,
0,
0,
0,
0,
0,
0,
0,
0,
0,
0,
0,
0,
0,
0,
0,
0,
0,
0,
0,
0,
0,
0,
0,
0,
0,
0,
0,
0,
0,
0,
0,
0,
0,
0,
0,
0,
0,
0,
0,
0,
0,
0,
0,
0,
0,
0,
0,
0,
0,
0,
0,
0,
0,
0,
0,
0,
0,
0,
0,
0,
0,
0,
0,
0,
0,
0,
0,
0,
0,
0,
0,
0,
0,
0,
0,
0,
0,
0,
0,
0,
0,
0,
0,
0,
0,
0,
0,
0,
0,
0,
0,
0,
0,
0,
0,
0,
0,
0,
0,
0,
0,
0,
0,
0,
0,
0,
0,
0,
0,
0,
0,
0,
0,
0,
0,
0,
0,
0,
0,
0,
0,
0,
0,
0,
0,
0,
0,
0,
0,
0,
0,
0,
0,
0,
0,
0,
0,
0,
0,
0,
0,
0,
0,
0,
0,
0,
0,
0,
0,
0,
#ENDOFDATA   :