File: N132962/Standards/20 keV/HgTe std.msa
#FORMAT      : EMSA/MAS Spectral Data File
#VERSION     : 1.0
#TITLE       : HgTe std
#DATE        : 24-FEB-2025
#TIME        : 10:34
#OWNER       : Unknown
#NPOINTS     : 4096
#NCOLUMNS    : 1
#XUNITS      : eV
#YUNITS      : counts
#DATATYPE    : Y
#XPERCHAN    : 9.99778
#OFFSET      : 1.69135
#BEAMKV      : 20
#SIGNALTYPE  : EDS
#ELEVANGLE   : 35
#AZIMANGLE   : 0
#LIVETIME    : 719.706
#REALTIME    : 799.5219
#PROBECUR    : 1.03242
#TAUWIND     : 0
#TDEADLYR    : 0
#TACTLYR     : 0.045
#TALWIND     : 0.025
#CHOFFSET    : 0.0
#XLABEL      : Energy (eV)
#YLABEL      : Counts
#EDSDET      : SD
##SPECIMEN   : HgTe std
##D2STDCMP   : HgTe,(Te:38.8799),(Hg:61.1201)
##DET_HASH   : 12273538-fd48-a23f-0a19-f1e6fa85caef
##CALIB_HASH : 6abaa72c-aa41-8738-0be9-f592914732f3
##WORKING    : 15.0 mm
##SAMPLE     : <BulkSample id="1">\n<mOrientation id="2">\n<double>0.0</double>\n<double>0.0</double>\n<double>-1.0</double>\n</mOrientation>\n</BulkSample>
##MULTISPEC  : 0.967238
##DET_NAME   : EDAX All
##DET_MODE   : MediumLE
#SPECTRUM    :
79,
104,
42,
232,
1761,
7076,
15418,
26017,
44577,
50385,
31853,
20799,
19823,
24136,
39174,
52489,
42837,
32827,
30911,
25893,
19894,
17262,
17152,
18625,
19235,
20487,
21927,
22727,
22592,
22810,
24916,
25973,
23967,
22855,
23103,
22334,
22054,
22327,
22812,
23414,
23709,
24510,
24998,
25378,
26325,
26684,
27195,
27878,
28593,
28984,
29732,
29232,
29560,
30039,
32028,
38483,
51174,
61151,
56941,
45013,
37663,
33881,
31162,
29734,
29810,
31202,
33605,
37177,
41508,
48416,
71705,
153539,
322612,
472454,
464679,
388581,
337079,
243945,
122695,
50298,
29367,
29412,
35405,
38642,
33653,
25990,
21592,
19774,
19465,
19977,
20185,
20384,
21032,
21246,
22732,
24495,
24747,
23925,
22195,
20803,
19943,
19426,
18898,
18900,
18696,
18985,
19265,
19571,
19864,
21110,
23874,
25105,
24562,
22243,
20555,
19299,
19562,
19768,
20274,
21431,
22674,
25107,
34543,
63970,
123642,
185113,
197060,
147079,
80203,
39842,
26606,
29916,
47585,
77701,
105669,
109196,
90083,
65313,
47188,
34992,
28821,
30108,
37597,
44657,
44194,
35863,
26552,
21215,
19101,
18997,
21057,
24523,
27547,
26389,
23481,
19067,
17171,
16582,
17504,
18876,
20378,
20825,
19668,
17811,
16459,
15806,
15305,
14812,
14886,
14787,
14944,
14842,
14642,
14824,
14575,
14483,
14728,
14538,
14459,
14432,
14522,
14377,
14591,
14375,
14427,
14357,
14230,
14223,
14259,
14094,
14063,
14277,
14014,
13901,
14026,
13821,
13808,
14291,
14299,
14095,
14148,
14233,
13882,
13726,
13580,
13762,
13613,
13566,
13640,
13687,
13786,
14287,
14642,
15033,
14705,
14152,
13387,
13067,
12825,
12902,
12955,
12882,
12615,
12448,
12682,
12467,
12471,
12429,
12425,
12284,
12292,
12227,
12361,
12197,
12184,
12188,
12173,
12103,
11784,
12157,
11653,
11882,
11582,
11585,
11689,
11667,
11810,
12040,
12305,
12231,
12123,
11763,
11556,
11229,
11043,
10882,
11053,
10946,
10969,
10843,
10909,
10814,
10613,
10721,
10558,
10690,
10794,
10831,
10782,
10608,
10529,
10416,
10278,
10294,
10242,
10226,
10363,
10010,
9974,
9915,
9810,
9783,
9720,
9761,
9690,
9786,
10181,
10394,
10831,
11384,
12008,
11580,
11282,
10523,
9916,
9697,
9509,
9316,
9172,
9116,
8749,
8950,
8933,
8733,
8674,
8488,
8528,
8588,
8705,
8527,
8360,
8528,
8461,
8348,
8245,
8061,
8210,
8199,
8115,
8215,
8258,
8129,
8231,
8069,
8449,
8893,
10172,
12726,
16833,
24025,
32883,
42624,
49123,
50225,
43965,
33567,
23204,
15693,
11082,
8805,
7821,
7349,
7392,
7160,
7055,
6921,
6857,
6958,
6869,
6747,
6729,
6977,
6943,
6854,
7013,
6920,
6733,
6621,
6545,
6559,
6410,
6346,
6291,
6320,
5947,
6076,
5981,
5954,
6104,
5990,
5943,
5969,
5894,
5667,
5766,
5918,
5581,
5780,
5642,
5884,
5976,
6232,
6421,
6514,
6689,
6487,
6312,
6333,
6634,
7585,
9248,
11581,
14437,
17057,
19167,
19639,
19008,
17577,
15325,
12780,
10312,
8421,
6824,
6076,
5462,
5224,
5296,
5445,
5520,
5351,
5135,
4962,
4847,
4415,
4353,
4150,
4141,
4127,
4064,
4130,
4098,
3996,
3894,
4055,
3914,
3814,
3869,
3794,
3812,
3761,
3699,
3755,
3759,
3577,
3651,
3518,
3523,
3561,
3531,
3395,
3369,
3394,
3486,
3414,
3431,
3337,
3365,
3383,
3277,
3171,
3241,
3236,
3085,
3041,
3174,
3252,
3443,
3760,
4067,
4472,
4496,
4594,
4317,
4122,
3605,
3243,
3049,
2974,
2975,
2922,
2901,
3156,
3173,
2999,
2933,
2992,
2896,
2734,
2560,
2579,
2452,
2406,
2365,
2374,
2256,
2265,
2279,
2225,
2409,
2280,
2186,
2268,
2248,
2193,
2147,
2023,
2139,
2066,
1994,
2062,
1956,
2032,
1907,
1923,
1838,
1923,
1866,
1815,
1881,
1840,
1825,
1740,
1792,
1759,
1757,
1742,
1676,
1717,
1674,
1651,
1592,
1520,
1595,
1594,
1560,
1573,
1529,
1553,
1511,
1436,
1479,
1426,
1409,
1395,
1438,
1442,
1344,
1396,
1292,
1329,
1300,
1211,
1338,
1279,
1228,
1267,
1243,
1181,
1168,
1142,
1159,
1123,
1123,
1182,
1056,
1172,
1081,
1100,
1080,
989,
972,
1021,
1002,
1015,
1008,
1000,
937,
944,
895,
987,
932,
960,
921,
867,
935,
822,
828,
921,
794,
764,
807,
752,
789,
759,
741,
743,
775,
703,
711,
685,
709,
703,
678,
670,
660,
665,
609,
614,
670,
576,
543,
571,
595,
519,
535,
566,
499,
513,
484,
510,
500,
461,
497,
487,
450,
433,
448,
401,
395,
406,
358,
403,
391,
383,
365,
343,
341,
321,
293,
320,
301,
293,
292,
275,
309,
260,
239,
223,
250,
239,
226,
235,
235,
191,
198,
185,
179,
151,
180,
151,
175,
144,
142,
129,
124,
111,
120,
85,
83,
95,
72,
81,
65,
49,
54,
44,
42,
26,
29,
19,
17,
23,
16,
19,
21,
11,
16,
17,
18,
18,
13,
13,
14,
16,
14,
21,
11,
14,
24,
14,
16,
14,
25,
28,
14,
13,
10,
13,
12,
17,
14,
14,
19,
11,
13,
10,
13,
14,
23,
15,
11,
14,
13,
15,
11,
14,
13,
9,
15,
10,
14,
18,
9,
14,
17,
3,
17,
16,
20,
16,
10,
9,
14,
8,
17,
12,
8,
19,
10,
13,
11,
19,
10,
8,
9,
4,
6,
15,
8,
6,
14,
10,
9,
4,
10,
16,
7,
1,
9,
6,
7,
9,
7,
7,
8,
7,
7,
8,
3,
9,
2,
5,
7,
2,
5,
9,
8,
9,
8,
3,
7,
9,
7,
4,
5,
5,
5,
6,
7,
7,
6,
8,
15,
7,
6,
7,
2,
7,
1,
6,
2,
10,
4,
2,
4,
4,
5,
6,
8,
4,
4,
4,
4,
3,
2,
1,
6,
1,
1,
4,
3,
4,
5,
3,
8,
7,
5,
9,
1,
3,
8,
2,
2,
3,
8,
3,
3,
8,
5,
4,
4,
1,
5,
9,
6,
5,
7,
6,
3,
4,
2,
1,
1,
7,
4,
8,
3,
3,
3,
6,
3,
0,
5,
4,
3,
5,
2,
2,
3,
5,
5,
8,
5,
2,
4,
2,
1,
1,
3,
2,
1,
2,
3,
2,
5,
3,
0,
3,
1,
0,
2,
2,
3,
2,
4,
5,
3,
3,
1,
4,
1,
2,
1,
2,
3,
3,
4,
3,
3,
4,
4,
4,
1,
4,
3,
1,
5,
0,
0,
0,
1,
1,
2,
2,
2,
0,
0,
2,
1,
0,
3,
1,
2,
3,
4,
2,
2,
2,
1,
2,
0,
2,
1,
2,
1,
1,
1,
1,
1,
1,
1,
2,
1,
1,
1,
3,
4,
0,
1,
0,
0,
3,
1,
2,
1,
1,
2,
2,
0,
0,
1,
4,
1,
0,
1,
0,
1,
1,
1,
1,
0,
1,
2,
0,
3,
1,
0,
1,
0,
0,
1,
1,
0,
1,
1,
1,
0,
1,
1,
0,
2,
0,
0,
1,
0,
0,
2,
2,
1,
1,
1,
1,
0,
1,
0,
1,
0,
0,
0,
1,
0,
1,
0,
1,
0,
0,
1,
0,
0,
0,
2,
0,
1,
1,
0,
0,
0,
1,
0,
0,
0,
0,
0,
2,
0,
0,
0,
1,
0,
0,
0,
0,
0,
1,
0,
1,
0,
1,
0,
0,
0,
0,
1,
0,
0,
0,
0,
0,
0,
0,
0,
0,
0,
0,
0,
0,
0,
0,
0,
0,
0,
0,
3,
0,
0,
0,
0,
0,
1,
0,
0,
1,
1,
0,
0,
1,
0,
0,
1,
0,
0,
0,
0,
0,
0,
0,
1,
0,
1,
0,
0,
0,
0,
0,
1,
0,
1,
0,
0,
0,
0,
1,
0,
0,
0,
0,
0,
0,
0,
0,
0,
0,
0,
0,
0,
0,
0,
1,
2,
0,
0,
0,
0,
0,
0,
0,
0,
0,
0,
0,
0,
0,
0,
1,
0,
0,
0,
0,
0,
0,
0,
0,
0,
0,
0,
0,
0,
0,
0,
0,
1,
0,
0,
0,
0,
1,
0,
0,
0,
0,
0,
0,
0,
0,
0,
0,
0,
0,
0,
0,
0,
0,
0,
0,
0,
0,
0,
0,
0,
0,
0,
0,
0,
0,
0,
0,
1,
0,
0,
0,
0,
0,
0,
0,
0,
0,
0,
0,
0,
0,
0,
0,
0,
0,
0,
0,
0,
0,
0,
0,
0,
0,
0,
0,
0,
0,
0,
0,
0,
0,
0,
0,
0,
0,
0,
0,
0,
0,
0,
0,
0,
0,
0,
0,
0,
1,
0,
0,
0,
0,
0,
0,
0,
0,
0,
0,
0,
0,
0,
0,
0,
0,
0,
0,
0,
0,
0,
0,
0,
0,
0,
0,
0,
0,
0,
0,
0,
0,
0,
0,
0,
0,
0,
0,
0,
0,
0,
0,
0,
0,
0,
0,
0,
0,
0,
0,
0,
0,
0,
0,
0,
0,
0,
0,
0,
0,
0,
0,
0,
0,
0,
0,
0,
0,
0,
0,
0,
0,
0,
0,
0,
0,
0,
0,
0,
0,
0,
0,
0,
0,
0,
0,
0,
0,
0,
0,
0,
0,
0,
0,
0,
0,
0,
0,
0,
0,
0,
0,
0,
0,
0,
0,
0,
0,
0,
0,
#ENDOFDATA   :