File: N132962/Standards/20 keV/Ho std.msa
#FORMAT      : EMSA/MAS Spectral Data File
#VERSION     : 1.0
#TITLE       : Ho std
#DATE        : 20-FEB-2025
#TIME        : 13:32
#OWNER       : Unknown
#NPOINTS     : 4096
#NCOLUMNS    : 1
#XUNITS      : eV
#YUNITS      : counts
#DATATYPE    : Y
#XPERCHAN    : 9.99778
#OFFSET      : 1.69135
#BEAMKV      : 20
#SIGNALTYPE  : EDS
#ELEVANGLE   : 35
#AZIMANGLE   : 0
#LIVETIME    : 719.755
#REALTIME    : 797.171
#PROBECUR    : 1.04693
#TAUWIND     : 0
#TDEADLYR    : 0
#TACTLYR     : 0.045
#TALWIND     : 0.025
#CHOFFSET    : 0.0
#XLABEL      : Energy (eV)
#YLABEL      : Counts
#EDSDET      : SD
##SPECIMEN   : Ho std
##D2STDCMP   : Ho,(Ho:100.0),5.0
##DET_HASH   : 12273538-fd48-a23f-0a19-f1e6fa85caef
##CALIB_HASH : 6abaa72c-aa41-8738-0be9-f592914732f3
##WORKING    : 15.0 mm
##SAMPLE     : <BulkSample id="1">\n<mOrientation id="2">\n<double>0.0</double>\n<double>0.0</double>\n<double>-1.0</double>\n</mOrientation>\n</BulkSample>
##MULTISPEC  : 1.04099
##DET_NAME   : EDAX All
##DET_MODE   : MediumLE
#SPECTRUM    :
99,
106,
49,
117,
793,
2655,
6405,
14562,
31913,
40901,
27551,
19539,
19779,
20792,
21600,
26235,
42509,
62129,
52096,
32305,
28698,
34926,
45253,
45522,
36484,
32986,
33367,
34736,
37456,
38281,
38466,
40758,
49519,
80341,
135382,
150439,
102750,
60811,
46887,
44395,
45173,
48604,
62551,
108075,
202447,
300035,
293703,
178333,
70711,
29032,
22495,
26551,
31908,
31861,
25561,
21248,
21474,
24163,
26429,
25004,
22642,
19818,
17561,
16387,
15961,
15788,
16061,
16314,
16550,
16822,
16939,
16798,
16869,
16970,
17154,
17419,
17467,
17665,
17891,
18263,
18218,
18366,
18596,
18675,
18496,
19014,
19199,
19459,
19773,
19754,
19386,
19632,
19622,
19736,
19748,
19937,
19795,
20126,
20171,
19985,
20173,
20164,
20080,
20213,
20068,
20302,
20300,
20453,
20132,
19925,
20351,
20388,
20630,
20591,
20576,
20440,
20206,
20442,
20166,
20188,
20023,
20100,
20470,
20508,
20477,
20103,
19977,
20030,
20186,
19855,
20109,
20208,
19871,
20030,
19868,
19931,
19723,
19747,
19627,
19807,
19371,
19755,
19454,
19262,
19536,
19531,
19090,
19254,
19003,
19283,
19096,
18901,
18971,
18577,
18677,
18582,
18577,
18346,
18618,
18560,
18315,
18308,
18434,
18651,
18860,
18941,
19099,
18671,
18285,
17860,
18026,
17705,
17512,
17462,
17587,
17271,
17403,
17227,
17285,
17701,
17913,
17545,
17383,
16908,
16824,
16769,
16533,
16348,
16658,
16421,
16669,
16466,
16712,
17116,
17531,
19824,
22697,
25860,
26808,
25162,
22382,
19102,
17015,
16215,
15751,
15770,
15147,
15165,
15517,
15325,
15926,
16666,
17529,
18123,
18064,
17198,
16814,
17510,
20777,
32198,
60571,
114105,
187416,
251061,
268695,
227735,
154834,
87072,
44534,
24563,
17294,
14905,
14134,
14178,
13964,
14164,
13682,
13695,
13511,
13269,
13245,
13418,
13301,
13433,
14745,
17611,
24886,
40506,
65533,
95441,
119113,
123973,
108821,
83555,
60641,
44363,
34130,
26042,
21551,
21066,
25842,
35414,
46978,
54039,
52550,
44280,
32753,
22549,
16466,
13128,
11662,
10782,
10077,
9793,
9877,
9350,
9513,
9413,
9341,
9540,
9627,
9934,
9726,
9946,
9837,
10049,
10599,
11818,
14762,
19033,
22736,
25035,
24074,
21042,
16543,
13249,
10893,
10167,
10212,
11002,
12226,
13302,
13702,
13421,
12170,
10699,
9411,
8918,
8336,
8346,
8627,
8541,
8486,
8461,
8056,
7847,
7565,
7474,
7503,
7255,
7350,
7209,
7139,
7048,
7174,
7275,
7067,
7132,
6935,
7115,
6927,
6933,
6864,
6649,
6775,
6758,
6863,
6756,
6765,
6735,
6628,
6481,
6489,
6536,
6482,
6453,
6406,
6562,
6489,
6409,
6205,
6228,
6252,
6339,
6096,
6081,
6187,
6194,
6005,
6022,
5883,
5949,
6015,
5960,
5928,
5725,
5764,
5816,
5742,
5729,
5657,
5678,
5778,
5762,
5635,
5513,
5437,
5400,
5298,
5350,
5364,
5352,
5144,
5089,
5258,
5200,
5063,
5008,
5125,
5004,
4993,
5068,
4797,
4828,
4763,
4819,
4737,
4604,
4686,
4743,
4617,
4681,
4612,
4517,
4479,
4477,
4415,
4539,
4478,
4423,
4387,
4460,
4315,
4299,
4122,
4185,
4303,
4044,
4047,
4072,
4122,
4100,
3955,
3845,
3837,
3871,
3973,
3787,
3884,
3690,
3762,
3728,
3726,
3756,
3667,
3508,
3634,
3638,
3604,
3549,
3530,
3551,
3407,
3368,
3337,
3331,
3363,
3407,
3390,
3195,
3207,
3152,
3140,
3058,
3124,
3119,
3100,
3020,
2967,
2987,
2989,
2912,
2811,
2871,
2787,
2788,
2780,
2812,
2734,
2711,
2798,
2744,
2706,
2730,
2663,
2618,
2708,
2610,
2577,
2531,
2451,
2389,
2426,
2345,
2333,
2386,
2267,
2374,
2267,
2216,
2354,
2252,
2205,
2179,
2197,
2147,
2088,
2112,
2127,
2081,
2047,
2012,
2013,
1936,
1989,
1981,
1898,
1940,
1912,
1895,
1766,
1761,
1777,
1861,
1770,
1758,
1785,
1654,
1733,
1650,
1678,
1719,
1627,
1665,
1617,
1633,
1530,
1486,
1478,
1442,
1453,
1511,
1428,
1445,
1458,
1440,
1339,
1385,
1343,
1329,
1330,
1288,
1247,
1281,
1185,
1221,
1221,
1211,
1156,
1176,
1162,
1139,
1156,
1112,
1126,
1063,
1076,
1070,
1131,
1082,
1066,
1070,
987,
990,
988,
955,
965,
935,
936,
937,
919,
865,
891,
878,
815,
897,
829,
796,
836,
781,
757,
815,
793,
718,
759,
718,
711,
724,
722,
746,
681,
648,
737,
625,
664,
645,
609,
596,
649,
587,
552,
550,
535,
573,
558,
514,
501,
515,
477,
497,
506,
485,
473,
449,
467,
392,
460,
410,
395,
396,
408,
353,
347,
371,
374,
381,
331,
327,
325,
322,
306,
296,
293,
289,
271,
269,
231,
261,
246,
251,
254,
215,
201,
191,
196,
188,
176,
150,
160,
144,
137,
142,
132,
116,
119,
93,
107,
93,
89,
95,
72,
61,
51,
45,
45,
40,
21,
32,
23,
38,
17,
21,
17,
18,
26,
27,
24,
17,
18,
17,
20,
27,
24,
19,
16,
17,
24,
22,
18,
12,
27,
22,
18,
14,
11,
15,
22,
12,
14,
22,
20,
17,
11,
19,
14,
10,
14,
14,
14,
8,
14,
17,
14,
10,
9,
12,
13,
15,
15,
13,
11,
15,
13,
12,
16,
10,
12,
15,
12,
15,
9,
13,
12,
19,
9,
10,
19,
7,
13,
17,
16,
13,
10,
15,
13,
8,
13,
5,
12,
12,
8,
9,
14,
10,
7,
11,
5,
5,
8,
8,
6,
7,
5,
9,
10,
10,
13,
8,
7,
12,
6,
13,
11,
5,
9,
5,
10,
6,
3,
7,
11,
4,
12,
8,
7,
5,
4,
3,
4,
7,
7,
6,
10,
8,
7,
6,
4,
5,
5,
7,
5,
5,
4,
5,
7,
1,
5,
1,
9,
7,
6,
5,
1,
11,
4,
8,
3,
4,
4,
9,
5,
10,
6,
3,
4,
11,
3,
7,
7,
8,
4,
5,
9,
6,
5,
7,
3,
6,
7,
6,
6,
3,
5,
3,
5,
6,
7,
8,
7,
5,
8,
5,
9,
4,
7,
2,
1,
5,
5,
3,
6,
4,
1,
2,
3,
4,
4,
2,
6,
1,
0,
3,
6,
2,
1,
4,
1,
3,
3,
2,
1,
0,
5,
5,
3,
4,
4,
3,
3,
2,
2,
0,
4,
4,
5,
0,
2,
0,
1,
1,
2,
3,
0,
3,
2,
5,
1,
3,
1,
0,
0,
1,
1,
1,
2,
2,
2,
1,
2,
1,
1,
3,
0,
1,
3,
2,
1,
2,
1,
2,
2,
2,
1,
0,
2,
1,
2,
0,
1,
2,
2,
0,
1,
4,
1,
0,
0,
0,
1,
1,
1,
1,
0,
0,
0,
0,
1,
0,
0,
0,
2,
0,
2,
0,
0,
2,
1,
0,
0,
0,
1,
0,
0,
1,
0,
1,
0,
0,
0,
0,
2,
0,
0,
0,
1,
1,
1,
0,
0,
0,
0,
0,
1,
2,
0,
2,
3,
0,
1,
1,
0,
1,
0,
1,
2,
1,
0,
0,
1,
0,
0,
3,
1,
2,
1,
1,
0,
1,
0,
1,
0,
0,
1,
0,
0,
0,
0,
1,
0,
0,
0,
0,
0,
0,
1,
0,
0,
0,
1,
1,
0,
0,
0,
0,
2,
1,
0,
1,
0,
0,
0,
0,
0,
0,
0,
0,
0,
0,
1,
0,
0,
0,
0,
0,
0,
0,
0,
0,
0,
0,
0,
0,
0,
0,
0,
0,
0,
0,
1,
0,
0,
0,
0,
0,
1,
1,
0,
1,
0,
0,
0,
0,
0,
0,
0,
0,
0,
0,
0,
0,
0,
0,
0,
0,
0,
1,
0,
1,
0,
0,
0,
1,
0,
0,
0,
0,
0,
0,
0,
0,
0,
0,
0,
0,
1,
0,
0,
0,
0,
0,
0,
0,
0,
0,
0,
0,
0,
0,
0,
0,
0,
0,
1,
0,
0,
0,
0,
0,
0,
0,
0,
0,
0,
0,
1,
0,
0,
0,
0,
0,
0,
0,
1,
0,
0,
0,
0,
0,
0,
0,
0,
0,
0,
0,
0,
0,
0,
1,
0,
1,
0,
0,
0,
0,
0,
0,
0,
0,
0,
0,
0,
0,
0,
0,
0,
0,
0,
0,
0,
0,
0,
0,
0,
0,
0,
0,
0,
0,
0,
0,
0,
0,
0,
0,
0,
0,
1,
0,
0,
0,
0,
0,
0,
0,
0,
0,
0,
0,
0,
0,
0,
0,
0,
0,
0,
0,
0,
0,
0,
0,
0,
0,
0,
0,
0,
0,
0,
0,
0,
0,
1,
0,
0,
0,
0,
0,
0,
0,
0,
0,
0,
0,
0,
0,
0,
0,
0,
0,
0,
0,
0,
0,
0,
0,
0,
0,
0,
0,
0,
0,
0,
0,
0,
0,
0,
0,
0,
0,
0,
0,
0,
0,
0,
0,
0,
0,
0,
0,
0,
0,
0,
0,
0,
0,
0,
0,
0,
0,
0,
0,
0,
0,
0,
0,
0,
0,
0,
0,
0,
0,
0,
0,
0,
0,
0,
0,
0,
0,
0,
0,
0,
0,
0,
0,
0,
0,
0,
0,
0,
0,
0,
0,
0,
0,
0,
0,
0,
0,
0,
0,
0,
0,
0,
0,
0,
0,
0,
0,
0,
0,
0,
0,
0,
0,
0,
0,
#ENDOFDATA   :