File: N132962/Standards/20 keV/InAs std.msa
#FORMAT      : EMSA/MAS Spectral Data File
#VERSION     : 1.0
#TITLE       : InAs std
#DATE        : 24-FEB-2025
#TIME        : 10:26
#OWNER       : Unknown
#NPOINTS     : 4096
#NCOLUMNS    : 1
#XUNITS      : eV
#YUNITS      : counts
#DATATYPE    : Y
#XPERCHAN    : 9.99778
#OFFSET      : 1.69135
#BEAMKV      : 20
#SIGNALTYPE  : EDS
#ELEVANGLE   : 35
#AZIMANGLE   : 0
#LIVETIME    : 1199.32
#REALTIME    : 1312.72
#PROBECUR    : 1.03242
#TAUWIND     : 0
#TDEADLYR    : 0
#TACTLYR     : 0.045
#TALWIND     : 0.025
#CHOFFSET    : 0.0
#XLABEL      : Energy (eV)
#YLABEL      : Counts
#EDSDET      : SD
##SPECIMEN   : InAs std
##D2STDCMP   : InAs,(As:39.4865),(In:60.5135),5.0
##DET_HASH   : 12273538-fd48-a23f-0a19-f1e6fa85caef
##CALIB_HASH : 6abaa72c-aa41-8738-0be9-f592914732f3
##WORKING    : 15.0 mm
##SAMPLE     : <BulkSample id="1">\n<mOrientation id="2">\n<double>0.0</double>\n<double>0.0</double>\n<double>-1.0</double>\n</mOrientation>\n</BulkSample>
##MULTISPEC  : 1.18858
##DET_NAME   : EDAX All
##DET_MODE   : MediumLE
#SPECTRUM    :
148,
169,
64,
128,
822,
3369,
8814,
20636,
44544,
57005,
47566,
65379,
82095,
57070,
36700,
30979,
27582,
27292,
25330,
22075,
23388,
27219,
29561,
28519,
25965,
24868,
24987,
26288,
27884,
29495,
32789,
35989,
34531,
33738,
35223,
38292,
48540,
62797,
66033,
59907,
83960,
234237,
554597,
738397,
554084,
254256,
90631,
43918,
32155,
30525,
33445,
37132,
35880,
31897,
29730,
29462,
31455,
35191,
38072,
37005,
35438,
32766,
30883,
29655,
30443,
30492,
30745,
31121,
31008,
31324,
31352,
31753,
31999,
31999,
32439,
32252,
32168,
32804,
32590,
32504,
33024,
32697,
33166,
33006,
33555,
33455,
33678,
33869,
33443,
33383,
33127,
32967,
33485,
34127,
37123,
43304,
52527,
56983,
51997,
42523,
36757,
35840,
37805,
42198,
46391,
53264,
83193,
189258,
412314,
650441,
682905,
474829,
232575,
118477,
136001,
231366,
318943,
317787,
240961,
158656,
106496,
80558,
81820,
100525,
109077,
92450,
63175,
41627,
35160,
40006,
48726,
50526,
43045,
32504,
25464,
23054,
24569,
28119,
31061,
31847,
28300,
24610,
21814,
20688,
20143,
19845,
19655,
19884,
19844,
19895,
19928,
20421,
20632,
20761,
20478,
20279,
20004,
20061,
19789,
20130,
20102,
19877,
19583,
19649,
19346,
19573,
19327,
19451,
19115,
18986,
19035,
19151,
18938,
18867,
18780,
18841,
18582,
18342,
18482,
18514,
18351,
18209,
18257,
18338,
18165,
18236,
18066,
17963,
17929,
17725,
17627,
17494,
17747,
17356,
17248,
17211,
17273,
17191,
17365,
17034,
17021,
17080,
16884,
16652,
16621,
16824,
16434,
16574,
16738,
16623,
16852,
17188,
17514,
17756,
17875,
16995,
16267,
16461,
15958,
16214,
15937,
15862,
15639,
15512,
15623,
15485,
15440,
15520,
15247,
15005,
14856,
15002,
14886,
14799,
14977,
14923,
14699,
14342,
14245,
14089,
14417,
14079,
13827,
13795,
13605,
13879,
13892,
14190,
14586,
14744,
14311,
14136,
13500,
13323,
13183,
12867,
12855,
12738,
12786,
12711,
12432,
12622,
12545,
12394,
12234,
12434,
12540,
12497,
12720,
12318,
12273,
12089,
11743,
12243,
11719,
11879,
11643,
11516,
11660,
11528,
11311,
11045,
11364,
11208,
11254,
11229,
11145,
11180,
10911,
11054,
10713,
10684,
10831,
10830,
10800,
10479,
10517,
10400,
10201,
10083,
10230,
10007,
9977,
9985,
9820,
9851,
9922,
9862,
9741,
9549,
9566,
9751,
9367,
9245,
9320,
9242,
9338,
9173,
9203,
9338,
9166,
8986,
8935,
9062,
8884,
8838,
8903,
8630,
8749,
8673,
8589,
8577,
8491,
8523,
8437,
8328,
8262,
8343,
8263,
8204,
8202,
8397,
8304,
8765,
10324,
13482,
20959,
34162,
52770,
73810,
89255,
93121,
83354,
64078,
43792,
26579,
16191,
10725,
8491,
7538,
7101,
7183,
7070,
7059,
6910,
6945,
6776,
6885,
6655,
6674,
6717,
6634,
6326,
6285,
6335,
6521,
6368,
6337,
6462,
6341,
6197,
6273,
6311,
6412,
6417,
7229,
8518,
10623,
12910,
15525,
17388,
17136,
15508,
13178,
10404,
8318,
6970,
6219,
5660,
5339,
5146,
5049,
5051,
4963,
4932,
4863,
4742,
4890,
4783,
4710,
4695,
4574,
4545,
4574,
4482,
4524,
4525,
4432,
4511,
4397,
4225,
4208,
4313,
4268,
4348,
4090,
4121,
4022,
4151,
3971,
4082,
4016,
3925,
3927,
3959,
3760,
3764,
3789,
3760,
3809,
3645,
3599,
3654,
3602,
3514,
3520,
3490,
3412,
3432,
3401,
3406,
3307,
3370,
3261,
3249,
3155,
3224,
3208,
3034,
3108,
3225,
3231,
3098,
3030,
3023,
3087,
2882,
2897,
2885,
2816,
2925,
2937,
2773,
2671,
2693,
2703,
2676,
2636,
2563,
2658,
2621,
2535,
2529,
2561,
2428,
2422,
2432,
2437,
2363,
2299,
2285,
2299,
2271,
2147,
2188,
2184,
2133,
2159,
2124,
2112,
2111,
2163,
1988,
1902,
1942,
1970,
1923,
1938,
1913,
1903,
1819,
1881,
1785,
1846,
1737,
1722,
1814,
1716,
1678,
1596,
1641,
1594,
1639,
1563,
1584,
1598,
1523,
1514,
1542,
1509,
1453,
1437,
1505,
1321,
1469,
1404,
1380,
1369,
1352,
1362,
1277,
1272,
1292,
1183,
1269,
1260,
1248,
1162,
1154,
1117,
1184,
1171,
1121,
1121,
1072,
1142,
1133,
1043,
1031,
992,
990,
1024,
986,
963,
975,
960,
921,
874,
932,
916,
838,
885,
850,
804,
839,
822,
766,
787,
826,
770,
777,
787,
767,
748,
706,
719,
694,
752,
682,
666,
690,
629,
636,
599,
589,
574,
550,
584,
542,
508,
585,
504,
510,
526,
512,
503,
471,
450,
505,
464,
453,
448,
423,
399,
404,
405,
414,
388,
382,
354,
350,
352,
299,
335,
331,
330,
308,
316,
288,
276,
276,
275,
268,
270,
250,
258,
221,
207,
210,
192,
221,
193,
185,
184,
169,
158,
149,
157,
146,
141,
132,
136,
105,
115,
105,
119,
78,
76,
79,
73,
68,
49,
54,
42,
40,
30,
24,
18,
18,
16,
18,
14,
11,
21,
16,
14,
15,
15,
14,
9,
14,
10,
11,
18,
12,
22,
20,
9,
13,
15,
5,
23,
13,
21,
8,
10,
14,
17,
20,
27,
25,
15,
16,
27,
21,
13,
9,
15,
15,
12,
9,
7,
8,
9,
9,
11,
8,
11,
9,
8,
8,
13,
7,
12,
10,
12,
11,
15,
5,
12,
8,
6,
13,
7,
12,
9,
6,
12,
10,
8,
13,
18,
8,
7,
6,
14,
8,
13,
7,
5,
7,
11,
5,
3,
4,
6,
7,
7,
4,
4,
3,
4,
5,
5,
3,
5,
4,
3,
5,
4,
4,
1,
3,
6,
2,
2,
8,
3,
2,
5,
5,
5,
5,
3,
4,
4,
6,
7,
4,
5,
6,
4,
3,
2,
4,
3,
6,
2,
1,
2,
6,
5,
2,
8,
3,
2,
2,
2,
3,
3,
4,
6,
3,
4,
2,
3,
8,
0,
4,
3,
1,
2,
4,
4,
5,
7,
4,
2,
3,
0,
2,
2,
5,
6,
4,
6,
3,
3,
1,
4,
0,
6,
2,
1,
3,
4,
2,
2,
3,
4,
3,
2,
2,
4,
3,
4,
3,
0,
2,
1,
1,
5,
2,
4,
0,
2,
2,
2,
5,
2,
3,
2,
1,
4,
1,
1,
2,
3,
4,
1,
2,
5,
2,
0,
4,
4,
3,
1,
0,
3,
3,
2,
0,
1,
3,
1,
2,
1,
3,
0,
3,
0,
1,
3,
4,
2,
1,
4,
1,
2,
0,
1,
3,
1,
1,
2,
1,
0,
0,
0,
3,
1,
0,
1,
1,
1,
2,
3,
1,
1,
0,
1,
3,
1,
0,
2,
0,
1,
0,
1,
2,
1,
1,
1,
2,
1,
1,
1,
1,
0,
0,
0,
1,
1,
2,
1,
0,
2,
1,
0,
0,
1,
0,
1,
1,
3,
1,
1,
1,
0,
0,
0,
0,
1,
0,
1,
0,
1,
1,
1,
0,
1,
0,
3,
0,
0,
1,
1,
0,
0,
1,
0,
0,
1,
1,
0,
0,
0,
1,
0,
0,
2,
1,
0,
0,
0,
0,
0,
0,
0,
0,
0,
1,
0,
0,
0,
1,
0,
1,
0,
0,
1,
0,
0,
0,
0,
0,
0,
1,
0,
0,
0,
2,
0,
0,
0,
0,
0,
0,
0,
0,
0,
1,
0,
0,
1,
0,
1,
0,
0,
0,
0,
0,
1,
1,
0,
0,
0,
0,
0,
0,
0,
0,
0,
0,
0,
1,
0,
0,
0,
0,
0,
0,
0,
0,
0,
0,
0,
0,
0,
0,
0,
0,
0,
0,
0,
0,
0,
0,
0,
0,
0,
0,
0,
0,
0,
0,
0,
0,
0,
0,
0,
0,
0,
0,
0,
0,
0,
0,
0,
0,
0,
0,
0,
0,
0,
0,
0,
0,
0,
0,
1,
0,
1,
0,
0,
0,
0,
0,
0,
0,
0,
0,
0,
0,
0,
0,
0,
0,
0,
0,
0,
0,
0,
0,
0,
0,
0,
0,
0,
0,
1,
0,
0,
0,
0,
0,
0,
0,
0,
0,
0,
0,
0,
1,
0,
0,
0,
0,
0,
0,
0,
0,
0,
0,
0,
0,
1,
0,
0,
0,
0,
1,
0,
0,
0,
0,
0,
0,
0,
0,
0,
0,
0,
0,
0,
0,
0,
0,
0,
0,
0,
0,
0,
0,
0,
0,
0,
0,
0,
0,
0,
0,
0,
0,
0,
0,
0,
0,
0,
1,
0,
0,
0,
0,
0,
0,
0,
0,
0,
0,
0,
0,
0,
0,
0,
0,
0,
0,
0,
0,
0,
0,
0,
0,
0,
0,
0,
0,
0,
0,
0,
0,
0,
0,
0,
0,
0,
0,
0,
0,
0,
0,
0,
0,
0,
0,
0,
0,
0,
0,
0,
0,
0,
0,
0,
0,
0,
0,
0,
0,
0,
0,
0,
0,
0,
0,
0,
0,
0,
0,
0,
0,
0,
0,
0,
0,
0,
0,
0,
0,
0,
0,
0,
0,
0,
0,
0,
0,
0,
0,
0,
0,
0,
0,
0,
0,
0,
0,
0,
0,
0,
0,
0,
0,
0,
0,
0,
0,
0,
0,
0,
0,
0,
0,
0,
0,
0,
0,
0,
0,
0,
0,
0,
0,
0,
0,
0,
0,
0,
0,
0,
0,
0,
0,
0,
0,
0,
0,
0,
0,
0,
0,
0,
0,
0,
#ENDOFDATA   :