File: N132962/Standards/20 keV/InP std.msa
#FORMAT      : EMSA/MAS Spectral Data File
#VERSION     : 1.0
#TITLE       : G588 InP[...+G588 InP[...+G588 InP[...+G588 InP[...+G588 InP[...
#NPOINTS     : 4096
#NCOLUMNS    : 1
#XUNITS      : eV
#YUNITS      : counts
#DATATYPE    : Y
#SIGNALTYPE  : EDS
#XLABEL      : Energy (eV)
#YLABEL      : Counts
#XPERCHAN -eV: 9.99778
#OFFSET   -eV: 1.69135
#CHOFFSET    : 0
#OWNER       : Unknown
#ELEVANGLE   : 35
#BEAMKV   -kV: 20
#LIVETIME  -s: 1199.25
#REALTIME  -s: 1322.29
#PROBECUR -nA: 1.04548
##WORKING -mm: 15
##D2STDCMP   : InP,(P:21.2452),(In:78.7548),5.000
#SPECTRUM    :
132,
149,
95,
368,
1487,
4043,
9873,
21182,
46151,
63130,
61189,
97358,
124890,
83163,
47757,
36014,
28888,
25864,
23910,
21497,
22277,
26129,
29000,
27850,
24776,
21988,
21257,
22148,
24021,
24656,
24368,
24687,
25522,
26265,
26864,
27342,
28280,
28981,
30171,
30872,
31634,
32610,
33436,
34237,
34897,
36362,
37020,
38153,
39690,
42634,
47098,
51919,
51266,
45480,
42853,
42987,
45502,
50002,
54016,
53505,
50679,
48057,
49934,
65122,
118916,
285217,
602441,
807666,
626500,
294146,
124578,
89303,
74055,
52921,
38301,
33408,
32949,
33010,
32932,
33319,
32955,
33063,
32860,
32876,
32970,
32804,
32822,
32685,
32883,
32677,
32875,
32812,
33406,
34437,
38002,
46932,
59350,
65308,
57672,
46287,
37905,
36281,
38990,
45002,
51051,
59977,
99363,
236942,
531144,
850894,
897799,
624500,
302996,
147422,
168293,
293646,
408807,
408942,
308277,
199617,
129492,
95654,
97535,
122211,
134079,
112266,
73332,
45371,
36635,
42404,
52334,
55733,
46621,
33384,
25184,
22175,
23694,
27685,
31375,
31777,
28477,
23396,
20318,
18313,
17815,
17892,
17829,
17905,
17768,
17831,
17832,
17463,
17691,
17619,
17890,
17713,
17842,
17790,
17806,
17726,
17657,
17782,
17969,
17758,
17839,
17845,
17702,
17604,
17470,
17793,
17677,
17345,
17502,
17626,
18032,
18141,
18707,
18925,
18707,
18337,
18292,
18032,
17824,
17678,
17695,
17367,
17079,
17043,
16899,
16902,
16656,
16707,
16247,
16475,
16300,
16462,
16094,
16094,
16046,
15972,
15941,
16074,
15692,
15885,
15805,
15568,
15596,
15957,
15510,
15851,
16011,
16771,
17854,
18303,
18385,
17305,
16367,
15681,
15622,
15562,
15247,
15060,
15038,
14678,
14423,
15001,
14874,
14671,
14895,
14424,
14330,
14298,
14346,
14291,
14275,
14215,
14060,
13990,
13644,
13506,
13377,
13357,
13118,
13264,
12970,
13298,
13556,
13433,
13949,
13808,
13780,
13217,
12851,
12585,
12420,
12246,
12109,
12170,
11959,
12131,
11930,
11759,
11840,
11647,
11574,
11828,
11496,
11628,
11465,
11482,
11544,
11211,
11244,
11340,
11187,
10980,
11055,
11049,
11020,
10842,
10639,
10740,
10747,
10688,
10446,
10502,
10408,
10521,
10280,
10226,
10236,
10149,
10120,
10029,
9932,
9901,
9864,
9753,
9821,
9521,
9537,
9802,
9442,
9506,
9350,
9434,
9265,
9162,
9317,
9142,
9108,
9105,
8962,
8873,
8842,
8807,
8875,
8711,
8797,
8754,
8603,
8507,
8768,
8560,
8390,
8397,
8462,
8363,
8334,
8127,
8063,
7970,
8112,
7970,
7757,
7907,
7825,
7850,
7768,
7665,
7550,
7783,
7592,
7485,
7492,
7508,
7326,
7286,
7136,
7055,
7127,
7081,
6987,
6918,
6866,
7000,
6969,
6731,
6770,
6820,
6508,
6662,
6577,
6644,
6478,
6494,
6651,
6264,
6324,
6306,
6405,
6258,
6207,
6238,
6001,
6002,
6101,
5936,
5939,
5947,
5890,
5861,
5834,
5598,
5647,
5583,
5568,
5559,
5437,
5431,
5499,
5322,
5428,
5244,
5166,
5288,
5179,
5194,
4991,
5009,
4961,
4924,
4954,
4891,
4775,
4818,
4737,
4796,
4670,
4637,
4701,
4595,
4562,
4364,
4482,
4441,
4512,
4393,
4258,
4198,
4291,
4205,
4148,
4085,
4116,
4062,
4215,
3991,
4008,
4001,
3878,
3921,
3780,
3904,
3691,
3751,
3762,
3670,
3696,
3683,
3536,
3546,
3516,
3502,
3406,
3341,
3438,
3345,
3392,
3369,
3248,
3225,
3168,
3112,
3235,
3186,
3079,
3083,
3093,
2983,
2941,
3021,
2920,
2947,
2948,
2933,
2865,
2793,
2873,
2743,
2722,
2717,
2743,
2505,
2542,
2618,
2623,
2528,
2506,
2444,
2464,
2476,
2467,
2361,
2413,
2378,
2285,
2230,
2321,
2145,
2231,
2217,
2235,
2093,
2116,
2129,
2147,
1983,
2052,
2068,
1944,
1972,
1989,
1913,
1985,
1918,
1884,
1903,
1855,
1913,
1866,
1841,
1755,
1731,
1770,
1597,
1776,
1700,
1597,
1549,
1596,
1631,
1573,
1620,
1528,
1544,
1469,
1396,
1474,
1471,
1412,
1407,
1352,
1396,
1383,
1338,
1300,
1288,
1272,
1229,
1298,
1256,
1197,
1225,
1252,
1174,
1178,
1140,
1159,
1139,
1055,
1057,
1041,
1083,
1041,
1042,
1081,
1055,
971,
1012,
977,
860,
932,
963,
873,
909,
924,
871,
854,
878,
820,
822,
813,
812,
794,
805,
773,
779,
739,
750,
764,
721,
723,
735,
688,
717,
628,
653,
688,
621,
593,
639,
623,
572,
573,
591,
553,
543,
554,
539,
537,
520,
544,
506,
498,
458,
483,
456,
451,
439,
403,
366,
395,
429,
408,
378,
403,
369,
370,
363,
307,
346,
327,
331,
308,
276,
286,
296,
294,
259,
248,
256,
254,
237,
214,
207,
240,
215,
199,
176,
176,
174,
175,
151,
170,
155,
139,
158,
136,
127,
134,
123,
103,
93,
99,
84,
84,
60,
78,
64,
64,
41,
50,
40,
40,
37,
21,
25,
28,
19,
10,
14,
9,
10,
11,
9,
14,
15,
15,
12,
10,
15,
7,
5,
16,
9,
15,
13,
10,
12,
8,
17,
15,
8,
11,
9,
10,
17,
8,
15,
11,
15,
9,
8,
8,
9,
8,
7,
7,
8,
4,
8,
7,
7,
2,
6,
6,
9,
4,
6,
7,
8,
8,
4,
8,
6,
14,
8,
7,
7,
11,
6,
7,
7,
3,
8,
5,
6,
3,
3,
5,
4,
5,
7,
3,
2,
4,
6,
7,
9,
4,
5,
4,
4,
3,
5,
4,
5,
4,
4,
3,
3,
8,
3,
2,
3,
4,
3,
2,
3,
4,
3,
1,
1,
2,
2,
3,
2,
3,
2,
1,
4,
3,
2,
2,
3,
2,
4,
1,
4,
1,
6,
5,
5,
3,
9,
2,
1,
4,
1,
0,
2,
3,
0,
4,
1,
0,
1,
0,
2,
1,
2,
0,
0,
3,
1,
4,
5,
0,
3,
2,
2,
2,
1,
2,
1,
2,
3,
1,
1,
5,
2,
1,
2,
2,
3,
0,
4,
2,
1,
3,
3,
0,
1,
2,
4,
1,
2,
4,
3,
1,
3,
0,
0,
0,
1,
3,
2,
2,
2,
0,
2,
0,
0,
2,
3,
0,
1,
1,
1,
1,
3,
1,
0,
1,
1,
2,
2,
1,
4,
1,
1,
0,
2,
1,
1,
0,
1,
0,
2,
0,
1,
2,
1,
2,
1,
0,
0,
1,
1,
1,
0,
2,
1,
2,
1,
1,
0,
3,
2,
2,
1,
1,
1,
1,
1,
0,
0,
3,
2,
0,
0,
1,
0,
1,
0,
1,
0,
1,
2,
0,
0,
1,
0,
0,
0,
0,
1,
2,
2,
0,
0,
0,
0,
1,
2,
0,
0,
0,
0,
0,
0,
0,
0,
1,
1,
0,
0,
1,
0,
1,
0,
0,
1,
0,
0,
0,
0,
0,
0,
0,
1,
0,
0,
0,
0,
1,
0,
1,
0,
1,
2,
0,
0,
0,
0,
0,
0,
0,
0,
0,
0,
0,
1,
0,
1,
0,
0,
1,
0,
0,
0,
0,
1,
0,
0,
0,
1,
1,
0,
0,
0,
0,
0,
0,
0,
0,
0,
0,
0,
0,
0,
0,
0,
0,
0,
0,
0,
0,
0,
0,
0,
0,
0,
0,
0,
0,
0,
0,
0,
0,
0,
0,
0,
0,
0,
0,
1,
0,
0,
0,
0,
0,
0,
0,
0,
0,
0,
0,
0,
0,
0,
0,
1,
0,
0,
0,
0,
0,
0,
0,
0,
0,
0,
0,
0,
0,
0,
0,
0,
0,
0,
0,
0,
0,
0,
0,
0,
0,
1,
0,
0,
1,
1,
0,
0,
0,
1,
0,
0,
0,
0,
0,
0,
0,
0,
0,
0,
0,
0,
0,
0,
0,
0,
0,
0,
0,
0,
0,
0,
0,
0,
0,
0,
0,
0,
0,
0,
1,
0,
0,
0,
0,
1,
2,
0,
0,
0,
0,
1,
0,
0,
0,
0,
0,
0,
0,
0,
0,
0,
0,
0,
0,
0,
0,
0,
0,
0,
0,
0,
0,
0,
0,
0,
0,
0,
0,
0,
0,
0,
0,
0,
0,
0,
0,
0,
0,
0,
0,
0,
0,
0,
0,
0,
0,
0,
0,
0,
0,
0,
0,
0,
0,
0,
0,
0,
0,
0,
0,
0,
0,
0,
0,
0,
0,
0,
0,
0,
0,
0,
0,
0,
0,
0,
0,
0,
0,
0,
0,
0,
0,
0,
0,
0,
0,
0,
0,
0,
0,
0,
0,
0,
0,
0,
0,
0,
0,
0,
0,
0,
0,
0,
0,
0,
0,
0,
0,
0,
0,
0,
0,
0,
0,
0,
0,
0,
0,
0,
0,
0,
0,
0,
0,
0,
0,
0,
0,
0,
0,
0,
0,
0,
0,
0,
0,
0,
0,
0,
0,
0,
0,
0,
0,
0,
0,
0,
0,
0,
0,
0,
0,
0,
0,
0,
0,
0,
0,
0,
0,
0,
0,
0,
0,
0,
0,
0,
0,
0,
0,
0,
0,
0,
0,
0,
0,
0,
0,
0,
0,
0,
0,
0,
0,
0,
0,
0,
0,
0,
0,
0,
0,
0,
0,
0,
0,
0,
0,
0,
0,
0,
0,
0,
0,
0,
0,
0,
0,
0,
0,
0,
0,
0,
0,
0,
0,
0,
0,
0,
0,
0,
0,
0,
0,
0,
0,
0,
#ENDOFDATA   :