File: N132962/Standards/20 keV/Ir std.msa
#FORMAT      : EMSA/MAS Spectral Data File
#VERSION     : 1.0
#TITLE       : Ir std
#DATE        : 21-FEB-2025
#TIME        : 09:51
#OWNER       : Unknown
#NPOINTS     : 4096
#NCOLUMNS    : 1
#XUNITS      : eV
#YUNITS      : counts
#DATATYPE    : Y
#XPERCHAN    : 9.99778
#OFFSET      : 1.69135
#BEAMKV      : 20
#SIGNALTYPE  : EDS
#ELEVANGLE   : 35
#AZIMANGLE   : 0
#LIVETIME    : 1195.29
#REALTIME    : 1357.64
#PROBECUR    : 1.05803
#TAUWIND     : 0
#TDEADLYR    : 0
#TACTLYR     : 0.045
#TALWIND     : 0.025
#CHOFFSET    : 0.0
#XLABEL      : Energy (eV)
#YLABEL      : Counts
#EDSDET      : SD
##SPECIMEN   : Ir std
##D2STDCMP   : Ir,(Ir:100.0),5.0
##DET_HASH   : 12273538-fd48-a23f-0a19-f1e6fa85caef
##CALIB_HASH : 6abaa72c-aa41-8738-0be9-f592914732f3
##WORKING    : 15.0 mm
##SAMPLE     : <BulkSample id="1">\n<mOrientation id="2">\n<double>0.0</double>\n<double>0.0</double>\n<double>-1.0</double>\n</mOrientation>\n</BulkSample>
##MULTISPEC  : 1.52198
##DET_NAME   : EDAX All
##DET_MODE   : MediumLE
#SPECTRUM    :
143,
164,
80,
395,
2027,
7079,
20512,
54703,
87288,
79045,
57871,
41708,
30791,
28715,
28647,
29904,
34414,
37738,
35710,
33155,
34309,
35973,
38731,
41559,
41638,
40568,
42321,
44110,
47416,
47817,
47526,
48685,
49414,
51464,
52309,
54176,
55754,
56693,
57557,
58667,
60254,
61386,
62249,
63281,
64115,
65002,
66017,
67429,
72322,
88364,
127820,
170872,
163802,
117971,
87930,
76766,
74035,
76376,
80208,
82862,
89102,
103875,
139259,
248500,
582426,
1196469,
1644037,
1544684,
1229079,
852836,
420531,
143146,
55255,
46804,
59225,
68397,
60996,
44698,
33659,
29901,
29673,
30691,
31687,
32261,
34099,
37249,
39491,
38870,
35778,
32911,
30703,
29784,
29096,
28771,
29326,
29101,
29107,
29240,
29189,
29002,
28972,
29017,
29803,
29714,
30292,
30362,
29614,
29346,
29599,
29671,
29656,
29462,
29799,
29941,
29593,
30144,
30546,
30709,
30696,
30861,
31135,
31189,
31434,
31878,
31579,
31260,
30892,
31464,
31522,
31497,
33020,
33994,
34519,
35381,
34958,
34872,
33715,
32865,
32235,
31203,
31381,
31177,
31325,
31142,
31039,
31158,
31202,
31315,
31226,
30624,
31044,
31191,
31010,
30608,
31075,
30840,
30559,
30633,
30584,
30606,
30501,
30160,
30559,
30434,
30112,
30386,
30346,
30034,
30343,
29928,
30116,
29672,
29741,
29664,
29765,
29484,
29587,
29721,
30051,
30127,
30673,
30799,
30307,
29348,
28870,
28601,
28780,
28535,
28558,
28374,
28285,
28202,
28391,
28240,
28068,
28209,
27909,
27701,
27887,
27475,
27526,
27102,
27135,
27094,
26520,
26409,
26826,
26667,
26583,
26794,
27696,
29660,
31036,
32119,
31820,
29867,
28070,
26551,
25774,
25263,
25161,
25052,
24851,
24868,
24839,
24413,
24574,
24243,
24418,
24258,
24290,
23945,
24239,
24293,
24454,
24344,
23779,
23820,
23290,
23379,
23280,
23148,
22544,
23014,
22864,
23277,
23479,
23886,
24210,
24351,
23938,
23186,
22470,
22035,
21864,
21822,
21240,
21447,
21524,
21295,
21181,
20816,
21134,
21689,
22547,
24448,
26910,
28945,
29855,
29019,
26719,
23743,
22101,
20879,
20608,
20028,
20029,
19693,
19648,
19475,
19594,
19016,
18966,
19082,
18990,
18854,
18755,
18488,
18692,
18694,
18726,
18529,
18480,
18389,
18138,
18165,
18563,
19009,
20583,
24501,
33474,
51101,
81294,
122467,
166639,
195541,
197032,
167235,
122046,
77654,
46097,
28766,
21101,
18215,
16770,
16800,
16435,
16593,
16789,
17079,
17175,
16980,
17077,
16534,
16150,
15641,
15501,
15243,
15132,
15108,
14935,
14912,
15032,
14650,
14357,
14628,
14348,
14339,
14355,
14128,
14385,
14022,
14091,
14189,
14297,
14558,
15175,
16625,
18142,
20296,
21468,
23568,
27200,
33855,
44317,
56794,
65677,
68168,
62714,
54587,
48264,
46494,
48383,
50356,
49412,
44084,
35507,
27187,
20618,
16803,
14976,
14038,
14003,
14031,
13494,
13072,
12486,
11559,
10918,
10660,
10411,
10204,
10012,
9979,
9682,
9782,
9619,
9657,
9559,
9629,
9578,
9301,
9317,
9154,
9070,
9113,
9109,
9013,
9045,
9028,
8879,
8999,
8965,
9033,
9004,
8905,
8775,
8583,
8739,
8622,
8630,
9239,
9979,
11536,
13117,
15133,
16461,
16546,
15958,
13901,
11897,
10427,
9277,
8793,
8964,
9091,
9243,
9537,
9659,
9677,
9348,
8710,
8330,
7720,
7591,
7027,
6752,
6731,
6637,
6652,
6482,
6497,
6618,
6608,
6575,
6616,
6451,
6217,
6263,
6225,
6038,
5831,
5864,
5735,
5667,
5740,
5772,
5699,
5594,
5557,
5500,
5447,
5423,
5189,
5223,
5274,
5190,
5235,
5292,
5071,
4992,
5018,
5170,
4940,
4807,
4734,
4758,
4655,
4703,
4642,
4682,
4702,
4612,
4614,
4491,
4423,
4480,
4379,
4378,
4327,
4120,
4190,
4203,
4020,
4090,
4015,
3995,
4057,
3987,
3830,
3768,
3710,
3840,
3768,
3835,
3654,
3636,
3574,
3627,
3618,
3609,
3543,
3423,
3371,
3400,
3390,
3204,
3342,
3281,
3264,
3204,
3060,
3057,
3079,
3066,
3125,
3006,
2956,
2865,
2942,
2804,
2908,
2736,
2793,
2692,
2798,
2633,
2657,
2714,
2613,
2558,
2542,
2499,
2543,
2476,
2394,
2420,
2400,
2412,
2375,
2274,
2321,
2189,
2119,
2279,
2238,
2172,
2125,
2052,
2026,
2050,
2002,
2025,
2071,
1980,
1967,
1940,
1904,
1890,
1843,
1790,
1803,
1804,
1722,
1720,
1749,
1722,
1632,
1657,
1573,
1608,
1604,
1520,
1594,
1527,
1462,
1479,
1468,
1413,
1372,
1447,
1410,
1386,
1331,
1290,
1325,
1293,
1256,
1268,
1162,
1215,
1111,
1146,
1147,
1125,
1091,
1149,
1088,
1111,
1055,
980,
1001,
995,
1042,
967,
969,
940,
893,
854,
877,
832,
769,
804,
741,
777,
714,
697,
737,
667,
656,
638,
655,
638,
608,
593,
578,
614,
529,
540,
545,
456,
477,
494,
422,
429,
410,
414,
374,
378,
339,
333,
325,
352,
281,
276,
276,
238,
236,
220,
212,
200,
190,
167,
155,
137,
127,
111,
91,
104,
89,
73,
72,
61,
69,
52,
59,
53,
48,
52,
44,
45,
37,
41,
42,
44,
44,
29,
29,
41,
43,
44,
31,
27,
38,
33,
29,
43,
39,
30,
48,
31,
35,
38,
37,
40,
49,
35,
31,
36,
34,
32,
32,
44,
31,
49,
39,
31,
41,
29,
40,
41,
37,
39,
35,
34,
36,
37,
43,
26,
33,
32,
22,
30,
35,
25,
23,
25,
20,
23,
20,
16,
21,
23,
35,
20,
20,
15,
27,
21,
20,
18,
28,
13,
15,
26,
12,
21,
16,
27,
18,
13,
24,
17,
28,
15,
17,
18,
17,
25,
13,
19,
23,
19,
19,
25,
23,
18,
20,
17,
23,
10,
12,
17,
13,
18,
14,
18,
28,
20,
14,
6,
8,
18,
16,
12,
25,
13,
17,
17,
11,
18,
11,
13,
15,
11,
12,
9,
6,
14,
10,
9,
13,
13,
18,
10,
10,
12,
11,
11,
14,
19,
11,
13,
18,
14,
16,
11,
19,
15,
14,
13,
17,
14,
16,
22,
14,
16,
13,
12,
16,
18,
11,
17,
9,
10,
14,
12,
15,
13,
11,
10,
11,
10,
12,
11,
14,
3,
14,
11,
8,
14,
11,
9,
11,
9,
13,
8,
7,
10,
7,
10,
7,
10,
13,
5,
11,
9,
6,
11,
11,
11,
9,
8,
9,
11,
2,
10,
14,
9,
5,
12,
11,
3,
9,
5,
5,
13,
6,
7,
5,
9,
3,
4,
9,
8,
4,
4,
6,
7,
4,
5,
7,
5,
6,
3,
4,
7,
4,
8,
5,
2,
2,
4,
9,
4,
3,
2,
2,
1,
9,
6,
6,
1,
8,
6,
5,
6,
3,
3,
6,
5,
4,
4,
6,
2,
5,
7,
1,
7,
3,
2,
3,
2,
3,
4,
4,
3,
4,
3,
1,
4,
6,
3,
1,
2,
1,
4,
1,
2,
4,
2,
1,
2,
2,
3,
2,
3,
0,
2,
4,
1,
3,
2,
2,
1,
0,
0,
6,
2,
3,
0,
1,
3,
2,
2,
3,
0,
1,
1,
5,
1,
0,
1,
0,
1,
1,
0,
3,
0,
2,
0,
1,
5,
1,
3,
0,
0,
1,
2,
0,
1,
0,
0,
0,
1,
1,
1,
1,
2,
1,
0,
2,
0,
2,
1,
0,
2,
1,
0,
2,
1,
1,
0,
1,
0,
1,
0,
0,
0,
1,
0,
0,
0,
0,
0,
0,
0,
1,
2,
0,
1,
0,
1,
1,
0,
0,
0,
0,
0,
3,
0,
0,
1,
1,
1,
0,
0,
0,
2,
0,
1,
0,
0,
0,
0,
1,
0,
0,
1,
0,
0,
2,
0,
0,
0,
0,
0,
0,
0,
0,
0,
1,
0,
0,
0,
0,
0,
0,
1,
0,
0,
0,
0,
0,
1,
0,
0,
1,
0,
1,
0,
0,
0,
1,
1,
1,
0,
0,
0,
1,
0,
2,
0,
0,
0,
0,
0,
4,
0,
0,
0,
0,
0,
0,
0,
0,
1,
0,
0,
0,
1,
0,
0,
0,
0,
0,
0,
0,
0,
0,
0,
0,
0,
0,
0,
0,
1,
0,
0,
0,
0,
0,
0,
0,
0,
0,
0,
0,
0,
0,
0,
1,
0,
0,
0,
0,
1,
0,
0,
0,
0,
0,
0,
0,
0,
0,
0,
1,
0,
0,
0,
0,
0,
0,
0,
0,
0,
0,
0,
0,
0,
0,
0,
0,
1,
0,
0,
0,
0,
0,
0,
0,
0,
0,
0,
0,
0,
0,
0,
0,
0,
0,
0,
0,
0,
0,
0,
0,
0,
0,
0,
0,
0,
0,
0,
0,
0,
0,
0,
0,
0,
0,
0,
0,
0,
0,
0,
0,
0,
0,
0,
0,
0,
0,
0,
0,
0,
0,
0,
0,
0,
0,
0,
0,
0,
0,
0,
0,
0,
0,
0,
0,
0,
0,
0,
0,
0,
0,
0,
0,
0,
0,
0,
0,
0,
0,
0,
0,
0,
0,
0,
1,
0,
0,
0,
0,
0,
0,
0,
0,
0,
0,
0,
0,
0,
0,
0,
0,
0,
0,
0,
0,
0,
0,
0,
0,
0,
0,
0,
0,
0,
0,
0,
0,
0,
0,
0,
0,
0,
0,
0,
0,
0,
0,
0,
0,
0,
0,
0,
0,
0,
0,
0,
0,
0,
0,
0,
0,
0,
0,
0,
0,
0,
0,
0,
0,
#ENDOFDATA   :