File: N132962/Standards/20 keV/K227 std.msa
#FORMAT      : EMSA/MAS Spectral Data File
#VERSION     : 1.0
#TITLE       : K227 std
#DATE        : 20-FEB-2025
#TIME        : 13:56
#OWNER       : Unknown
#NPOINTS     : 4096
#NCOLUMNS    : 1
#XUNITS      : eV
#YUNITS      : counts
#DATATYPE    : Y
#XPERCHAN    : 9.99778
#OFFSET      : 1.69135
#BEAMKV      : 20
#SIGNALTYPE  : EDS
#ELEVANGLE   : 35
#AZIMANGLE   : 0
#LIVETIME    : 959.802
#REALTIME    : 1059.17
#PROBECUR    : 1.04693
#TAUWIND     : 0
#TDEADLYR    : 0
#TACTLYR     : 0.045
#TALWIND     : 0.025
#CHOFFSET    : 0.0
#XLABEL      : Energy (eV)
#YLABEL      : Counts
#EDSDET      : SD
##SPECIMEN   : K227 std
##D2STDCMP   : K227,(O:16.39),(Si:9.35),(Pb:74.27)
##DET_HASH   : 12273538-fd48-a23f-0a19-f1e6fa85caef
##CALIB_HASH : 6abaa72c-aa41-8738-0be9-f592914732f3
##WORKING    : 15.0 mm
##SAMPLE     : <BulkSample id="1">\n<mOrientation id="2">\n<double>0.0</double>\n<double>0.0</double>\n<double>-1.0</double>\n</mOrientation>\n</BulkSample>
##MULTISPEC  : 1.06492
##DET_NAME   : EDAX All
##DET_MODE   : MediumLE
#SPECTRUM    :
131,
111,
45,
153,
987,
3913,
10510,
21765,
40572,
49868,
34676,
24510,
22253,
21810,
24360,
43823,
118741,
210736,
159616,
62943,
37534,
31100,
28650,
32758,
30990,
25972,
24771,
26070,
27795,
28353,
28146,
27902,
28840,
29305,
30191,
30325,
31261,
31672,
32686,
33028,
33958,
34588,
35520,
36017,
37028,
37956,
38117,
39184,
40092,
40979,
42101,
41639,
41599,
41866,
44218,
62192,
143344,
313716,
415642,
318189,
178691,
115062,
81297,
53319,
40341,
36714,
35389,
34798,
34269,
35225,
37284,
41008,
45561,
49773,
58799,
96694,
224699,
483845,
713276,
691782,
553816,
503028,
428478,
255367,
106266,
45094,
34041,
40846,
48511,
47251,
36338,
26445,
21690,
20407,
20509,
21073,
21880,
22504,
22892,
22575,
24100,
25882,
28140,
28523,
27528,
25191,
22770,
21466,
20746,
19936,
19732,
19723,
19555,
19845,
20314,
20074,
20347,
20386,
20706,
20471,
19797,
19405,
19566,
19598,
20141,
20232,
20237,
19855,
19531,
19293,
19346,
19236,
19212,
19479,
19453,
19945,
19883,
19945,
19894,
19909,
19700,
19688,
19283,
19057,
18931,
19010,
18634,
18861,
19049,
19033,
19058,
18755,
18776,
18874,
18943,
19068,
19275,
19346,
19417,
19656,
19468,
19001,
18851,
18678,
18510,
18604,
18337,
18151,
18078,
18147,
17873,
17743,
17776,
17785,
17294,
17693,
17447,
17682,
17630,
18161,
18393,
18316,
17839,
17419,
17073,
17167,
16819,
16836,
16768,
16903,
16676,
16621,
16529,
16611,
16385,
16571,
16491,
16582,
16304,
16418,
15889,
16066,
15629,
15771,
15781,
15772,
15321,
15640,
15737,
15709,
16348,
17471,
18812,
19584,
18984,
17513,
16479,
15519,
14923,
14732,
14735,
14516,
14545,
14304,
14307,
14135,
14320,
14306,
14000,
14181,
14086,
14050,
13807,
14307,
14121,
14096,
14060,
13865,
13706,
13408,
13347,
13402,
13090,
13166,
13224,
13273,
13417,
13736,
13917,
14194,
14033,
13421,
12906,
12511,
12390,
12352,
12214,
12143,
12217,
12065,
11859,
11938,
11953,
11935,
11785,
11598,
11690,
11766,
11671,
11555,
11527,
11472,
11377,
11082,
11451,
11335,
11214,
11006,
11040,
10897,
10883,
10998,
10762,
10605,
10827,
10756,
10575,
10607,
10387,
10486,
10506,
10369,
10413,
10176,
10421,
10113,
10137,
10116,
9917,
9902,
9922,
9877,
10310,
10689,
11414,
11939,
12169,
12011,
11344,
10563,
9974,
9461,
9349,
9215,
9123,
9042,
9097,
8849,
8987,
9048,
8769,
8757,
8758,
8555,
8580,
8580,
8605,
8591,
8515,
8592,
8338,
8124,
8268,
8390,
8345,
8151,
8212,
7959,
8108,
7967,
8019,
8094,
8030,
8553,
9561,
11459,
14782,
20252,
28540,
38746,
48151,
54113,
52903,
45205,
34192,
23097,
15418,
10713,
8776,
7732,
7352,
7015,
7057,
6978,
6835,
6760,
6675,
6693,
6506,
6633,
6567,
6325,
6579,
6269,
6463,
6319,
6216,
6428,
6487,
6419,
6330,
6186,
6007,
5979,
5911,
5963,
5773,
5700,
5649,
5725,
5663,
5615,
5645,
5536,
5599,
5324,
5174,
5426,
5198,
5480,
5268,
5478,
5601,
5556,
5668,
5690,
5682,
5638,
5680,
5756,
5742,
5445,
5472,
5593,
6101,
7275,
9423,
12851,
17051,
19907,
21650,
21266,
18555,
14527,
11224,
8445,
6744,
5892,
5305,
5022,
5114,
5033,
5015,
5006,
4856,
4825,
4452,
4113,
3944,
3853,
3746,
3557,
3473,
3637,
3554,
3457,
3398,
3466,
3409,
3257,
3296,
3156,
3233,
3314,
3161,
3175,
3205,
3256,
3196,
3058,
3001,
3008,
3059,
3086,
2961,
2903,
2870,
2917,
2905,
2795,
2857,
2735,
2859,
2799,
2688,
2727,
2754,
2679,
2752,
2607,
2663,
2611,
2622,
2558,
2511,
2369,
2659,
2692,
2988,
3294,
3568,
3803,
3694,
3576,
3259,
2915,
2703,
2441,
2336,
2270,
2255,
2220,
2364,
2407,
2303,
2345,
2337,
2253,
2097,
2054,
1974,
1879,
1867,
1852,
1776,
1863,
1850,
1738,
1668,
1802,
1691,
1660,
1670,
1662,
1629,
1645,
1575,
1639,
1516,
1502,
1495,
1454,
1424,
1486,
1429,
1430,
1376,
1335,
1428,
1327,
1329,
1292,
1267,
1269,
1287,
1200,
1201,
1176,
1209,
1169,
1189,
1135,
1135,
1153,
1149,
1037,
1053,
1060,
1046,
1081,
1022,
1043,
1001,
1082,
999,
986,
955,
1052,
946,
938,
955,
903,
886,
899,
915,
936,
818,
849,
821,
797,
797,
747,
772,
727,
757,
748,
757,
717,
705,
696,
680,
649,
655,
678,
647,
706,
625,
589,
596,
602,
556,
559,
517,
545,
547,
493,
555,
457,
470,
521,
479,
486,
436,
447,
416,
467,
397,
368,
375,
410,
366,
360,
350,
346,
349,
325,
349,
327,
309,
254,
273,
317,
272,
251,
282,
268,
257,
228,
228,
248,
230,
218,
209,
193,
177,
151,
161,
153,
155,
161,
124,
132,
106,
122,
100,
99,
87,
74,
65,
70,
65,
57,
44,
42,
29,
25,
20,
26,
20,
19,
18,
13,
16,
23,
20,
17,
13,
7,
19,
12,
23,
19,
20,
13,
18,
11,
17,
12,
15,
19,
14,
13,
23,
18,
16,
8,
15,
15,
17,
17,
13,
20,
21,
8,
9,
15,
6,
15,
10,
9,
7,
13,
10,
11,
9,
13,
17,
12,
17,
10,
13,
11,
12,
12,
11,
9,
6,
10,
5,
5,
13,
9,
7,
9,
3,
14,
11,
6,
11,
7,
6,
6,
8,
6,
5,
9,
11,
4,
10,
4,
4,
2,
7,
13,
11,
10,
6,
7,
5,
9,
4,
4,
6,
4,
12,
3,
7,
4,
6,
11,
10,
7,
6,
10,
7,
10,
7,
4,
6,
4,
4,
4,
9,
7,
6,
5,
2,
6,
5,
5,
3,
5,
9,
4,
7,
4,
4,
4,
7,
3,
5,
4,
6,
5,
7,
5,
1,
3,
9,
3,
5,
2,
2,
2,
3,
1,
7,
1,
5,
8,
5,
7,
4,
3,
2,
8,
1,
0,
5,
11,
7,
8,
7,
6,
10,
3,
5,
7,
6,
6,
4,
4,
6,
5,
3,
2,
3,
6,
10,
9,
5,
3,
3,
2,
3,
6,
4,
5,
7,
1,
2,
2,
2,
4,
5,
7,
2,
4,
4,
8,
1,
4,
2,
3,
3,
3,
1,
4,
4,
1,
5,
3,
3,
1,
5,
3,
3,
1,
7,
3,
4,
4,
4,
2,
4,
2,
2,
0,
1,
1,
4,
1,
0,
2,
2,
1,
2,
4,
1,
2,
1,
3,
5,
2,
3,
5,
1,
0,
1,
4,
1,
2,
3,
1,
0,
1,
2,
2,
2,
3,
2,
2,
2,
1,
4,
0,
2,
1,
1,
3,
0,
1,
2,
1,
0,
0,
1,
1,
1,
0,
1,
0,
1,
5,
1,
1,
0,
2,
1,
2,
1,
0,
0,
0,
0,
1,
1,
0,
2,
1,
0,
0,
1,
1,
0,
0,
1,
0,
1,
2,
1,
2,
1,
1,
1,
1,
0,
2,
0,
2,
0,
0,
1,
0,
1,
0,
2,
1,
0,
1,
0,
0,
0,
0,
0,
1,
0,
1,
0,
1,
1,
0,
0,
0,
1,
0,
0,
2,
2,
0,
0,
0,
0,
0,
0,
1,
0,
0,
0,
0,
1,
1,
0,
2,
0,
0,
0,
1,
0,
0,
0,
0,
0,
0,
0,
0,
1,
0,
0,
2,
0,
1,
1,
1,
0,
0,
0,
0,
0,
0,
1,
0,
0,
0,
0,
0,
0,
0,
1,
0,
1,
0,
1,
0,
0,
0,
0,
0,
1,
1,
0,
0,
0,
0,
0,
1,
1,
0,
1,
0,
0,
0,
0,
0,
0,
0,
0,
0,
0,
0,
0,
0,
0,
0,
0,
0,
0,
0,
0,
1,
1,
0,
0,
0,
0,
0,
1,
0,
0,
0,
0,
0,
0,
0,
0,
0,
0,
0,
0,
0,
1,
0,
0,
0,
0,
0,
0,
0,
0,
0,
0,
0,
0,
0,
0,
1,
0,
0,
0,
0,
0,
0,
0,
0,
0,
0,
0,
0,
0,
0,
0,
0,
0,
0,
0,
0,
0,
0,
0,
0,
0,
0,
0,
0,
0,
0,
0,
0,
0,
0,
0,
0,
0,
0,
0,
0,
0,
0,
0,
0,
0,
1,
0,
0,
0,
0,
0,
0,
0,
0,
0,
0,
0,
0,
0,
0,
0,
0,
0,
0,
0,
0,
0,
0,
0,
0,
0,
0,
0,
0,
0,
0,
0,
0,
0,
0,
1,
0,
0,
0,
0,
0,
0,
0,
0,
0,
0,
0,
0,
0,
0,
0,
0,
0,
0,
0,
0,
0,
0,
0,
0,
0,
0,
0,
0,
0,
0,
0,
0,
0,
0,
0,
0,
0,
0,
0,
0,
0,
0,
0,
0,
0,
0,
0,
0,
0,
0,
0,
0,
0,
0,
0,
0,
0,
0,
0,
0,
0,
0,
0,
0,
0,
0,
0,
0,
0,
0,
0,
0,
0,
0,
0,
0,
0,
0,
0,
0,
0,
0,
0,
0,
0,
0,
0,
0,
0,
0,
0,
0,
0,
0,
0,
0,
0,
0,
0,
0,
0,
0,
0,
0,
0,
0,
0,
0,
0,
0,
0,
0,
0,
0,
0,
0,
0,
0,
0,
0,
0,
0,
0,
0,
0,
0,
0,
0,
0,
0,
0,
0,
0,
0,
0,
0,
0,
0,
0,
#ENDOFDATA   :