File: N132962/Standards/20 keV/KBr std.msa
#FORMAT      : EMSA/MAS Spectral Data File
#VERSION     : 1.0
#TITLE       : KBr std
#DATE        : 21-FEB-2025
#TIME        : 10:09
#OWNER       : Unknown
#NPOINTS     : 4096
#NCOLUMNS    : 1
#XUNITS      : eV
#YUNITS      : counts
#DATATYPE    : Y
#XPERCHAN    : 9.99778
#OFFSET      : 1.69135
#BEAMKV      : 20
#SIGNALTYPE  : EDS
#ELEVANGLE   : 35
#AZIMANGLE   : 0
#LIVETIME    : 720.404
#REALTIME    : 797.374
#PROBECUR    : 1.05806
#TAUWIND     : 0
#TDEADLYR    : 0
#TACTLYR     : 0.045
#TALWIND     : 0.025
#CHOFFSET    : 0.0
#XLABEL      : Energy (eV)
#YLABEL      : Counts
#EDSDET      : SD
##SPECIMEN   : KBr std
##D2STDCMP   : KBr,(K:32.8551),(Br:67.1449),5.0
##DET_HASH   : 12273538-fd48-a23f-0a19-f1e6fa85caef
##CALIB_HASH : 6abaa72c-aa41-8738-0be9-f592914732f3
##WORKING    : 15.0 mm
##SAMPLE     : <BulkSample id="1">\n<mOrientation id="2">\n<double>0.0</double>\n<double>0.0</double>\n<double>-1.0</double>\n</mOrientation>\n</BulkSample>
##MULTISPEC  : 29.3646
##DET_NAME   : EDAX All
##DET_MODE   : MediumLE
#SPECTRUM    :
84,
102,
52,
73,
371,
1443,
4297,
12788,
27848,
29188,
14991,
7821,
7389,
7394,
7538,
8541,
11119,
14275,
13654,
12429,
12756,
13622,
15323,
17440,
18234,
18238,
18906,
20709,
22761,
23332,
23049,
23155,
24036,
25141,
26244,
26927,
27093,
27524,
28437,
29275,
31452,
39085,
59169,
79046,
79545,
65044,
68757,
183293,
574946,
1090375,
1176197,
801960,
374093,
130729,
46103,
21989,
15720,
15417,
16658,
16607,
15386,
14069,
13002,
12282,
12121,
11834,
12192,
12345,
12612,
12946,
13140,
13130,
13165,
13220,
13300,
13865,
13739,
13864,
13869,
13900,
13856,
13798,
14277,
14320,
14234,
14567,
14652,
14754,
14855,
14647,
14582,
14640,
14964,
14530,
15100,
14908,
15054,
15704,
16876,
17811,
17533,
16722,
15953,
15508,
16233,
18563,
25663,
52583,
137219,
305335,
470497,
473045,
309953,
137454,
47682,
21598,
19365,
27949,
44827,
63744,
67821,
52522,
31333,
17330,
12375,
10970,
10839,
10644,
10626,
10675,
10778,
10679,
10640,
10509,
10578,
10578,
10515,
10436,
10622,
10414,
10398,
10393,
10358,
10423,
10271,
10307,
10483,
10298,
10193,
10156,
10273,
10022,
10203,
10167,
10093,
10148,
9982,
10498,
10732,
11639,
12083,
11981,
11209,
10609,
10199,
9488,
9533,
9555,
9482,
9547,
9372,
9218,
9265,
9005,
9158,
8917,
8897,
8966,
8860,
9040,
9255,
9180,
8920,
8778,
8596,
8448,
8403,
8368,
8222,
8378,
8406,
8148,
8193,
8177,
8036,
8072,
8048,
8203,
8081,
7781,
7833,
7917,
7572,
7638,
7711,
7452,
7646,
7323,
7481,
7487,
7792,
8374,
8786,
9127,
8909,
8362,
7884,
7750,
7336,
7208,
7108,
7298,
7262,
7030,
6964,
6827,
6797,
6697,
6864,
6730,
6530,
6753,
6626,
6564,
6619,
6673,
6447,
6499,
6451,
6392,
6348,
6042,
6035,
6046,
6001,
6000,
6141,
6293,
6414,
6328,
6432,
6164,
5931,
5834,
5759,
5475,
5753,
5688,
5498,
5544,
5447,
5371,
5360,
5414,
5469,
5413,
5230,
5320,
5177,
5261,
5116,
5233,
5093,
5042,
5127,
5176,
4950,
4967,
4769,
5025,
4863,
4831,
4650,
4703,
4649,
4776,
4669,
4549,
4543,
4588,
4619,
4553,
4554,
4428,
4349,
4285,
4317,
4340,
4374,
4339,
4145,
4274,
4193,
4121,
4217,
4110,
4039,
4037,
4047,
4069,
3957,
4133,
3952,
3897,
3918,
3845,
3942,
3884,
3877,
3841,
3755,
3773,
3654,
3656,
3660,
3627,
3756,
3567,
3584,
3592,
3390,
3400,
3581,
3611,
3416,
3432,
3444,
3412,
3436,
3327,
3233,
3311,
3389,
3275,
3273,
3128,
3189,
3119,
3090,
3066,
3067,
2956,
3057,
3030,
2906,
2965,
2923,
2909,
2984,
2832,
2787,
2812,
2783,
2698,
2821,
2782,
2778,
2760,
2737,
2745,
2651,
2608,
2652,
2646,
2699,
2583,
2691,
2663,
2489,
2507,
2486,
2523,
2438,
2431,
2430,
2495,
2493,
2452,
2621,
3158,
3969,
6116,
10070,
15992,
24284,
32193,
36923,
37686,
33533,
26222,
17755,
11136,
6586,
3940,
2852,
2278,
2055,
2062,
2028,
1890,
1896,
1908,
1861,
1871,
1825,
1854,
1891,
1776,
1833,
1784,
1722,
1687,
1772,
1723,
1662,
1750,
1711,
1676,
1631,
1625,
1680,
1610,
1659,
1605,
1675,
1754,
1815,
2159,
2667,
3487,
4594,
5441,
6086,
6296,
5689,
4969,
3804,
2986,
2400,
2145,
1823,
1556,
1432,
1292,
1281,
1218,
1174,
1205,
1180,
1135,
1135,
1108,
1078,
1142,
1160,
1098,
1057,
1061,
1036,
1000,
999,
1022,
1116,
986,
983,
983,
983,
924,
956,
892,
965,
936,
927,
936,
905,
880,
908,
879,
828,
855,
845,
807,
868,
852,
804,
781,
843,
764,
740,
765,
746,
747,
735,
768,
729,
827,
783,
784,
692,
753,
732,
665,
637,
632,
612,
598,
649,
641,
601,
590,
597,
574,
625,
528,
561,
565,
560,
556,
525,
560,
506,
520,
532,
490,
488,
452,
480,
484,
481,
453,
443,
439,
402,
433,
388,
403,
452,
423,
405,
350,
406,
419,
363,
393,
381,
372,
358,
331,
347,
334,
341,
333,
343,
299,
344,
281,
296,
310,
313,
328,
282,
297,
284,
294,
287,
270,
252,
260,
246,
271,
218,
250,
225,
234,
249,
247,
220,
216,
210,
212,
200,
190,
202,
197,
173,
194,
183,
158,
194,
174,
185,
147,
143,
164,
145,
130,
133,
135,
124,
146,
122,
126,
102,
120,
90,
112,
122,
102,
86,
101,
101,
90,
103,
91,
88,
90,
54,
78,
55,
80,
76,
59,
64,
61,
56,
63,
45,
64,
41,
40,
44,
33,
28,
35,
25,
33,
24,
20,
25,
19,
24,
12,
13,
6,
8,
7,
9,
6,
6,
6,
9,
8,
9,
7,
6,
3,
8,
7,
6,
10,
7,
3,
5,
6,
7,
7,
3,
5,
4,
5,
2,
2,
4,
9,
2,
5,
4,
5,
3,
1,
6,
2,
5,
8,
6,
4,
2,
6,
3,
4,
2,
5,
4,
2,
1,
4,
6,
2,
2,
3,
5,
5,
2,
6,
4,
2,
6,
5,
3,
1,
4,
1,
2,
0,
7,
3,
5,
0,
3,
3,
4,
3,
1,
4,
2,
1,
5,
3,
4,
3,
2,
3,
0,
3,
0,
4,
4,
2,
2,
1,
1,
2,
2,
2,
1,
2,
1,
0,
2,
1,
1,
2,
1,
3,
3,
2,
1,
2,
1,
1,
0,
3,
2,
1,
1,
3,
2,
3,
2,
4,
0,
1,
2,
1,
2,
2,
1,
1,
1,
1,
1,
5,
3,
5,
4,
6,
2,
6,
3,
2,
2,
2,
1,
0,
1,
4,
1,
0,
0,
1,
1,
1,
0,
1,
4,
2,
0,
2,
3,
1,
1,
0,
0,
1,
2,
0,
0,
6,
3,
0,
1,
0,
0,
5,
1,
0,
0,
2,
3,
4,
2,
1,
4,
3,
2,
4,
0,
1,
1,
0,
1,
2,
0,
0,
0,
2,
1,
0,
1,
0,
0,
0,
1,
2,
2,
1,
0,
2,
1,
0,
0,
1,
1,
0,
2,
0,
2,
1,
1,
1,
1,
1,
1,
1,
2,
0,
1,
0,
0,
0,
1,
2,
1,
0,
0,
0,
2,
0,
0,
1,
0,
0,
0,
2,
0,
2,
1,
0,
1,
1,
3,
1,
0,
0,
1,
1,
0,
1,
0,
2,
2,
1,
0,
2,
0,
0,
1,
0,
0,
0,
1,
0,
0,
0,
0,
0,
0,
0,
0,
0,
1,
1,
0,
0,
0,
0,
0,
1,
0,
0,
0,
0,
0,
0,
0,
1,
1,
1,
0,
1,
0,
0,
0,
1,
0,
0,
0,
0,
0,
0,
0,
0,
1,
0,
0,
0,
0,
0,
0,
1,
0,
0,
0,
0,
0,
0,
0,
0,
0,
0,
0,
0,
0,
0,
0,
1,
2,
0,
0,
0,
1,
0,
0,
0,
0,
0,
0,
0,
0,
0,
0,
0,
0,
0,
0,
0,
0,
0,
0,
1,
0,
0,
0,
1,
0,
0,
0,
1,
0,
0,
0,
1,
0,
0,
0,
0,
0,
1,
0,
0,
0,
0,
0,
0,
0,
0,
0,
0,
0,
0,
0,
0,
0,
0,
0,
0,
0,
0,
0,
0,
0,
0,
0,
0,
0,
0,
0,
1,
0,
0,
0,
0,
0,
0,
0,
0,
0,
0,
0,
0,
0,
0,
0,
0,
0,
0,
0,
0,
0,
0,
0,
0,
0,
0,
0,
0,
0,
0,
1,
0,
0,
0,
0,
0,
0,
0,
0,
0,
0,
0,
0,
0,
0,
0,
0,
1,
0,
0,
0,
0,
0,
0,
0,
0,
0,
0,
0,
0,
0,
0,
0,
0,
0,
0,
0,
0,
0,
0,
0,
0,
0,
0,
0,
0,
0,
0,
0,
0,
0,
0,
0,
0,
0,
0,
0,
0,
0,
0,
0,
0,
0,
0,
0,
0,
0,
0,
0,
0,
0,
0,
0,
0,
0,
0,
0,
0,
0,
0,
0,
0,
0,
0,
0,
0,
0,
0,
0,
0,
0,
0,
0,
0,
0,
0,
0,
0,
0,
0,
0,
0,
0,
0,
0,
0,
0,
0,
0,
0,
0,
0,
0,
0,
0,
0,
0,
0,
0,
0,
0,
0,
0,
0,
0,
0,
0,
0,
0,
0,
0,
0,
0,
0,
0,
0,
0,
0,
0,
0,
0,
0,
0,
0,
0,
0,
0,
0,
0,
0,
0,
0,
0,
0,
0,
0,
0,
0,
0,
0,
0,
0,
0,
0,
0,
0,
0,
0,
0,
0,
0,
0,
0,
0,
0,
0,
0,
0,
0,
0,
0,
0,
0,
0,
0,
0,
0,
0,
0,
0,
0,
0,
0,
0,
0,
0,
0,
0,
0,
0,
0,
0,
0,
0,
0,
0,
0,
0,
0,
0,
0,
0,
0,
0,
0,
0,
0,
0,
0,
0,
0,
0,
0,
0,
0,
0,
0,
0,
0,
0,
0,
0,
0,
0,
0,
0,
0,
0,
0,
0,
0,
0,
0,
0,
0,
0,
0,
0,
0,
0,
0,
0,
0,
0,
0,
0,
0,
0,
0,
0,
0,
0,
0,
0,
0,
0,
0,
0,
#ENDOFDATA   :