File: N132962/Standards/20 keV/KCl std.msa
#FORMAT      : EMSA/MAS Spectral Data File
#VERSION     : 1.0
#TITLE       : KCl std
#DATE        : 11-SEP-2025
#TIME        : 14:21
#OWNER       : Unknown
#NPOINTS     : 4096
#NCOLUMNS    : 1
#XUNITS      : eV
#YUNITS      : counts
#DATATYPE    : Y
#XPERCHAN    : 9.99778
#OFFSET      : 1.69135
#BEAMKV      : 20
#SIGNALTYPE  : EDS
#ELEVANGLE   : 35
#AZIMANGLE   : 0
#LIVETIME    : 2154.47
#REALTIME    : 2409.83
#PROBECUR    : 1.22368
#TAUWIND     : 0
#TDEADLYR    : 0
#TACTLYR     : 0.045
#TALWIND     : 0.025
#CHOFFSET    : 0.0
#XLABEL      : Energy (eV)
#YLABEL      : Counts
#EDSDET      : SD
##SPECIMEN   : KCl std
##D2STDCMP   : KCl,(Cl:47.5531),(K:52.4469)
##DET_HASH   : 12273538-fd48-a23f-0a19-f1e6fa85caef
##CALIB_HASH : 6abaa72c-aa41-8738-0be9-f592914732f3
##WORKING    : 15.0 mm
##SAMPLE     : <BulkSample id="1">\n<mOrientation id="2">\n<double>0.0</double>\n<double>0.0</double>\n<double>-1.0</double>\n</mOrientation>\n</BulkSample>
##MULTISPEC  : 12.5743
##DET_NAME   : EDAX All
##DET_MODE   : MediumLE
#SPECTRUM    :
208,
252,
127,
546,
6777,
35934,
63031,
73632,
134671,
139653,
60734,
21349,
16850,
16592,
16644,
20998,
35971,
53392,
45193,
28352,
25273,
27218,
30976,
33688,
35242,
37795,
42576,
52857,
81278,
114154,
101148,
66695,
53359,
53424,
56485,
60100,
62533,
61794,
60461,
60896,
62233,
63730,
64867,
65521,
66216,
67982,
68352,
69998,
73258,
77684,
81493,
91686,
102524,
98033,
82100,
74098,
76609,
83762,
89495,
85746,
78625,
74245,
68814,
64280,
61734,
61074,
61094,
60766,
60708,
60356,
60821,
60212,
60682,
61082,
61868,
61974,
62989,
63200,
62074,
61553,
61928,
70339,
94337,
149433,
321457,
908051,
2205975,
3515972,
3400326,
1979566,
728383,
245411,
213869,
317161,
361323,
274737,
145904,
67498,
40418,
33986,
32768,
32209,
33511,
36831,
44487,
58306,
94173,
227954,
659310,
1512108,
2341763,
2340726,
1508885,
640525,
198676,
71967,
63610,
105030,
192581,
288314,
307569,
228720,
121649,
54722,
29426,
23218,
21688,
21821,
21706,
21786,
22022,
22149,
21861,
21851,
21711,
21544,
21619,
21813,
22041,
21983,
22006,
22247,
21840,
21551,
21485,
21393,
21590,
21601,
21302,
21394,
21040,
21337,
21213,
21030,
20903,
21282,
20800,
20618,
20317,
20810,
20473,
20896,
20743,
20527,
20175,
20101,
19982,
20189,
20145,
20016,
19939,
20558,
21712,
23792,
26204,
26956,
25753,
23446,
21254,
19782,
19907,
20162,
20048,
19117,
18542,
18438,
18084,
18041,
18077,
17654,
17562,
17786,
17619,
17955,
18641,
20126,
22961,
25651,
27235,
25520,
22650,
19697,
17914,
17554,
17691,
17677,
17554,
17537,
17097,
16821,
16399,
16451,
16965,
17151,
16868,
16370,
15730,
15854,
15968,
16513,
17598,
17770,
17667,
16687,
15460,
14854,
14398,
14419,
14285,
14275,
14731,
14405,
14330,
14114,
13943,
13648,
13490,
13534,
13260,
13242,
13135,
13042,
12987,
12944,
12585,
12852,
12729,
13090,
13125,
13343,
12830,
12909,
12448,
11943,
12020,
11888,
11705,
11805,
11809,
11430,
11441,
11551,
11366,
11291,
11080,
11144,
11015,
10996,
10875,
11001,
10883,
10856,
10724,
10734,
10645,
10631,
10593,
10495,
10403,
10194,
10082,
10138,
9860,
9996,
9841,
9770,
9893,
9759,
9526,
9624,
9521,
9505,
9373,
9369,
9140,
9007,
9146,
9275,
8959,
8877,
8770,
8873,
8697,
8738,
8461,
8595,
8611,
8474,
8515,
8364,
8450,
8238,
8251,
8114,
8209,
7987,
7942,
8037,
8041,
7814,
7658,
7832,
7541,
7801,
7656,
7573,
7353,
7518,
7424,
7247,
7298,
7107,
7145,
7200,
7157,
7140,
7039,
6986,
6820,
6891,
6725,
6778,
6851,
6579,
6466,
6586,
6498,
6421,
6356,
6378,
6256,
6251,
6229,
6047,
6150,
6194,
6205,
6008,
6036,
5907,
5825,
5898,
5741,
5565,
5697,
5674,
5600,
5431,
5457,
5407,
5383,
5291,
5419,
5308,
5199,
5219,
5138,
5141,
5147,
5028,
4910,
4927,
4887,
4711,
4844,
4806,
4727,
4777,
4631,
4684,
4581,
4597,
4482,
4405,
4404,
4396,
4492,
4436,
4284,
4317,
4283,
4178,
4030,
4086,
4091,
4035,
4035,
3976,
3916,
3889,
3862,
3836,
3722,
3809,
3741,
3652,
3594,
3519,
3559,
3516,
3564,
3494,
3407,
3425,
3403,
3295,
3396,
3238,
3281,
3201,
3128,
3204,
3166,
3157,
3060,
3013,
3061,
3003,
2933,
2937,
2857,
2913,
2828,
2802,
2690,
2763,
2693,
2612,
2638,
2744,
2580,
2550,
2485,
2455,
2625,
2415,
2500,
2389,
2366,
2462,
2384,
2294,
2289,
2257,
2210,
2182,
2227,
2214,
2162,
2115,
2047,
2038,
2061,
2027,
2039,
1922,
1879,
1916,
1832,
1835,
1928,
1850,
1792,
1841,
1788,
1781,
1739,
1717,
1700,
1752,
1660,
1638,
1643,
1556,
1631,
1549,
1584,
1459,
1524,
1522,
1542,
1483,
1488,
1402,
1350,
1377,
1400,
1344,
1370,
1263,
1340,
1303,
1218,
1163,
1264,
1190,
1275,
1160,
1177,
1122,
1149,
1093,
1144,
1080,
1100,
1074,
1094,
1052,
1006,
1048,
941,
982,
955,
913,
898,
933,
910,
925,
933,
889,
832,
843,
885,
784,
813,
816,
818,
804,
751,
746,
752,
717,
771,
668,
677,
652,
648,
702,
658,
591,
632,
655,
646,
630,
625,
635,
608,
547,
597,
560,
545,
551,
543,
506,
519,
495,
525,
481,
464,
464,
442,
465,
464,
413,
444,
444,
402,
431,
353,
408,
356,
409,
362,
338,
318,
326,
317,
342,
341,
277,
290,
280,
285,
261,
271,
262,
215,
247,
225,
259,
237,
226,
206,
227,
211,
203,
169,
190,
159,
192,
168,
190,
180,
153,
165,
123,
112,
142,
130,
130,
130,
105,
109,
107,
97,
87,
98,
89,
74,
72,
72,
61,
78,
52,
62,
48,
45,
51,
35,
39,
32,
30,
22,
15,
18,
15,
12,
14,
8,
14,
6,
11,
2,
4,
14,
7,
10,
8,
9,
9,
8,
14,
8,
10,
11,
9,
6,
7,
10,
5,
7,
11,
10,
10,
11,
3,
5,
6,
10,
7,
9,
11,
5,
6,
6,
6,
5,
4,
6,
2,
5,
6,
6,
3,
4,
7,
8,
12,
0,
8,
6,
5,
4,
6,
4,
8,
2,
5,
4,
6,
2,
1,
3,
2,
3,
5,
3,
4,
1,
2,
5,
2,
3,
1,
4,
2,
5,
1,
4,
3,
3,
3,
0,
3,
3,
2,
3,
2,
4,
0,
1,
3,
1,
6,
2,
0,
4,
2,
2,
0,
0,
1,
0,
0,
1,
0,
2,
2,
1,
2,
2,
1,
2,
1,
0,
1,
1,
2,
3,
1,
1,
0,
0,
2,
3,
3,
1,
1,
0,
0,
1,
0,
0,
1,
1,
1,
1,
0,
0,
1,
0,
1,
0,
0,
1,
1,
0,
0,
0,
3,
1,
0,
1,
1,
0,
0,
0,
0,
0,
0,
0,
1,
0,
2,
1,
1,
2,
1,
1,
1,
0,
0,
0,
1,
0,
0,
0,
1,
1,
1,
0,
1,
1,
0,
1,
2,
3,
0,
0,
1,
0,
1,
0,
0,
1,
0,
0,
0,
0,
1,
0,
0,
0,
0,
1,
0,
0,
1,
0,
0,
1,
1,
0,
0,
1,
0,
0,
1,
0,
0,
0,
0,
0,
0,
0,
0,
0,
0,
0,
0,
1,
0,
0,
1,
0,
2,
0,
1,
0,
0,
0,
1,
1,
0,
0,
0,
0,
1,
0,
0,
0,
0,
0,
1,
0,
0,
0,
1,
1,
1,
0,
1,
0,
0,
0,
0,
0,
0,
0,
0,
0,
0,
0,
0,
0,
0,
0,
0,
0,
0,
0,
0,
0,
0,
1,
0,
0,
2,
0,
0,
0,
0,
0,
1,
1,
0,
0,
0,
0,
1,
0,
0,
0,
0,
0,
0,
0,
0,
0,
0,
1,
0,
1,
1,
0,
1,
1,
0,
0,
0,
0,
0,
0,
0,
0,
0,
0,
0,
0,
0,
0,
0,
1,
0,
0,
0,
0,
0,
0,
0,
0,
0,
0,
0,
0,
0,
0,
0,
0,
0,
0,
0,
0,
1,
0,
1,
0,
0,
0,
0,
0,
0,
0,
0,
0,
1,
0,
0,
0,
0,
0,
0,
0,
0,
0,
0,
0,
0,
0,
0,
0,
0,
1,
0,
0,
0,
0,
0,
0,
0,
0,
0,
0,
0,
0,
0,
0,
0,
0,
0,
0,
0,
0,
0,
0,
0,
0,
0,
0,
0,
1,
0,
0,
0,
0,
0,
0,
0,
0,
0,
0,
0,
0,
0,
0,
0,
0,
0,
0,
0,
0,
0,
0,
0,
0,
0,
0,
0,
0,
0,
0,
0,
0,
0,
0,
0,
0,
0,
0,
0,
0,
0,
0,
0,
0,
0,
0,
0,
0,
0,
0,
1,
0,
0,
0,
0,
0,
0,
0,
0,
0,
0,
0,
0,
0,
0,
0,
0,
0,
0,
0,
0,
0,
0,
0,
0,
0,
0,
0,
0,
0,
0,
0,
0,
0,
0,
0,
0,
0,
0,
0,
0,
0,
0,
0,
0,
0,
0,
0,
0,
0,
0,
0,
0,
0,
0,
0,
0,
0,
0,
0,
0,
0,
0,
0,
0,
0,
0,
0,
0,
0,
0,
0,
0,
0,
0,
0,
0,
0,
0,
0,
0,
0,
0,
0,
0,
0,
0,
0,
0,
0,
0,
0,
0,
0,
0,
0,
0,
0,
0,
0,
0,
0,
0,
0,
0,
0,
0,
0,
0,
0,
0,
0,
0,
0,
0,
0,
0,
0,
0,
0,
0,
0,
0,
0,
0,
0,
0,
0,
0,
0,
0,
0,
0,
0,
0,
0,
0,
0,
0,
0,
0,
0,
0,
0,
0,
0,
0,
0,
0,
0,
0,
0,
0,
0,
0,
0,
0,
0,
0,
0,
0,
0,
0,
0,
0,
0,
0,
0,
0,
0,
0,
0,
0,
0,
0,
0,
0,
0,
0,
0,
0,
0,
0,
0,
0,
0,
0,
0,
0,
0,
0,
0,
0,
0,
0,
0,
0,
0,
0,
0,
0,
0,
0,
0,
0,
0,
0,
0,
0,
0,
0,
0,
0,
0,
0,
0,
0,
0,
0,
0,
0,
0,
0,
0,
0,
0,
0,
0,
0,
0,
0,
0,
0,
0,
0,
0,
0,
0,
0,
0,
0,
0,
0,
0,
0,
#ENDOFDATA   :