File: N132962/Standards/20 keV/LaB6 std.msa
#FORMAT      : EMSA/MAS Spectral Data File
#VERSION     : 1.0
#TITLE       : LaB6 std
#DATE        : 12-SEP-2025
#TIME        : 12:43
#OWNER       : Unknown
#NPOINTS     : 4096
#NCOLUMNS    : 1
#XUNITS      : eV
#YUNITS      : counts
#DATATYPE    : Y
#XPERCHAN    : 9.99778
#OFFSET      : 1.69135
#BEAMKV      : 20
#SIGNALTYPE  : EDS
#ELEVANGLE   : 35
#AZIMANGLE   : 0
#LIVETIME    : 1439.15
#REALTIME    : 1562.91
#PROBECUR    : 1.24379
#TAUWIND     : 0
#TDEADLYR    : 0
#TACTLYR     : 0.045
#TALWIND     : 0.025
#CHOFFSET    : 0.0
#XLABEL      : Energy (eV)
#YLABEL      : Counts
#EDSDET      : SD
##SPECIMEN   : LaB6 std
##D2STDCMP   : LaB6,(B:31.8327),(La:68.1673)
##DET_HASH   : 12273538-fd48-a23f-0a19-f1e6fa85caef
##CALIB_HASH : 6abaa72c-aa41-8738-0be9-f592914732f3
##WORKING    : 15.0 mm
##SAMPLE     : <BulkSample id="1">\n<mOrientation id="2">\n<double>0.0</double>\n<double>0.0</double>\n<double>-1.0</double>\n</mOrientation>\n</BulkSample>
##MULTISPEC  : 1.19495
##DET_NAME   : EDAX All
##DET_MODE   : MediumLE
#SPECTRUM    :
154,
160,
192,
2078,
34340,
199073,
316084,
141745,
50939,
46104,
35174,
30461,
30996,
31379,
33524,
37869,
45971,
55424,
62335,
95187,
178106,
231754,
168643,
91926,
68313,
72680,
105008,
144367,
133505,
77849,
41472,
32078,
33401,
42733,
51053,
47847,
45052,
43029,
37475,
33232,
30902,
29654,
30012,
30559,
31400,
32082,
32653,
33067,
33672,
34887,
35459,
35574,
35378,
36019,
36471,
37981,
38990,
41712,
43931,
43678,
42518,
40630,
37951,
37300,
36968,
37537,
37773,
37555,
38120,
38502,
38417,
38838,
38491,
38905,
38921,
39482,
39647,
40001,
39866,
39983,
39791,
39873,
39750,
39336,
39281,
39407,
39387,
39673,
39470,
39329,
39479,
39189,
39347,
39547,
40251,
41361,
43316,
44288,
43309,
41928,
40909,
39587,
38664,
37914,
38360,
37962,
38064,
37967,
37678,
38894,
38841,
37940,
37415,
36604,
36184,
35548,
35294,
35352,
34904,
34962,
34971,
35232,
35215,
34856,
34328,
33606,
33825,
33336,
32978,
33174,
32910,
32682,
33019,
33899,
36324,
42425,
50927,
57639,
56296,
48430,
39906,
34573,
32594,
31451,
31719,
31462,
31897,
32644,
35420,
40779,
52980,
89386,
190102,
387085,
616379,
723121,
609649,
376744,
179198,
78239,
43303,
34948,
33293,
36573,
51617,
96189,
183934,
291132,
356293,
336111,
253349,
172779,
116248,
81176,
57815,
46629,
51011,
73890,
110520,
137648,
136753,
107697,
70298,
43410,
29816,
24684,
23195,
23306,
23543,
26109,
33475,
45297,
58367,
63303,
57452,
43752,
31605,
24935,
23089,
25493,
29661,
34184,
35999,
32961,
28610,
24032,
21504,
20875,
21003,
20631,
20309,
19991,
20350,
20860,
20408,
19316,
18042,
17098,
16744,
16627,
16425,
16435,
16443,
16224,
16307,
16134,
16353,
16029,
16040,
15827,
16030,
16063,
16036,
15939,
16033,
16145,
16228,
15870,
15684,
15137,
15008,
15193,
15127,
15175,
15067,
15212,
15346,
15691,
15972,
16208,
16001,
15765,
15081,
14618,
14266,
14208,
14271,
14209,
13936,
13993,
13814,
13993,
13830,
13693,
13768,
13904,
13600,
13765,
13543,
13318,
13240,
13491,
13130,
13273,
13274,
13181,
13066,
13117,
12896,
12860,
12765,
12628,
12478,
12384,
12429,
12385,
12504,
12169,
12146,
12225,
11968,
12021,
12034,
11859,
11865,
11452,
11852,
11618,
11594,
11499,
11263,
11320,
11243,
11208,
11191,
11287,
11075,
11224,
11128,
11118,
11247,
11095,
11003,
10968,
10784,
10516,
10437,
10543,
10469,
10555,
10523,
10569,
10553,
10786,
10462,
10531,
10279,
10232,
9999,
10023,
9680,
9725,
9869,
9689,
9880,
9696,
9662,
9530,
9365,
9390,
9149,
9240,
9325,
8934,
8903,
8823,
8850,
8898,
8982,
8790,
8775,
8751,
8587,
8538,
8463,
8349,
8266,
8234,
8101,
8221,
7958,
8161,
8044,
8024,
7789,
7899,
7703,
7649,
7610,
7502,
7462,
7527,
7386,
7307,
7304,
7229,
7235,
6983,
6980,
7042,
6928,
6970,
7053,
6814,
6677,
6783,
6769,
6654,
6678,
6397,
6516,
6385,
6315,
6186,
6319,
6085,
6222,
6269,
6062,
5968,
6012,
5856,
5900,
5892,
5841,
5803,
5799,
5770,
5647,
5520,
5567,
5496,
5433,
5269,
5359,
5329,
5366,
5259,
5242,
5175,
5051,
5136,
5083,
5077,
4881,
4906,
4757,
4856,
4764,
4672,
4728,
4614,
4613,
4506,
4631,
4562,
4489,
4379,
4397,
4258,
4367,
4298,
4298,
4116,
4309,
4172,
4108,
3984,
4097,
3981,
3896,
3746,
3872,
3847,
3787,
3797,
3612,
3665,
3683,
3647,
3592,
3621,
3558,
3560,
3449,
3425,
3451,
3291,
3401,
3282,
3287,
3238,
3235,
3189,
3189,
3039,
3079,
3091,
2967,
2958,
2920,
2949,
2824,
2946,
2848,
2806,
2834,
2673,
2662,
2766,
2616,
2587,
2591,
2620,
2554,
2589,
2466,
2461,
2453,
2391,
2319,
2346,
2305,
2368,
2333,
2205,
2317,
2097,
2259,
2076,
2155,
2112,
2035,
2152,
2016,
2000,
1926,
2039,
1893,
1928,
1901,
1779,
1877,
1951,
1813,
1769,
1848,
1758,
1777,
1701,
1730,
1613,
1606,
1590,
1521,
1610,
1573,
1548,
1581,
1513,
1504,
1415,
1482,
1446,
1426,
1403,
1318,
1324,
1308,
1286,
1287,
1299,
1256,
1230,
1218,
1272,
1195,
1223,
1189,
1142,
1141,
1162,
1151,
1111,
1013,
1078,
1091,
1001,
1087,
993,
1015,
1015,
950,
958,
885,
947,
947,
869,
899,
842,
801,
819,
830,
858,
749,
776,
781,
784,
710,
743,
736,
737,
728,
639,
674,
622,
644,
658,
623,
610,
624,
619,
597,
583,
553,
526,
534,
566,
541,
512,
466,
495,
465,
456,
463,
418,
394,
437,
400,
409,
411,
374,
344,
339,
324,
360,
315,
334,
288,
293,
296,
328,
284,
285,
250,
259,
255,
228,
248,
222,
210,
172,
196,
179,
188,
189,
166,
156,
139,
155,
142,
125,
140,
111,
83,
106,
95,
91,
80,
59,
61,
56,
38,
35,
42,
31,
33,
26,
25,
20,
21,
20,
14,
27,
16,
17,
11,
13,
13,
13,
9,
15,
14,
17,
22,
16,
15,
14,
17,
12,
15,
11,
14,
20,
10,
6,
16,
14,
17,
12,
9,
7,
11,
12,
9,
18,
6,
12,
8,
12,
6,
11,
8,
8,
12,
12,
9,
14,
11,
12,
7,
5,
7,
14,
9,
4,
14,
8,
12,
12,
6,
11,
5,
11,
7,
10,
11,
15,
10,
2,
1,
9,
10,
3,
9,
5,
13,
9,
5,
8,
9,
11,
5,
3,
3,
9,
5,
4,
8,
4,
7,
7,
6,
10,
8,
8,
11,
4,
8,
6,
6,
4,
4,
0,
5,
3,
6,
3,
5,
2,
5,
6,
4,
6,
3,
2,
6,
3,
5,
4,
7,
7,
5,
2,
4,
4,
5,
2,
0,
1,
2,
1,
3,
3,
0,
3,
2,
2,
3,
2,
2,
1,
1,
0,
1,
1,
1,
2,
3,
4,
3,
3,
3,
2,
2,
8,
6,
3,
3,
2,
1,
1,
1,
1,
2,
4,
2,
2,
2,
0,
3,
0,
3,
2,
2,
2,
2,
1,
1,
1,
1,
1,
3,
0,
4,
1,
3,
0,
2,
1,
3,
3,
0,
0,
2,
1,
3,
0,
3,
2,
4,
2,
2,
1,
2,
2,
2,
3,
2,
3,
0,
3,
3,
2,
1,
1,
1,
2,
1,
1,
3,
3,
3,
1,
1,
2,
1,
0,
0,
0,
3,
1,
3,
0,
2,
1,
2,
3,
1,
1,
1,
0,
3,
2,
1,
2,
0,
1,
1,
1,
1,
0,
0,
0,
1,
0,
1,
0,
1,
1,
0,
0,
1,
0,
0,
1,
2,
1,
4,
2,
1,
2,
1,
0,
0,
0,
1,
1,
0,
0,
0,
0,
0,
0,
1,
2,
1,
2,
0,
0,
0,
1,
0,
1,
0,
0,
1,
1,
0,
0,
0,
0,
1,
1,
0,
0,
0,
1,
0,
0,
0,
2,
0,
0,
0,
0,
0,
0,
0,
1,
2,
0,
1,
0,
0,
0,
1,
1,
1,
0,
0,
1,
0,
1,
0,
1,
0,
0,
0,
0,
0,
0,
0,
1,
0,
1,
0,
0,
0,
1,
0,
0,
0,
0,
0,
0,
1,
1,
2,
0,
1,
0,
0,
0,
0,
0,
0,
0,
0,
0,
0,
1,
0,
0,
0,
0,
1,
0,
0,
1,
1,
0,
0,
2,
0,
0,
1,
0,
0,
0,
0,
0,
0,
0,
0,
0,
0,
0,
0,
0,
0,
0,
0,
0,
0,
0,
0,
0,
0,
0,
0,
1,
0,
0,
0,
0,
1,
0,
0,
1,
0,
0,
0,
1,
0,
0,
1,
0,
0,
0,
0,
0,
0,
0,
0,
0,
0,
0,
0,
0,
0,
0,
0,
0,
0,
0,
0,
0,
0,
0,
0,
1,
0,
1,
0,
0,
0,
0,
0,
0,
0,
0,
0,
0,
0,
0,
0,
0,
0,
0,
0,
0,
0,
0,
0,
0,
0,
0,
0,
0,
0,
0,
0,
0,
0,
0,
0,
0,
0,
0,
0,
0,
0,
0,
0,
0,
0,
0,
0,
0,
0,
0,
0,
0,
0,
0,
0,
0,
0,
0,
0,
0,
0,
0,
0,
0,
0,
0,
0,
0,
0,
0,
0,
0,
0,
0,
0,
0,
0,
0,
0,
0,
0,
0,
0,
0,
0,
0,
0,
0,
0,
0,
0,
0,
0,
0,
0,
0,
0,
0,
0,
0,
0,
0,
0,
0,
0,
0,
0,
0,
0,
0,
0,
0,
0,
0,
0,
0,
0,
0,
0,
0,
0,
0,
0,
0,
0,
0,
0,
0,
0,
0,
0,
0,
0,
0,
0,
0,
0,
0,
0,
0,
0,
0,
0,
0,
0,
0,
0,
0,
1,
0,
0,
0,
0,
0,
0,
0,
0,
0,
1,
0,
0,
0,
0,
0,
0,
0,
0,
0,
0,
0,
0,
0,
0,
0,
0,
0,
0,
0,
0,
0,
0,
0,
0,
0,
0,
0,
0,
0,
0,
0,
0,
0,
0,
0,
0,
0,
0,
0,
0,
0,
0,
0,
0,
0,
0,
0,
0,
0,
0,
0,
0,
0,
0,
0,
0,
0,
0,
0,
0,
0,
0,
0,
0,
0,
0,
0,
0,
0,
0,
0,
0,
0,
0,
0,
0,
0,
0,
0,
0,
0,
0,
0,
0,
0,
#ENDOFDATA   :