File: N132962/Standards/20 keV/LiF std.msa
#FORMAT      : EMSA/MAS Spectral Data File
#VERSION     : 1.0
#TITLE       : LiF std
#DATE        : 21-MAR-2025
#TIME        : 14:42
#OWNER       : Unknown
#NPOINTS     : 4096
#NCOLUMNS    : 1
#XUNITS      : eV
#YUNITS      : counts
#DATATYPE    : Y
#XPERCHAN    : 9.99778
#OFFSET      : 1.69135
#BEAMKV      : 20
#SIGNALTYPE  : EDS
#ELEVANGLE   : 35
#AZIMANGLE   : 0
#LIVETIME    : 958.413
#REALTIME    : 1044.72
#PROBECUR    : 1.02926
#TAUWIND     : 0
#TDEADLYR    : 0
#TACTLYR     : 0.045
#TALWIND     : 0.025
#CHOFFSET    : 0.0
#XLABEL      : Energy (eV)
#YLABEL      : Counts
#EDSDET      : SD
##SPECIMEN   : LiF std
##D2STDCMP   : LiF,(Li:26.7557),(F:73.2443)
##DET_HASH   : 12273538-fd48-a23f-0a19-f1e6fa85caef
##CALIB_HASH : 6abaa72c-aa41-8738-0be9-f592914732f3
##WORKING    : 15.0 mm
##SAMPLE     : <BulkSample id="1">\n<mOrientation id="2">\n<double>0.0</double>\n<double>0.0</double>\n<double>-1.0</double>\n</mOrientation>\n</BulkSample>
##MULTISPEC  : 1.17406
##DET_NAME   : EDAX All
##DET_MODE   : MediumLE
#SPECTRUM    :
104,
144,
65,
196,
849,
2888,
6472,
11827,
20088,
24334,
18898,
16360,
17829,
19879,
22642,
26753,
32403,
40922,
55759,
107159,
402105,
1683864,
3740278,
3308502,
1086193,
136207,
10748,
4086,
4015,
4547,
5232,
5937,
5777,
5705,
6154,
6168,
6078,
6387,
6722,
7203,
7638,
8573,
10877,
17389,
29325,
35188,
25633,
13929,
9515,
8668,
8739,
8540,
8715,
8732,
8766,
8928,
9151,
9431,
9660,
9754,
9696,
9054,
8512,
8012,
8057,
8132,
8208,
8190,
8145,
8156,
7886,
8021,
7979,
7749,
7753,
7696,
7715,
7702,
7604,
7648,
7584,
7565,
7432,
7410,
7461,
7264,
7255,
6976,
7163,
7071,
6857,
6862,
6605,
6765,
6834,
6692,
6492,
6497,
6394,
6306,
6255,
6202,
6154,
6284,
6116,
5886,
5890,
5825,
5605,
5672,
5499,
5738,
5514,
5512,
5364,
5263,
5276,
5304,
5177,
5080,
5122,
5099,
5128,
4889,
4917,
4818,
4906,
4805,
4808,
4699,
4812,
4570,
4504,
4626,
4475,
4450,
4422,
4321,
4210,
4303,
4228,
4183,
4142,
4083,
4110,
4125,
4113,
4029,
3875,
3908,
3865,
3828,
3851,
3739,
3672,
3647,
3644,
3704,
3573,
3536,
3461,
3465,
3431,
3458,
3356,
3321,
3409,
3332,
3336,
3215,
3187,
3280,
3196,
3196,
3092,
3100,
3096,
3092,
2949,
3010,
2918,
2985,
2899,
2831,
2904,
2829,
2870,
2828,
2847,
2691,
2787,
2656,
2618,
2651,
2669,
2563,
2611,
2591,
2574,
2619,
2525,
2451,
2428,
2477,
2382,
2431,
2394,
2306,
2380,
2319,
2351,
2342,
2384,
2441,
2382,
2271,
2236,
2128,
2155,
2099,
2161,
2089,
2108,
2102,
2041,
2030,
2046,
1968,
1929,
1874,
1895,
1928,
1892,
1908,
1891,
1895,
1921,
1880,
1859,
1790,
1814,
1782,
1797,
1757,
1770,
1772,
1756,
1777,
1815,
1799,
1779,
1732,
1657,
1656,
1622,
1584,
1555,
1629,
1496,
1575,
1569,
1465,
1560,
1642,
1517,
1664,
1705,
1647,
1754,
1613,
1568,
1523,
1413,
1395,
1440,
1407,
1326,
1338,
1387,
1353,
1282,
1303,
1321,
1294,
1295,
1333,
1470,
1448,
1405,
1385,
1296,
1232,
1163,
1258,
1167,
1208,
1193,
1190,
1216,
1270,
1078,
1103,
1093,
1106,
1124,
1078,
1057,
1053,
1082,
1075,
989,
1060,
1035,
986,
990,
930,
1016,
1028,
999,
997,
899,
953,
877,
936,
961,
883,
952,
897,
921,
846,
931,
889,
883,
857,
824,
898,
842,
804,
855,
853,
788,
779,
817,
790,
805,
805,
790,
773,
773,
778,
756,
732,
726,
686,
717,
690,
677,
738,
727,
679,
662,
627,
663,
670,
656,
593,
650,
684,
625,
577,
597,
594,
623,
578,
622,
610,
592,
577,
542,
551,
533,
574,
553,
523,
559,
575,
517,
540,
503,
536,
482,
550,
481,
518,
488,
444,
486,
455,
498,
487,
440,
442,
460,
446,
430,
460,
449,
408,
459,
423,
413,
415,
413,
414,
412,
403,
397,
398,
412,
386,
375,
386,
366,
398,
328,
385,
358,
342,
365,
370,
315,
350,
332,
306,
345,
321,
334,
329,
344,
298,
327,
309,
303,
267,
296,
290,
299,
296,
281,
287,
240,
270,
284,
274,
279,
270,
255,
261,
251,
252,
245,
220,
245,
213,
238,
234,
215,
224,
223,
255,
214,
214,
217,
206,
222,
211,
197,
220,
216,
206,
189,
184,
220,
171,
174,
207,
166,
162,
160,
152,
170,
167,
155,
151,
154,
164,
161,
134,
143,
147,
165,
150,
139,
121,
167,
130,
147,
140,
139,
150,
132,
128,
136,
131,
138,
107,
135,
111,
109,
104,
111,
109,
104,
101,
91,
83,
106,
99,
101,
90,
102,
100,
126,
99,
99,
114,
83,
69,
82,
95,
99,
94,
90,
75,
82,
81,
82,
80,
60,
89,
63,
80,
61,
57,
68,
81,
63,
60,
65,
56,
43,
65,
59,
62,
72,
54,
49,
63,
54,
45,
60,
65,
38,
55,
66,
57,
38,
45,
46,
47,
41,
42,
40,
42,
31,
41,
44,
28,
35,
44,
35,
39,
28,
35,
37,
29,
27,
32,
36,
40,
29,
22,
27,
28,
32,
21,
21,
28,
27,
28,
24,
32,
27,
29,
23,
27,
17,
16,
24,
15,
18,
15,
19,
10,
21,
16,
11,
16,
16,
15,
13,
7,
6,
11,
10,
5,
7,
12,
6,
10,
10,
17,
6,
9,
11,
8,
7,
3,
10,
8,
5,
3,
7,
4,
4,
2,
3,
3,
3,
1,
0,
0,
0,
1,
2,
1,
1,
0,
0,
0,
0,
0,
0,
1,
0,
0,
0,
0,
0,
0,
0,
0,
0,
0,
0,
0,
0,
0,
1,
0,
0,
0,
0,
0,
0,
0,
0,
0,
0,
0,
0,
0,
0,
0,
0,
0,
0,
0,
0,
0,
0,
0,
1,
0,
0,
0,
0,
0,
0,
0,
0,
0,
0,
0,
0,
0,
0,
0,
0,
0,
0,
0,
0,
0,
0,
1,
0,
0,
1,
1,
0,
0,
0,
0,
0,
0,
0,
0,
0,
0,
0,
0,
0,
0,
0,
0,
0,
0,
0,
0,
0,
0,
0,
0,
0,
0,
0,
0,
0,
0,
1,
0,
1,
0,
0,
0,
0,
0,
0,
0,
0,
0,
0,
0,
1,
0,
0,
0,
0,
0,
0,
0,
0,
0,
0,
0,
0,
0,
0,
0,
0,
0,
0,
0,
0,
0,
0,
0,
0,
0,
0,
0,
0,
0,
0,
0,
0,
0,
0,
0,
0,
0,
0,
0,
0,
0,
0,
0,
0,
0,
0,
0,
0,
0,
0,
0,
0,
0,
0,
0,
0,
0,
1,
0,
0,
0,
0,
0,
0,
0,
0,
0,
0,
0,
0,
0,
0,
0,
0,
0,
0,
0,
0,
0,
0,
0,
0,
0,
0,
0,
0,
0,
0,
0,
0,
0,
0,
0,
0,
0,
0,
0,
0,
0,
0,
0,
0,
0,
1,
0,
0,
0,
0,
0,
0,
0,
0,
0,
0,
0,
0,
0,
0,
0,
0,
0,
0,
0,
0,
0,
0,
0,
0,
0,
0,
0,
0,
0,
0,
0,
0,
0,
0,
0,
0,
0,
0,
0,
0,
0,
0,
0,
0,
0,
0,
0,
0,
0,
0,
0,
0,
0,
0,
0,
0,
0,
0,
0,
0,
0,
0,
0,
0,
0,
0,
0,
0,
0,
0,
0,
0,
0,
0,
0,
0,
0,
0,
0,
0,
0,
0,
0,
0,
0,
0,
0,
0,
0,
0,
0,
0,
0,
0,
0,
0,
0,
0,
0,
0,
0,
0,
0,
0,
0,
0,
0,
0,
0,
0,
0,
0,
0,
0,
0,
0,
0,
0,
0,
0,
0,
0,
0,
0,
0,
0,
0,
0,
0,
0,
0,
0,
0,
0,
0,
0,
0,
0,
0,
0,
0,
0,
0,
0,
0,
0,
0,
0,
0,
0,
0,
0,
0,
0,
0,
0,
0,
0,
0,
0,
0,
0,
0,
0,
0,
0,
0,
0,
0,
0,
0,
0,
0,
0,
0,
0,
0,
0,
0,
0,
0,
0,
0,
0,
0,
0,
0,
0,
0,
0,
0,
0,
0,
0,
0,
0,
0,
0,
0,
0,
0,
0,
0,
0,
0,
0,
0,
0,
0,
0,
0,
0,
0,
0,
0,
0,
0,
0,
0,
0,
0,
0,
0,
0,
0,
0,
0,
0,
0,
0,
0,
0,
0,
0,
0,
0,
0,
0,
0,
0,
0,
0,
0,
0,
0,
0,
0,
0,
0,
0,
0,
0,
0,
0,
0,
0,
0,
0,
0,
0,
0,
0,
0,
0,
0,
0,
0,
0,
0,
0,
0,
0,
0,
0,
0,
0,
0,
0,
0,
0,
0,
0,
0,
0,
0,
0,
0,
0,
0,
0,
0,
0,
0,
0,
0,
0,
0,
0,
0,
0,
0,
0,
0,
0,
1,
0,
0,
0,
0,
0,
0,
0,
0,
0,
0,
0,
0,
0,
0,
0,
0,
0,
0,
0,
0,
0,
0,
0,
0,
0,
0,
0,
0,
0,
0,
0,
0,
0,
0,
0,
0,
0,
0,
0,
0,
0,
0,
0,
0,
0,
0,
0,
0,
0,
0,
0,
0,
0,
0,
0,
0,
0,
0,
0,
0,
0,
0,
0,
0,
0,
0,
0,
0,
0,
0,
0,
0,
0,
0,
0,
0,
0,
0,
0,
0,
0,
0,
0,
0,
0,
0,
0,
0,
0,
0,
0,
0,
0,
0,
0,
0,
0,
0,
0,
0,
0,
0,
0,
0,
0,
0,
0,
0,
0,
0,
0,
0,
0,
0,
0,
0,
0,
0,
0,
0,
0,
0,
0,
0,
0,
0,
0,
0,
0,
0,
0,
0,
0,
0,
0,
0,
0,
0,
0,
0,
0,
0,
0,
0,
0,
0,
0,
0,
0,
0,
0,
0,
0,
0,
0,
0,
0,
0,
0,
0,
0,
0,
0,
0,
0,
0,
0,
0,
0,
0,
0,
0,
#ENDOFDATA   :