File: N132962/Standards/20 keV/Mg std.msa
#FORMAT      : EMSA/MAS Spectral Data File
#VERSION     : 1.0
#TITLE       : Mg std
#DATE        : 20-FEB-2025
#TIME        : 15:55
#OWNER       : Unknown
#NPOINTS     : 4096
#NCOLUMNS    : 1
#XUNITS      : eV
#YUNITS      : counts
#DATATYPE    : Y
#XPERCHAN    : 9.99778
#OFFSET      : 1.69135
#BEAMKV      : 20
#SIGNALTYPE  : EDS
#ELEVANGLE   : 35
#AZIMANGLE   : 0
#LIVETIME    : 717.655
#REALTIME    : 821.106
#PROBECUR    : 1.04796
#TAUWIND     : 0
#TDEADLYR    : 0
#TACTLYR     : 0.045
#TALWIND     : 0.025
#CHOFFSET    : 0.0
#XLABEL      : Energy (eV)
#YLABEL      : Counts
#EDSDET      : SD
##SPECIMEN   : Mg std
##D2STDCMP   : Mg,(Mg:100.0)
##DET_HASH   : 12273538-fd48-a23f-0a19-f1e6fa85caef
##CALIB_HASH : 6abaa72c-aa41-8738-0be9-f592914732f3
##WORKING    : 15.0 mm
##SAMPLE     : <BulkSample id="1">\n<mOrientation id="2">\n<double>0.0</double>\n<double>0.0</double>\n<double>-1.0</double>\n</mOrientation>\n</BulkSample>
##MULTISPEC  : 22.2775
##DET_NAME   : EDAX All
##DET_MODE   : MediumLE
#SPECTRUM    :
77,
89,
31,
64,
295,
1200,
2929,
5732,
11586,
14662,
10175,
7853,
8336,
9232,
10392,
13886,
24263,
36522,
31553,
19858,
17251,
21307,
26864,
26937,
22741,
21439,
21794,
22981,
24250,
25313,
26089,
27525,
28761,
31785,
35303,
39837,
46386,
56624,
88723,
303409,
1334569,
3392728,
4048605,
2219576,
583093,
85959,
12586,
5348,
4796,
4936,
5264,
5282,
5263,
5294,
5582,
5838,
6161,
6747,
7260,
7619,
7256,
6847,
6533,
6457,
6488,
6628,
6760,
6887,
6713,
6834,
6672,
6845,
7119,
7278,
7258,
7405,
7529,
7468,
7956,
8247,
9608,
15059,
27559,
42251,
43911,
29918,
15701,
8935,
7285,
7006,
6829,
6922,
6798,
6638,
6702,
6692,
6670,
6791,
6708,
6782,
6772,
6630,
6615,
6701,
6576,
6505,
6424,
6419,
6520,
6460,
6259,
6450,
6450,
6284,
6247,
6236,
6220,
6013,
5989,
6116,
5868,
6042,
5971,
6061,
5957,
6115,
6015,
5860,
5770,
5711,
5613,
5606,
5640,
5597,
5510,
5402,
5376,
5520,
5414,
5307,
5351,
5184,
5253,
5095,
5050,
5140,
4977,
5168,
5003,
4838,
4987,
4897,
4997,
4755,
4814,
4862,
4649,
4679,
4595,
4677,
4561,
4506,
4599,
4598,
4421,
4486,
4402,
4353,
4246,
4324,
4289,
4218,
4201,
4161,
4125,
4110,
4098,
4115,
4178,
4062,
3936,
4124,
4037,
3898,
3826,
3848,
3763,
3701,
3716,
3757,
3653,
3638,
3664,
3576,
3747,
3819,
3844,
4002,
3725,
3567,
3519,
3488,
3363,
3476,
3294,
3319,
3379,
3159,
3183,
3221,
3333,
3452,
3539,
3479,
3445,
3358,
3304,
3135,
3061,
2971,
2959,
2982,
2958,
2797,
2922,
2907,
2779,
2766,
2751,
2735,
2819,
2657,
2762,
2728,
2564,
2707,
2661,
2657,
2564,
2560,
2614,
2589,
2613,
2514,
2496,
2646,
2546,
2471,
2437,
2592,
2519,
2468,
2372,
2368,
2268,
2246,
2315,
2215,
2227,
2199,
2140,
2130,
2234,
2199,
2135,
2174,
2081,
2094,
2085,
2067,
2069,
2098,
2012,
2097,
1943,
1974,
1935,
1960,
1950,
1921,
1865,
1905,
1845,
1736,
1873,
1875,
1931,
1737,
1876,
1806,
1759,
1746,
1686,
1701,
1725,
1649,
1758,
1676,
1756,
1661,
1619,
1607,
1626,
1616,
1556,
1648,
1633,
1589,
1524,
1532,
1527,
1520,
1459,
1539,
1509,
1445,
1490,
1472,
1386,
1492,
1428,
1442,
1442,
1391,
1335,
1281,
1339,
1311,
1305,
1282,
1356,
1294,
1307,
1279,
1292,
1312,
1266,
1262,
1191,
1244,
1217,
1275,
1233,
1160,
1227,
1185,
1162,
1127,
1176,
1192,
1140,
1163,
1129,
1127,
1078,
1064,
975,
1089,
1008,
1043,
1037,
1051,
1024,
1070,
1039,
985,
978,
959,
975,
1005,
937,
982,
924,
909,
882,
895,
907,
938,
956,
884,
903,
941,
898,
878,
885,
847,
887,
818,
813,
830,
826,
811,
810,
727,
802,
737,
776,
740,
713,
716,
718,
736,
740,
714,
659,
748,
695,
685,
640,
652,
681,
638,
684,
679,
634,
632,
630,
608,
593,
579,
635,
603,
593,
596,
600,
572,
554,
553,
579,
541,
615,
583,
524,
496,
493,
502,
506,
483,
480,
503,
480,
529,
501,
465,
485,
483,
481,
437,
471,
499,
423,
437,
440,
410,
452,
429,
437,
401,
409,
424,
421,
407,
425,
369,
372,
387,
366,
377,
345,
357,
358,
344,
340,
354,
347,
329,
339,
343,
312,
338,
332,
343,
278,
312,
292,
275,
312,
307,
244,
298,
245,
267,
259,
249,
234,
237,
268,
264,
262,
243,
266,
249,
252,
243,
239,
232,
194,
221,
218,
243,
239,
221,
189,
206,
205,
176,
212,
210,
226,
191,
175,
199,
189,
175,
184,
182,
160,
187,
168,
175,
145,
166,
183,
173,
153,
142,
165,
138,
129,
156,
174,
135,
129,
135,
134,
121,
133,
125,
131,
116,
126,
119,
106,
115,
125,
106,
103,
144,
109,
100,
112,
103,
87,
111,
103,
97,
102,
96,
100,
100,
102,
78,
92,
104,
70,
71,
73,
86,
85,
64,
79,
75,
86,
79,
67,
70,
79,
85,
54,
78,
68,
62,
52,
62,
49,
65,
52,
58,
60,
45,
51,
57,
52,
54,
44,
51,
42,
47,
35,
45,
34,
53,
47,
38,
31,
32,
38,
34,
27,
56,
36,
33,
21,
33,
32,
21,
23,
27,
31,
30,
23,
19,
26,
19,
17,
21,
12,
19,
19,
15,
18,
18,
18,
12,
17,
7,
14,
10,
7,
10,
9,
5,
11,
6,
5,
2,
3,
3,
7,
4,
6,
3,
3,
3,
2,
1,
2,
2,
1,
1,
1,
0,
2,
0,
1,
1,
1,
1,
1,
2,
1,
1,
0,
1,
1,
3,
0,
0,
0,
1,
0,
0,
1,
2,
0,
1,
1,
1,
0,
0,
0,
1,
0,
0,
0,
0,
0,
1,
1,
0,
0,
0,
0,
0,
0,
0,
1,
0,
2,
0,
0,
0,
0,
0,
0,
0,
1,
0,
0,
0,
0,
1,
1,
0,
0,
0,
0,
2,
0,
0,
0,
0,
0,
0,
0,
0,
0,
0,
0,
0,
0,
0,
0,
0,
0,
0,
2,
1,
1,
1,
1,
0,
0,
0,
0,
0,
0,
0,
0,
0,
0,
0,
0,
0,
0,
0,
0,
1,
0,
0,
0,
0,
0,
0,
0,
0,
0,
0,
0,
0,
1,
0,
0,
0,
0,
0,
0,
0,
0,
0,
0,
1,
0,
0,
0,
0,
0,
0,
0,
0,
0,
0,
1,
0,
0,
0,
0,
0,
0,
0,
0,
0,
0,
0,
0,
0,
0,
0,
0,
0,
0,
0,
0,
0,
0,
0,
0,
0,
0,
0,
0,
0,
0,
0,
0,
0,
0,
0,
0,
0,
0,
0,
0,
0,
0,
0,
0,
0,
0,
0,
0,
1,
0,
0,
0,
1,
0,
0,
0,
0,
0,
0,
0,
0,
0,
0,
0,
0,
0,
0,
0,
0,
0,
0,
0,
0,
0,
0,
0,
0,
0,
0,
0,
0,
0,
0,
0,
0,
1,
0,
0,
0,
0,
0,
0,
0,
0,
0,
0,
0,
0,
0,
0,
0,
0,
0,
0,
0,
0,
0,
0,
0,
0,
0,
0,
0,
0,
0,
0,
0,
0,
1,
0,
0,
0,
0,
0,
0,
0,
0,
0,
0,
0,
0,
0,
0,
0,
0,
0,
0,
0,
0,
0,
0,
0,
0,
0,
0,
0,
0,
0,
0,
0,
0,
0,
0,
0,
0,
0,
0,
0,
0,
0,
0,
0,
0,
0,
0,
0,
0,
0,
0,
0,
0,
0,
0,
0,
0,
0,
0,
0,
0,
0,
0,
0,
0,
0,
0,
0,
0,
0,
0,
0,
0,
0,
0,
0,
0,
0,
0,
0,
0,
0,
0,
0,
0,
0,
0,
0,
0,
0,
0,
0,
0,
0,
0,
0,
0,
0,
0,
0,
0,
0,
0,
0,
0,
0,
0,
0,
0,
0,
0,
0,
0,
0,
0,
0,
0,
0,
0,
0,
0,
0,
0,
0,
0,
0,
0,
0,
0,
0,
0,
0,
0,
0,
0,
0,
0,
0,
0,
0,
0,
0,
0,
0,
0,
0,
0,
0,
0,
0,
0,
0,
0,
0,
0,
0,
0,
0,
0,
0,
0,
0,
0,
0,
0,
0,
0,
0,
0,
0,
0,
0,
0,
0,
0,
0,
0,
0,
0,
0,
0,
0,
0,
0,
0,
0,
0,
0,
0,
0,
0,
0,
0,
0,
0,
0,
0,
0,
0,
0,
0,
0,
0,
0,
0,
0,
0,
0,
0,
0,
0,
0,
0,
0,
0,
0,
0,
0,
0,
0,
0,
0,
0,
0,
0,
0,
0,
0,
0,
0,
0,
0,
0,
0,
0,
0,
0,
0,
0,
0,
0,
0,
0,
0,
0,
0,
0,
0,
0,
0,
0,
0,
0,
0,
0,
0,
0,
0,
0,
0,
0,
0,
0,
0,
0,
0,
0,
0,
0,
0,
0,
0,
0,
0,
0,
0,
0,
0,
0,
0,
0,
0,
0,
0,
0,
0,
0,
0,
0,
0,
0,
0,
0,
0,
0,
0,
0,
0,
0,
0,
0,
0,
0,
0,
0,
0,
0,
0,
0,
0,
0,
0,
0,
0,
0,
0,
0,
0,
0,
0,
0,
0,
0,
0,
0,
0,
0,
0,
0,
0,
0,
0,
0,
0,
0,
0,
0,
0,
0,
0,
0,
0,
0,
0,
0,
0,
0,
0,
0,
0,
0,
0,
0,
0,
0,
0,
0,
0,
0,
0,
0,
0,
0,
0,
0,
0,
0,
0,
0,
0,
0,
0,
0,
0,
0,
0,
0,
0,
0,
0,
0,
0,
0,
0,
0,
0,
0,
0,
0,
0,
0,
0,
0,
0,
0,
0,
0,
0,
0,
0,
0,
0,
0,
0,
0,
0,
0,
0,
0,
0,
0,
0,
0,
0,
0,
0,
0,
0,
0,
0,
0,
0,
0,
0,
0,
0,
0,
0,
0,
0,
0,
0,
0,
0,
0,
#ENDOFDATA   :