File: N132962/Standards/20 keV/MgO std.msa
#FORMAT      : EMSA/MAS Spectral Data File
#VERSION     : 1.0
#TITLE       : MgO std
#DATE        : 12-SEP-2025
#TIME        : 09:52
#OWNER       : Unknown
#NPOINTS     : 4096
#NCOLUMNS    : 1
#XUNITS      : eV
#YUNITS      : counts
#DATATYPE    : Y
#XPERCHAN    : 9.99778
#OFFSET      : 1.69135
#BEAMKV      : 20
#SIGNALTYPE  : EDS
#ELEVANGLE   : 35
#AZIMANGLE   : 0
#LIVETIME    : 1201.11
#REALTIME    : 1317.08
#PROBECUR    : 1.23903
#TAUWIND     : 0
#TDEADLYR    : 0
#TACTLYR     : 0.045
#TALWIND     : 0.025
#CHOFFSET    : 0.0
#XLABEL      : Energy (eV)
#YLABEL      : Counts
#EDSDET      : SD
##SPECIMEN   : MgO std
##D2STDCMP   : MgO,(O:39.6964),(Mg:60.3036),5.0
##DET_HASH   : 12273538-fd48-a23f-0a19-f1e6fa85caef
##CALIB_HASH : 6abaa72c-aa41-8738-0be9-f592914732f3
##WORKING    : 15.0 mm
##SAMPLE     : <BulkSample id="1">\n<mOrientation id="2">\n<double>0.0</double>\n<double>0.0</double>\n<double>-1.0</double>\n</mOrientation>\n</BulkSample>
##MULTISPEC  : 1.20315
##DET_NAME   : EDAX All
##DET_MODE   : MediumLE
#SPECTRUM    :
113,
149,
39,
87,
483,
1859,
4900,
12169,
28119,
36198,
22420,
15641,
17893,
23533,
45074,
170074,
653522,
1255773,
923346,
245732,
33027,
13342,
15179,
16585,
15917,
15222,
15545,
17306,
18901,
20464,
21003,
22468,
25027,
28296,
32440,
36918,
41790,
50689,
79138,
253206,
1087608,
2769236,
3334450,
1845978,
497016,
81113,
18051,
11205,
10688,
10782,
11249,
11462,
11322,
11379,
11915,
12165,
13937,
17377,
23050,
26196,
22856,
16909,
13407,
12333,
12245,
12280,
12408,
12475,
12652,
12652,
12775,
12855,
12957,
12911,
13196,
13253,
13244,
13553,
13617,
13758,
14078,
16271,
21248,
27368,
27844,
22757,
16721,
14005,
13371,
13198,
13090,
12708,
12697,
12780,
12497,
12668,
12327,
12274,
12484,
12452,
12364,
12297,
12020,
11958,
11637,
11802,
11676,
11596,
11366,
11373,
11363,
11491,
11043,
11094,
10960,
10947,
10935,
10754,
10954,
10721,
10747,
10671,
10940,
11088,
10752,
10595,
10265,
10231,
9959,
10050,
9802,
9949,
9742,
9906,
9727,
9422,
9498,
9385,
9351,
9221,
9217,
9130,
9090,
8968,
9061,
8684,
8596,
8479,
8605,
8490,
8406,
8360,
8045,
8328,
8042,
8330,
8147,
8153,
8029,
7856,
7708,
7688,
7906,
7742,
7791,
7611,
7659,
7363,
7409,
7332,
7425,
7223,
7030,
7163,
6916,
7029,
6915,
6799,
6894,
6916,
6968,
6824,
6697,
6688,
6572,
6634,
6355,
6234,
6333,
6305,
6150,
6230,
6121,
6081,
6020,
6109,
6031,
5816,
5894,
5992,
5607,
5708,
5629,
5532,
5757,
5537,
5486,
5510,
5539,
5353,
5549,
5761,
5935,
5961,
6075,
5798,
5525,
5183,
5048,
4967,
4966,
4934,
4949,
4745,
4707,
4795,
4806,
4590,
4618,
4562,
4609,
4560,
4626,
4549,
4549,
4525,
4429,
4410,
4434,
4154,
4166,
4165,
4229,
4089,
4079,
4171,
4097,
4267,
4313,
4293,
4275,
4150,
4004,
3866,
3831,
3785,
3745,
3764,
3659,
3663,
3530,
3666,
3556,
3532,
3462,
3542,
3475,
3406,
3480,
3426,
3443,
3339,
3343,
3367,
3300,
3289,
3271,
3217,
3275,
3128,
3128,
3147,
3116,
3087,
3041,
3042,
3047,
2987,
3006,
2872,
2880,
2848,
2821,
2831,
2941,
2746,
2776,
2741,
2715,
2702,
2736,
2692,
2729,
2709,
2649,
2665,
2564,
2610,
2514,
2532,
2524,
2450,
2400,
2428,
2384,
2417,
2444,
2371,
2417,
2358,
2362,
2257,
2303,
2307,
2234,
2337,
2189,
2230,
2241,
2158,
2136,
2154,
2130,
2105,
2080,
2000,
2053,
2069,
2047,
2103,
2006,
1929,
2036,
1927,
1871,
1888,
1828,
1953,
1893,
1788,
1792,
1836,
1854,
1790,
1736,
1765,
1795,
1711,
1660,
1682,
1629,
1717,
1639,
1608,
1622,
1595,
1561,
1660,
1576,
1543,
1586,
1525,
1521,
1487,
1479,
1486,
1473,
1488,
1467,
1452,
1445,
1455,
1412,
1298,
1363,
1341,
1284,
1249,
1349,
1295,
1355,
1371,
1259,
1276,
1277,
1223,
1173,
1242,
1119,
1172,
1195,
1145,
1192,
1096,
1096,
1115,
1117,
1106,
1060,
1101,
1034,
1065,
1028,
1084,
1047,
1020,
1008,
1026,
988,
1014,
978,
966,
901,
947,
964,
922,
886,
886,
847,
933,
924,
926,
883,
833,
813,
877,
844,
793,
832,
829,
811,
749,
739,
771,
799,
707,
710,
738,
703,
740,
706,
694,
676,
731,
690,
666,
710,
660,
666,
611,
592,
622,
698,
598,
607,
649,
607,
595,
530,
563,
533,
587,
545,
560,
551,
530,
515,
541,
513,
527,
478,
473,
485,
524,
473,
461,
490,
496,
446,
448,
445,
440,
443,
435,
423,
443,
416,
448,
425,
381,
403,
396,
403,
376,
362,
350,
327,
345,
371,
377,
320,
379,
335,
329,
353,
350,
313,
314,
347,
309,
336,
338,
311,
300,
307,
289,
276,
299,
276,
268,
276,
231,
257,
259,
249,
268,
255,
253,
239,
232,
238,
227,
229,
229,
248,
207,
197,
209,
193,
226,
204,
204,
216,
202,
170,
186,
162,
182,
157,
153,
150,
171,
164,
178,
166,
161,
147,
157,
151,
143,
168,
142,
135,
148,
154,
128,
135,
111,
118,
120,
122,
128,
114,
112,
124,
104,
99,
103,
112,
102,
109,
96,
98,
105,
93,
100,
93,
102,
99,
77,
83,
63,
84,
80,
82,
70,
83,
65,
63,
75,
76,
57,
71,
61,
52,
56,
62,
56,
47,
60,
53,
43,
46,
40,
39,
42,
52,
48,
45,
33,
40,
46,
34,
35,
38,
29,
35,
33,
24,
26,
19,
30,
38,
18,
29,
21,
23,
17,
26,
18,
12,
12,
16,
18,
16,
9,
14,
13,
11,
9,
9,
11,
5,
8,
2,
5,
2,
1,
1,
1,
3,
2,
0,
2,
2,
0,
1,
1,
0,
1,
1,
1,
0,
1,
0,
0,
1,
1,
1,
0,
2,
0,
1,
3,
0,
2,
3,
1,
1,
0,
1,
0,
0,
0,
0,
1,
0,
0,
0,
0,
0,
1,
0,
0,
0,
1,
0,
0,
2,
0,
0,
0,
0,
1,
1,
1,
0,
0,
1,
0,
0,
0,
0,
0,
0,
2,
0,
1,
0,
0,
0,
0,
0,
1,
0,
1,
0,
0,
1,
0,
0,
0,
0,
0,
0,
0,
0,
0,
0,
0,
0,
0,
0,
0,
0,
0,
0,
0,
0,
0,
0,
0,
0,
0,
0,
1,
0,
0,
0,
0,
0,
0,
0,
0,
1,
0,
0,
1,
0,
0,
0,
0,
0,
0,
1,
0,
0,
0,
0,
0,
0,
0,
0,
0,
0,
0,
0,
0,
0,
0,
0,
1,
0,
0,
0,
1,
0,
0,
0,
0,
0,
0,
0,
1,
0,
0,
0,
0,
0,
0,
0,
0,
0,
0,
0,
0,
0,
0,
0,
0,
0,
0,
0,
0,
0,
0,
0,
0,
0,
0,
0,
0,
0,
0,
0,
0,
0,
0,
0,
0,
0,
0,
0,
0,
0,
0,
1,
1,
0,
0,
0,
0,
0,
0,
0,
0,
0,
0,
0,
0,
0,
0,
0,
0,
0,
0,
0,
0,
0,
0,
0,
0,
0,
0,
0,
0,
0,
0,
0,
0,
0,
0,
0,
0,
0,
0,
0,
0,
0,
0,
0,
0,
0,
0,
0,
0,
0,
0,
0,
0,
0,
0,
0,
0,
0,
0,
0,
0,
0,
0,
0,
0,
0,
0,
0,
0,
0,
0,
0,
0,
0,
0,
0,
0,
0,
0,
0,
0,
0,
0,
0,
0,
0,
0,
1,
0,
0,
0,
0,
0,
0,
0,
0,
0,
0,
0,
0,
0,
0,
0,
0,
0,
0,
0,
0,
0,
0,
0,
0,
0,
0,
0,
0,
0,
0,
0,
0,
0,
0,
0,
0,
0,
0,
0,
0,
0,
0,
0,
0,
0,
0,
0,
0,
0,
0,
0,
0,
0,
0,
0,
0,
0,
0,
0,
0,
0,
0,
0,
0,
0,
1,
0,
0,
0,
0,
0,
0,
0,
0,
0,
0,
0,
0,
0,
0,
0,
0,
0,
0,
0,
0,
0,
0,
0,
0,
0,
0,
0,
0,
0,
0,
0,
0,
0,
0,
0,
0,
0,
0,
0,
0,
0,
0,
0,
0,
0,
0,
0,
0,
0,
0,
0,
0,
0,
0,
0,
0,
0,
0,
0,
0,
0,
0,
0,
0,
0,
0,
0,
0,
0,
0,
0,
0,
0,
0,
0,
0,
0,
0,
0,
0,
0,
0,
0,
0,
0,
0,
0,
0,
0,
0,
0,
0,
0,
0,
0,
0,
0,
0,
0,
0,
0,
0,
0,
0,
0,
0,
0,
0,
0,
0,
0,
0,
0,
0,
0,
0,
0,
0,
0,
0,
0,
0,
0,
0,
0,
0,
0,
0,
0,
0,
0,
0,
0,
0,
0,
0,
0,
0,
0,
0,
1,
0,
0,
0,
0,
0,
0,
0,
0,
0,
0,
0,
0,
0,
0,
0,
0,
0,
0,
0,
0,
0,
0,
0,
0,
0,
0,
0,
0,
0,
0,
0,
0,
0,
0,
0,
0,
0,
0,
0,
0,
0,
0,
0,
0,
0,
0,
0,
0,
0,
0,
0,
0,
0,
0,
0,
0,
0,
0,
0,
0,
0,
0,
0,
0,
0,
0,
0,
0,
0,
0,
0,
0,
0,
0,
0,
0,
0,
0,
0,
0,
0,
0,
0,
0,
0,
0,
0,
0,
0,
0,
0,
0,
0,
0,
0,
0,
0,
0,
0,
0,
0,
0,
0,
0,
0,
0,
0,
0,
0,
0,
0,
0,
0,
0,
0,
0,
0,
0,
0,
0,
0,
0,
0,
0,
0,
0,
0,
0,
0,
0,
0,
0,
0,
0,
0,
0,
0,
0,
0,
0,
0,
0,
0,
0,
0,
0,
0,
0,
0,
0,
0,
0,
0,
0,
0,
0,
0,
0,
0,
0,
0,
0,
0,
0,
0,
0,
0,
0,
0,
0,
0,
0,
0,
0,
0,
0,
0,
0,
0,
0,
0,
0,
0,
0,
0,
0,
0,
0,
0,
0,
0,
0,
0,
0,
0,
0,
0,
0,
0,
0,
0,
0,
0,
0,
#ENDOFDATA   :