File: N132962/Standards/20 keV/Mn std.msa
#FORMAT      : EMSA/MAS Spectral Data File
#VERSION     : 1.0
#TITLE       : Mn std
#DATE        : 20-FEB-2025
#TIME        : 16:56
#OWNER       : Unknown
#NPOINTS     : 4096
#NCOLUMNS    : 1
#XUNITS      : eV
#YUNITS      : counts
#DATATYPE    : Y
#XPERCHAN    : 9.99778
#OFFSET      : 1.69135
#BEAMKV      : 20
#SIGNALTYPE  : EDS
#ELEVANGLE   : 35
#AZIMANGLE   : 0
#LIVETIME    : 959.83
#REALTIME    : 1045.54
#PROBECUR    : 1.04967
#TAUWIND     : 0
#TDEADLYR    : 0
#TACTLYR     : 0.045
#TALWIND     : 0.025
#CHOFFSET    : 0.0
#XLABEL      : Energy (eV)
#YLABEL      : Counts
#EDSDET      : SD
##SPECIMEN   : Mn std
##D2STDCMP   : Mn,(Mn:100.0),5.0
##DET_HASH   : 12273538-fd48-a23f-0a19-f1e6fa85caef
##CALIB_HASH : 6abaa72c-aa41-8738-0be9-f592914732f3
##WORKING    : 15.0 mm
##SAMPLE     : <BulkSample id="1">\n<mOrientation id="2">\n<double>0.0</double>\n<double>0.0</double>\n<double>-1.0</double>\n</mOrientation>\n</BulkSample>
##MULTISPEC  : 5.3505
##DET_NAME   : EDAX All
##DET_MODE   : MediumLE
#SPECTRUM    :
121,
131,
43,
101,
575,
2435,
6806,
18061,
46416,
59756,
34703,
21361,
22672,
25948,
29939,
42597,
86007,
189383,
283462,
280475,
350778,
442202,
261780,
71364,
19058,
10920,
8969,
9211,
10639,
10727,
10724,
10836,
11179,
11708,
12621,
13206,
13475,
14016,
14506,
15258,
16026,
16485,
17071,
17113,
17716,
17749,
18763,
18868,
19288,
20148,
20619,
20585,
20428,
20717,
20801,
21668,
22469,
24301,
25119,
24863,
23992,
22602,
21615,
20892,
21088,
20780,
21379,
21485,
21315,
21590,
21728,
21888,
21546,
21650,
22063,
22054,
22641,
22602,
22260,
22224,
21909,
21565,
21595,
21774,
21721,
22346,
24462,
26222,
25810,
23804,
21953,
21193,
20880,
20984,
20999,
20572,
20307,
20112,
19974,
19738,
19754,
19624,
19782,
19220,
19333,
19270,
18831,
19006,
18921,
18563,
18350,
18679,
18417,
18066,
18026,
18012,
17842,
17436,
17670,
17369,
17349,
17174,
17300,
17288,
17108,
16844,
16550,
16460,
16336,
16364,
16173,
16191,
16391,
16399,
16194,
16347,
17696,
18558,
20003,
19461,
17818,
16239,
15327,
15138,
14682,
14896,
14645,
14482,
14439,
14461,
14273,
14243,
14228,
14301,
14134,
14024,
14009,
14023,
14173,
14040,
13867,
13562,
13404,
13065,
13244,
13233,
13381,
13119,
13181,
12943,
12798,
12768,
12679,
12531,
12445,
12337,
12163,
12277,
12371,
12180,
12373,
12361,
12436,
12113,
12163,
12359,
12451,
12854,
13391,
14887,
18054,
30031,
71837,
187660,
419580,
729858,
965391,
957435,
712636,
403989,
175264,
63540,
23860,
13619,
11427,
11235,
11231,
11102,
11471,
12053,
13639,
17459,
27254,
47146,
79341,
115335,
134687,
125756,
91114,
55067,
27753,
14267,
8959,
7262,
6759,
6642,
6585,
6661,
6596,
6570,
6590,
6643,
6583,
6705,
6793,
6846,
6754,
6781,
6620,
6570,
6416,
6391,
6264,
6293,
6271,
6382,
6399,
6481,
6556,
6663,
6471,
6515,
6183,
6060,
6112,
5952,
5960,
5859,
5948,
5863,
5845,
5835,
5672,
5733,
5836,
5652,
5732,
5720,
5727,
5670,
5608,
5672,
5467,
5495,
5607,
5419,
5392,
5490,
5417,
5467,
5153,
5268,
5295,
5232,
5138,
5156,
5216,
5103,
5040,
5063,
4996,
5062,
4962,
5021,
4850,
4888,
4948,
4750,
4784,
4862,
4877,
4630,
4715,
4647,
4468,
4491,
4566,
4511,
4525,
4482,
4441,
4424,
4398,
4418,
4433,
4338,
4305,
4242,
4208,
4223,
4374,
4180,
4163,
4071,
4137,
4169,
4082,
4053,
4088,
4092,
4013,
3953,
3894,
3855,
3874,
3905,
3825,
3894,
3683,
3778,
3772,
3744,
3584,
3673,
3681,
3632,
3562,
3432,
3495,
3530,
3526,
3556,
3384,
3305,
3449,
3412,
3345,
3309,
3367,
3345,
3272,
3261,
3163,
3081,
3214,
3081,
3085,
3083,
3089,
3005,
2966,
3081,
2984,
2982,
2838,
2859,
2947,
2840,
2784,
2798,
2756,
2865,
2707,
2699,
2703,
2678,
2691,
2811,
2769,
3044,
3183,
3579,
3824,
3843,
3718,
3526,
3250,
2850,
2589,
2477,
2444,
2409,
2395,
2298,
2315,
2308,
2357,
2388,
2272,
2336,
2437,
2434,
2436,
2464,
2383,
2377,
2241,
2166,
2130,
1989,
2023,
1988,
1979,
2089,
1963,
1924,
2002,
1892,
1928,
1885,
1903,
1819,
1861,
1789,
1772,
1850,
1829,
1776,
1797,
1737,
1696,
1648,
1727,
1641,
1613,
1628,
1642,
1570,
1631,
1522,
1530,
1515,
1498,
1509,
1449,
1464,
1432,
1400,
1471,
1361,
1385,
1352,
1420,
1374,
1354,
1319,
1381,
1290,
1335,
1175,
1248,
1221,
1196,
1231,
1179,
1241,
1150,
1196,
1213,
1103,
1174,
1138,
1140,
1136,
1088,
1084,
1003,
1062,
1082,
1004,
1036,
1002,
1001,
1026,
954,
955,
930,
921,
978,
965,
848,
901,
881,
895,
843,
821,
811,
833,
823,
800,
833,
770,
778,
763,
827,
746,
749,
737,
738,
703,
724,
708,
686,
702,
718,
668,
649,
648,
661,
617,
660,
612,
589,
587,
597,
608,
573,
591,
542,
570,
519,
540,
517,
523,
521,
501,
482,
485,
519,
496,
502,
502,
479,
497,
429,
491,
423,
427,
401,
379,
397,
422,
400,
384,
430,
371,
407,
384,
399,
392,
335,
320,
328,
350,
341,
319,
340,
363,
331,
323,
301,
319,
293,
314,
283,
295,
269,
279,
273,
239,
238,
265,
258,
257,
253,
260,
252,
221,
202,
227,
228,
220,
199,
212,
193,
196,
196,
188,
192,
186,
158,
160,
162,
163,
134,
182,
187,
137,
170,
135,
135,
138,
149,
113,
108,
115,
108,
115,
105,
78,
91,
88,
92,
95,
88,
76,
75,
76,
85,
81,
59,
61,
71,
55,
50,
54,
51,
55,
46,
42,
46,
41,
43,
38,
36,
31,
34,
36,
19,
17,
18,
22,
13,
10,
9,
11,
10,
9,
9,
14,
5,
7,
3,
8,
6,
4,
6,
5,
6,
9,
9,
3,
10,
4,
5,
7,
8,
9,
6,
5,
8,
2,
8,
14,
5,
5,
4,
10,
8,
7,
7,
4,
3,
7,
6,
4,
7,
5,
10,
6,
6,
8,
5,
6,
2,
5,
4,
4,
5,
6,
5,
5,
5,
5,
5,
4,
8,
3,
4,
2,
4,
6,
7,
2,
5,
2,
4,
2,
1,
6,
4,
4,
3,
4,
4,
4,
3,
2,
0,
1,
5,
1,
0,
4,
5,
3,
4,
8,
1,
1,
2,
3,
3,
1,
3,
2,
2,
3,
2,
0,
1,
1,
4,
3,
2,
2,
2,
1,
4,
2,
0,
2,
4,
1,
1,
3,
0,
1,
1,
1,
1,
1,
2,
4,
2,
3,
1,
0,
1,
2,
2,
2,
2,
0,
0,
0,
3,
0,
2,
0,
3,
2,
1,
2,
0,
1,
1,
4,
1,
0,
2,
3,
2,
1,
1,
2,
1,
2,
1,
0,
1,
2,
4,
1,
1,
0,
1,
1,
1,
0,
0,
2,
1,
2,
0,
0,
1,
0,
1,
0,
0,
0,
0,
0,
2,
0,
1,
1,
0,
0,
0,
1,
0,
0,
0,
1,
0,
3,
1,
2,
0,
0,
0,
1,
0,
0,
0,
1,
0,
0,
1,
0,
0,
3,
1,
0,
1,
0,
0,
0,
2,
0,
0,
0,
1,
0,
1,
0,
0,
0,
1,
0,
0,
0,
0,
0,
0,
1,
0,
0,
0,
0,
0,
0,
0,
0,
0,
0,
1,
1,
0,
0,
0,
0,
0,
1,
0,
0,
0,
0,
0,
0,
1,
1,
0,
0,
0,
0,
0,
0,
0,
0,
0,
0,
0,
1,
0,
0,
0,
0,
0,
1,
0,
0,
0,
0,
0,
1,
0,
0,
0,
0,
0,
0,
0,
0,
0,
0,
0,
0,
0,
0,
0,
0,
0,
0,
0,
0,
0,
0,
0,
0,
0,
0,
0,
0,
2,
0,
0,
0,
0,
0,
0,
0,
0,
0,
0,
0,
0,
0,
0,
0,
1,
0,
0,
0,
0,
0,
0,
0,
0,
0,
0,
1,
1,
0,
0,
0,
0,
0,
0,
1,
0,
0,
1,
0,
0,
0,
0,
0,
0,
0,
0,
0,
0,
0,
1,
0,
0,
0,
0,
0,
0,
0,
0,
0,
0,
0,
0,
0,
0,
0,
0,
0,
0,
0,
0,
0,
0,
0,
0,
0,
0,
0,
0,
0,
0,
0,
0,
0,
0,
0,
0,
0,
0,
0,
0,
0,
0,
0,
0,
0,
0,
0,
0,
0,
0,
0,
0,
0,
0,
0,
0,
0,
0,
0,
0,
0,
0,
0,
0,
0,
0,
0,
0,
0,
0,
0,
0,
0,
0,
0,
0,
0,
0,
0,
0,
0,
0,
0,
0,
0,
0,
0,
0,
0,
0,
0,
0,
0,
0,
0,
0,
0,
0,
0,
0,
0,
0,
0,
0,
0,
0,
0,
0,
0,
0,
0,
0,
0,
0,
0,
0,
0,
0,
0,
0,
0,
0,
0,
0,
0,
0,
0,
0,
0,
0,
0,
0,
0,
0,
0,
0,
0,
0,
0,
0,
0,
0,
0,
0,
0,
0,
0,
0,
0,
0,
0,
0,
0,
0,
0,
0,
0,
0,
0,
0,
0,
0,
0,
0,
0,
0,
0,
0,
0,
0,
0,
0,
0,
0,
0,
0,
0,
0,
0,
0,
0,
0,
0,
0,
0,
0,
0,
0,
0,
0,
0,
0,
0,
0,
0,
0,
0,
0,
0,
0,
0,
0,
0,
0,
0,
0,
0,
0,
0,
0,
0,
0,
0,
0,
0,
0,
0,
0,
0,
0,
0,
0,
0,
0,
0,
0,
0,
0,
0,
0,
0,
0,
0,
0,
0,
0,
0,
0,
0,
0,
0,
0,
0,
0,
0,
0,
0,
0,
0,
0,
0,
0,
0,
0,
0,
0,
0,
0,
0,
0,
0,
0,
0,
0,
0,
0,
0,
0,
0,
0,
0,
0,
0,
0,
0,
0,
0,
0,
0,
0,
0,
0,
0,
0,
0,
0,
0,
0,
0,
0,
0,
0,
0,
0,
0,
0,
0,
0,
0,
0,
0,
0,
0,
0,
0,
0,
0,
0,
0,
0,
0,
0,
0,
0,
0,
0,
0,
0,
0,
0,
0,
0,
0,
0,
0,
0,
0,
0,
0,
#ENDOFDATA   :