File: N132962/Standards/20 keV/Mo std.msa
#FORMAT      : EMSA/MAS Spectral Data File
#VERSION     : 1.0
#TITLE       : G588 Mo[0][all]+G588 Mo[1][all]+G588 Mo[2][all]+G588 Mo[3][all]+G588 Mo[4][all]
#NPOINTS     : 4096
#NCOLUMNS    : 1
#XUNITS      : eV
#YUNITS      : counts
#DATATYPE    : Y
#SIGNALTYPE  : EDS
#XLABEL      : Energy (eV)
#YLABEL      : Counts
#XPERCHAN -eV: 9.99778
#OFFSET   -eV: 1.69135
#CHOFFSET    : 0
#OWNER       : Unknown
#ELEVANGLE   : 35
#BEAMKV   -kV: 20
#LIVETIME  -s: 1200.91
#REALTIME  -s: 1339.29
#PROBECUR -nA: 1.04548
##WORKING -mm: 15
##D2STDCMP   : Mo,(Mo:100.0000)
#SPECTRUM    :
152,
173,
107,
908,
10768,
76605,
188733,
157229,
78319,
48729,
27470,
18589,
18048,
17577,
16705,
19055,
28542,
49665,
66050,
51031,
32568,
34127,
37077,
33562,
30441,
28852,
28276,
29510,
31886,
32936,
33061,
33814,
34504,
36144,
37719,
38670,
39962,
41372,
42511,
43531,
44069,
45695,
45859,
46605,
47502,
47665,
48785,
50071,
50915,
52286,
52969,
52670,
51797,
51867,
52237,
52387,
54899,
57873,
60429,
60089,
58373,
55285,
52289,
52018,
56271,
70589,
98087,
120877,
112905,
91810,
83880,
87913,
104508,
178497,
448796,
1090694,
1790758,
1815822,
1283495,
963448,
866781,
652353,
400403,
242717,
151319,
93136,
60525,
46731,
38503,
29945,
24183,
22116,
23409,
27303,
30882,
30304,
26318,
22332,
20514,
19913,
19941,
19928,
19916,
19946,
20542,
20699,
20847,
20606,
20945,
20990,
21203,
21400,
21391,
21375,
21334,
21362,
21753,
21582,
21918,
21958,
22051,
22270,
22295,
22025,
22080,
22482,
22139,
22219,
21931,
22132,
22062,
22009,
22082,
22434,
22218,
21983,
22241,
22130,
22180,
22137,
22105,
22208,
22322,
22340,
22197,
22029,
22220,
22145,
22085,
22385,
22735,
23919,
24856,
25792,
25985,
25748,
25579,
25028,
24094,
23428,
22774,
22167,
21833,
21449,
21081,
21234,
20730,
20751,
20473,
20584,
20323,
20308,
19998,
19981,
20247,
20057,
19863,
19808,
19896,
19987,
20247,
20275,
19859,
19613,
19363,
19127,
19188,
19130,
18925,
18868,
18624,
18800,
18739,
18634,
18389,
18577,
18300,
18677,
18291,
18397,
18259,
17772,
17663,
17675,
17654,
17645,
17438,
17202,
17547,
17570,
17956,
18809,
19672,
20137,
19790,
18582,
17761,
17205,
16619,
16466,
16449,
16311,
16091,
16056,
15995,
16110,
15880,
15743,
15721,
15554,
15608,
15500,
15697,
15526,
15617,
15675,
15486,
15258,
15093,
14810,
14842,
14635,
14290,
14644,
14621,
14229,
14763,
14993,
15104,
15229,
14957,
14581,
14165,
13841,
13743,
13453,
13266,
13447,
13301,
13350,
13179,
13132,
12982,
13114,
13072,
13055,
12882,
12591,
12616,
12708,
12477,
12540,
12361,
12543,
12243,
12238,
12235,
12017,
12143,
12061,
11694,
11959,
11895,
11600,
11620,
11555,
11451,
11390,
11270,
11269,
11348,
10923,
10933,
10937,
10808,
11033,
10826,
10579,
10690,
10666,
10691,
10545,
10432,
10350,
10329,
10332,
10235,
10100,
10120,
10216,
9889,
9886,
9773,
9673,
9866,
9635,
9767,
9726,
9435,
9482,
9402,
9482,
9275,
9076,
9269,
9300,
9130,
9173,
9124,
8759,
8891,
8972,
8658,
8687,
8742,
8706,
8586,
8518,
8361,
8374,
8377,
8248,
8199,
8180,
8156,
8022,
7980,
7988,
7864,
7917,
7757,
7740,
7605,
7680,
7692,
7460,
7403,
7314,
7450,
7524,
7347,
7282,
7313,
7270,
7125,
6990,
7077,
7083,
6863,
6744,
6628,
6804,
6747,
6698,
6553,
6570,
6555,
6351,
6383,
6440,
6286,
6216,
6181,
6009,
6106,
6040,
5980,
6071,
5936,
5831,
5848,
5917,
5756,
5778,
5585,
5641,
5694,
5525,
5452,
5601,
5336,
5450,
5369,
5243,
5247,
5172,
5253,
5078,
5037,
4931,
5028,
4944,
4814,
4868,
4812,
4782,
4746,
4722,
4693,
4621,
4624,
4570,
4558,
4530,
4444,
4275,
4443,
4280,
4384,
4196,
4206,
4125,
4172,
4084,
4078,
4022,
4094,
3968,
4065,
3836,
3862,
3916,
3824,
3782,
3664,
3670,
3688,
3630,
3572,
3521,
3529,
3462,
3489,
3519,
3326,
3303,
3307,
3373,
3322,
3236,
3161,
3237,
3164,
3166,
3052,
3034,
3043,
2979,
2943,
2943,
2957,
2939,
2923,
2795,
2912,
2845,
2737,
2738,
2702,
2685,
2583,
2574,
2587,
2553,
2599,
2520,
2518,
2403,
2443,
2393,
2457,
2393,
2311,
2312,
2349,
2239,
2250,
2201,
2228,
2155,
2167,
2142,
2108,
2096,
2010,
2041,
1989,
1943,
1917,
1923,
1975,
1962,
1877,
1865,
1844,
1820,
1698,
1814,
1725,
1694,
1730,
1699,
1618,
1679,
1671,
1604,
1582,
1602,
1570,
1479,
1564,
1449,
1481,
1423,
1498,
1431,
1406,
1298,
1365,
1352,
1382,
1336,
1368,
1323,
1265,
1215,
1233,
1212,
1199,
1190,
1204,
1138,
1169,
1158,
1149,
1092,
1072,
1096,
1031,
1109,
1037,
1072,
1017,
986,
961,
981,
981,
912,
956,
902,
918,
880,
908,
880,
859,
826,
833,
875,
843,
786,
780,
738,
731,
716,
707,
741,
686,
736,
664,
674,
692,
692,
657,
629,
653,
598,
613,
562,
579,
568,
578,
543,
520,
523,
505,
510,
470,
460,
440,
467,
440,
425,
460,
390,
428,
422,
388,
379,
372,
384,
335,
346,
351,
355,
347,
313,
339,
280,
269,
296,
293,
288,
258,
256,
230,
226,
218,
254,
226,
216,
187,
176,
185,
169,
188,
169,
156,
157,
146,
128,
134,
129,
137,
113,
79,
101,
81,
95,
74,
74,
58,
54,
51,
33,
34,
31,
25,
15,
21,
22,
20,
18,
12,
10,
15,
11,
11,
17,
12,
10,
11,
11,
16,
13,
6,
19,
9,
11,
9,
12,
11,
14,
5,
7,
10,
12,
8,
11,
10,
13,
15,
9,
9,
7,
9,
9,
10,
6,
10,
6,
5,
13,
4,
8,
7,
5,
7,
7,
11,
8,
10,
3,
6,
4,
9,
6,
5,
2,
5,
3,
4,
3,
5,
1,
2,
5,
4,
10,
3,
10,
5,
7,
4,
5,
5,
1,
3,
5,
4,
9,
4,
5,
4,
2,
3,
3,
3,
2,
3,
3,
7,
1,
3,
3,
2,
2,
5,
2,
4,
4,
5,
5,
1,
4,
3,
6,
2,
4,
1,
2,
1,
2,
7,
4,
2,
6,
2,
5,
4,
5,
7,
3,
7,
0,
0,
4,
2,
1,
0,
5,
2,
1,
6,
2,
3,
5,
0,
1,
5,
4,
4,
3,
2,
5,
4,
5,
0,
5,
2,
1,
2,
8,
1,
1,
1,
1,
1,
5,
3,
2,
3,
1,
3,
3,
3,
5,
2,
5,
3,
2,
1,
3,
1,
2,
4,
4,
1,
2,
6,
0,
3,
2,
3,
2,
4,
1,
1,
1,
2,
0,
4,
3,
3,
2,
4,
1,
1,
4,
4,
2,
4,
0,
2,
1,
4,
3,
5,
1,
1,
1,
1,
2,
1,
2,
1,
4,
4,
1,
1,
1,
1,
0,
0,
0,
2,
1,
0,
2,
0,
2,
0,
4,
0,
0,
1,
0,
1,
0,
4,
0,
2,
0,
0,
0,
2,
1,
2,
0,
1,
0,
0,
2,
4,
0,
0,
1,
1,
0,
0,
0,
1,
0,
1,
1,
1,
1,
2,
0,
0,
0,
1,
1,
1,
1,
1,
0,
1,
2,
1,
1,
0,
0,
1,
0,
0,
1,
2,
0,
0,
1,
0,
0,
0,
1,
1,
1,
0,
0,
0,
0,
1,
0,
1,
0,
1,
0,
0,
1,
0,
0,
0,
1,
1,
0,
0,
0,
0,
1,
1,
2,
0,
0,
0,
0,
0,
0,
0,
0,
1,
0,
1,
1,
0,
0,
0,
0,
2,
1,
0,
0,
0,
0,
0,
0,
0,
0,
0,
1,
0,
0,
0,
0,
0,
0,
0,
1,
0,
0,
1,
0,
1,
0,
0,
1,
0,
0,
0,
0,
0,
0,
1,
0,
0,
0,
0,
1,
0,
0,
0,
0,
0,
0,
0,
0,
0,
0,
0,
0,
0,
1,
0,
0,
0,
0,
0,
0,
0,
0,
0,
0,
2,
0,
0,
0,
2,
0,
0,
0,
0,
0,
0,
0,
0,
0,
0,
0,
0,
0,
0,
0,
0,
0,
0,
0,
0,
0,
0,
0,
0,
1,
0,
0,
0,
1,
0,
0,
0,
0,
0,
0,
0,
0,
0,
0,
0,
0,
0,
0,
0,
0,
0,
0,
0,
1,
0,
0,
0,
0,
0,
0,
0,
0,
0,
0,
0,
0,
0,
0,
0,
0,
0,
0,
0,
0,
0,
0,
0,
0,
0,
0,
0,
0,
0,
0,
0,
0,
0,
0,
0,
0,
0,
0,
0,
0,
0,
0,
0,
0,
0,
0,
0,
0,
0,
0,
0,
1,
0,
0,
0,
0,
0,
0,
0,
0,
0,
0,
0,
0,
0,
0,
0,
0,
0,
0,
0,
1,
0,
0,
0,
0,
0,
0,
0,
0,
0,
0,
0,
0,
0,
0,
0,
0,
0,
0,
0,
0,
0,
0,
0,
0,
0,
0,
0,
0,
0,
0,
0,
0,
0,
0,
0,
0,
0,
1,
0,
0,
0,
0,
0,
0,
0,
0,
0,
0,
0,
0,
0,
0,
0,
0,
0,
0,
0,
0,
0,
0,
0,
0,
0,
0,
0,
0,
0,
0,
0,
0,
0,
0,
0,
0,
0,
0,
0,
0,
0,
0,
0,
0,
0,
0,
0,
0,
0,
0,
0,
0,
0,
0,
0,
0,
0,
0,
0,
0,
0,
0,
0,
0,
0,
0,
0,
0,
0,
0,
0,
0,
0,
0,
0,
0,
0,
0,
0,
0,
0,
0,
0,
0,
0,
0,
0,
0,
0,
0,
0,
0,
0,
0,
0,
0,
0,
0,
0,
0,
0,
0,
0,
0,
0,
0,
0,
0,
0,
0,
0,
0,
0,
0,
0,
0,
0,
0,
0,
0,
0,
0,
0,
0,
0,
0,
0,
0,
0,
0,
0,
0,
#ENDOFDATA   :