File: N132962/Standards/20 keV/NaCl std.msa
#FORMAT      : EMSA/MAS Spectral Data File
#VERSION     : 1.0
#TITLE       : NaCl std
#DATE        : 17-MAR-2025
#TIME        : 10:02
#OWNER       : Unknown
#NPOINTS     : 4096
#NCOLUMNS    : 1
#XUNITS      : eV
#YUNITS      : counts
#DATATYPE    : Y
#XPERCHAN    : 10
#OFFSET      : 0
#BEAMKV      : 20
#SIGNALTYPE  : EDS
#ELEVANGLE   : 35
#AZIMANGLE   : 0
#LIVETIME    : 1195.35
#REALTIME    : 1307.22
#PROBECUR    : 1.02451
#TAUWIND     : 0
#TDEADLYR    : 0
#TACTLYR     : 0.045
#TALWIND     : 0.025
#CHOFFSET    : 0.0
#XLABEL      : Energy (eV)
#YLABEL      : Counts
#EDSDET      : SD
##SPECIMEN   : NaCl std
##D2STDCMP   : NaCl,(Na:39.3372),(Cl:60.6628),5.0
##DET_HASH   : 74d34f93-f0f0-54c9-686d-5ecd3225a094
##CALIB_HASH : 89d4943c-4976-8a46-a4c8-892a1ccde960
##WORKING    : 15.0 mm
##SAMPLE     : <BulkSample id="1">\n<mOrientation id="2">\n<double>0.0</double>\n<double>0.0</double>\n<double>-1.0</double>\n</mOrientation>\n</BulkSample>
##MULTISPEC  : 25.0044
##DET_NAME   : EDAX Det 2
##DET_MODE   : MediumLE
#SPECTRUM    :
118,
119,
46,
122,
1275,
6555,
11531,
11603,
16364,
18965,
12470,
8846,
8928,
9899,
11398,
17716,
40684,
69604,
54564,
24443,
15866,
15912,
17908,
19721,
21078,
23131,
26047,
31776,
47366,
66967,
65594,
63012,
143424,
557668,
1371546,
1527525,
734268,
164668,
31261,
17702,
16641,
17219,
17607,
18246,
18388,
19015,
19180,
19804,
20845,
21586,
22006,
21490,
21504,
21451,
21406,
23102,
30278,
45122,
54675,
45324,
31610,
24788,
21443,
20180,
19938,
20117,
20521,
20985,
22229,
23529,
23695,
22166,
21354,
21149,
22357,
23728,
26933,
28275,
26755,
23854,
22471,
25285,
35522,
63054,
149817,
446993,
1104083,
1778418,
1730465,
1008225,
367241,
116338,
99459,
152624,
175648,
132718,
66848,
26857,
13162,
10374,
9825,
9640,
9987,
10122,
10135,
10312,
10299,
10587,
11779,
14541,
17279,
17486,
14694,
11932,
10571,
10194,
10299,
10563,
10884,
12027,
13998,
16368,
17734,
16847,
13919,
11440,
10247,
10075,
10055,
10042,
9998,
9610,
9541,
9523,
9433,
9432,
9127,
9137,
9159,
9101,
9031,
9154,
9007,
9029,
8933,
9235,
9009,
8659,
8666,
8625,
8767,
8447,
8601,
8381,
8375,
8463,
8390,
8214,
8106,
8235,
8275,
8076,
7983,
8078,
8133,
7914,
7945,
7784,
7902,
7724,
7965,
8052,
8490,
9581,
10775,
11140,
10711,
9327,
8537,
7885,
8004,
7797,
7972,
7478,
7341,
7229,
6866,
6901,
6920,
6750,
6841,
6733,
6729,
6556,
6803,
6615,
6592,
6494,
6354,
6490,
6392,
6306,
6340,
6161,
6150,
6154,
6096,
6113,
6079,
5994,
6029,
6334,
6442,
6480,
6515,
6271,
5898,
5672,
5765,
5587,
5530,
5639,
5545,
5408,
5526,
5396,
5391,
5238,
5239,
5248,
5171,
5134,
5108,
5201,
5145,
5167,
5047,
5002,
4991,
4901,
4835,
4799,
4899,
4813,
4763,
4706,
4692,
4920,
4951,
5018,
4785,
4861,
4674,
4538,
4491,
4408,
4331,
4294,
4239,
4378,
4238,
4153,
4148,
4230,
4134,
4168,
4084,
3977,
4041,
4057,
4058,
3886,
3990,
3955,
3876,
3945,
3878,
3758,
3775,
3799,
3829,
3691,
3589,
3730,
3494,
3535,
3684,
3481,
3559,
3361,
3507,
3371,
3399,
3259,
3362,
3382,
3333,
3280,
3309,
3372,
3166,
3271,
3191,
3106,
3234,
3175,
3047,
2986,
2992,
3110,
3092,
2940,
2999,
2966,
2933,
2908,
2904,
2886,
2810,
2878,
2877,
2804,
2812,
2707,
2770,
2775,
2702,
2742,
2636,
2637,
2610,
2582,
2602,
2511,
2658,
2534,
2465,
2497,
2411,
2510,
2476,
2432,
2339,
2467,
2392,
2337,
2272,
2224,
2329,
2297,
2195,
2290,
2206,
2130,
2204,
2127,
2197,
2093,
2211,
2023,
2057,
2121,
2011,
2043,
2022,
2037,
2011,
2000,
1974,
1943,
1885,
1900,
1853,
1894,
1867,
1843,
1760,
1866,
1805,
1764,
1735,
1778,
1802,
1752,
1697,
1639,
1753,
1654,
1679,
1643,
1652,
1704,
1634,
1591,
1606,
1488,
1533,
1494,
1521,
1499,
1531,
1545,
1453,
1402,
1499,
1440,
1371,
1425,
1419,
1370,
1394,
1339,
1358,
1284,
1338,
1292,
1356,
1317,
1255,
1269,
1210,
1223,
1238,
1259,
1209,
1165,
1134,
1186,
1103,
1128,
1104,
1173,
1132,
1140,
1035,
1015,
1120,
1012,
1035,
1030,
1000,
971,
1045,
980,
973,
920,
971,
925,
891,
936,
889,
915,
937,
871,
857,
907,
816,
844,
835,
837,
797,
822,
774,
755,
813,
748,
811,
758,
805,
697,
725,
726,
696,
673,
692,
751,
658,
735,
676,
702,
667,
663,
676,
609,
630,
638,
596,
626,
609,
578,
610,
584,
540,
569,
567,
576,
571,
537,
556,
514,
482,
527,
522,
511,
486,
443,
534,
484,
503,
482,
484,
433,
473,
430,
420,
447,
395,
454,
435,
399,
433,
403,
394,
385,
377,
383,
368,
407,
377,
370,
360,
321,
316,
321,
313,
317,
304,
322,
328,
310,
365,
283,
318,
318,
275,
300,
276,
258,
288,
245,
259,
253,
264,
246,
233,
242,
219,
255,
229,
234,
221,
222,
204,
200,
228,
207,
201,
209,
197,
200,
203,
190,
193,
195,
197,
153,
175,
186,
177,
157,
175,
159,
169,
170,
171,
146,
137,
143,
150,
129,
134,
146,
110,
129,
112,
113,
114,
120,
112,
119,
120,
113,
118,
104,
94,
110,
98,
93,
96,
89,
103,
81,
87,
69,
74,
76,
69,
85,
69,
66,
76,
77,
68,
62,
64,
53,
61,
45,
56,
56,
59,
56,
54,
39,
42,
41,
42,
46,
46,
36,
34,
27,
44,
46,
36,
21,
28,
16,
20,
17,
21,
23,
22,
20,
20,
16,
21,
17,
13,
9,
6,
5,
9,
3,
11,
7,
3,
4,
1,
2,
3,
3,
5,
3,
0,
1,
0,
2,
1,
2,
1,
2,
1,
0,
0,
0,
1,
1,
2,
1,
0,
1,
3,
0,
2,
1,
0,
3,
2,
0,
1,
1,
1,
0,
0,
0,
1,
1,
1,
1,
1,
1,
0,
1,
0,
2,
1,
0,
1,
0,
1,
1,
0,
0,
1,
2,
0,
0,
0,
0,
0,
0,
1,
0,
1,
1,
1,
0,
0,
1,
0,
0,
0,
0,
2,
0,
0,
0,
1,
0,
0,
0,
1,
0,
0,
0,
0,
0,
0,
1,
0,
0,
1,
0,
0,
0,
0,
0,
0,
0,
0,
0,
0,
0,
0,
0,
1,
0,
0,
0,
1,
0,
0,
0,
0,
0,
0,
0,
0,
1,
0,
0,
0,
0,
0,
0,
0,
2,
0,
0,
0,
0,
0,
2,
0,
1,
1,
0,
0,
0,
1,
0,
0,
0,
0,
0,
0,
0,
0,
0,
1,
0,
0,
0,
0,
1,
1,
0,
0,
0,
0,
0,
0,
0,
0,
0,
0,
0,
0,
0,
0,
1,
0,
1,
0,
0,
0,
0,
1,
0,
0,
0,
0,
0,
0,
0,
0,
0,
0,
1,
0,
0,
0,
0,
2,
0,
0,
0,
0,
0,
0,
1,
0,
0,
0,
0,
0,
0,
0,
1,
0,
0,
0,
0,
0,
0,
0,
0,
0,
0,
0,
0,
0,
0,
0,
0,
0,
0,
0,
0,
0,
0,
0,
0,
0,
0,
0,
0,
1,
0,
1,
0,
0,
1,
0,
0,
0,
0,
0,
0,
0,
0,
0,
1,
0,
0,
0,
0,
0,
0,
0,
0,
1,
0,
0,
0,
0,
0,
0,
0,
1,
0,
0,
0,
0,
0,
0,
0,
0,
0,
0,
0,
0,
0,
0,
0,
0,
0,
0,
0,
0,
0,
0,
0,
0,
1,
0,
0,
1,
0,
0,
0,
0,
0,
0,
0,
0,
0,
0,
0,
0,
0,
0,
0,
0,
0,
0,
0,
0,
0,
0,
0,
0,
0,
0,
0,
0,
0,
0,
0,
0,
0,
0,
0,
0,
0,
0,
0,
0,
0,
0,
0,
0,
0,
0,
0,
0,
0,
0,
1,
0,
0,
0,
0,
0,
0,
0,
0,
0,
0,
0,
0,
0,
0,
0,
0,
0,
1,
0,
0,
0,
0,
0,
0,
0,
0,
0,
0,
0,
0,
0,
0,
0,
0,
0,
0,
0,
0,
0,
0,
0,
0,
0,
0,
0,
0,
0,
0,
0,
0,
0,
0,
0,
0,
0,
0,
0,
0,
0,
0,
0,
0,
0,
0,
0,
0,
0,
0,
0,
0,
0,
0,
0,
0,
0,
0,
0,
0,
0,
0,
0,
0,
0,
0,
0,
0,
0,
0,
0,
0,
0,
0,
0,
0,
0,
0,
0,
0,
0,
0,
0,
0,
0,
0,
0,
0,
0,
0,
0,
0,
0,
0,
0,
0,
0,
0,
0,
0,
0,
0,
0,
0,
0,
0,
0,
0,
0,
0,
0,
0,
0,
0,
0,
0,
0,
0,
0,
0,
0,
0,
0,
0,
0,
0,
0,
0,
0,
0,
0,
0,
0,
0,
0,
0,
0,
0,
0,
0,
0,
0,
0,
0,
0,
0,
0,
0,
0,
0,
0,
0,
0,
0,
0,
0,
0,
0,
0,
0,
0,
0,
0,
0,
0,
0,
0,
0,
0,
0,
0,
0,
0,
0,
0,
0,
0,
0,
0,
0,
0,
0,
0,
0,
0,
0,
0,
0,
0,
0,
0,
0,
0,
0,
0,
0,
0,
0,
0,
0,
0,
0,
0,
0,
0,
0,
0,
0,
0,
0,
0,
0,
0,
0,
0,
0,
0,
0,
0,
0,
0,
0,
0,
0,
0,
0,
0,
0,
0,
0,
0,
0,
0,
0,
0,
0,
0,
0,
0,
0,
0,
0,
0,
0,
0,
0,
0,
0,
0,
0,
0,
0,
0,
0,
0,
0,
0,
0,
0,
0,
0,
0,
0,
0,
0,
0,
0,
0,
0,
0,
0,
0,
0,
0,
0,
0,
0,
0,
0,
0,
0,
0,
0,
0,
0,
0,
0,
0,
0,
0,
0,
0,
0,
0,
0,
0,
0,
0,
0,
0,
0,
0,
0,
0,
0,
0,
0,
0,
0,
0,
0,
0,
0,
0,
0,
0,
0,
0,
0,
0,
0,
0,
0,
0,
0,
0,
0,
0,
#ENDOFDATA   :