File: N132962/Standards/20 keV/NaF std.msa
#FORMAT      : EMSA/MAS Spectral Data File
#VERSION     : 1.0
#TITLE       : NaF std
#DATE        : 21-MAR-2025
#TIME        : 14:48
#OWNER       : Unknown
#NPOINTS     : 4096
#NCOLUMNS    : 1
#XUNITS      : eV
#YUNITS      : counts
#DATATYPE    : Y
#XPERCHAN    : 9.99778
#OFFSET      : 1.69135
#BEAMKV      : 20
#SIGNALTYPE  : EDS
#ELEVANGLE   : 35
#AZIMANGLE   : 0
#LIVETIME    : 958.592
#REALTIME    : 1036.2
#PROBECUR    : 1.02926
#TAUWIND     : 0
#TDEADLYR    : 0
#TACTLYR     : 0.045
#TALWIND     : 0.025
#CHOFFSET    : 0.0
#XLABEL      : Energy (eV)
#YLABEL      : Counts
#EDSDET      : SD
##SPECIMEN   : NaF std
##D2STDCMP   : NaF,(F:45.2465),(Na:54.7535),5.0
##DET_HASH   : 12273538-fd48-a23f-0a19-f1e6fa85caef
##CALIB_HASH : 6abaa72c-aa41-8738-0be9-f592914732f3
##WORKING    : 15.0 mm
##SAMPLE     : <BulkSample id="1">\n<mOrientation id="2">\n<double>0.0</double>\n<double>0.0</double>\n<double>-1.0</double>\n</mOrientation>\n</BulkSample>
##MULTISPEC  : 2.24216
##DET_NAME   : EDAX All
##DET_MODE   : MediumLE
#SPECTRUM    :
113,
127,
51,
126,
567,
2075,
4984,
9970,
20085,
25091,
17671,
13543,
14620,
16391,
18924,
21757,
26362,
32189,
39431,
65281,
212286,
854336,
1890694,
1679752,
557016,
76885,
12840,
10686,
12634,
15342,
20585,
33376,
104040,
442754,
1103200,
1232547,
586618,
125223,
17316,
6476,
5817,
6353,
7171,
9051,
12131,
13605,
11387,
8612,
7861,
7893,
8146,
8385,
8430,
8638,
9401,
11550,
15567,
18796,
17131,
12817,
10540,
9294,
8812,
8596,
8649,
8657,
9023,
9716,
10831,
11505,
11501,
10391,
9395,
9140,
9054,
8771,
9087,
9137,
9147,
9178,
9068,
8996,
9130,
9025,
8969,
8963,
8901,
9077,
8807,
8874,
8800,
8622,
8662,
8548,
8498,
8305,
8375,
8365,
8293,
8171,
8304,
8086,
8158,
7821,
8012,
7805,
7810,
7897,
7745,
7840,
7810,
7588,
7456,
7417,
7352,
7315,
7019,
7312,
6984,
7167,
7246,
6931,
7311,
6942,
6954,
6935,
6684,
6704,
6699,
6640,
6511,
6410,
6411,
6346,
6357,
6235,
6286,
6131,
6053,
5895,
5934,
5912,
5849,
5863,
5923,
5772,
5564,
5716,
5541,
5522,
5590,
5440,
5434,
5262,
5252,
5296,
5299,
5177,
5198,
5087,
5073,
4973,
4987,
4995,
4842,
4893,
4939,
4961,
4742,
4734,
4700,
4546,
4656,
4637,
4683,
4517,
4537,
4558,
4344,
4351,
4362,
4296,
4259,
4195,
4147,
4160,
4109,
4035,
4085,
4048,
4079,
3990,
3861,
3920,
4008,
3784,
3822,
3793,
3834,
3781,
3767,
3672,
3576,
3713,
3581,
3557,
3424,
3552,
3433,
3440,
3630,
3484,
3587,
3578,
3436,
3480,
3357,
3205,
3243,
3130,
3225,
3117,
3119,
3001,
3050,
2996,
2970,
3005,
3083,
2908,
2992,
2868,
2923,
3015,
2880,
2830,
2882,
2705,
2856,
2767,
2698,
2745,
2712,
2599,
2658,
2578,
2675,
2734,
2658,
2602,
2628,
2579,
2539,
2423,
2458,
2462,
2374,
2411,
2432,
2346,
2336,
2385,
2411,
2337,
2272,
2248,
2358,
2450,
2423,
2383,
2326,
2289,
2159,
2139,
2148,
2124,
2194,
2056,
2077,
2074,
1951,
2049,
1977,
2051,
1968,
2005,
2027,
2125,
2077,
2080,
1948,
1937,
1829,
1900,
1849,
1856,
1850,
1799,
1777,
1737,
1767,
1657,
1777,
1707,
1641,
1630,
1634,
1696,
1624,
1592,
1538,
1523,
1572,
1587,
1557,
1598,
1563,
1516,
1582,
1509,
1468,
1421,
1476,
1494,
1436,
1434,
1419,
1383,
1409,
1376,
1362,
1388,
1324,
1400,
1323,
1426,
1315,
1315,
1350,
1327,
1220,
1187,
1238,
1163,
1252,
1209,
1240,
1221,
1189,
1179,
1141,
1190,
1133,
1112,
1185,
1138,
1097,
1112,
1053,
1139,
1108,
1076,
1036,
1058,
1039,
1030,
990,
1030,
1019,
1017,
968,
979,
977,
962,
978,
964,
939,
936,
938,
847,
880,
883,
861,
913,
870,
882,
948,
837,
826,
840,
801,
863,
848,
772,
788,
778,
766,
758,
805,
744,
754,
771,
715,
710,
676,
713,
701,
729,
669,
692,
718,
645,
691,
688,
654,
608,
632,
665,
657,
653,
606,
602,
597,
631,
593,
619,
536,
582,
546,
569,
572,
552,
560,
581,
517,
530,
529,
520,
509,
485,
489,
465,
493,
471,
493,
478,
472,
431,
514,
479,
455,
454,
442,
440,
430,
440,
440,
429,
443,
385,
449,
427,
425,
400,
376,
391,
363,
381,
386,
372,
346,
337,
344,
349,
354,
340,
349,
309,
291,
322,
331,
296,
296,
325,
275,
324,
298,
309,
252,
279,
274,
282,
277,
260,
293,
258,
278,
255,
243,
286,
251,
244,
221,
276,
251,
228,
232,
209,
236,
220,
219,
237,
239,
212,
200,
199,
194,
210,
205,
175,
209,
168,
179,
174,
181,
161,
160,
196,
198,
164,
189,
153,
147,
148,
149,
168,
140,
165,
139,
154,
120,
130,
148,
126,
130,
131,
128,
119,
132,
133,
121,
115,
111,
116,
115,
88,
107,
102,
120,
118,
103,
94,
93,
111,
96,
95,
87,
92,
112,
85,
90,
80,
94,
88,
92,
82,
90,
84,
62,
78,
78,
68,
75,
82,
77,
73,
75,
60,
57,
64,
57,
62,
62,
47,
39,
48,
50,
60,
49,
52,
47,
42,
44,
54,
41,
48,
50,
29,
46,
48,
46,
47,
35,
39,
33,
27,
36,
37,
34,
34,
34,
34,
26,
31,
17,
21,
29,
22,
28,
27,
28,
23,
18,
25,
13,
14,
15,
17,
15,
25,
12,
17,
14,
15,
9,
16,
13,
9,
12,
8,
5,
10,
10,
7,
6,
6,
4,
6,
3,
6,
4,
2,
2,
2,
1,
0,
2,
1,
0,
0,
0,
0,
0,
0,
1,
2,
1,
0,
0,
0,
0,
1,
0,
0,
1,
0,
0,
1,
0,
0,
0,
0,
0,
0,
0,
0,
0,
0,
0,
0,
0,
0,
0,
0,
0,
1,
0,
2,
0,
1,
0,
0,
0,
0,
0,
0,
0,
0,
0,
0,
0,
0,
1,
0,
0,
0,
0,
0,
1,
0,
0,
0,
0,
0,
1,
0,
0,
0,
0,
0,
0,
0,
0,
0,
0,
0,
0,
0,
0,
0,
0,
0,
0,
0,
0,
0,
0,
0,
0,
0,
0,
0,
0,
0,
0,
0,
0,
0,
0,
0,
0,
0,
0,
0,
0,
1,
0,
1,
0,
0,
0,
0,
0,
0,
0,
0,
0,
0,
0,
0,
0,
0,
0,
0,
0,
0,
0,
0,
0,
0,
0,
0,
0,
0,
0,
0,
0,
0,
0,
0,
0,
1,
0,
0,
0,
0,
0,
0,
0,
1,
0,
1,
0,
0,
0,
0,
0,
0,
0,
0,
0,
0,
0,
0,
0,
0,
0,
0,
0,
0,
0,
1,
0,
0,
1,
0,
0,
0,
0,
0,
0,
0,
0,
0,
0,
0,
0,
0,
0,
0,
0,
0,
0,
0,
0,
0,
0,
0,
0,
0,
0,
0,
0,
0,
0,
0,
0,
1,
0,
0,
0,
0,
0,
0,
0,
0,
0,
0,
0,
0,
0,
0,
0,
0,
0,
0,
0,
0,
0,
0,
0,
0,
0,
0,
0,
0,
0,
0,
0,
0,
0,
0,
0,
0,
0,
0,
0,
0,
0,
0,
0,
0,
0,
0,
0,
0,
0,
0,
0,
0,
0,
0,
0,
0,
0,
0,
0,
0,
0,
0,
0,
0,
0,
0,
0,
0,
0,
0,
0,
0,
0,
0,
0,
0,
0,
0,
0,
0,
0,
0,
0,
0,
0,
0,
0,
0,
0,
0,
0,
0,
0,
0,
0,
0,
0,
0,
0,
0,
0,
0,
0,
0,
0,
0,
0,
0,
0,
0,
0,
0,
0,
0,
0,
0,
0,
0,
0,
0,
0,
0,
0,
0,
0,
0,
0,
0,
0,
0,
0,
0,
0,
0,
0,
0,
0,
0,
0,
0,
0,
0,
0,
0,
0,
0,
0,
0,
0,
0,
0,
0,
0,
0,
0,
0,
0,
0,
0,
0,
0,
0,
0,
0,
0,
0,
0,
0,
0,
0,
0,
0,
0,
0,
0,
0,
0,
0,
0,
0,
0,
0,
0,
0,
0,
0,
0,
0,
0,
0,
0,
0,
0,
0,
0,
0,
0,
0,
0,
0,
0,
0,
0,
0,
0,
0,
0,
0,
0,
0,
0,
0,
0,
0,
0,
0,
0,
0,
0,
0,
0,
0,
0,
0,
0,
0,
0,
0,
0,
0,
0,
0,
0,
0,
0,
0,
0,
0,
0,
0,
0,
0,
0,
0,
0,
0,
0,
0,
0,
0,
0,
0,
0,
0,
0,
0,
0,
0,
0,
0,
0,
0,
0,
0,
0,
0,
0,
0,
0,
0,
0,
0,
0,
0,
0,
0,
0,
0,
0,
0,
0,
0,
0,
0,
0,
0,
0,
0,
0,
0,
0,
0,
0,
0,
0,
0,
0,
0,
0,
0,
0,
0,
0,
0,
0,
0,
0,
0,
0,
0,
0,
0,
0,
0,
0,
0,
0,
0,
0,
0,
0,
0,
0,
0,
0,
0,
0,
0,
0,
0,
0,
0,
0,
0,
0,
0,
0,
0,
0,
0,
0,
0,
0,
0,
0,
0,
0,
0,
0,
0,
0,
0,
0,
0,
0,
0,
0,
0,
0,
0,
0,
0,
0,
0,
0,
0,
0,
0,
0,
0,
0,
0,
0,
0,
0,
0,
0,
0,
0,
0,
0,
0,
0,
0,
0,
0,
0,
0,
0,
0,
0,
0,
0,
0,
0,
0,
0,
0,
0,
0,
0,
0,
0,
0,
0,
0,
0,
0,
0,
0,
0,
0,
0,
0,
0,
0,
0,
0,
0,
0,
0,
0,
0,
0,
0,
0,
0,
0,
0,
0,
0,
0,
0,
0,
0,
0,
0,
0,
0,
0,
0,
0,
0,
0,
0,
0,
0,
0,
0,
0,
0,
0,
0,
0,
0,
0,
0,
0,
0,
0,
0,
0,
0,
0,
0,
0,
0,
0,
0,
0,
0,
0,
0,
0,
0,
0,
0,
0,
0,
0,
0,
0,
0,
0,
0,
0,
0,
0,
#ENDOFDATA   :