File: N132962/Standards/20 keV/Nb std.msa
#FORMAT      : EMSA/MAS Spectral Data File
#VERSION     : 1.0
#TITLE       : G588 Nb[0][all]+G588 Nb[1][all]+G588 Nb[2][all]+G588 Nb[3][all]+G588 Nb[4][all]
#NPOINTS     : 4096
#NCOLUMNS    : 1
#XUNITS      : eV
#YUNITS      : counts
#DATATYPE    : Y
#SIGNALTYPE  : EDS
#XLABEL      : Energy (eV)
#YLABEL      : Counts
#XPERCHAN -eV: 9.99778
#OFFSET   -eV: 1.69135
#CHOFFSET    : 0
#OWNER       : Unknown
#ELEVANGLE   : 35
#BEAMKV   -kV: 20
#LIVETIME  -s: 1199.712
#REALTIME  -s: 1335.74
#PROBECUR -nA: 0.83562
##WORKING -mm: 15
##D2STDCMP   : Nb,(Nb:100.0000),5.000
#SPECTRUM    :
141,
132,
137,
1578,
17332,
71023,
92844,
53111,
37488,
37231,
25722,
18771,
21218,
39527,
58382,
46746,
49172,
69893,
55723,
31442,
24818,
24287,
25445,
27800,
28338,
27719,
28364,
30740,
33779,
34800,
35044,
35843,
37189,
38409,
39923,
41042,
42287,
43192,
44123,
45244,
46212,
46857,
47798,
48073,
48919,
50091,
50703,
51867,
53405,
56016,
56562,
55523,
54449,
53987,
54402,
55230,
57282,
60704,
63547,
64345,
65634,
74092,
96414,
122542,
120864,
100678,
89915,
93650,
118303,
223873,
582391,
1318928,
1936461,
1780653,
1272355,
1011262,
792111,
500429,
288755,
168449,
93956,
56300,
40190,
31321,
25414,
22449,
22232,
25212,
28727,
30418,
27300,
23041,
20529,
19561,
19615,
19838,
20207,
20049,
20313,
20405,
20928,
21075,
21080,
21123,
21136,
21196,
21377,
21238,
21177,
21794,
21827,
21607,
21829,
21767,
21890,
22073,
21983,
22135,
22234,
22343,
22077,
22204,
22700,
22504,
22484,
22455,
22114,
21997,
22389,
22141,
22301,
22002,
22351,
22506,
22498,
22245,
22736,
22453,
22412,
22664,
22632,
22797,
23584,
24993,
26111,
26731,
26684,
26182,
25575,
25006,
24142,
23280,
22144,
21780,
21423,
21481,
21026,
20882,
20925,
21025,
20644,
20634,
20603,
20546,
20582,
20162,
20244,
20401,
20190,
20069,
19854,
20009,
19960,
19647,
19804,
19432,
19540,
19358,
19593,
19841,
19469,
19844,
19815,
19251,
19089,
18863,
18819,
18665,
18740,
18730,
18328,
18231,
18282,
18251,
18122,
17975,
17916,
18267,
17755,
17818,
17866,
17458,
17341,
17226,
17155,
17119,
17170,
17066,
16967,
17117,
17460,
18619,
19144,
19950,
19574,
18453,
17436,
16776,
16116,
16221,
15913,
15964,
15460,
15489,
15432,
15615,
15535,
15156,
15356,
15351,
15353,
14987,
14971,
14959,
15232,
15108,
15085,
14843,
14451,
14479,
14213,
14404,
14320,
14336,
13961,
14276,
14204,
14562,
14780,
14628,
14621,
14116,
13894,
13459,
13371,
13038,
13095,
13022,
13058,
12969,
12962,
12894,
12720,
12677,
12428,
12319,
12491,
12394,
12269,
12328,
12323,
12108,
12159,
11899,
11997,
12085,
11749,
11937,
11833,
11780,
11507,
11567,
11225,
11274,
11095,
11114,
10993,
11034,
11065,
10988,
10944,
10649,
10480,
10597,
10660,
10489,
10523,
10372,
10153,
10256,
10332,
10084,
9984,
9893,
9993,
9933,
9659,
9638,
9988,
9627,
9901,
9737,
9569,
9497,
9293,
9287,
9274,
9235,
9156,
9224,
9112,
8893,
9064,
9063,
8787,
8826,
8732,
8745,
8767,
8519,
8519,
8667,
8423,
8466,
8222,
8187,
8174,
8188,
8116,
8156,
7829,
8056,
7900,
7887,
7893,
7904,
7707,
7691,
7581,
7442,
7636,
7645,
7382,
7412,
7359,
7294,
7240,
7023,
7121,
7055,
7012,
7050,
6815,
6940,
6911,
6689,
6611,
6657,
6667,
6575,
6551,
6547,
6367,
6282,
6329,
6179,
6199,
6293,
6182,
6031,
6072,
5988,
6101,
5885,
5799,
5886,
5835,
5814,
5728,
5663,
5569,
5612,
5662,
5595,
5508,
5476,
5463,
5224,
5315,
5201,
5220,
5210,
5144,
5114,
4962,
5152,
4925,
4885,
4840,
4865,
4851,
4792,
4791,
4699,
4512,
4676,
4497,
4612,
4406,
4332,
4413,
4411,
4246,
4390,
4337,
4229,
4244,
4233,
4246,
3904,
4036,
4085,
3916,
4018,
3956,
4046,
3790,
3739,
3807,
3808,
3633,
3761,
3655,
3602,
3582,
3552,
3510,
3432,
3491,
3456,
3355,
3281,
3378,
3369,
3272,
3222,
3206,
3177,
3132,
3045,
3115,
3113,
2970,
3027,
2946,
2979,
2886,
2890,
2851,
2854,
2782,
2760,
2840,
2742,
2677,
2652,
2614,
2683,
2557,
2646,
2634,
2514,
2461,
2420,
2393,
2400,
2353,
2372,
2339,
2398,
2231,
2269,
2335,
2168,
2123,
2153,
2140,
2154,
2154,
2054,
2040,
2031,
2057,
2050,
2005,
1899,
1905,
1881,
1842,
1868,
1852,
1718,
1779,
1867,
1740,
1760,
1734,
1721,
1639,
1683,
1638,
1649,
1559,
1588,
1555,
1598,
1584,
1514,
1536,
1488,
1362,
1441,
1434,
1409,
1395,
1350,
1308,
1385,
1366,
1293,
1265,
1321,
1345,
1272,
1271,
1304,
1494,
1521,
1742,
1957,
2238,
2217,
2389,
2398,
2167,
2004,
1645,
1585,
1309,
1182,
1072,
1029,
993,
1017,
982,
931,
975,
927,
880,
879,
894,
845,
855,
824,
806,
806,
825,
805,
785,
729,
751,
744,
668,
706,
715,
701,
650,
688,
668,
688,
645,
645,
607,
606,
584,
578,
553,
548,
550,
550,
529,
534,
520,
505,
484,
492,
470,
423,
480,
435,
428,
384,
416,
410,
415,
446,
446,
476,
507,
495,
557,
508,
501,
381,
430,
341,
342,
313,
287,
348,
278,
305,
255,
252,
228,
235,
236,
212,
194,
213,
189,
175,
175,
146,
149,
156,
139,
147,
138,
126,
134,
119,
112,
99,
87,
91,
70,
75,
69,
74,
54,
40,
40,
48,
28,
27,
28,
17,
17,
13,
15,
13,
22,
17,
12,
14,
17,
5,
20,
9,
13,
10,
12,
9,
12,
12,
7,
5,
17,
8,
8,
4,
11,
9,
11,
12,
12,
12,
10,
6,
6,
12,
9,
10,
9,
6,
9,
2,
12,
14,
6,
7,
3,
7,
7,
9,
5,
4,
6,
9,
3,
6,
2,
5,
2,
3,
5,
7,
9,
9,
4,
3,
8,
1,
5,
5,
1,
6,
5,
6,
10,
2,
5,
2,
2,
2,
5,
7,
7,
1,
3,
4,
7,
2,
6,
5,
7,
4,
7,
5,
4,
3,
7,
7,
2,
4,
5,
3,
5,
1,
1,
6,
2,
4,
6,
4,
3,
5,
6,
5,
2,
2,
3,
1,
4,
2,
0,
1,
4,
2,
4,
3,
1,
1,
3,
1,
1,
4,
3,
1,
3,
4,
2,
2,
2,
3,
2,
2,
4,
1,
1,
3,
5,
1,
2,
3,
4,
3,
1,
0,
4,
2,
2,
4,
2,
1,
1,
3,
4,
2,
2,
1,
3,
2,
1,
4,
1,
0,
3,
2,
2,
3,
2,
2,
1,
2,
2,
3,
3,
2,
1,
7,
2,
0,
2,
1,
1,
1,
0,
2,
0,
0,
1,
0,
0,
3,
0,
4,
3,
0,
2,
1,
3,
2,
0,
1,
0,
1,
1,
5,
0,
1,
0,
3,
2,
1,
2,
1,
0,
3,
2,
2,
1,
2,
2,
2,
3,
2,
0,
3,
3,
2,
1,
1,
2,
1,
2,
0,
0,
0,
1,
2,
2,
2,
3,
0,
2,
1,
0,
1,
3,
1,
0,
0,
0,
0,
2,
0,
0,
1,
0,
1,
1,
0,
0,
0,
1,
0,
0,
0,
0,
0,
1,
1,
0,
1,
0,
1,
0,
0,
0,
0,
0,
0,
0,
1,
0,
0,
0,
1,
0,
0,
1,
0,
0,
2,
0,
0,
1,
1,
0,
0,
1,
0,
3,
0,
1,
0,
0,
2,
0,
0,
1,
0,
0,
0,
0,
0,
0,
0,
1,
0,
0,
1,
0,
1,
1,
0,
2,
0,
1,
0,
1,
0,
0,
0,
1,
1,
0,
0,
0,
0,
0,
0,
0,
0,
0,
1,
0,
0,
0,
1,
0,
0,
0,
0,
1,
1,
0,
1,
0,
0,
0,
1,
0,
1,
0,
0,
0,
0,
0,
1,
0,
0,
0,
0,
1,
0,
0,
0,
1,
0,
0,
0,
0,
0,
1,
0,
0,
1,
0,
0,
0,
0,
0,
0,
0,
1,
0,
1,
0,
1,
0,
1,
0,
0,
0,
1,
0,
0,
0,
0,
0,
0,
0,
0,
0,
1,
0,
0,
0,
0,
0,
0,
0,
0,
0,
0,
0,
0,
0,
0,
0,
0,
0,
0,
0,
0,
0,
2,
0,
0,
0,
0,
1,
0,
0,
1,
0,
0,
0,
0,
0,
0,
0,
0,
0,
0,
0,
0,
0,
0,
0,
0,
0,
0,
0,
0,
0,
0,
0,
0,
0,
0,
1,
0,
0,
0,
0,
0,
0,
0,
0,
0,
0,
0,
0,
0,
0,
0,
0,
0,
0,
0,
0,
0,
0,
0,
0,
0,
0,
0,
0,
0,
0,
0,
0,
0,
0,
0,
0,
0,
0,
0,
0,
0,
0,
0,
0,
0,
1,
0,
0,
0,
0,
0,
0,
0,
0,
0,
0,
0,
1,
0,
0,
0,
0,
0,
0,
0,
0,
0,
0,
0,
0,
0,
0,
0,
0,
0,
0,
0,
0,
0,
0,
0,
0,
0,
0,
0,
0,
0,
0,
0,
0,
0,
0,
0,
0,
0,
0,
0,
0,
0,
0,
0,
0,
0,
0,
0,
0,
0,
2,
0,
0,
0,
0,
0,
0,
0,
0,
0,
0,
0,
0,
0,
0,
0,
0,
0,
0,
0,
0,
0,
0,
0,
0,
0,
0,
0,
0,
0,
0,
0,
0,
0,
0,
0,
0,
0,
0,
0,
0,
0,
0,
0,
0,
0,
0,
0,
0,
0,
0,
0,
0,
0,
0,
0,
0,
0,
0,
0,
0,
0,
0,
0,
0,
0,
0,
0,
0,
0,
0,
0,
0,
0,
0,
0,
0,
0,
0,
0,
0,
0,
0,
0,
0,
0,
0,
0,
0,
0,
0,
0,
0,
0,
0,
0,
0,
0,
0,
0,
0,
0,
0,
0,
0,
0,
0,
0,
0,
0,
0,
0,
0,
0,
#ENDOFDATA   :