File: N132962/Standards/20 keV/Ni std.msa
#FORMAT      : EMSA/MAS Spectral Data File
#VERSION     : 1.0
#TITLE       : Ni std
#DATE        : 21-FEB-2025
#TIME        : 09:39
#OWNER       : Unknown
#NPOINTS     : 4096
#NCOLUMNS    : 1
#XUNITS      : eV
#YUNITS      : counts
#DATATYPE    : Y
#XPERCHAN    : 9.99778
#OFFSET      : 1.69135
#BEAMKV      : 20
#SIGNALTYPE  : EDS
#ELEVANGLE   : 35
#AZIMANGLE   : 0
#LIVETIME    : 1199.68
#REALTIME    : 1310.03
#PROBECUR    : 1.05789
#TAUWIND     : 0
#TDEADLYR    : 0
#TACTLYR     : 0.045
#TALWIND     : 0.025
#CHOFFSET    : 0.0
#XLABEL      : Energy (eV)
#YLABEL      : Counts
#EDSDET      : SD
##SPECIMEN   : Ni std
##D2STDCMP   : Ni,(Ni:100.0)
##DET_HASH   : 12273538-fd48-a23f-0a19-f1e6fa85caef
##CALIB_HASH : 6abaa72c-aa41-8738-0be9-f592914732f3
##WORKING    : 15.0 mm
##SAMPLE     : <BulkSample id="1">\n<mOrientation id="2">\n<double>0.0</double>\n<double>0.0</double>\n<double>-1.0</double>\n</mOrientation>\n</BulkSample>
##MULTISPEC  : 1.58398
##DET_NAME   : EDAX All
##DET_MODE   : MediumLE
#SPECTRUM    :
132,
162,
65,
106,
636,
2357,
6327,
13587,
28402,
36048,
26838,
22813,
24463,
27115,
29515,
33995,
41957,
50275,
50683,
49252,
53796,
62132,
83261,
158391,
302836,
359898,
370576,
758379,
1276817,
988519,
336830,
68644,
23077,
15385,
13313,
13055,
13506,
13890,
14566,
15194,
15865,
16732,
17553,
18150,
18954,
19684,
20106,
20563,
20909,
21988,
22368,
22613,
23348,
23706,
23920,
25164,
26804,
28661,
29109,
28343,
26528,
25213,
24286,
23652,
23949,
23631,
24181,
24659,
24608,
24998,
25424,
25662,
25641,
25730,
25770,
25944,
26433,
26572,
26480,
26364,
26544,
26352,
26324,
26430,
26638,
26541,
26618,
26651,
26763,
26614,
26353,
26227,
26471,
25987,
26137,
26346,
26196,
26045,
25770,
25745,
25716,
25322,
25424,
25131,
25400,
24797,
25020,
24907,
24973,
24724,
24580,
24421,
24295,
24181,
23946,
23912,
23905,
23347,
23477,
23460,
23107,
23142,
23034,
23105,
22838,
22497,
22401,
22251,
22279,
22068,
21834,
21738,
21595,
21676,
21741,
21388,
21025,
21104,
20742,
20595,
20724,
20522,
20527,
20392,
20141,
20093,
20064,
19638,
19993,
19893,
19644,
19205,
19410,
18943,
19251,
18860,
18766,
18511,
18591,
18373,
18213,
18124,
18213,
17942,
17914,
17803,
17652,
17675,
17249,
17482,
17166,
16922,
16785,
16886,
16588,
16564,
16508,
16750,
16669,
16829,
17096,
16842,
16353,
15980,
15876,
15861,
15848,
15651,
16105,
16416,
16776,
16999,
16823,
16567,
16362,
16925,
17338,
17421,
16872,
15685,
14718,
14609,
14505,
14300,
13890,
13928,
13800,
13892,
13996,
14108,
14595,
15708,
17022,
17723,
17430,
16380,
15231,
14168,
13549,
13052,
12738,
12727,
12700,
12510,
12314,
12193,
12213,
12164,
12240,
12200,
12142,
12164,
12422,
12526,
12608,
12724,
12786,
12683,
12497,
12976,
13024,
14066,
16584,
25668,
53985,
127361,
270588,
474973,
669393,
750653,
668760,
471666,
266899,
124142,
50119,
22338,
13508,
11246,
10698,
10429,
10165,
10118,
10220,
10236,
10284,
10516,
10710,
10841,
11757,
13040,
16693,
24697,
40622,
64107,
89572,
103934,
100932,
81117,
55447,
32343,
18105,
11198,
8293,
7302,
7032,
6942,
6785,
6881,
6868,
6790,
6736,
6680,
6654,
6629,
6656,
6889,
6671,
6712,
6740,
6602,
6776,
6763,
6723,
6715,
6700,
6519,
6410,
6293,
6216,
6204,
6194,
6200,
6165,
6139,
5990,
6024,
6005,
6129,
6001,
5937,
5927,
6059,
5830,
5833,
5710,
5720,
5745,
5702,
5741,
5559,
5714,
5599,
5482,
5435,
5333,
5415,
5398,
5404,
5399,
5334,
5309,
5248,
5306,
5140,
5099,
5187,
4956,
5095,
5129,
4962,
5035,
5053,
4899,
4854,
4934,
4870,
4860,
4795,
4772,
4564,
4601,
4577,
4540,
4623,
4465,
4610,
4312,
4393,
4498,
4347,
4284,
4292,
4394,
4232,
4284,
4110,
4155,
4167,
4137,
4205,
4033,
3991,
3944,
3850,
3744,
3771,
3842,
3839,
3768,
3771,
3588,
3706,
3660,
3702,
3584,
3533,
3528,
3543,
3458,
3430,
3495,
3566,
3447,
3490,
3344,
3241,
3317,
3303,
3252,
3267,
3265,
3179,
3260,
3136,
3027,
3061,
3091,
3016,
3017,
3026,
2921,
2938,
2939,
2778,
2807,
2829,
2732,
2684,
2743,
2663,
2699,
2668,
2630,
2604,
2581,
2699,
2514,
2542,
2544,
2424,
2435,
2460,
2438,
2464,
2435,
2382,
2389,
2293,
2287,
2212,
2220,
2182,
2264,
2159,
2247,
2171,
2127,
2078,
2149,
2089,
2030,
2066,
2059,
2013,
2048,
2058,
1905,
1901,
1866,
1829,
1866,
1907,
1747,
1705,
1767,
1708,
1835,
1716,
1670,
1769,
1684,
1652,
1564,
1676,
1600,
1593,
1548,
1536,
1517,
1552,
1552,
1563,
1508,
1532,
1648,
1699,
1888,
1928,
1951,
1861,
1759,
1635,
1558,
1407,
1332,
1297,
1268,
1235,
1208,
1254,
1222,
1191,
1216,
1140,
1180,
1184,
1147,
1161,
1093,
1079,
1164,
1090,
1143,
1146,
1081,
1181,
1084,
1125,
1025,
955,
937,
954,
918,
891,
874,
953,
857,
849,
813,
849,
851,
769,
822,
799,
768,
774,
753,
764,
739,
726,
796,
674,
734,
723,
698,
642,
645,
671,
692,
633,
626,
614,
624,
656,
568,
581,
581,
596,
536,
553,
530,
518,
546,
525,
518,
499,
500,
490,
467,
514,
481,
427,
429,
440,
458,
465,
438,
409,
375,
464,
413,
393,
360,
389,
386,
375,
362,
352,
306,
360,
306,
365,
334,
336,
305,
301,
280,
293,
284,
288,
290,
260,
247,
273,
248,
258,
278,
224,
223,
249,
227,
193,
200,
208,
198,
189,
154,
200,
174,
155,
184,
152,
148,
149,
158,
150,
136,
126,
136,
128,
132,
130,
114,
107,
86,
109,
95,
81,
73,
87,
80,
79,
79,
54,
58,
52,
49,
58,
36,
43,
44,
33,
31,
24,
29,
22,
13,
22,
15,
10,
15,
19,
13,
12,
11,
18,
7,
8,
16,
17,
12,
14,
11,
8,
9,
7,
15,
8,
7,
6,
15,
14,
9,
12,
17,
6,
11,
12,
6,
16,
4,
9,
15,
11,
9,
13,
5,
8,
9,
4,
8,
9,
11,
4,
8,
11,
10,
7,
7,
8,
9,
8,
4,
7,
9,
8,
10,
7,
7,
13,
6,
7,
9,
7,
6,
7,
6,
5,
6,
4,
3,
10,
8,
7,
9,
6,
6,
6,
6,
3,
7,
11,
2,
3,
6,
9,
6,
10,
4,
8,
4,
5,
3,
5,
2,
5,
1,
6,
4,
7,
7,
4,
9,
2,
7,
3,
7,
5,
2,
6,
3,
1,
4,
4,
0,
2,
3,
2,
2,
4,
4,
6,
2,
4,
6,
1,
1,
9,
2,
4,
3,
4,
5,
4,
1,
5,
3,
3,
5,
4,
5,
3,
6,
0,
1,
3,
3,
3,
3,
3,
1,
2,
9,
2,
3,
2,
1,
2,
3,
3,
9,
1,
1,
1,
0,
1,
2,
2,
1,
5,
1,
2,
5,
2,
4,
2,
1,
3,
2,
1,
3,
2,
5,
1,
0,
1,
0,
3,
4,
3,
3,
2,
3,
3,
1,
2,
4,
1,
1,
1,
1,
1,
1,
1,
0,
0,
0,
1,
1,
2,
2,
2,
1,
0,
1,
1,
3,
0,
1,
0,
1,
0,
1,
1,
1,
0,
1,
0,
2,
0,
0,
3,
1,
0,
1,
1,
0,
1,
1,
0,
0,
1,
3,
0,
1,
2,
1,
0,
0,
0,
0,
0,
2,
1,
1,
0,
0,
0,
0,
0,
0,
0,
0,
1,
0,
1,
1,
0,
0,
0,
0,
0,
0,
1,
1,
0,
0,
0,
0,
0,
0,
1,
0,
0,
0,
0,
0,
0,
0,
0,
0,
0,
0,
0,
0,
0,
1,
2,
1,
0,
0,
0,
0,
0,
0,
0,
0,
0,
0,
0,
0,
0,
0,
0,
0,
0,
0,
0,
0,
0,
0,
0,
0,
0,
0,
0,
0,
1,
0,
0,
0,
0,
0,
0,
0,
0,
0,
1,
0,
0,
0,
0,
0,
0,
0,
0,
0,
0,
1,
0,
0,
0,
0,
0,
0,
0,
0,
0,
0,
0,
0,
0,
0,
0,
0,
0,
1,
0,
0,
0,
1,
0,
0,
2,
0,
0,
0,
0,
0,
0,
0,
0,
0,
0,
0,
0,
0,
0,
0,
1,
0,
1,
0,
0,
0,
0,
0,
1,
0,
0,
0,
0,
0,
0,
0,
0,
0,
0,
0,
0,
0,
0,
0,
0,
0,
0,
0,
0,
0,
0,
0,
0,
0,
0,
0,
0,
0,
0,
0,
0,
0,
1,
1,
0,
0,
0,
0,
0,
0,
0,
0,
1,
0,
0,
0,
0,
0,
0,
0,
0,
0,
0,
0,
0,
0,
0,
0,
0,
0,
1,
0,
0,
0,
0,
0,
0,
0,
0,
0,
0,
0,
0,
0,
0,
0,
0,
0,
0,
0,
0,
0,
0,
0,
0,
0,
0,
0,
0,
0,
0,
0,
0,
0,
0,
0,
0,
0,
0,
0,
0,
0,
0,
0,
0,
0,
0,
0,
0,
0,
0,
0,
0,
0,
0,
0,
0,
0,
0,
0,
0,
0,
0,
0,
0,
0,
0,
0,
0,
0,
0,
0,
0,
0,
0,
0,
0,
0,
0,
0,
0,
0,
0,
0,
0,
0,
0,
0,
0,
0,
0,
0,
0,
0,
0,
0,
0,
0,
0,
0,
0,
0,
0,
0,
0,
0,
0,
0,
0,
0,
0,
0,
0,
0,
0,
0,
0,
0,
0,
0,
0,
0,
0,
0,
0,
0,
0,
0,
0,
0,
0,
0,
0,
0,
0,
0,
0,
0,
0,
0,
0,
0,
0,
0,
0,
0,
0,
0,
0,
0,
0,
0,
0,
0,
0,
0,
0,
0,
0,
0,
0,
0,
0,
0,
0,
0,
0,
0,
0,
0,
0,
0,
0,
0,
0,
0,
0,
0,
0,
0,
0,
0,
0,
0,
0,
0,
0,
0,
0,
0,
0,
0,
0,
0,
0,
0,
0,
0,
0,
0,
0,
0,
0,
0,
0,
0,
0,
0,
0,
0,
0,
0,
0,
0,
0,
0,
0,
0,
0,
0,
0,
0,
0,
0,
0,
0,
0,
0,
0,
0,
0,
0,
0,
0,
0,
0,
0,
#ENDOFDATA   :