File: N132962/Standards/20 keV/PbGe std.msa
#FORMAT      : EMSA/MAS Spectral Data File
#VERSION     : 1.0
#TITLE       : PbGe std
#DATE        : 01-MAY-2025
#TIME        : 09:32
#OWNER       : Unknown
#NPOINTS     : 4096
#NCOLUMNS    : 1
#XUNITS      : eV
#YUNITS      : counts
#DATATYPE    : Y
#XPERCHAN    : 9.99778
#OFFSET      : 1.69135
#BEAMKV      : 20
#SIGNALTYPE  : EDS
#ELEVANGLE   : 35
#AZIMANGLE   : 0
#LIVETIME    : 1682.01
#REALTIME    : 1840.53
#PROBECUR    : 1.04225
#TAUWIND     : 0
#TDEADLYR    : 0
#TACTLYR     : 0.045
#TALWIND     : 0.025
#CHOFFSET    : 0.0
#XLABEL      : Energy (eV)
#YLABEL      : Counts
#EDSDET      : SD
##SPECIMEN   : PbGe std
##D2STDCMP   : PbGe,(Ge:25.955),(Pb:74.045)
##DET_HASH   : 12273538-fd48-a23f-0a19-f1e6fa85caef
##CALIB_HASH : 6abaa72c-aa41-8738-0be9-f592914732f3
##WORKING    : 15.0 mm
##SAMPLE     : <BulkSample id="1">\n<mOrientation id="2">\n<double>0.0</double>\n<double>0.0</double>\n<double>-1.0</double>\n</mOrientation>\n</BulkSample>
##MULTISPEC  : 1.97802
##DET_NAME   : EDAX All
##DET_MODE   : MediumLE
#SPECTRUM    :
189,
191,
80,
237,
1258,
5142,
14451,
36483,
86200,
108683,
63195,
36932,
34832,
37166,
42411,
76856,
211867,
377691,
283164,
103916,
55320,
46696,
44393,
49711,
48463,
44295,
43645,
46155,
49455,
51087,
50415,
52376,
56934,
69454,
89474,
98344,
92026,
124615,
326690,
722081,
888508,
589970,
241924,
92636,
56767,
47916,
46465,
46275,
46468,
47617,
48489,
48556,
49066,
49160,
50062,
51100,
53699,
58365,
65435,
76230,
93270,
101071,
87203,
65975,
55631,
53295,
52134,
51201,
52020,
52857,
54963,
59966,
65406,
70999,
81977,
126449,
276959,
587025,
860426,
832818,
668219,
611583,
523057,
314917,
138195,
65768,
54776,
65027,
74538,
73052,
57404,
44307,
37873,
35872,
36183,
36626,
37998,
38645,
39132,
39318,
40622,
44054,
46430,
47148,
45295,
42549,
39429,
37714,
35940,
35270,
34722,
34691,
34720,
34916,
35184,
35298,
35775,
36479,
37063,
36190,
35538,
35293,
35028,
34812,
34929,
34944,
34490,
34086,
33924,
33520,
33497,
33126,
33335,
33436,
33067,
33004,
33356,
33098,
33019,
32746,
32468,
32408,
32638,
32519,
32506,
32362,
32689,
32794,
33851,
35071,
36937,
36083,
34595,
33142,
32313,
31922,
32152,
32306,
32175,
32168,
31672,
31951,
31839,
31455,
31412,
31427,
30870,
30530,
30554,
30229,
30409,
29929,
29865,
29381,
29448,
29430,
29066,
29142,
29122,
29040,
29005,
28824,
28582,
28440,
28517,
28573,
28245,
27941,
27848,
28010,
27901,
27870,
27393,
27458,
27088,
27083,
26716,
26817,
26623,
26612,
26326,
26236,
25990,
25961,
25697,
25687,
25802,
25372,
25664,
25770,
25933,
26258,
27387,
27439,
27377,
26532,
25711,
24747,
24404,
23835,
24178,
23830,
23773,
23619,
23420,
23422,
23185,
23275,
22924,
23085,
22802,
22582,
22555,
22971,
22704,
22478,
22289,
22231,
22051,
21854,
21781,
21617,
21405,
21244,
21170,
21371,
21805,
22280,
22401,
22470,
22388,
21493,
20855,
20775,
20413,
20073,
20005,
19693,
19678,
19554,
19362,
19304,
19273,
19451,
19222,
18993,
19001,
18839,
18939,
18540,
18680,
18604,
18516,
18610,
18375,
18327,
18218,
18001,
17691,
17789,
17380,
17629,
17245,
16960,
17102,
17194,
17052,
17103,
16869,
16807,
16818,
16466,
16445,
16410,
16297,
16204,
16124,
16050,
16056,
15811,
16053,
16049,
16468,
16715,
17921,
18459,
18964,
18408,
17465,
16597,
15665,
15204,
14980,
14910,
14873,
14715,
14711,
14802,
14413,
14451,
14575,
15132,
16007,
19352,
27189,
43416,
68910,
99911,
126051,
135975,
125744,
99041,
68048,
42684,
26381,
18084,
14717,
13447,
13568,
13157,
12904,
12864,
13087,
13621,
14728,
16994,
21794,
28343,
39602,
51929,
64453,
71720,
70454,
59822,
46303,
32043,
22030,
16428,
13759,
12667,
12907,
14005,
16093,
19941,
23678,
26530,
27498,
25384,
21808,
17628,
14310,
12338,
10856,
10413,
10131,
9856,
9813,
9814,
9691,
9466,
9427,
9594,
9275,
8986,
8952,
9080,
8924,
8852,
8997,
8838,
8773,
8601,
8618,
8593,
8452,
8341,
8391,
8227,
8184,
8041,
8190,
8279,
8285,
8733,
8763,
8797,
8623,
8887,
8947,
8586,
8528,
8523,
8283,
8142,
9037,
10486,
13460,
17407,
22489,
26334,
28426,
27734,
24038,
19528,
15199,
11779,
9718,
8395,
7815,
7653,
7451,
7398,
7367,
7427,
7228,
7055,
6901,
6227,
6117,
5915,
5702,
5668,
5484,
5581,
5438,
5498,
5238,
5353,
5319,
5191,
5073,
5122,
5131,
5187,
4912,
4954,
4904,
4905,
4838,
4922,
4762,
4749,
4692,
4728,
4700,
4520,
4564,
4446,
4468,
4484,
4249,
4369,
4415,
4340,
4204,
4285,
4267,
4117,
4147,
4047,
3934,
3978,
3966,
3879,
3884,
4009,
3982,
4179,
4409,
4775,
5041,
5383,
5463,
5056,
4816,
4398,
3990,
3793,
3567,
3503,
3430,
3479,
3485,
3610,
3607,
3674,
3522,
3479,
3280,
3242,
3072,
2977,
2892,
2873,
2776,
2689,
2740,
2714,
2721,
2669,
2605,
2570,
2617,
2541,
2522,
2596,
2521,
2415,
2360,
2387,
2296,
2382,
2251,
2238,
2263,
2201,
2225,
2124,
2046,
2045,
2053,
2035,
1972,
2035,
1998,
1977,
1896,
1961,
1821,
1848,
1882,
1775,
1746,
1684,
1689,
1674,
1640,
1714,
1722,
1670,
1594,
1628,
1588,
1612,
1486,
1552,
1487,
1478,
1452,
1462,
1399,
1387,
1337,
1347,
1281,
1297,
1278,
1240,
1174,
1217,
1173,
1190,
1221,
1240,
1115,
1179,
1145,
1108,
1077,
1071,
1043,
993,
985,
998,
957,
981,
964,
945,
948,
915,
894,
897,
836,
892,
820,
823,
805,
774,
762,
781,
696,
718,
663,
714,
669,
686,
661,
604,
619,
570,
575,
565,
566,
515,
503,
519,
535,
505,
492,
426,
439,
426,
445,
410,
411,
369,
347,
392,
343,
344,
316,
327,
286,
285,
271,
253,
254,
259,
247,
243,
195,
198,
194,
183,
185,
167,
146,
147,
140,
132,
104,
109,
97,
79,
61,
55,
39,
43,
39,
38,
32,
37,
33,
37,
25,
23,
25,
29,
35,
36,
34,
40,
36,
31,
35,
41,
30,
33,
31,
21,
40,
19,
28,
28,
29,
37,
33,
16,
30,
29,
18,
22,
19,
22,
27,
18,
28,
18,
19,
32,
14,
16,
13,
15,
22,
21,
22,
24,
15,
14,
14,
19,
19,
12,
22,
16,
12,
8,
13,
14,
16,
15,
13,
20,
11,
8,
18,
13,
17,
9,
13,
16,
11,
15,
14,
15,
16,
15,
18,
14,
12,
10,
20,
19,
20,
16,
16,
7,
8,
11,
15,
11,
13,
13,
13,
12,
17,
13,
5,
10,
12,
14,
9,
10,
9,
13,
12,
16,
9,
9,
12,
7,
8,
8,
13,
11,
15,
7,
9,
13,
7,
7,
11,
8,
7,
11,
3,
10,
10,
4,
8,
8,
5,
5,
11,
9,
9,
5,
15,
4,
6,
5,
8,
1,
8,
3,
8,
8,
6,
8,
13,
6,
11,
7,
7,
3,
9,
5,
6,
8,
13,
12,
6,
11,
4,
9,
3,
8,
7,
8,
5,
6,
11,
11,
10,
8,
11,
11,
4,
6,
12,
4,
5,
6,
3,
6,
3,
6,
6,
5,
8,
4,
9,
4,
7,
4,
5,
2,
7,
9,
3,
7,
5,
1,
3,
4,
0,
5,
2,
7,
6,
3,
8,
4,
5,
0,
4,
1,
2,
3,
5,
5,
6,
3,
5,
3,
3,
3,
6,
3,
5,
2,
1,
3,
6,
4,
5,
4,
6,
4,
7,
2,
0,
2,
3,
2,
5,
1,
4,
3,
3,
1,
3,
1,
2,
1,
4,
2,
4,
5,
0,
0,
2,
0,
1,
0,
1,
5,
2,
1,
2,
0,
3,
0,
3,
1,
1,
0,
0,
2,
2,
1,
3,
0,
1,
2,
1,
2,
0,
0,
1,
4,
0,
3,
1,
1,
3,
1,
2,
1,
2,
2,
3,
2,
1,
1,
0,
2,
2,
2,
1,
4,
0,
2,
1,
1,
0,
0,
0,
0,
2,
2,
1,
1,
0,
1,
0,
0,
2,
0,
0,
0,
1,
2,
1,
1,
1,
1,
1,
0,
0,
0,
0,
0,
1,
2,
0,
0,
1,
0,
0,
2,
1,
0,
0,
0,
0,
1,
0,
2,
1,
1,
1,
0,
1,
1,
1,
2,
0,
0,
0,
0,
2,
0,
0,
1,
1,
0,
1,
1,
0,
0,
0,
1,
0,
0,
1,
0,
1,
0,
2,
0,
0,
0,
1,
0,
0,
0,
0,
0,
0,
0,
0,
1,
0,
0,
1,
2,
0,
0,
0,
0,
0,
1,
0,
1,
1,
1,
0,
0,
0,
1,
0,
0,
0,
0,
0,
0,
1,
0,
0,
0,
0,
0,
0,
0,
1,
0,
0,
0,
0,
0,
0,
0,
0,
0,
1,
0,
0,
0,
1,
0,
0,
0,
0,
0,
0,
0,
0,
0,
0,
0,
0,
0,
0,
0,
0,
0,
0,
0,
0,
0,
0,
0,
0,
0,
0,
0,
0,
0,
0,
0,
0,
0,
0,
0,
0,
0,
0,
0,
0,
0,
0,
0,
0,
0,
0,
0,
1,
0,
0,
0,
0,
0,
0,
0,
1,
0,
0,
0,
0,
0,
0,
0,
0,
0,
0,
0,
0,
0,
0,
0,
0,
0,
0,
0,
0,
0,
0,
0,
0,
0,
0,
0,
0,
0,
0,
0,
0,
0,
0,
0,
0,
0,
0,
0,
0,
0,
0,
0,
0,
0,
0,
0,
0,
0,
0,
0,
0,
0,
0,
0,
0,
0,
0,
0,
0,
0,
0,
0,
0,
0,
0,
0,
0,
0,
0,
0,
0,
0,
0,
0,
0,
0,
0,
0,
0,
0,
0,
0,
0,
0,
0,
0,
0,
0,
0,
0,
0,
0,
0,
0,
0,
0,
0,
0,
0,
0,
0,
0,
0,
0,
0,
0,
0,
0,
0,
0,
0,
0,
1,
0,
0,
0,
0,
0,
0,
0,
0,
0,
0,
0,
0,
0,
0,
0,
0,
0,
0,
0,
0,
0,
0,
0,
0,
0,
0,
0,
0,
0,
0,
0,
0,
0,
0,
0,
0,
0,
0,
0,
0,
0,
0,
0,
0,
0,
0,
0,
0,
0,
0,
0,
0,
0,
0,
0,
0,
0,
0,
0,
0,
0,
0,
0,
0,
0,
0,
0,
0,
0,
0,
0,
0,
0,
0,
0,
#ENDOFDATA   :