File: N132962/Standards/20 keV/PbO std.msa
#FORMAT      : EMSA/MAS Spectral Data File
#VERSION     : 1.0
#TITLE       : PbO std
#DATE        : 01-MAY-2025
#TIME        : 09:44
#OWNER       : Unknown
#NPOINTS     : 4096
#NCOLUMNS    : 1
#XUNITS      : eV
#YUNITS      : counts
#DATATYPE    : Y
#XPERCHAN    : 9.99778
#OFFSET      : 1.69135
#BEAMKV      : 20
#SIGNALTYPE  : EDS
#ELEVANGLE   : 35
#AZIMANGLE   : 0
#LIVETIME    : 1200.61
#REALTIME    : 1351.35
#PROBECUR    : 1.04225
#TAUWIND     : 0
#TDEADLYR    : 0
#TACTLYR     : 0.045
#TALWIND     : 0.025
#CHOFFSET    : 0.0
#XLABEL      : Energy (eV)
#YLABEL      : Counts
#EDSDET      : SD
##SPECIMEN   : PbO std
##D2STDCMP   : PbO,(O:7.168),(Pb:92.832)
##DET_HASH   : 12273538-fd48-a23f-0a19-f1e6fa85caef
##CALIB_HASH : 6abaa72c-aa41-8738-0be9-f592914732f3
##WORKING    : 15.0 mm
##SAMPLE     : <BulkSample id="1">\n<mOrientation id="2">\n<double>0.0</double>\n<double>0.0</double>\n<double>-1.0</double>\n</mOrientation>\n</BulkSample>
##MULTISPEC  : 36.6482
##DET_NAME   : EDAX All
##DET_MODE   : MediumLE
#SPECTRUM    :
131,
136,
67,
363,
2648,
11478,
30922,
80009,
205778,
258503,
120408,
37744,
27436,
28217,
28172,
38200,
79836,
130961,
104350,
59386,
56049,
58743,
68967,
70173,
50903,
36611,
33671,
35023,
37633,
38274,
38334,
39138,
40355,
41002,
43531,
44575,
44353,
44096,
45033,
45714,
47332,
48404,
49798,
50556,
50965,
52293,
53128,
54021,
55267,
56411,
57230,
57013,
57292,
57525,
57925,
58534,
61252,
66775,
75542,
92884,
121208,
133669,
112618,
80435,
64481,
60218,
58206,
57195,
57098,
58872,
62639,
68637,
77288,
85111,
102595,
169912,
398215,
859916,
1265809,
1220939,
976226,
889457,
753936,
445467,
181562,
73818,
57256,
69639,
80929,
74532,
55741,
39376,
32413,
30331,
30453,
30642,
32216,
33527,
34529,
35964,
38022,
40529,
42220,
43149,
41452,
38398,
34766,
32252,
30644,
29550,
29113,
29260,
29073,
29405,
29406,
29189,
29966,
29941,
30262,
30010,
29095,
29191,
29255,
29772,
30237,
30286,
30063,
29563,
28950,
28846,
28719,
28637,
28765,
28596,
28769,
28658,
28911,
28968,
29076,
29329,
29257,
28723,
29417,
29173,
28962,
29051,
29219,
29681,
30818,
32380,
33618,
33640,
31881,
30324,
29891,
30306,
30553,
30799,
31322,
31015,
30900,
30865,
30120,
29818,
29535,
29578,
28739,
28453,
28383,
28189,
28000,
27849,
28075,
28225,
27927,
27887,
27840,
27738,
27583,
27737,
27683,
27723,
27324,
27184,
27225,
27546,
26777,
26546,
26999,
26849,
26622,
26573,
26532,
26286,
26286,
26310,
26106,
26187,
26046,
25925,
25884,
26117,
25358,
25624,
25467,
25297,
25283,
25181,
25204,
25370,
25567,
25835,
27084,
27023,
26875,
26037,
25244,
24409,
23952,
24193,
23979,
23994,
23826,
23614,
23803,
23581,
23127,
23545,
23314,
23118,
22568,
22910,
22880,
22786,
22897,
22683,
22517,
22583,
22201,
22026,
22088,
21776,
21865,
21469,
21631,
21755,
22160,
22245,
22589,
22634,
22505,
21922,
21132,
21264,
21008,
20376,
20598,
20426,
20151,
20267,
20167,
19987,
19835,
19902,
19750,
19509,
19413,
19326,
19455,
19201,
19034,
18991,
18978,
19047,
19040,
18853,
18922,
18709,
18533,
18343,
18592,
18251,
18204,
17992,
17827,
17618,
17717,
17628,
17748,
17416,
17521,
17118,
17402,
17068,
17308,
17342,
16744,
16833,
16840,
16627,
16911,
16868,
17329,
18166,
19569,
20176,
20964,
20078,
19228,
17764,
17151,
16282,
15943,
15502,
15408,
15324,
15477,
15444,
15256,
15034,
14880,
14744,
14850,
14691,
14667,
14600,
14337,
14474,
14604,
14253,
14458,
14309,
14256,
14103,
14053,
13901,
13909,
13630,
13586,
13635,
13776,
13538,
14113,
14960,
16399,
19514,
25864,
35428,
50377,
68755,
84795,
95489,
92805,
79452,
58398,
40074,
26595,
18635,
14445,
12926,
12224,
12079,
12011,
11702,
11586,
11520,
11588,
11300,
11467,
11293,
11159,
11085,
10887,
10843,
10822,
10893,
10949,
10850,
11150,
11015,
10747,
10669,
10448,
10038,
9988,
10007,
10034,
9913,
9656,
9725,
9557,
9555,
9436,
9520,
9542,
9242,
9214,
9132,
9305,
9188,
9139,
9453,
9545,
9731,
9799,
10023,
9966,
9765,
9848,
9750,
9570,
9464,
9382,
9829,
10642,
12657,
16566,
22612,
29308,
35420,
38342,
37174,
32409,
25286,
19285,
14660,
11644,
10096,
9276,
8786,
8830,
8806,
8921,
8741,
8505,
8234,
7693,
7191,
6660,
6446,
6373,
6322,
6124,
6037,
6134,
6001,
5812,
5815,
5806,
5819,
5713,
5649,
5527,
5571,
5509,
5457,
5467,
5301,
5192,
5279,
5314,
5157,
5224,
5067,
5113,
4813,
5038,
4995,
4868,
4934,
4822,
4733,
4711,
4843,
4660,
4676,
4860,
4748,
4567,
4546,
4500,
4367,
4356,
4373,
4247,
4493,
4487,
4807,
5322,
5674,
6167,
6398,
6585,
6153,
5763,
5073,
4490,
4244,
4038,
4029,
3984,
4080,
4123,
4053,
4208,
4110,
4007,
3973,
3737,
3569,
3356,
3376,
3128,
3199,
3114,
3087,
3046,
3038,
2880,
2899,
2948,
2934,
2842,
2786,
2893,
2860,
2774,
2689,
2679,
2663,
2518,
2504,
2462,
2517,
2499,
2401,
2454,
2307,
2307,
2287,
2276,
2202,
2180,
2213,
2180,
2130,
2155,
2132,
2075,
2012,
1979,
1941,
2050,
2021,
1918,
1914,
1897,
1840,
1893,
1827,
1822,
1715,
1807,
1795,
1794,
1800,
1744,
1619,
1621,
1700,
1589,
1612,
1545,
1557,
1480,
1482,
1493,
1405,
1413,
1480,
1405,
1406,
1288,
1299,
1337,
1315,
1280,
1206,
1229,
1146,
1133,
1095,
1183,
1055,
1120,
1126,
1031,
1024,
1028,
987,
978,
956,
960,
917,
887,
909,
902,
848,
886,
851,
771,
774,
776,
796,
775,
688,
727,
703,
652,
679,
618,
614,
644,
574,
552,
582,
537,
524,
531,
466,
475,
503,
441,
450,
417,
399,
419,
348,
360,
360,
354,
353,
362,
312,
280,
272,
246,
222,
219,
205,
221,
210,
195,
197,
164,
155,
153,
131,
117,
112,
81,
66,
92,
67,
56,
46,
58,
50,
38,
42,
35,
45,
38,
33,
26,
45,
41,
45,
21,
36,
37,
30,
33,
37,
36,
41,
20,
28,
28,
22,
30,
26,
36,
30,
34,
31,
36,
35,
37,
38,
39,
50,
50,
56,
30,
27,
37,
20,
25,
17,
18,
27,
23,
28,
18,
26,
19,
22,
22,
19,
22,
17,
24,
30,
23,
14,
18,
22,
25,
23,
17,
23,
18,
11,
26,
21,
17,
15,
24,
21,
14,
23,
7,
27,
21,
22,
19,
12,
17,
18,
6,
8,
16,
25,
10,
13,
15,
12,
16,
13,
13,
19,
9,
25,
10,
11,
15,
11,
18,
14,
12,
17,
6,
22,
16,
16,
21,
14,
9,
14,
23,
11,
10,
17,
14,
9,
10,
18,
8,
11,
9,
12,
13,
13,
11,
13,
14,
19,
10,
12,
8,
6,
10,
4,
6,
8,
10,
10,
5,
12,
6,
10,
7,
9,
10,
7,
10,
2,
10,
18,
11,
10,
10,
12,
12,
13,
11,
9,
10,
8,
17,
13,
13,
9,
13,
7,
13,
10,
11,
13,
14,
10,
12,
10,
10,
4,
18,
11,
12,
10,
10,
15,
5,
9,
7,
14,
9,
8,
10,
11,
21,
11,
9,
4,
7,
10,
5,
4,
5,
9,
4,
5,
4,
6,
7,
12,
5,
10,
9,
1,
8,
5,
4,
3,
9,
6,
7,
1,
3,
7,
4,
7,
5,
7,
7,
4,
5,
4,
5,
6,
3,
6,
2,
4,
5,
3,
1,
4,
6,
3,
2,
0,
6,
6,
5,
4,
4,
3,
5,
4,
0,
7,
1,
3,
2,
4,
7,
3,
1,
5,
6,
6,
3,
4,
6,
7,
7,
5,
3,
2,
3,
2,
4,
0,
3,
3,
1,
1,
1,
6,
1,
4,
1,
7,
2,
2,
1,
1,
0,
1,
2,
2,
0,
2,
3,
7,
3,
2,
0,
7,
6,
2,
1,
1,
1,
1,
1,
2,
1,
1,
2,
1,
2,
4,
0,
3,
0,
3,
2,
4,
1,
1,
2,
0,
1,
2,
0,
2,
2,
2,
1,
3,
3,
4,
0,
3,
1,
1,
2,
0,
1,
2,
1,
0,
1,
2,
3,
0,
0,
1,
0,
1,
2,
1,
1,
1,
3,
1,
0,
0,
1,
4,
1,
1,
0,
1,
1,
0,
0,
1,
1,
0,
0,
1,
1,
0,
1,
1,
3,
0,
0,
0,
1,
2,
1,
1,
1,
0,
1,
0,
1,
3,
2,
1,
0,
0,
1,
0,
0,
0,
0,
1,
0,
1,
0,
0,
0,
0,
3,
0,
0,
0,
1,
1,
1,
0,
2,
0,
0,
0,
1,
0,
1,
1,
0,
1,
1,
0,
0,
1,
1,
0,
0,
0,
0,
1,
0,
0,
1,
0,
2,
0,
0,
0,
0,
0,
0,
0,
0,
0,
0,
0,
0,
0,
0,
1,
0,
0,
0,
1,
0,
0,
0,
0,
0,
0,
1,
1,
0,
0,
0,
0,
0,
1,
0,
0,
0,
0,
0,
0,
0,
0,
0,
0,
0,
1,
0,
0,
0,
0,
0,
2,
0,
0,
0,
0,
0,
0,
0,
0,
0,
1,
0,
0,
0,
0,
0,
0,
0,
0,
0,
0,
0,
0,
0,
0,
0,
0,
0,
0,
0,
0,
0,
0,
0,
0,
1,
1,
0,
0,
0,
0,
0,
0,
0,
0,
0,
0,
0,
0,
0,
0,
0,
0,
0,
0,
0,
0,
0,
0,
1,
0,
0,
0,
0,
0,
0,
0,
0,
0,
0,
0,
0,
0,
0,
0,
0,
0,
0,
0,
0,
0,
0,
1,
0,
0,
0,
0,
0,
0,
0,
0,
0,
0,
0,
0,
0,
0,
0,
0,
0,
0,
0,
0,
0,
0,
0,
0,
0,
0,
0,
0,
0,
0,
0,
0,
0,
0,
0,
0,
0,
0,
0,
0,
0,
0,
0,
0,
0,
0,
0,
0,
0,
0,
0,
0,
0,
0,
0,
0,
0,
0,
0,
0,
0,
0,
0,
0,
0,
0,
0,
0,
0,
0,
0,
0,
0,
0,
0,
0,
0,
0,
0,
0,
0,
0,
0,
0,
0,
0,
0,
0,
0,
0,
0,
0,
0,
0,
0,
0,
0,
0,
0,
0,
0,
0,
0,
0,
0,
0,
0,
0,
0,
0,
0,
0,
0,
0,
0,
0,
0,
0,
0,
0,
0,
0,
#ENDOFDATA   :