File: N132962/Standards/20 keV/PbTe std.msa
#FORMAT      : EMSA/MAS Spectral Data File
#VERSION     : 1.0
#TITLE       : PbTe std
#DATE        : 01-MAY-2025
#TIME        : 09:38
#OWNER       : Unknown
#NPOINTS     : 4096
#NCOLUMNS    : 1
#XUNITS      : eV
#YUNITS      : counts
#DATATYPE    : Y
#XPERCHAN    : 9.99778
#OFFSET      : 1.69135
#BEAMKV      : 20
#SIGNALTYPE  : EDS
#ELEVANGLE   : 35
#AZIMANGLE   : 0
#LIVETIME    : 961.017
#REALTIME    : 1068.99
#PROBECUR    : 1.04225
#TAUWIND     : 0
#TDEADLYR    : 0
#TACTLYR     : 0.045
#TALWIND     : 0.025
#CHOFFSET    : 0.0
#XLABEL      : Energy (eV)
#YLABEL      : Counts
#EDSDET      : SD
##SPECIMEN   : PbTe std
##D2STDCMP   : PbTe,(Te:38.1123),(Pb:61.8877)
##DET_HASH   : 12273538-fd48-a23f-0a19-f1e6fa85caef
##CALIB_HASH : 6abaa72c-aa41-8738-0be9-f592914732f3
##WORKING    : 15.0 mm
##SAMPLE     : <BulkSample id="1">\n<mOrientation id="2">\n<double>0.0</double>\n<double>0.0</double>\n<double>-1.0</double>\n</mOrientation>\n</BulkSample>
##MULTISPEC  : 1.23995
##DET_NAME   : EDAX All
##DET_MODE   : MediumLE
#SPECTRUM    :
89,
99,
38,
335,
2593,
11247,
26984,
46040,
75848,
84841,
51375,
30814,
28396,
32546,
45291,
56178,
51918,
46254,
40165,
37467,
36916,
31168,
28295,
30873,
29868,
28138,
28910,
29543,
29760,
28787,
27999,
27625,
27069,
27069,
27143,
27941,
28024,
28881,
29658,
30118,
30832,
31917,
32602,
33469,
34046,
34768,
35646,
36354,
36935,
38108,
38732,
38772,
38533,
39069,
39632,
40766,
41352,
45231,
49955,
58545,
71778,
77587,
65986,
51101,
43595,
42177,
41756,
42474,
42401,
42085,
42928,
45983,
50034,
53917,
62671,
94389,
204256,
427948,
624635,
603666,
484756,
444611,
379928,
230000,
101870,
48954,
40179,
46203,
53137,
50939,
40867,
31909,
27509,
26317,
25972,
26691,
27292,
27885,
29120,
30051,
31011,
32581,
33680,
34407,
32975,
31139,
29080,
27856,
27481,
28576,
31490,
33870,
33037,
30487,
27606,
26463,
26095,
26454,
27705,
28820,
31165,
33120,
45656,
85157,
162429,
244993,
261537,
194061,
106891,
52761,
35219,
39126,
62324,
102636,
137469,
143011,
117428,
85616,
61956,
46125,
38359,
39949,
49377,
59060,
58747,
47620,
35338,
27667,
25699,
26974,
31022,
34914,
37914,
36480,
31311,
26484,
23648,
22946,
23961,
26316,
27845,
28649,
26753,
24539,
22615,
21802,
20936,
20627,
20160,
19937,
20129,
19963,
19867,
20075,
19730,
19740,
19718,
19823,
19956,
19644,
19724,
19365,
19522,
19287,
19446,
19521,
19304,
19476,
19030,
19439,
19173,
19249,
19030,
19242,
19110,
18881,
19071,
18667,
18899,
18608,
18612,
18557,
18530,
18816,
18488,
18584,
18772,
18513,
18705,
18457,
18548,
19196,
20055,
20340,
20036,
19558,
18672,
18135,
17759,
17739,
17299,
17366,
17542,
17197,
17180,
17186,
17334,
16988,
17035,
16711,
16802,
16966,
16703,
16625,
16406,
16679,
16749,
16048,
16199,
16271,
16052,
15858,
16017,
15769,
16176,
15763,
16297,
16362,
16678,
17006,
16671,
16111,
15703,
15147,
15126,
15144,
15018,
14948,
14946,
14459,
14912,
14727,
14498,
14649,
14474,
14544,
14249,
14344,
14327,
14240,
14088,
14169,
13921,
13950,
13978,
13816,
13810,
13709,
13555,
13359,
13191,
13248,
13310,
13244,
12960,
12961,
12941,
12846,
13040,
12871,
12609,
12652,
12479,
12748,
12616,
12488,
12479,
12370,
12184,
11907,
12297,
12249,
12570,
12967,
13581,
14258,
14260,
13967,
13394,
12858,
12108,
11847,
11470,
11369,
11084,
11245,
11170,
11140,
11117,
11100,
10823,
11012,
10782,
10711,
10644,
10836,
10823,
10821,
10683,
10525,
10620,
10165,
10189,
10313,
10087,
10200,
10023,
10000,
9946,
9948,
9913,
9880,
10151,
10520,
11243,
13169,
16253,
21424,
29249,
38825,
48283,
53149,
52278,
44098,
34215,
24025,
16500,
12238,
10187,
9332,
9061,
8727,
8468,
8705,
8501,
8612,
8281,
8228,
8308,
8183,
8244,
8157,
8029,
8031,
7991,
7982,
8030,
8016,
8059,
7961,
7933,
7665,
7455,
7486,
7474,
7485,
7232,
7299,
7178,
7237,
7037,
6929,
6997,
6943,
6749,
6827,
6688,
6846,
6663,
6733,
6808,
6813,
7048,
6977,
6951,
7085,
7032,
7015,
6944,
7023,
6811,
6792,
6843,
6770,
7357,
8532,
10673,
14017,
17647,
20663,
22177,
21780,
18795,
15444,
12022,
9291,
7726,
6792,
6446,
6019,
6091,
6186,
6086,
6296,
6039,
5747,
5626,
5098,
4828,
4854,
4684,
4697,
4558,
4634,
4441,
4604,
4515,
4400,
4317,
4352,
4303,
4307,
4188,
4311,
4120,
4128,
4057,
4026,
3977,
4104,
4073,
3879,
3748,
3935,
3830,
3884,
3727,
3697,
3689,
3549,
3698,
3669,
3580,
3523,
3498,
3527,
3683,
3525,
3510,
3475,
3363,
3402,
3334,
3411,
3332,
3343,
3374,
3638,
3722,
3924,
4274,
4359,
4439,
4172,
3866,
3534,
3372,
3051,
3000,
3055,
2972,
2931,
2954,
2867,
3119,
3025,
2923,
2897,
2784,
2690,
2547,
2487,
2331,
2400,
2362,
2350,
2340,
2285,
2266,
2304,
2292,
2294,
2209,
2172,
2190,
2183,
2183,
2053,
2072,
2010,
1993,
1941,
1923,
1940,
1859,
1912,
1855,
1856,
1761,
1819,
1692,
1723,
1736,
1667,
1707,
1639,
1687,
1695,
1617,
1582,
1651,
1575,
1512,
1496,
1439,
1522,
1450,
1502,
1469,
1373,
1410,
1395,
1343,
1357,
1370,
1370,
1338,
1334,
1329,
1309,
1208,
1194,
1133,
1175,
1199,
1178,
1120,
1170,
1107,
1117,
1059,
1093,
1007,
1002,
1055,
974,
970,
969,
970,
956,
934,
919,
889,
863,
870,
876,
780,
823,
782,
821,
794,
771,
809,
743,
773,
770,
707,
704,
701,
695,
621,
617,
583,
606,
620,
592,
595,
618,
558,
568,
505,
545,
477,
492,
472,
530,
439,
446,
444,
412,
416,
426,
403,
367,
365,
380,
366,
327,
292,
328,
341,
303,
328,
265,
269,
239,
241,
245,
175,
209,
172,
207,
181,
180,
163,
163,
162,
127,
116,
108,
105,
98,
72,
81,
49,
56,
51,
36,
28,
27,
24,
24,
32,
28,
23,
26,
21,
17,
17,
19,
25,
27,
26,
23,
19,
30,
29,
17,
22,
12,
20,
24,
22,
23,
24,
26,
20,
27,
20,
26,
22,
21,
20,
27,
27,
24,
20,
17,
18,
22,
20,
19,
16,
16,
18,
21,
15,
16,
12,
9,
17,
14,
12,
18,
13,
22,
21,
14,
16,
17,
11,
14,
7,
19,
8,
13,
19,
14,
18,
7,
13,
8,
14,
14,
7,
14,
7,
18,
13,
9,
14,
13,
9,
9,
13,
13,
12,
12,
7,
11,
11,
9,
15,
11,
6,
8,
9,
14,
7,
12,
10,
6,
13,
18,
9,
8,
15,
14,
16,
11,
10,
10,
7,
4,
12,
6,
14,
14,
8,
9,
7,
5,
13,
6,
5,
8,
8,
3,
11,
4,
3,
6,
7,
6,
2,
9,
5,
12,
9,
4,
9,
3,
4,
5,
5,
4,
5,
7,
6,
10,
10,
12,
6,
10,
5,
4,
0,
8,
11,
9,
9,
5,
4,
7,
8,
9,
6,
10,
7,
9,
5,
12,
5,
11,
3,
11,
7,
9,
6,
6,
7,
3,
4,
6,
9,
4,
7,
7,
9,
4,
8,
1,
5,
4,
3,
9,
3,
4,
8,
4,
4,
3,
5,
5,
3,
4,
6,
4,
6,
3,
5,
5,
3,
2,
3,
3,
2,
3,
3,
2,
3,
4,
4,
4,
4,
4,
4,
3,
1,
6,
4,
1,
5,
4,
3,
3,
3,
1,
3,
4,
4,
5,
3,
7,
2,
3,
1,
5,
2,
2,
2,
4,
4,
1,
5,
1,
2,
3,
0,
0,
4,
2,
1,
0,
0,
3,
3,
1,
6,
1,
2,
0,
1,
1,
1,
0,
3,
2,
4,
0,
4,
1,
4,
1,
1,
1,
0,
1,
2,
0,
1,
3,
0,
0,
3,
1,
1,
2,
3,
1,
1,
1,
2,
0,
1,
0,
1,
1,
0,
1,
2,
2,
1,
0,
0,
4,
1,
4,
1,
1,
1,
1,
2,
2,
1,
2,
1,
2,
1,
1,
1,
1,
2,
0,
1,
2,
0,
0,
2,
0,
1,
1,
0,
1,
0,
2,
0,
0,
0,
1,
2,
1,
0,
0,
0,
0,
1,
0,
1,
0,
2,
0,
0,
2,
0,
2,
0,
1,
1,
1,
0,
1,
0,
1,
0,
0,
0,
0,
1,
2,
1,
0,
0,
0,
1,
1,
1,
1,
0,
0,
0,
1,
0,
0,
0,
0,
0,
0,
1,
2,
0,
0,
0,
0,
0,
1,
0,
0,
0,
0,
0,
0,
0,
0,
0,
0,
1,
0,
1,
0,
0,
0,
0,
0,
1,
0,
0,
0,
0,
0,
0,
1,
0,
0,
0,
0,
0,
1,
0,
1,
0,
0,
0,
1,
0,
0,
0,
0,
0,
0,
0,
0,
0,
0,
0,
0,
0,
0,
0,
0,
0,
0,
2,
0,
0,
0,
0,
0,
0,
0,
0,
0,
0,
0,
0,
0,
0,
2,
0,
0,
0,
0,
0,
0,
0,
0,
0,
0,
0,
0,
0,
0,
0,
0,
1,
0,
1,
0,
0,
0,
0,
0,
0,
0,
0,
0,
0,
0,
0,
0,
0,
0,
0,
0,
1,
0,
0,
0,
0,
0,
0,
0,
0,
0,
0,
0,
0,
0,
1,
0,
0,
0,
0,
0,
0,
0,
0,
0,
0,
0,
0,
0,
0,
1,
0,
0,
0,
0,
0,
0,
0,
0,
0,
0,
0,
0,
0,
0,
0,
0,
0,
0,
0,
0,
0,
0,
0,
0,
0,
0,
0,
0,
0,
0,
0,
0,
0,
0,
0,
0,
0,
0,
0,
0,
0,
0,
0,
0,
0,
0,
0,
0,
0,
0,
0,
0,
0,
0,
0,
0,
0,
0,
0,
0,
0,
0,
0,
0,
0,
0,
0,
0,
0,
0,
0,
0,
0,
0,
0,
0,
0,
0,
0,
0,
0,
0,
0,
0,
0,
0,
0,
0,
0,
0,
0,
0,
0,
0,
0,
0,
0,
0,
0,
0,
0,
0,
0,
0,
0,
0,
0,
0,
0,
0,
0,
0,
0,
0,
0,
0,
0,
0,
0,
0,
0,
0,
0,
0,
0,
0,
0,
0,
0,
0,
0,
0,
0,
0,
0,
0,
0,
0,
0,
0,
0,
0,
0,
0,
0,
0,
0,
0,
0,
0,
0,
0,
#ENDOFDATA   :