File: N132962/Standards/20 keV/Pd std.msa
#FORMAT      : EMSA/MAS Spectral Data File
#VERSION     : 1.0
#TITLE       : G588 Pd[1][all]+G588 Pd[2][all]+G588 Pd[3][all]+G588 Pd[4][all]
#NPOINTS     : 4096
#NCOLUMNS    : 1
#XUNITS      : eV
#YUNITS      : counts
#DATATYPE    : Y
#SIGNALTYPE  : EDS
#XLABEL      : Energy (eV)
#YLABEL      : Counts
#XPERCHAN -eV: 9.99778
#OFFSET   -eV: 1.69135
#CHOFFSET    : 0
#OWNER       : Unknown
#ELEVANGLE   : 35
#BEAMKV   -kV: 20
#LIVETIME  -s: 960.072
#REALTIME  -s: 1068.83
#PROBECUR -nA: 1.04548
##WORKING -mm: 15
##D2STDCMP   : Pd,(Pd:100.0000)
#SPECTRUM    :
113,
131,
94,
417,
2556,
9593,
25344,
58518,
154527,
246771,
168351,
69991,
33756,
19033,
15068,
15245,
17084,
20557,
19625,
15929,
14949,
15100,
16044,
17611,
18241,
17711,
17945,
19008,
20773,
21290,
21503,
22256,
23220,
24475,
26671,
33636,
43766,
44740,
36137,
31276,
33068,
36872,
37900,
35581,
34572,
34282,
34087,
35203,
36089,
37414,
37111,
36359,
35843,
36634,
36624,
37417,
39060,
41868,
43803,
43139,
41408,
39018,
36631,
35516,
35330,
35652,
35552,
36573,
36480,
36690,
37374,
37863,
39581,
40626,
40945,
39732,
39262,
39091,
38008,
37623,
39404,
45521,
60875,
76965,
78423,
63979,
49707,
46886,
52049,
58660,
68166,
107493,
262455,
636552,
1094317,
1200420,
839978,
447291,
355110,
471826,
530776,
426823,
274254,
173147,
129278,
119209,
112495,
89147,
60317,
45284,
45577,
46948,
40451,
29181,
21352,
19158,
20205,
23818,
27076,
26384,
23006,
19234,
17387,
16360,
15823,
16273,
16233,
15904,
16372,
16209,
16578,
16625,
16740,
16602,
16631,
16678,
16727,
16716,
16704,
16835,
16594,
16955,
16857,
16902,
16934,
16632,
16675,
16981,
16745,
16713,
16940,
16647,
16819,
16843,
16623,
16762,
16522,
16536,
17096,
16625,
16603,
16605,
16608,
16637,
16388,
16580,
16688,
16392,
16535,
16435,
16517,
16323,
16270,
16184,
16055,
16157,
15920,
16171,
16223,
16429,
16687,
16353,
16280,
16030,
15922,
15891,
16018,
16416,
16893,
17149,
17443,
16939,
16696,
16526,
16915,
16898,
16520,
16220,
15787,
15910,
15500,
15408,
14875,
14980,
14680,
14726,
14697,
14482,
14452,
14812,
14771,
15558,
16311,
16946,
16643,
15665,
14903,
13987,
13824,
13618,
13404,
13558,
13498,
13375,
13228,
13010,
13149,
13163,
12873,
13088,
12830,
12837,
12835,
12969,
13159,
12943,
12911,
12583,
12607,
12445,
12146,
12248,
12095,
12237,
11880,
12236,
12264,
12646,
12838,
12781,
12767,
12327,
11792,
11703,
11495,
11589,
11229,
11499,
11183,
11454,
11189,
11191,
10922,
11174,
10889,
10896,
11075,
10748,
10795,
10553,
10646,
10622,
10565,
10478,
10682,
10524,
10321,
10406,
10268,
10158,
9940,
10039,
9829,
9783,
9803,
9698,
9958,
9663,
9672,
9777,
9514,
9409,
9407,
9354,
9306,
9469,
9313,
9138,
9070,
9092,
8967,
9119,
8777,
8992,
8884,
8888,
8705,
8663,
8535,
8602,
8502,
8491,
8422,
8384,
8450,
8268,
8141,
8376,
8253,
8323,
8138,
8307,
8043,
8128,
8054,
7915,
7983,
7883,
7982,
7716,
7743,
7847,
7846,
8143,
7661,
7732,
7426,
7300,
7333,
7140,
7191,
7114,
7130,
7047,
6892,
6919,
6964,
6860,
6878,
6616,
6815,
6756,
6619,
6518,
6506,
6520,
6428,
6498,
6320,
6184,
6247,
6243,
6248,
6036,
6269,
6046,
6109,
6000,
5985,
5897,
5793,
5887,
5806,
5749,
5760,
5814,
5731,
5448,
5580,
5549,
5555,
5599,
5341,
5385,
5425,
5259,
5177,
5239,
5218,
5061,
5191,
5089,
5171,
5097,
4937,
4991,
5118,
5038,
5023,
4887,
4814,
4720,
4669,
4672,
4553,
4544,
4468,
4399,
4475,
4500,
4509,
4249,
4264,
4341,
4211,
4117,
4071,
4178,
4150,
3954,
4012,
3921,
3981,
3969,
3858,
3905,
3862,
3800,
3761,
3734,
3668,
3583,
3498,
3675,
3535,
3514,
3550,
3455,
3588,
3421,
3300,
3325,
3473,
3340,
3216,
3292,
3145,
3160,
3177,
3087,
3048,
3046,
3039,
3044,
2899,
2927,
3051,
2966,
2992,
2874,
2830,
2881,
2873,
2796,
2786,
2592,
2661,
2632,
2632,
2786,
2606,
2640,
2572,
2447,
2403,
2488,
2345,
2362,
2335,
2388,
2311,
2293,
2241,
2259,
2212,
2228,
2179,
2127,
2179,
2117,
2132,
2118,
2068,
2057,
2007,
2004,
2000,
2047,
1979,
1910,
1980,
1938,
1854,
1836,
1809,
1837,
1766,
1779,
1762,
1724,
1712,
1750,
1744,
1628,
1647,
1595,
1657,
1637,
1549,
1552,
1557,
1463,
1520,
1467,
1458,
1413,
1343,
1392,
1340,
1338,
1415,
1373,
1393,
1286,
1240,
1264,
1239,
1266,
1250,
1167,
1264,
1198,
1209,
1140,
1157,
1131,
1134,
1129,
1087,
1072,
1076,
1044,
1032,
1108,
1021,
994,
998,
1022,
930,
981,
953,
940,
916,
943,
835,
854,
804,
860,
878,
800,
763,
787,
835,
761,
768,
789,
747,
755,
730,
718,
700,
713,
631,
673,
683,
641,
698,
605,
633,
623,
643,
610,
614,
572,
570,
561,
529,
547,
510,
524,
496,
454,
514,
485,
493,
458,
421,
464,
458,
425,
407,
390,
389,
405,
383,
385,
336,
384,
348,
357,
306,
342,
306,
328,
327,
287,
291,
305,
288,
276,
261,
243,
251,
232,
221,
219,
196,
221,
175,
203,
202,
194,
179,
174,
163,
162,
148,
127,
121,
124,
118,
121,
120,
92,
91,
93,
77,
89,
64,
53,
77,
63,
40,
50,
36,
23,
16,
22,
14,
14,
17,
17,
13,
14,
9,
19,
16,
15,
10,
12,
16,
6,
12,
12,
11,
13,
14,
15,
11,
12,
9,
11,
13,
11,
11,
12,
10,
9,
8,
8,
8,
11,
9,
12,
11,
9,
10,
8,
15,
10,
5,
8,
6,
10,
6,
6,
6,
8,
10,
2,
8,
9,
13,
6,
8,
5,
4,
9,
9,
3,
5,
6,
6,
6,
5,
8,
10,
6,
4,
6,
8,
9,
4,
7,
6,
1,
1,
3,
5,
7,
5,
4,
4,
8,
2,
2,
3,
6,
4,
6,
5,
4,
6,
4,
4,
2,
2,
1,
1,
4,
4,
3,
1,
3,
4,
1,
0,
5,
2,
4,
5,
4,
4,
4,
5,
4,
0,
7,
2,
1,
2,
4,
5,
0,
2,
4,
3,
4,
4,
1,
1,
2,
1,
3,
2,
7,
2,
3,
3,
1,
3,
7,
4,
3,
4,
2,
1,
2,
6,
4,
2,
2,
0,
2,
0,
3,
6,
1,
2,
2,
3,
2,
0,
1,
6,
1,
2,
3,
2,
1,
4,
0,
6,
3,
1,
4,
2,
1,
2,
4,
2,
2,
0,
2,
2,
1,
3,
3,
1,
0,
5,
1,
1,
1,
2,
1,
3,
4,
0,
1,
0,
2,
1,
1,
0,
4,
2,
4,
0,
0,
1,
2,
2,
1,
1,
2,
3,
3,
1,
2,
0,
5,
0,
2,
2,
5,
1,
0,
2,
1,
1,
2,
0,
0,
3,
1,
0,
0,
0,
2,
0,
1,
4,
1,
2,
1,
2,
0,
1,
4,
2,
3,
1,
0,
1,
0,
1,
1,
0,
0,
1,
1,
0,
0,
0,
1,
0,
0,
1,
0,
1,
1,
0,
3,
3,
1,
0,
1,
2,
0,
0,
0,
1,
0,
0,
1,
0,
1,
1,
0,
0,
0,
1,
0,
3,
0,
0,
2,
1,
0,
1,
0,
0,
0,
0,
1,
0,
0,
0,
1,
0,
1,
0,
0,
1,
0,
0,
1,
1,
0,
1,
0,
0,
1,
0,
0,
0,
0,
0,
2,
0,
1,
0,
0,
1,
0,
2,
1,
0,
0,
0,
0,
0,
0,
0,
1,
0,
0,
0,
0,
0,
0,
0,
0,
0,
0,
0,
0,
1,
0,
0,
2,
0,
0,
1,
0,
0,
0,
1,
0,
0,
0,
0,
0,
0,
0,
0,
0,
0,
0,
0,
0,
1,
0,
0,
1,
0,
0,
0,
0,
0,
0,
1,
0,
1,
0,
0,
0,
0,
0,
0,
0,
0,
1,
0,
0,
1,
0,
0,
0,
0,
0,
0,
0,
1,
1,
0,
0,
0,
0,
0,
0,
0,
0,
0,
0,
0,
0,
0,
0,
0,
1,
0,
0,
0,
0,
0,
0,
0,
0,
0,
0,
0,
0,
0,
0,
0,
0,
0,
0,
0,
0,
1,
0,
0,
0,
0,
0,
0,
0,
0,
1,
0,
0,
0,
0,
0,
0,
0,
0,
0,
0,
0,
0,
0,
0,
0,
0,
0,
0,
0,
0,
0,
0,
0,
0,
0,
0,
0,
0,
0,
0,
0,
0,
0,
0,
0,
0,
0,
0,
0,
0,
0,
0,
0,
0,
0,
0,
0,
0,
0,
0,
0,
0,
0,
0,
0,
0,
0,
0,
0,
0,
0,
0,
0,
0,
0,
0,
0,
0,
0,
0,
0,
0,
0,
0,
0,
0,
0,
0,
0,
0,
0,
0,
0,
0,
1,
0,
0,
0,
0,
0,
0,
0,
0,
0,
0,
0,
0,
0,
0,
0,
0,
0,
0,
0,
1,
0,
0,
0,
0,
0,
0,
0,
0,
0,
0,
0,
0,
0,
0,
0,
0,
0,
0,
0,
0,
0,
0,
0,
0,
0,
0,
0,
0,
0,
0,
0,
0,
0,
0,
0,
0,
0,
0,
0,
0,
0,
0,
0,
0,
0,
0,
0,
0,
0,
0,
0,
0,
0,
0,
0,
0,
0,
0,
0,
0,
0,
0,
0,
0,
0,
0,
0,
0,
0,
0,
0,
0,
0,
0,
0,
0,
0,
0,
0,
0,
0,
0,
0,
0,
0,
0,
0,
0,
0,
0,
0,
0,
0,
0,
0,
0,
0,
0,
0,
0,
0,
0,
0,
0,
0,
0,
0,
0,
0,
0,
0,
0,
0,
0,
0,
0,
0,
0,
0,
0,
0,
0,
0,
0,
0,
0,
0,
0,
0,
#ENDOFDATA   :