File: N132962/Standards/20 keV/Pt std.msa
#FORMAT      : EMSA/MAS Spectral Data File
#VERSION     : 1.0
#TITLE       : G588 Pt[0][all]+G588 Pt[1][all]+G588 Pt[2][all]+G588 Pt[3][all]+G588 Pt[4][all]
#NPOINTS     : 4096
#NCOLUMNS    : 1
#XUNITS      : eV
#YUNITS      : counts
#DATATYPE    : Y
#SIGNALTYPE  : EDS
#XLABEL      : Energy (eV)
#YLABEL      : Counts
#XPERCHAN -eV: 9.99778
#OFFSET   -eV: 1.69135
#CHOFFSET    : 0
#OWNER       : Unknown
#ELEVANGLE   : 35
#BEAMKV   -kV: 20
#LIVETIME  -s: 1199.74
#REALTIME  -s: 1362.84
#PROBECUR -nA: 1.04502
##WORKING -mm: 15
##D2STDCMP   : Pt,(Pt:100.0000)
#SPECTRUM    :
128,
157,
91,
430,
2333,
7830,
18709,
35626,
60061,
75876,
73421,
55472,
47896,
48181,
36502,
30918,
34224,
37961,
36471,
34016,
34487,
35640,
38223,
40992,
41136,
39812,
41171,
43695,
46717,
47353,
47728,
48748,
49415,
50108,
51755,
53084,
53991,
55337,
57041,
58140,
59266,
59684,
61327,
62086,
62565,
63325,
64299,
65559,
67198,
69436,
74146,
89476,
128123,
165307,
152087,
110728,
86070,
80309,
78947,
77988,
76836,
75962,
78676,
91308,
118069,
188344,
416425,
941701,
1504654,
1587685,
1332228,
1056008,
660707,
277830,
92534,
49732,
55250,
69662,
71660,
56966,
40247,
32664,
30377,
30421,
31692,
33018,
33713,
35079,
38307,
41193,
40731,
37826,
34115,
31921,
30646,
29951,
29621,
29791,
30219,
30604,
30590,
30472,
30299,
29814,
29737,
29985,
30077,
30695,
31091,
30764,
30614,
30011,
29899,
29960,
30093,
30095,
30223,
30316,
30615,
30513,
30843,
31152,
31306,
31262,
31376,
31685,
31396,
30987,
31150,
31422,
31571,
31703,
31541,
31985,
32226,
33062,
34230,
34539,
35312,
34833,
34733,
33847,
32847,
32235,
31722,
31572,
31764,
31735,
31448,
31208,
31050,
31218,
31022,
30944,
30858,
30930,
31231,
30756,
30507,
31015,
30814,
30889,
30275,
30383,
30547,
30177,
30539,
30216,
30266,
30021,
30148,
29812,
30062,
29839,
29841,
29297,
30083,
29920,
29774,
30318,
30377,
30312,
30016,
29491,
29178,
29216,
28937,
28862,
28575,
28888,
28557,
28366,
28291,
28328,
28244,
27907,
28165,
28073,
28007,
27757,
27432,
27325,
27275,
27320,
27152,
26828,
27217,
26563,
27084,
27321,
27881,
29266,
30469,
31372,
31278,
29413,
27964,
26607,
25821,
25666,
25639,
25484,
25339,
25220,
25312,
24975,
24934,
24704,
24440,
24615,
24504,
24264,
24253,
24783,
24347,
24672,
24435,
23909,
23741,
23532,
23402,
23473,
23112,
23348,
23247,
22922,
23485,
23899,
24360,
24556,
24341,
23302,
22913,
22199,
22227,
22000,
22003,
21845,
21639,
21669,
21372,
21422,
21019,
21215,
21010,
20958,
20994,
20850,
20848,
20919,
21044,
21732,
23158,
25112,
27131,
28623,
28156,
26654,
24461,
22351,
20685,
19971,
19539,
19437,
19160,
19000,
19062,
18933,
18816,
18641,
18713,
18544,
18223,
18392,
18462,
18070,
17817,
17932,
17896,
17994,
17667,
17676,
17807,
17800,
17821,
18102,
18566,
20358,
24737,
33969,
51540,
79251,
116895,
154647,
178519,
176707,
148692,
107665,
68600,
41340,
26783,
19948,
17270,
16202,
16112,
15974,
15704,
15658,
15710,
15859,
15963,
16157,
16279,
16380,
15781,
15606,
15017,
14824,
14558,
14364,
14223,
14171,
14096,
14032,
13923,
13946,
13712,
13600,
13517,
13627,
13573,
13400,
13318,
13219,
13374,
13300,
13839,
14264,
15455,
16664,
17756,
18809,
19409,
20591,
22999,
28811,
38307,
48529,
57258,
60243,
58476,
53433,
50402,
48642,
48619,
46459,
41003,
33507,
25548,
19601,
15707,
14083,
13422,
13472,
13260,
13234,
12685,
11969,
11473,
10618,
10136,
9974,
9735,
9589,
9460,
9340,
9303,
9158,
9003,
9034,
9008,
8901,
8823,
8663,
8673,
8776,
8584,
8390,
8450,
8530,
8270,
8479,
8505,
8212,
8107,
8330,
8353,
8358,
8302,
8292,
8191,
7882,
7746,
7876,
7901,
8329,
8812,
9990,
11200,
12932,
14190,
14711,
14196,
12701,
11054,
9569,
8526,
8056,
7818,
8035,
8260,
8604,
8672,
8697,
8539,
8184,
7610,
7309,
6710,
6580,
6320,
6143,
5865,
5995,
6118,
5841,
5948,
5987,
5873,
5928,
5904,
5826,
5628,
5693,
5434,
5427,
5279,
5265,
5149,
5154,
5124,
5166,
4923,
4951,
4958,
4872,
4940,
4680,
4775,
4821,
4654,
4731,
4622,
4616,
4546,
4572,
4429,
4396,
4420,
4378,
4288,
4248,
4220,
4144,
4268,
4120,
4084,
4163,
3921,
4037,
4001,
3907,
3749,
3778,
3860,
3766,
3647,
3769,
3614,
3730,
3677,
3469,
3457,
3512,
3472,
3388,
3455,
3384,
3347,
3226,
3290,
3245,
3154,
3186,
3172,
3089,
2850,
3013,
2949,
2952,
2892,
2881,
2854,
2738,
2772,
2744,
2687,
2726,
2728,
2630,
2668,
2619,
2529,
2507,
2486,
2480,
2443,
2429,
2352,
2369,
2321,
2314,
2354,
2215,
2123,
2241,
2098,
2083,
2073,
2044,
2100,
2080,
2036,
2009,
1966,
2011,
1909,
1890,
1895,
1888,
1906,
1893,
1761,
1835,
1796,
1666,
1715,
1718,
1653,
1699,
1631,
1690,
1634,
1594,
1486,
1510,
1508,
1441,
1460,
1460,
1416,
1403,
1410,
1406,
1358,
1309,
1267,
1236,
1210,
1248,
1202,
1124,
1233,
1141,
1136,
1104,
1076,
1035,
1107,
1009,
1023,
992,
966,
943,
948,
900,
873,
921,
896,
865,
845,
803,
796,
765,
774,
792,
775,
716,
734,
736,
722,
723,
673,
625,
618,
593,
566,
551,
479,
524,
473,
489,
489,
424,
439,
376,
404,
387,
326,
336,
344,
330,
329,
290,
299,
251,
260,
242,
213,
181,
181,
161,
158,
126,
125,
107,
85,
80,
68,
65,
44,
49,
53,
50,
53,
48,
64,
49,
61,
55,
56,
58,
68,
72,
73,
64,
66,
67,
68,
79,
55,
51,
59,
38,
43,
54,
39,
46,
39,
54,
26,
34,
28,
38,
37,
29,
35,
28,
37,
28,
32,
29,
36,
36,
36,
24,
28,
32,
25,
35,
33,
34,
35,
26,
32,
24,
34,
22,
35,
29,
29,
29,
37,
27,
24,
22,
34,
28,
22,
32,
30,
24,
38,
32,
24,
36,
30,
28,
31,
28,
26,
27,
17,
12,
22,
26,
24,
14,
27,
21,
18,
15,
17,
15,
11,
15,
16,
19,
15,
16,
18,
20,
18,
12,
18,
21,
22,
17,
13,
14,
12,
16,
15,
10,
11,
13,
14,
17,
17,
8,
17,
18,
17,
10,
19,
13,
12,
18,
16,
15,
12,
14,
13,
12,
10,
11,
14,
13,
13,
8,
13,
8,
10,
14,
12,
11,
7,
9,
15,
11,
14,
13,
24,
14,
9,
12,
15,
19,
17,
23,
13,
16,
13,
14,
14,
13,
17,
9,
13,
7,
8,
13,
9,
11,
11,
16,
14,
20,
7,
15,
19,
12,
16,
10,
16,
11,
10,
11,
7,
11,
9,
7,
10,
8,
6,
8,
10,
13,
12,
6,
10,
11,
5,
6,
12,
12,
9,
9,
7,
8,
8,
6,
6,
9,
7,
9,
5,
7,
8,
6,
3,
7,
6,
7,
7,
10,
7,
5,
9,
4,
3,
6,
12,
7,
5,
3,
2,
3,
4,
4,
5,
3,
8,
0,
5,
8,
5,
5,
2,
5,
12,
4,
6,
5,
7,
1,
8,
6,
3,
5,
7,
8,
6,
4,
6,
6,
2,
2,
3,
3,
2,
3,
4,
2,
3,
6,
3,
4,
3,
2,
3,
3,
3,
4,
0,
6,
4,
1,
2,
2,
2,
3,
4,
2,
5,
3,
3,
2,
5,
1,
5,
3,
2,
0,
2,
1,
1,
3,
7,
1,
0,
1,
2,
0,
1,
2,
3,
3,
4,
3,
2,
1,
1,
4,
3,
1,
3,
4,
1,
5,
1,
1,
0,
1,
1,
1,
2,
3,
2,
2,
2,
3,
1,
2,
3,
0,
3,
2,
0,
0,
0,
2,
1,
0,
2,
0,
3,
0,
0,
1,
0,
1,
0,
3,
0,
0,
0,
2,
2,
0,
1,
0,
1,
0,
1,
2,
1,
0,
0,
0,
0,
0,
2,
0,
0,
2,
0,
0,
1,
0,
1,
0,
0,
0,
1,
0,
1,
0,
0,
1,
1,
1,
1,
1,
1,
0,
0,
0,
0,
0,
0,
1,
0,
1,
0,
0,
1,
2,
2,
1,
2,
0,
2,
0,
0,
0,
0,
0,
1,
0,
0,
0,
0,
0,
0,
0,
0,
0,
0,
0,
0,
1,
0,
0,
0,
0,
1,
0,
0,
0,
0,
0,
0,
0,
0,
0,
1,
0,
0,
0,
0,
1,
0,
0,
1,
0,
0,
0,
0,
1,
1,
0,
0,
0,
0,
0,
0,
1,
0,
0,
0,
0,
0,
0,
0,
1,
0,
0,
0,
2,
0,
0,
0,
0,
0,
1,
0,
0,
0,
0,
0,
0,
0,
0,
0,
0,
0,
0,
0,
0,
0,
0,
0,
0,
0,
0,
0,
0,
0,
0,
0,
0,
0,
0,
0,
0,
0,
0,
0,
0,
0,
0,
0,
0,
0,
0,
0,
0,
0,
0,
0,
0,
0,
0,
0,
0,
2,
0,
0,
0,
0,
0,
0,
0,
0,
0,
0,
0,
0,
0,
0,
0,
0,
0,
0,
0,
0,
0,
0,
0,
0,
0,
0,
0,
0,
0,
0,
0,
0,
0,
0,
0,
0,
0,
0,
0,
0,
0,
0,
0,
0,
0,
0,
0,
0,
0,
0,
0,
0,
0,
0,
0,
0,
0,
0,
0,
0,
0,
0,
0,
0,
0,
0,
0,
0,
0,
0,
0,
0,
0,
0,
0,
0,
0,
0,
0,
0,
0,
0,
0,
0,
0,
0,
0,
0,
0,
0,
0,
0,
0,
0,
0,
0,
0,
0,
0,
0,
0,
0,
0,
0,
0,
0,
0,
0,
0,
0,
0,
0,
0,
0,
0,
0,
0,
0,
0,
0,
0,
0,
0,
0,
0,
0,
0,
0,
0,
0,
0,
0,
0,
0,
0,
0,
0,
0,
0,
0,
0,
0,
0,
0,
0,
0,
0,
0,
0,
#ENDOFDATA   :