File: N132962/Standards/20 keV/RbI std.msa
#FORMAT      : EMSA/MAS Spectral Data File
#VERSION     : 1.0
#TITLE       : RbI std
#DATE        : 21-MAR-2025
#TIME        : 14:36
#OWNER       : Unknown
#NPOINTS     : 4096
#NCOLUMNS    : 1
#XUNITS      : eV
#YUNITS      : counts
#DATATYPE    : Y
#XPERCHAN    : 9.99778
#OFFSET      : 1.69135
#BEAMKV      : 20
#SIGNALTYPE  : EDS
#ELEVANGLE   : 35
#AZIMANGLE   : 0
#LIVETIME    : 1198.57
#REALTIME    : 1310.76
#PROBECUR    : 1.02926
#TAUWIND     : 0
#TDEADLYR    : 0
#TACTLYR     : 0.045
#TALWIND     : 0.025
#CHOFFSET    : 0.0
#XLABEL      : Energy (eV)
#YLABEL      : Counts
#EDSDET      : SD
##SPECIMEN   : RbI std
##D2STDCMP   : RbI,(Rb:40.2444),(I:59.7556),5.0
##DET_HASH   : 12273538-fd48-a23f-0a19-f1e6fa85caef
##CALIB_HASH : 6abaa72c-aa41-8738-0be9-f592914732f3
##WORKING    : 15.0 mm
##SAMPLE     : <BulkSample id="1">\n<mOrientation id="2">\n<double>0.0</double>\n<double>0.0</double>\n<double>-1.0</double>\n</mOrientation>\n</BulkSample>
##MULTISPEC  : 1.11852
##DET_NAME   : EDAX All
##DET_MODE   : MediumLE
#SPECTRUM    :
131,
138,
59,
187,
1183,
4399,
10982,
22820,
47592,
59129,
35579,
22337,
21539,
24005,
34309,
64004,
94922,
80087,
49313,
39790,
43049,
40149,
30583,
26901,
25662,
26202,
29396,
35429,
38100,
37252,
37791,
37789,
34069,
31140,
31096,
29514,
28556,
28555,
29065,
30067,
30849,
31834,
32613,
33788,
34222,
35339,
37030,
40671,
50703,
64006,
67657,
61018,
54546,
59891,
126380,
349857,
652049,
733884,
578668,
367864,
190134,
93981,
52776,
34584,
28774,
27283,
27618,
29020,
29878,
29523,
28677,
29489,
31495,
33010,
32145,
30231,
29176,
28826,
29036,
29605,
29639,
30369,
31476,
31496,
31305,
30542,
30449,
30364,
30431,
30505,
30295,
30663,
30677,
30604,
30415,
30079,
30170,
30244,
30468,
30318,
30235,
30367,
30379,
30637,
30229,
30483,
30119,
30400,
29868,
29966,
30764,
31147,
31553,
33079,
36893,
43799,
48037,
46103,
39834,
33859,
31034,
29831,
29951,
30896,
33322,
37011,
41770,
54369,
99161,
218501,
399169,
531156,
488635,
315534,
150590,
66775,
42237,
48432,
85209,
159794,
242406,
279911,
245462,
179126,
121100,
82619,
58298,
49679,
60409,
83612,
101315,
96757,
72703,
47461,
31711,
25671,
25099,
27967,
35504,
45253,
50634,
46582,
36702,
27577,
23070,
22389,
25177,
29149,
32628,
32136,
29224,
25235,
22457,
20634,
19684,
19073,
18697,
18243,
18004,
18141,
17989,
18244,
18012,
17947,
18067,
17962,
18146,
18315,
18721,
18422,
18283,
18063,
17744,
17433,
17552,
17426,
17417,
17486,
17605,
17555,
17614,
17160,
16952,
16981,
16875,
16802,
16772,
16893,
16756,
16903,
16910,
17145,
17757,
17953,
17867,
17320,
16742,
16480,
16093,
15953,
15778,
15602,
15489,
15641,
15318,
15538,
15254,
15287,
14958,
15166,
15053,
15261,
14936,
15273,
14889,
15051,
14886,
14909,
14673,
14410,
14298,
14119,
14289,
14009,
14185,
14467,
14323,
14560,
14947,
15074,
14767,
14250,
13874,
13560,
13453,
13521,
13386,
13219,
13279,
13134,
13216,
13236,
13169,
13247,
13180,
13165,
13439,
13650,
13851,
13485,
13118,
12831,
12816,
12756,
12545,
12181,
12179,
12233,
12062,
12076,
11912,
11759,
11635,
11654,
11874,
12010,
11932,
12033,
12051,
11739,
11482,
11446,
11041,
11055,
11013,
10827,
10877,
11018,
10742,
10803,
10587,
10593,
10514,
10296,
10247,
10320,
10064,
10275,
10215,
10111,
9911,
9918,
9917,
9675,
9674,
9832,
9551,
9666,
9527,
9542,
9478,
9583,
9614,
9364,
9366,
9201,
9241,
9183,
9136,
8918,
8994,
8810,
8837,
9029,
8697,
8593,
8711,
8531,
8536,
8328,
8442,
8352,
8321,
8256,
8321,
8226,
7983,
7984,
7902,
7964,
8001,
7843,
7753,
7762,
7749,
7673,
7426,
7378,
7625,
7454,
7422,
7422,
7334,
7207,
7202,
7120,
7076,
6929,
6953,
6844,
6986,
6705,
6798,
6774,
6706,
6635,
6563,
6603,
6571,
6478,
6487,
6429,
6384,
6295,
6390,
6177,
6165,
6239,
6125,
5881,
5907,
5892,
5843,
5837,
5962,
5720,
5663,
5690,
5679,
5427,
5564,
5511,
5556,
5351,
5426,
5340,
5382,
5296,
5167,
5142,
4988,
5073,
5072,
4959,
5014,
5009,
4780,
4804,
4836,
4681,
4745,
4759,
4652,
4675,
4586,
4456,
4548,
4568,
4332,
4491,
4413,
4356,
4266,
4248,
4230,
4220,
4241,
4441,
4738,
5453,
7141,
9487,
13117,
16899,
20048,
22231,
21976,
19343,
16030,
11822,
8544,
6256,
4881,
4141,
3715,
3544,
3497,
3406,
3396,
3357,
3455,
3355,
3338,
3252,
3231,
3148,
3242,
3048,
3103,
3163,
3076,
2898,
3001,
2980,
3034,
2863,
2797,
2812,
2727,
2751,
2721,
2751,
2720,
2733,
2678,
2603,
2674,
2552,
2539,
2520,
2623,
2646,
2783,
2920,
3275,
3822,
4353,
4587,
4771,
4630,
4369,
3773,
3328,
2931,
2624,
2511,
2387,
2279,
2238,
2147,
2041,
2018,
1964,
1911,
1851,
1843,
1853,
1776,
1745,
1733,
1775,
1688,
1814,
1687,
1618,
1679,
1628,
1597,
1591,
1640,
1565,
1534,
1532,
1505,
1557,
1413,
1492,
1412,
1477,
1452,
1349,
1381,
1347,
1405,
1410,
1296,
1297,
1250,
1236,
1249,
1220,
1150,
1195,
1205,
1133,
1186,
1143,
1135,
1096,
1053,
1051,
1072,
1085,
1036,
1027,
1045,
1031,
962,
1006,
909,
971,
896,
933,
910,
938,
912,
842,
894,
905,
818,
833,
821,
787,
814,
753,
711,
764,
769,
716,
738,
709,
711,
679,
703,
651,
666,
661,
630,
609,
646,
571,
553,
629,
551,
529,
562,
517,
520,
488,
492,
450,
501,
430,
408,
403,
454,
435,
391,
405,
428,
354,
345,
382,
348,
370,
381,
332,
321,
325,
300,
333,
299,
315,
263,
278,
253,
255,
239,
237,
199,
204,
203,
197,
194,
190,
179,
175,
160,
147,
160,
130,
121,
143,
122,
116,
83,
82,
82,
72,
65,
57,
50,
40,
38,
34,
28,
30,
23,
18,
26,
15,
9,
19,
12,
19,
14,
24,
20,
9,
17,
18,
13,
15,
22,
13,
11,
15,
11,
13,
13,
15,
12,
6,
15,
17,
19,
18,
18,
13,
11,
14,
14,
19,
9,
15,
12,
10,
14,
16,
15,
11,
12,
6,
21,
14,
14,
14,
7,
8,
10,
9,
9,
10,
3,
10,
10,
6,
10,
10,
10,
6,
2,
7,
11,
7,
9,
6,
6,
7,
6,
4,
6,
9,
13,
8,
4,
3,
4,
4,
5,
7,
10,
11,
2,
3,
5,
7,
9,
3,
5,
5,
7,
8,
8,
9,
3,
3,
4,
2,
9,
6,
5,
3,
8,
2,
6,
10,
8,
2,
6,
5,
4,
4,
5,
5,
2,
4,
5,
4,
5,
3,
7,
6,
1,
5,
3,
4,
2,
4,
1,
7,
7,
4,
4,
4,
3,
6,
1,
2,
3,
1,
8,
3,
0,
3,
2,
0,
2,
2,
4,
3,
6,
5,
6,
5,
3,
6,
4,
4,
2,
1,
3,
4,
5,
7,
6,
2,
3,
5,
3,
3,
3,
3,
6,
6,
3,
6,
3,
1,
1,
4,
2,
3,
6,
2,
2,
2,
7,
4,
1,
2,
1,
2,
4,
2,
0,
3,
1,
3,
1,
2,
2,
3,
1,
2,
1,
1,
1,
1,
3,
2,
2,
2,
4,
2,
2,
3,
3,
1,
3,
4,
1,
2,
1,
1,
1,
2,
2,
2,
0,
1,
0,
0,
4,
1,
1,
1,
2,
2,
1,
1,
3,
3,
1,
3,
2,
0,
1,
6,
2,
4,
1,
2,
0,
2,
1,
1,
0,
3,
0,
0,
3,
3,
3,
0,
1,
0,
2,
0,
0,
2,
2,
0,
1,
0,
2,
1,
3,
1,
0,
0,
1,
1,
2,
1,
1,
0,
2,
0,
1,
1,
4,
0,
2,
0,
0,
1,
1,
0,
1,
0,
0,
1,
0,
0,
1,
2,
1,
1,
1,
2,
2,
0,
0,
3,
1,
1,
1,
0,
1,
1,
0,
1,
1,
0,
0,
1,
0,
0,
0,
0,
1,
0,
0,
0,
0,
1,
1,
0,
0,
1,
1,
0,
0,
1,
0,
1,
0,
1,
1,
0,
0,
0,
1,
1,
0,
0,
0,
1,
0,
1,
0,
0,
0,
0,
3,
1,
0,
0,
0,
0,
0,
1,
0,
0,
0,
0,
0,
1,
1,
0,
0,
0,
0,
0,
0,
0,
0,
0,
0,
0,
0,
0,
1,
1,
0,
0,
0,
0,
0,
0,
0,
0,
0,
0,
0,
0,
1,
0,
0,
0,
1,
0,
0,
0,
0,
0,
0,
0,
0,
1,
0,
0,
0,
0,
1,
0,
1,
0,
0,
0,
0,
0,
0,
0,
0,
0,
0,
0,
0,
0,
0,
0,
0,
0,
0,
0,
0,
0,
0,
0,
0,
0,
0,
0,
0,
0,
0,
0,
0,
0,
0,
0,
0,
0,
0,
1,
0,
1,
0,
0,
1,
0,
0,
0,
0,
0,
0,
0,
0,
0,
0,
0,
0,
0,
1,
0,
1,
0,
0,
0,
0,
0,
0,
0,
0,
0,
0,
0,
0,
0,
0,
1,
0,
0,
0,
0,
0,
0,
0,
0,
0,
0,
0,
0,
0,
0,
0,
0,
0,
0,
0,
0,
0,
0,
0,
0,
0,
0,
0,
0,
0,
0,
0,
0,
0,
0,
1,
0,
0,
0,
0,
0,
0,
0,
0,
0,
0,
0,
0,
0,
0,
0,
0,
0,
0,
0,
0,
0,
0,
0,
0,
0,
0,
0,
0,
0,
0,
0,
0,
0,
0,
0,
0,
0,
0,
0,
0,
0,
0,
0,
0,
0,
0,
0,
0,
0,
0,
0,
0,
0,
0,
0,
0,
0,
0,
0,
0,
0,
0,
0,
0,
0,
0,
0,
0,
0,
0,
0,
0,
0,
0,
0,
0,
0,
0,
0,
0,
0,
0,
0,
0,
0,
0,
0,
0,
0,
0,
0,
0,
0,
0,
0,
0,
0,
0,
0,
0,
0,
0,
0,
0,
0,
0,
0,
0,
0,
0,
0,
0,
0,
0,
0,
0,
0,
0,
0,
0,
0,
0,
0,
0,
0,
0,
0,
0,
0,
0,
0,
0,
0,
0,
0,
0,
0,
0,
0,
0,
0,
0,
0,
0,
0,
0,
0,
0,
0,
0,
0,
0,
0,
0,
0,
0,
0,
0,
#ENDOFDATA   :