File: N132962/Standards/20 keV/Re std.msa
#FORMAT      : EMSA/MAS Spectral Data File
#VERSION     : 1.0
#TITLE       : Re std
#DATE        : 20-FEB-2025
#TIME        : 17:14
#OWNER       : Unknown
#NPOINTS     : 4096
#NCOLUMNS    : 1
#XUNITS      : eV
#YUNITS      : counts
#DATATYPE    : Y
#XPERCHAN    : 9.99778
#OFFSET      : 1.69135
#BEAMKV      : 20
#SIGNALTYPE  : EDS
#ELEVANGLE   : 35
#AZIMANGLE   : 0
#LIVETIME    : 951.7897
#REALTIME    : 1069.19
#PROBECUR    : 1.04992
#TAUWIND     : 0
#TDEADLYR    : 0
#TACTLYR     : 0.045
#TALWIND     : 0.025
#CHOFFSET    : 0.0
#XLABEL      : Energy (eV)
#YLABEL      : Counts
#EDSDET      : SD
##SPECIMEN   : Re std
##D2STDCMP   : Re,(Re:100.0),5.0
##DET_HASH   : 12273538-fd48-a23f-0a19-f1e6fa85caef
##CALIB_HASH : 6abaa72c-aa41-8738-0be9-f592914732f3
##WORKING    : 15.0 mm
##SAMPLE     : <BulkSample id="1">\n<mOrientation id="2">\n<double>0.0</double>\n<double>0.0</double>\n<double>-1.0</double>\n</mOrientation>\n</BulkSample>
##MULTISPEC  : 1.62878
##DET_NAME   : EDAX All
##DET_MODE   : MediumLE
#SPECTRUM    :
97,
137,
86,
484,
2053,
7480,
14869,
24096,
34943,
37745,
27153,
22997,
24431,
24729,
22841,
24628,
33436,
43798,
38901,
29349,
27297,
28321,
30678,
34715,
35106,
32213,
31728,
33387,
36090,
36873,
36462,
37022,
37336,
38920,
40108,
41052,
42050,
42516,
43888,
44800,
45625,
47003,
47325,
48230,
49453,
56478,
79569,
118234,
133801,
105553,
74195,
59785,
54234,
52896,
53670,
56853,
68568,
101094,
175935,
361358,
748159,
1156708,
1183788,
905394,
576133,
272485,
92088,
35666,
30217,
38071,
44308,
39921,
29556,
22900,
21143,
21693,
22215,
22902,
23838,
25840,
27192,
26622,
24452,
22501,
21378,
20655,
20568,
20648,
20596,
20461,
20409,
20264,
19999,
20331,
20546,
20968,
21229,
21323,
21243,
20875,
20827,
20779,
20856,
21245,
21156,
21409,
21595,
21884,
21809,
22235,
22473,
22466,
21986,
22329,
22368,
22338,
22273,
22637,
22434,
23078,
23607,
24221,
24989,
25772,
25550,
25024,
24399,
23441,
23118,
22969,
22777,
22806,
22776,
22920,
22868,
23066,
22803,
23046,
22867,
23153,
22494,
22887,
22881,
22674,
22795,
22581,
22541,
22815,
22743,
22685,
22502,
22917,
22700,
22587,
22272,
22224,
22711,
22452,
22455,
22781,
22125,
22259,
22032,
22030,
22363,
21964,
22255,
21858,
22122,
21980,
21866,
21640,
21680,
21833,
21623,
21512,
21719,
22101,
22817,
24402,
25305,
24921,
23761,
22419,
21475,
20879,
20836,
20720,
20711,
20724,
20766,
20397,
20707,
20696,
20336,
20956,
20629,
20863,
20620,
20373,
20139,
19779,
19664,
19736,
19470,
19416,
19582,
19729,
19641,
20351,
21788,
24365,
27664,
30073,
29165,
26031,
22471,
20515,
19128,
18516,
18255,
18087,
18309,
17898,
17919,
18033,
17829,
18038,
17931,
18050,
18048,
17810,
17981,
18224,
18489,
18819,
18394,
17790,
17261,
17185,
16925,
16726,
16533,
16512,
16600,
16685,
17195,
17705,
18405,
19187,
20161,
21866,
23507,
24153,
23805,
22299,
19579,
17722,
16398,
15967,
15748,
15424,
15656,
15275,
15226,
14986,
14883,
15119,
14917,
14928,
14895,
14630,
14882,
14668,
14842,
14822,
14733,
14779,
14711,
14875,
15232,
16754,
20492,
30370,
49403,
81095,
122285,
161342,
181259,
168599,
133586,
88856,
52905,
30490,
19675,
15538,
14050,
13697,
13991,
14242,
14380,
14279,
13818,
13279,
13005,
12718,
12424,
12086,
12059,
11957,
12132,
11776,
12026,
11776,
11745,
11620,
11544,
11800,
11472,
11613,
11586,
11689,
11831,
12195,
12771,
14263,
15760,
18217,
21812,
27082,
35588,
47325,
59207,
66611,
66038,
57761,
45475,
36198,
31703,
31588,
35554,
39983,
42001,
39970,
33902,
26631,
19836,
15299,
12821,
12057,
11491,
11107,
10854,
10171,
9543,
9070,
8614,
8629,
8428,
8280,
8284,
8210,
8129,
8050,
7981,
8066,
7892,
7995,
7931,
7895,
7821,
7880,
7738,
7756,
7756,
7967,
7843,
7765,
7732,
7717,
7703,
7601,
7571,
7912,
8318,
9478,
11215,
13311,
14902,
15868,
15478,
13727,
11887,
9910,
8649,
8234,
7948,
7888,
8183,
8663,
8787,
8882,
8633,
8183,
7607,
7289,
6921,
6632,
6182,
6100,
6110,
6085,
5895,
5910,
6011,
6101,
5961,
5907,
5942,
5528,
5486,
5472,
5193,
5376,
5186,
5216,
5180,
5172,
5047,
5075,
5008,
4995,
5040,
4857,
4963,
4832,
4837,
4790,
4751,
4694,
4631,
4639,
4700,
4538,
4523,
4567,
4495,
4536,
4480,
4355,
4303,
4281,
4349,
4207,
4309,
4240,
4219,
4152,
4127,
4053,
3972,
3909,
3881,
3907,
4046,
3864,
3871,
3923,
3777,
3681,
3672,
3656,
3577,
3601,
3505,
3575,
3543,
3461,
3434,
3465,
3390,
3309,
3289,
3388,
3308,
3247,
3205,
3188,
3149,
3155,
3167,
3048,
2962,
2990,
2933,
2911,
2944,
2915,
2979,
2857,
2892,
2820,
2752,
2781,
2631,
2771,
2664,
2726,
2619,
2599,
2571,
2531,
2553,
2574,
2454,
2422,
2420,
2398,
2337,
2336,
2273,
2308,
2275,
2330,
2214,
2178,
2237,
2122,
2161,
2107,
1995,
2163,
2051,
2032,
1954,
1975,
1993,
1944,
1933,
1845,
1893,
1921,
1836,
1738,
1806,
1757,
1741,
1682,
1699,
1637,
1683,
1614,
1652,
1566,
1556,
1576,
1584,
1564,
1494,
1460,
1436,
1510,
1449,
1489,
1382,
1402,
1368,
1351,
1419,
1359,
1350,
1317,
1327,
1206,
1303,
1288,
1272,
1270,
1259,
1319,
1183,
1154,
1155,
1081,
1116,
1093,
1041,
1079,
1047,
1043,
958,
970,
956,
933,
900,
913,
881,
906,
864,
870,
777,
906,
835,
821,
847,
821,
782,
752,
683,
724,
674,
739,
690,
701,
704,
644,
620,
615,
624,
597,
584,
597,
625,
580,
555,
561,
572,
490,
481,
514,
478,
500,
466,
420,
438,
402,
421,
385,
380,
326,
323,
332,
313,
332,
297,
295,
294,
246,
252,
214,
244,
240,
204,
174,
199,
194,
153,
141,
163,
127,
133,
108,
98,
72,
79,
80,
56,
62,
59,
45,
41,
40,
43,
37,
48,
47,
37,
43,
29,
39,
31,
36,
24,
29,
36,
28,
27,
31,
29,
21,
32,
28,
27,
22,
31,
33,
30,
16,
24,
25,
27,
31,
14,
22,
20,
21,
21,
26,
16,
22,
22,
31,
17,
17,
18,
22,
16,
22,
23,
19,
32,
22,
25,
24,
17,
18,
20,
16,
16,
14,
20,
20,
18,
21,
13,
22,
17,
16,
15,
19,
10,
20,
10,
19,
11,
10,
17,
13,
14,
18,
12,
11,
24,
12,
15,
16,
11,
15,
15,
11,
19,
10,
14,
8,
16,
12,
10,
10,
17,
12,
13,
11,
5,
8,
13,
4,
3,
10,
5,
7,
7,
9,
9,
12,
10,
12,
6,
11,
18,
9,
7,
11,
9,
5,
8,
8,
9,
6,
11,
12,
9,
15,
14,
7,
8,
9,
7,
10,
13,
7,
12,
8,
9,
7,
6,
6,
5,
3,
12,
17,
6,
8,
8,
7,
12,
6,
4,
4,
9,
9,
9,
7,
10,
10,
8,
11,
5,
5,
6,
9,
7,
5,
4,
3,
7,
7,
9,
11,
9,
7,
4,
5,
13,
3,
3,
8,
6,
7,
3,
5,
1,
5,
6,
4,
7,
11,
5,
8,
2,
12,
5,
4,
10,
5,
5,
7,
1,
6,
4,
8,
7,
8,
5,
7,
4,
4,
2,
4,
2,
5,
4,
5,
4,
3,
4,
5,
2,
6,
4,
3,
1,
5,
7,
2,
6,
4,
3,
5,
4,
4,
3,
5,
1,
5,
7,
2,
3,
2,
3,
2,
4,
3,
0,
7,
3,
4,
3,
3,
2,
2,
3,
5,
2,
3,
3,
2,
4,
2,
6,
0,
1,
2,
2,
3,
2,
4,
2,
1,
2,
1,
3,
1,
1,
0,
0,
2,
1,
1,
2,
2,
3,
1,
2,
3,
1,
1,
0,
2,
1,
3,
1,
2,
1,
3,
3,
1,
0,
1,
1,
0,
0,
0,
2,
2,
0,
2,
1,
0,
0,
1,
0,
3,
1,
1,
0,
2,
1,
2,
0,
0,
0,
1,
0,
0,
0,
0,
3,
1,
0,
1,
1,
1,
0,
0,
0,
2,
1,
1,
3,
1,
0,
0,
1,
0,
0,
0,
0,
0,
0,
0,
0,
0,
1,
1,
0,
0,
0,
1,
0,
2,
0,
0,
0,
1,
1,
0,
0,
2,
0,
1,
1,
0,
0,
0,
0,
0,
0,
0,
2,
2,
0,
0,
0,
0,
1,
0,
0,
0,
0,
0,
1,
1,
0,
0,
0,
0,
1,
0,
0,
1,
0,
0,
1,
0,
0,
0,
1,
0,
0,
0,
0,
1,
0,
1,
1,
0,
0,
0,
2,
0,
0,
0,
1,
0,
0,
0,
0,
0,
0,
0,
0,
1,
1,
0,
0,
0,
0,
0,
0,
0,
0,
1,
0,
0,
0,
0,
0,
1,
0,
0,
0,
0,
0,
0,
0,
0,
0,
0,
0,
0,
0,
0,
0,
0,
0,
0,
0,
0,
0,
0,
0,
1,
0,
0,
1,
0,
0,
0,
0,
0,
1,
0,
0,
0,
0,
0,
1,
0,
0,
0,
0,
0,
0,
1,
0,
0,
0,
0,
0,
0,
0,
0,
0,
0,
0,
0,
0,
0,
0,
0,
0,
0,
0,
0,
0,
0,
0,
0,
0,
0,
0,
0,
0,
0,
0,
0,
0,
0,
0,
0,
0,
0,
0,
0,
0,
0,
0,
0,
0,
0,
0,
0,
0,
0,
0,
0,
0,
0,
0,
0,
0,
0,
0,
0,
1,
0,
0,
0,
0,
0,
0,
0,
0,
0,
0,
1,
0,
0,
0,
0,
0,
0,
0,
0,
0,
0,
0,
0,
0,
0,
0,
0,
0,
0,
0,
0,
0,
0,
0,
0,
0,
0,
0,
0,
0,
0,
0,
0,
0,
0,
0,
0,
0,
0,
0,
0,
0,
0,
0,
0,
0,
0,
0,
0,
0,
0,
0,
0,
0,
0,
0,
0,
0,
0,
0,
0,
0,
0,
0,
0,
0,
0,
0,
0,
0,
0,
0,
0,
0,
0,
0,
0,
0,
0,
0,
0,
0,
0,
0,
0,
0,
0,
0,
0,
0,
0,
0,
0,
0,
0,
0,
0,
0,
0,
0,
0,
0,
0,
0,
0,
0,
0,
0,
0,
0,
0,
0,
0,
0,
0,
0,
0,
0,
0,
0,
0,
#ENDOFDATA   :