File: N132962/Standards/20 keV/Rh std.msa
#FORMAT      : EMSA/MAS Spectral Data File
#VERSION     : 1.0
#TITLE       : G588 Rh[0][all]+G588 Rh[1][all]+G588 Rh[2][all]+G588 Rh[3][all]+G588 Rh[4][all]
#NPOINTS     : 4096
#NCOLUMNS    : 1
#XUNITS      : eV
#YUNITS      : counts
#DATATYPE    : Y
#SIGNALTYPE  : EDS
#XLABEL      : Energy (eV)
#YLABEL      : Counts
#XPERCHAN -eV: 9.99778
#OFFSET   -eV: 1.69135
#CHOFFSET    : 0
#OWNER       : Unknown
#ELEVANGLE   : 35
#BEAMKV   -kV: 20
#LIVETIME  -s: 1200.9
#REALTIME  -s: 1339.39
#PROBECUR -nA: 1.04548
##WORKING -mm: 15
##D2STDCMP   : Rh,(Rh:100.0000),5.000
#SPECTRUM    :
148,
162,
113,
609,
3463,
13990,
46984,
164848,
346447,
291691,
120462,
46436,
24324,
19293,
18046,
18825,
22559,
26157,
23026,
19474,
19605,
20103,
21767,
23873,
24548,
22995,
23297,
25674,
28603,
30956,
36880,
51312,
56901,
45647,
37149,
39008,
44851,
45302,
42274,
40946,
40902,
41560,
42470,
42667,
43126,
43623,
44262,
45410,
45740,
47040,
47947,
47810,
47047,
46639,
47711,
48601,
49874,
53560,
56025,
55105,
52727,
50699,
47118,
45730,
45596,
46652,
46572,
46942,
47323,
46965,
47579,
46754,
47388,
47072,
47585,
48863,
52687,
63703,
85739,
104990,
100210,
78515,
64866,
66339,
73455,
84180,
118361,
262465,
672915,
1308057,
1633858,
1283611,
734659,
555461,
664486,
682345,
510500,
319592,
209850,
162475,
139853,
112763,
79292,
59287,
55554,
54540,
45198,
32809,
25697,
24019,
26699,
31012,
33659,
31880,
27222,
22896,
21045,
20226,
20292,
20290,
20122,
20500,
20561,
20534,
20613,
20925,
21192,
20853,
21238,
20739,
21020,
21475,
21166,
21213,
21380,
21108,
21256,
21272,
21100,
21335,
21406,
21564,
21345,
21343,
21393,
21602,
21207,
21520,
21462,
21500,
21427,
21415,
21247,
21493,
21187,
21300,
21229,
21298,
21147,
21214,
21493,
21061,
20935,
20822,
21066,
20890,
20825,
20668,
20607,
20728,
20735,
20594,
20836,
20578,
20727,
20506,
20723,
21372,
22185,
23574,
24416,
23978,
23205,
22399,
22335,
21846,
21535,
21026,
20532,
20303,
19983,
19844,
19700,
19517,
19258,
19309,
19269,
19077,
19058,
18643,
18865,
18251,
18343,
18065,
18016,
17848,
17660,
18047,
17989,
18387,
18706,
20269,
21895,
22746,
22707,
20805,
19208,
18081,
17276,
16758,
16907,
16756,
16542,
16811,
16554,
16353,
16369,
16198,
15915,
16173,
16059,
16079,
16083,
16229,
16247,
16238,
16296,
15919,
15668,
15737,
15110,
15237,
15009,
15026,
15090,
15003,
15375,
15706,
15862,
15907,
15798,
15423,
14917,
14360,
14244,
14287,
13845,
14028,
13802,
13992,
13727,
13471,
13727,
13719,
13443,
13590,
13292,
13342,
13350,
13422,
13276,
13154,
13115,
12906,
13072,
13037,
12818,
12869,
12893,
12368,
12387,
12289,
12388,
12235,
12219,
12110,
12243,
12043,
11858,
11777,
11842,
11845,
11697,
11484,
11377,
11538,
11466,
11250,
11213,
11066,
10883,
11216,
10971,
10938,
10922,
10858,
10725,
10677,
10471,
10576,
10372,
10469,
10313,
10235,
10201,
10251,
10214,
10031,
10079,
10058,
9955,
9924,
9854,
9704,
9724,
9800,
9538,
9510,
9295,
9565,
9408,
9267,
9464,
9289,
8969,
9161,
8972,
8827,
8987,
8844,
9070,
8848,
8855,
8715,
8641,
8338,
8631,
8331,
8380,
8307,
8373,
8308,
8167,
8179,
8084,
7992,
7915,
7851,
7788,
7866,
7678,
7721,
7633,
7499,
7455,
7489,
7548,
7446,
7119,
7289,
7221,
7131,
7128,
7216,
7033,
7063,
6834,
6936,
6843,
6917,
6603,
6690,
6616,
6412,
6443,
6586,
6438,
6337,
6437,
6259,
6163,
6201,
6156,
6166,
6126,
6125,
5986,
5904,
5810,
5878,
5597,
5779,
5639,
5726,
5517,
5635,
5477,
5414,
5394,
5389,
5286,
5251,
5282,
5203,
5178,
5114,
5088,
5027,
5014,
4955,
4930,
4951,
4977,
4883,
4836,
4672,
4652,
4614,
4728,
4596,
4513,
4613,
4562,
4493,
4388,
4176,
4314,
4294,
4230,
4116,
4175,
4237,
4135,
4100,
3916,
3904,
3920,
3866,
3932,
3966,
3772,
3834,
3798,
3675,
3714,
3575,
3510,
3538,
3482,
3532,
3487,
3521,
3465,
3326,
3341,
3309,
3214,
3286,
3137,
3238,
3157,
3156,
2995,
2945,
3004,
2904,
2929,
2865,
2924,
2946,
2899,
2838,
2745,
2852,
2822,
2681,
2734,
2641,
2602,
2621,
2522,
2552,
2604,
2392,
2499,
2380,
2393,
2426,
2460,
2347,
2342,
2306,
2280,
2180,
2264,
2180,
2168,
2100,
2217,
2142,
2100,
2087,
2043,
2006,
2012,
2006,
1952,
2003,
1904,
1873,
1835,
1799,
1828,
1799,
1769,
1747,
1765,
1696,
1747,
1750,
1620,
1691,
1594,
1628,
1524,
1565,
1511,
1564,
1559,
1488,
1455,
1396,
1446,
1371,
1414,
1429,
1362,
1337,
1344,
1341,
1325,
1287,
1220,
1206,
1228,
1194,
1172,
1181,
1193,
1107,
1113,
1090,
1133,
1094,
1053,
1140,
1053,
1041,
998,
1002,
1032,
990,
974,
954,
963,
904,
929,
921,
910,
853,
882,
908,
869,
823,
764,
766,
761,
788,
751,
751,
711,
706,
661,
688,
707,
610,
637,
632,
631,
635,
578,
636,
630,
618,
547,
544,
550,
522,
532,
484,
493,
493,
488,
467,
442,
443,
429,
399,
427,
397,
424,
397,
393,
374,
367,
350,
382,
342,
332,
308,
305,
314,
303,
269,
296,
273,
234,
239,
241,
250,
224,
219,
214,
191,
194,
197,
180,
177,
149,
160,
132,
132,
145,
137,
119,
111,
87,
118,
91,
81,
66,
59,
55,
46,
38,
39,
24,
21,
26,
14,
22,
17,
23,
25,
16,
11,
11,
12,
11,
14,
18,
19,
15,
15,
10,
12,
10,
16,
12,
8,
13,
12,
8,
16,
15,
8,
13,
7,
10,
11,
7,
12,
18,
10,
10,
7,
4,
9,
7,
6,
5,
12,
18,
3,
12,
9,
9,
10,
9,
6,
10,
11,
11,
10,
13,
11,
10,
9,
4,
9,
4,
6,
13,
9,
12,
2,
12,
4,
5,
3,
10,
9,
8,
5,
9,
5,
4,
6,
7,
3,
10,
5,
7,
4,
7,
2,
8,
4,
6,
2,
3,
6,
4,
9,
6,
5,
2,
3,
3,
4,
3,
6,
3,
5,
2,
1,
5,
2,
2,
1,
7,
4,
2,
3,
6,
9,
3,
4,
1,
1,
4,
7,
1,
1,
3,
2,
3,
4,
3,
6,
5,
4,
3,
2,
2,
3,
1,
3,
1,
3,
0,
1,
5,
4,
6,
2,
3,
2,
1,
2,
2,
5,
1,
4,
3,
5,
4,
3,
1,
6,
3,
4,
0,
3,
3,
3,
2,
3,
5,
2,
4,
1,
2,
2,
1,
2,
1,
4,
3,
2,
4,
4,
0,
4,
0,
0,
2,
3,
5,
1,
2,
3,
0,
5,
2,
2,
3,
0,
3,
2,
1,
2,
1,
3,
1,
2,
2,
1,
0,
3,
1,
1,
1,
2,
2,
4,
2,
5,
1,
2,
3,
0,
1,
2,
0,
1,
2,
0,
2,
3,
0,
3,
1,
0,
3,
0,
4,
1,
2,
1,
2,
4,
1,
1,
1,
2,
2,
1,
0,
4,
2,
0,
2,
2,
2,
0,
1,
2,
0,
2,
0,
1,
1,
0,
1,
2,
0,
2,
1,
1,
1,
0,
2,
0,
0,
2,
2,
0,
0,
0,
0,
0,
1,
0,
0,
2,
0,
0,
0,
0,
0,
1,
3,
1,
1,
0,
1,
2,
1,
0,
0,
0,
0,
0,
0,
1,
1,
0,
1,
0,
0,
0,
1,
0,
1,
0,
0,
0,
1,
0,
0,
0,
0,
0,
1,
0,
1,
1,
0,
0,
1,
2,
0,
0,
1,
0,
0,
0,
0,
0,
0,
0,
0,
1,
1,
1,
0,
0,
0,
0,
1,
0,
0,
0,
0,
0,
0,
0,
0,
0,
1,
0,
0,
0,
0,
0,
1,
0,
0,
0,
0,
0,
0,
1,
1,
0,
0,
0,
0,
0,
1,
0,
0,
0,
0,
0,
0,
0,
0,
0,
0,
0,
0,
0,
0,
0,
0,
1,
1,
0,
0,
0,
0,
0,
0,
0,
0,
0,
0,
1,
0,
0,
0,
0,
0,
0,
0,
0,
1,
0,
0,
0,
0,
0,
0,
0,
0,
0,
0,
0,
0,
0,
0,
0,
0,
1,
0,
0,
0,
0,
0,
0,
0,
0,
0,
0,
0,
0,
0,
0,
0,
0,
0,
0,
0,
0,
0,
0,
0,
0,
1,
0,
0,
0,
0,
0,
1,
0,
0,
0,
0,
0,
0,
0,
0,
0,
0,
0,
0,
1,
0,
0,
0,
0,
0,
0,
0,
0,
0,
1,
0,
0,
0,
0,
0,
0,
0,
0,
0,
0,
0,
0,
0,
0,
0,
0,
0,
0,
0,
0,
0,
0,
0,
0,
0,
0,
0,
0,
0,
0,
0,
0,
0,
0,
0,
0,
0,
0,
0,
0,
0,
0,
0,
0,
0,
0,
0,
0,
0,
0,
0,
0,
0,
0,
0,
0,
0,
0,
0,
0,
0,
0,
0,
0,
0,
0,
0,
0,
0,
0,
0,
0,
0,
0,
0,
0,
0,
0,
0,
0,
0,
0,
0,
0,
0,
0,
0,
0,
0,
0,
0,
0,
0,
0,
0,
0,
0,
0,
0,
0,
0,
0,
0,
0,
0,
0,
0,
0,
0,
0,
0,
0,
0,
0,
0,
0,
0,
0,
0,
0,
0,
0,
0,
0,
0,
0,
0,
0,
0,
0,
0,
0,
0,
0,
0,
0,
0,
0,
0,
0,
0,
0,
0,
0,
0,
0,
0,
0,
0,
0,
0,
0,
0,
0,
0,
0,
0,
0,
0,
0,
0,
0,
0,
0,
0,
0,
0,
0,
0,
0,
0,
0,
0,
0,
0,
0,
0,
0,
0,
0,
0,
0,
0,
0,
0,
0,
0,
0,
0,
0,
0,
0,
0,
0,
0,
0,
0,
0,
0,
0,
0,
0,
0,
0,
0,
0,
#ENDOFDATA   :