File: N132962/Standards/20 keV/Ru std.msa
#FORMAT      : EMSA/MAS Spectral Data File
#VERSION     : 1.0
#TITLE       : Ru std
#DATE        : 25-SEP-2025
#TIME        : 15:15
#OWNER       : Unknown
#NPOINTS     : 4096
#NCOLUMNS    : 1
#XUNITS      : eV
#YUNITS      : counts
#DATATYPE    : Y
#XPERCHAN    : 9.99778
#OFFSET      : 1.69135
#BEAMKV      : 20
#SIGNALTYPE  : EDS
#ELEVANGLE   : 35
#AZIMANGLE   : 0
#LIVETIME    : 961.318
#REALTIME    : 1090.15
#PROBECUR    : 1.18489
#TAUWIND     : 0
#TDEADLYR    : 0
#TACTLYR     : 0.045
#TALWIND     : 0.025
#CHOFFSET    : 0.0
#XLABEL      : Energy (eV)
#YLABEL      : Counts
#EDSDET      : SD
##SPECIMEN   : Ru std
##D2STDCMP   : Ru,(Ru:100.0),5.0
##DET_HASH   : 12273538-fd48-a23f-0a19-f1e6fa85caef
##CALIB_HASH : 6abaa72c-aa41-8738-0be9-f592914732f3
##WORKING    : 15.0 mm
##SAMPLE     : <BulkSample id="1">\n<mOrientation id="2">\n<double>0.0</double>\n<double>0.0</double>\n<double>-1.0</double>\n</mOrientation>\n</BulkSample>
##MULTISPEC  : 2.13394
##DET_NAME   : EDAX All
##DET_MODE   : MediumLE
#SPECTRUM    :
106,
128,
77,
501,
3421,
19149,
98584,
271903,
290825,
145008,
51768,
21333,
17026,
17065,
16112,
17552,
20825,
25038,
22035,
16233,
15686,
16626,
18556,
20317,
21882,
25479,
37968,
51691,
45890,
34141,
33939,
39510,
38540,
34604,
33724,
33594,
34128,
34750,
35590,
36165,
37580,
38361,
39351,
40109,
40394,
41326,
41603,
42620,
43318,
44145,
44409,
44578,
44243,
44069,
44497,
45012,
46849,
49698,
52138,
52120,
49768,
46772,
44119,
42850,
42529,
42670,
42672,
43012,
42736,
43602,
43967,
45431,
50044,
62489,
84478,
101703,
93039,
73974,
65463,
70907,
80284,
98736,
175626,
448551,
1018009,
1537602,
1443988,
922484,
638881,
678707,
662382,
479352,
295172,
192827,
142736,
109755,
78722,
57087,
48895,
45541,
37568,
27874,
22192,
21503,
23805,
28090,
29822,
28263,
23865,
20436,
18791,
18496,
18354,
18906,
18853,
18908,
19143,
19465,
18962,
19480,
19556,
19723,
20153,
20322,
20525,
20017,
19686,
19494,
19515,
19560,
19686,
19753,
20088,
19945,
19984,
19904,
19987,
19897,
20107,
19912,
20220,
20030,
20139,
19883,
19843,
20034,
20219,
20376,
20890,
21893,
22381,
21912,
21158,
20367,
19920,
19316,
19677,
19556,
19471,
19638,
19554,
19671,
19659,
19612,
19722,
20044,
19534,
19851,
20300,
21199,
22024,
22599,
22334,
21844,
21763,
21585,
21026,
20487,
19972,
19540,
19312,
19016,
18779,
18435,
18315,
18225,
18035,
17826,
17910,
17401,
17604,
17639,
17600,
17214,
17239,
17273,
17214,
17102,
16817,
16958,
17004,
16581,
16319,
16673,
16502,
16500,
16675,
16082,
16297,
16218,
16580,
16995,
17542,
17810,
17438,
16816,
16357,
15855,
15493,
15335,
15298,
15373,
15146,
15041,
14874,
14858,
14994,
14717,
14929,
14477,
14720,
14661,
14672,
14596,
14458,
14537,
14528,
14359,
14091,
13922,
13957,
13901,
13738,
13496,
13626,
13665,
13921,
13887,
14190,
14300,
14073,
13666,
13397,
13190,
12932,
12880,
12976,
12901,
12544,
12780,
12749,
12313,
12364,
12690,
12258,
12238,
12362,
12394,
12189,
12012,
12142,
11902,
11807,
11769,
11814,
11610,
11491,
11575,
11447,
11359,
11293,
11217,
10997,
11032,
10915,
11033,
11051,
10912,
10821,
10672,
10672,
10692,
10602,
10396,
10396,
10433,
10303,
10140,
10233,
10132,
9963,
10074,
9832,
9845,
9806,
9766,
9712,
9695,
9778,
9518,
9359,
9451,
9382,
9295,
9232,
9156,
9189,
9339,
9138,
9101,
9054,
8889,
8849,
8784,
8668,
8827,
8581,
8566,
8613,
8548,
8540,
8432,
8473,
8328,
8258,
8158,
8249,
8209,
7997,
7890,
7905,
7910,
7944,
7797,
7711,
7645,
7762,
7642,
7542,
7418,
7390,
7466,
7461,
7370,
7314,
7190,
7127,
7169,
7117,
6996,
7065,
6895,
6864,
6781,
6914,
6757,
6805,
6677,
6532,
6557,
6565,
6424,
6479,
6359,
6397,
6355,
6326,
6170,
6103,
6084,
6094,
6117,
5935,
5957,
5897,
5815,
5741,
5743,
5722,
5680,
5635,
5593,
5389,
5610,
5359,
5377,
5402,
5300,
5278,
5334,
5269,
5168,
5113,
4991,
5111,
5006,
4907,
4974,
4983,
4788,
4818,
4701,
4703,
4786,
4614,
4780,
4510,
4617,
4616,
4513,
4413,
4490,
4415,
4412,
4238,
4246,
4307,
4186,
4292,
4099,
4100,
4120,
3983,
4000,
3936,
3928,
3941,
3896,
3759,
3835,
3737,
3700,
3608,
3720,
3631,
3584,
3589,
3495,
3531,
3448,
3358,
3396,
3331,
3362,
3360,
3245,
3186,
3291,
3255,
3192,
3041,
3030,
2928,
3196,
3017,
3055,
2853,
2897,
2910,
2721,
2897,
2825,
2810,
2666,
2745,
2728,
2721,
2722,
2516,
2626,
2552,
2557,
2516,
2480,
2514,
2470,
2525,
2491,
2353,
2333,
2317,
2294,
2218,
2223,
2181,
2263,
2233,
2084,
2129,
2182,
2014,
2114,
2005,
2074,
1978,
2001,
1944,
1921,
1931,
2016,
1875,
1829,
1792,
1850,
1842,
1804,
1837,
1762,
1737,
1675,
1698,
1647,
1582,
1647,
1563,
1612,
1630,
1566,
1537,
1564,
1446,
1480,
1431,
1428,
1376,
1378,
1370,
1356,
1378,
1331,
1359,
1262,
1331,
1292,
1230,
1238,
1300,
1173,
1221,
1206,
1179,
1172,
1109,
1057,
1108,
1053,
1024,
1010,
1001,
1034,
1061,
1010,
1022,
1047,
922,
938,
992,
914,
918,
932,
945,
896,
864,
852,
837,
878,
834,
849,
825,
739,
830,
768,
735,
745,
749,
656,
704,
694,
657,
663,
626,
641,
649,
636,
596,
608,
616,
544,
566,
587,
539,
546,
498,
501,
523,
460,
475,
457,
448,
435,
441,
444,
411,
410,
409,
444,
398,
367,
382,
375,
350,
372,
354,
351,
335,
381,
323,
302,
314,
273,
292,
281,
265,
244,
252,
233,
237,
196,
195,
216,
212,
220,
188,
184,
182,
183,
168,
167,
163,
141,
148,
146,
119,
107,
92,
90,
87,
90,
70,
69,
63,
65,
52,
52,
38,
27,
20,
26,
14,
17,
20,
16,
27,
16,
15,
17,
14,
17,
13,
10,
15,
13,
9,
15,
15,
9,
10,
14,
17,
15,
10,
14,
14,
14,
8,
16,
14,
11,
13,
9,
10,
12,
14,
9,
11,
11,
11,
10,
11,
9,
8,
14,
9,
13,
9,
5,
12,
17,
12,
11,
5,
10,
7,
8,
9,
10,
1,
13,
12,
7,
7,
9,
7,
5,
4,
9,
6,
7,
7,
7,
2,
4,
4,
4,
4,
4,
5,
4,
7,
6,
6,
3,
9,
7,
2,
10,
8,
3,
3,
5,
3,
3,
7,
3,
6,
6,
3,
1,
5,
2,
3,
8,
5,
4,
0,
5,
5,
2,
1,
3,
4,
3,
3,
3,
1,
4,
4,
2,
5,
2,
2,
3,
1,
2,
2,
2,
3,
5,
3,
3,
3,
2,
2,
0,
5,
1,
1,
2,
5,
2,
5,
1,
3,
5,
1,
3,
3,
3,
3,
1,
2,
0,
2,
3,
3,
4,
4,
5,
3,
7,
2,
1,
2,
1,
0,
3,
0,
4,
3,
6,
2,
6,
3,
1,
2,
1,
2,
2,
4,
3,
2,
5,
3,
3,
2,
2,
1,
1,
3,
2,
6,
6,
1,
1,
5,
1,
3,
2,
1,
4,
2,
6,
2,
2,
4,
0,
3,
5,
0,
2,
1,
1,
1,
0,
0,
3,
0,
3,
2,
2,
1,
2,
0,
6,
4,
1,
1,
3,
3,
1,
2,
2,
1,
2,
2,
1,
2,
1,
0,
0,
1,
3,
0,
0,
1,
4,
0,
2,
0,
3,
1,
2,
1,
0,
3,
0,
0,
2,
0,
0,
1,
1,
0,
2,
2,
4,
4,
0,
1,
0,
1,
3,
3,
2,
1,
0,
0,
1,
0,
2,
0,
0,
1,
0,
0,
1,
0,
2,
1,
0,
2,
4,
1,
1,
2,
3,
1,
0,
0,
0,
2,
0,
2,
2,
0,
1,
1,
1,
0,
0,
1,
1,
1,
1,
1,
1,
1,
1,
0,
0,
1,
0,
0,
0,
0,
2,
0,
0,
0,
0,
2,
0,
0,
0,
0,
0,
0,
0,
0,
0,
0,
0,
0,
0,
0,
1,
0,
1,
0,
1,
0,
0,
1,
0,
0,
0,
0,
0,
0,
0,
1,
1,
0,
1,
0,
0,
1,
0,
1,
0,
0,
0,
0,
0,
0,
1,
0,
0,
0,
0,
1,
0,
1,
0,
0,
0,
0,
0,
1,
1,
0,
0,
0,
0,
1,
1,
0,
0,
0,
0,
0,
0,
0,
0,
0,
0,
0,
0,
0,
0,
0,
0,
0,
0,
1,
0,
1,
0,
0,
0,
0,
0,
0,
1,
0,
0,
0,
1,
0,
0,
0,
0,
0,
0,
0,
0,
0,
0,
0,
0,
0,
0,
0,
0,
0,
0,
0,
0,
0,
0,
0,
0,
0,
1,
0,
0,
0,
0,
0,
0,
0,
1,
0,
0,
0,
0,
0,
1,
0,
0,
0,
0,
0,
0,
0,
0,
0,
0,
0,
0,
0,
0,
0,
0,
0,
0,
0,
0,
0,
0,
0,
0,
0,
0,
0,
0,
0,
0,
0,
0,
0,
0,
0,
0,
0,
0,
0,
0,
0,
0,
0,
0,
0,
0,
0,
0,
0,
0,
0,
0,
0,
0,
0,
0,
0,
0,
0,
0,
0,
0,
0,
0,
0,
0,
0,
0,
0,
0,
0,
0,
0,
0,
0,
0,
0,
0,
0,
0,
0,
0,
0,
0,
0,
0,
0,
0,
0,
0,
0,
0,
0,
0,
1,
0,
0,
0,
0,
0,
0,
0,
0,
0,
0,
0,
0,
0,
0,
0,
0,
0,
0,
0,
0,
0,
0,
0,
0,
0,
0,
0,
0,
0,
0,
0,
0,
0,
0,
0,
0,
0,
0,
0,
0,
0,
0,
0,
0,
0,
0,
0,
0,
0,
0,
0,
0,
0,
0,
0,
0,
0,
0,
0,
0,
0,
0,
0,
0,
0,
0,
0,
0,
0,
0,
0,
0,
0,
0,
0,
0,
0,
0,
0,
0,
0,
0,
0,
0,
0,
0,
0,
0,
0,
0,
0,
0,
0,
0,
0,
0,
0,
0,
0,
0,
0,
0,
0,
0,
0,
0,
0,
0,
0,
0,
0,
0,
0,
0,
0,
0,
0,
0,
0,
0,
0,
0,
0,
0,
0,
0,
0,
0,
0,
0,
0,
0,
0,
#ENDOFDATA   :