File: N132962/Standards/20 keV/Sb std.msa
#FORMAT      : EMSA/MAS Spectral Data File
#VERSION     : 1.0
#TITLE       : Sb std
#DATE        : 20-FEB-2025
#TIME        : 13:08
#OWNER       : Unknown
#NPOINTS     : 4096
#NCOLUMNS    : 1
#XUNITS      : eV
#YUNITS      : counts
#DATATYPE    : Y
#XPERCHAN    : 9.99778
#OFFSET      : 1.69135
#BEAMKV      : 20
#SIGNALTYPE  : EDS
#ELEVANGLE   : 35
#AZIMANGLE   : 0
#LIVETIME    : 1206.72
#REALTIME    : 1338.39
#PROBECUR    : 1.04644
#TAUWIND     : 0
#TDEADLYR    : 0
#TACTLYR     : 0.045
#TALWIND     : 0.025
#CHOFFSET    : 0.0
#XLABEL      : Energy (eV)
#YLABEL      : Counts
#EDSDET      : SD
##SPECIMEN   : Sb std
##D2STDCMP   : Sb,(Sb:100.0),5.0
##DET_HASH   : 12273538-fd48-a23f-0a19-f1e6fa85caef
##CALIB_HASH : 6abaa72c-aa41-8738-0be9-f592914732f3
##WORKING    : 15.0 mm
##SAMPLE     : <BulkSample id="1">\n<mOrientation id="2">\n<double>0.0</double>\n<double>0.0</double>\n<double>-1.0</double>\n</mOrientation>\n</BulkSample>
##MULTISPEC  : 1.23171
##DET_NAME   : EDAX All
##DET_MODE   : MediumLE
#SPECTRUM    :
137,
152,
71,
387,
3247,
13160,
29405,
47777,
67787,
75265,
62313,
62147,
100135,
205522,
273490,
184318,
101288,
88299,
65591,
34545,
23298,
22487,
24441,
29397,
33656,
32287,
28095,
25013,
24785,
23639,
21963,
21784,
22103,
22790,
23387,
24359,
25100,
25942,
26425,
27784,
28486,
29146,
30185,
30612,
31931,
32453,
33127,
34429,
36410,
37968,
38393,
37802,
37491,
37372,
38301,
38594,
40719,
44117,
46290,
46355,
48066,
51139,
51844,
47855,
41933,
39668,
39835,
39441,
40963,
43282,
45241,
44699,
42932,
42064,
41794,
40906,
41357,
41592,
42321,
42393,
41910,
40957,
40671,
40313,
40441,
40920,
41202,
41243,
41407,
40553,
40280,
40319,
40090,
40225,
39942,
40091,
39669,
40094,
39632,
39103,
39521,
39459,
40426,
42956,
51061,
65678,
76711,
74952,
61550,
48239,
42131,
41037,
43045,
48908,
56530,
65152,
88887,
183801,
438626,
834291,
1100192,
975588,
585486,
256290,
114261,
116809,
223866,
402404,
542071,
531541,
408869,
274294,
178799,
118836,
99711,
122841,
164377,
174923,
140870,
88109,
50959,
35828,
37101,
48126,
64231,
72290,
63498,
45690,
31785,
25727,
26253,
31943,
39489,
43321,
40720,
33364,
27057,
22744,
20943,
20001,
19581,
19394,
19245,
19246,
19024,
19188,
19356,
19055,
19300,
19482,
19573,
19138,
19241,
19353,
19242,
19134,
19286,
19589,
19977,
20313,
20572,
20509,
19988,
19497,
19274,
19001,
19023,
19078,
18684,
18943,
18949,
19038,
18844,
18696,
18696,
18724,
18763,
19144,
18582,
18621,
18406,
18490,
18422,
17897,
18346,
18393,
17864,
17892,
18060,
18538,
19002,
20556,
22354,
23476,
22838,
21314,
19500,
18283,
17534,
17454,
17406,
17327,
17022,
16977,
16910,
16753,
16868,
16730,
16727,
16806,
16518,
16645,
16710,
16694,
16992,
17086,
16858,
16457,
16434,
16911,
16821,
16910,
16419,
16371,
16046,
16187,
16573,
17238,
17740,
17809,
17543,
16888,
16062,
15739,
15182,
15203,
15207,
15380,
15139,
14866,
14748,
14703,
14545,
14469,
14286,
14482,
14187,
14311,
14195,
14012,
13882,
13952,
13850,
13782,
13901,
13813,
13454,
13460,
13247,
13052,
13085,
13203,
13164,
12987,
12852,
12889,
12965,
12811,
12787,
12513,
12655,
12487,
12426,
12401,
12301,
12293,
12006,
11980,
11950,
12072,
11899,
11762,
11808,
11681,
11695,
11619,
11479,
11540,
11584,
11358,
11294,
11046,
11210,
11023,
11008,
10847,
11036,
10960,
10910,
10600,
10740,
10640,
10557,
10721,
10439,
10463,
10317,
10272,
10283,
10142,
10230,
10041,
10035,
9886,
9777,
9666,
9769,
9832,
9635,
9466,
9448,
9504,
9369,
9500,
9333,
9228,
9200,
9042,
9022,
8955,
8965,
8926,
8844,
8914,
8838,
8651,
8801,
8575,
8697,
8255,
8332,
8373,
8173,
8154,
8142,
8026,
8103,
8120,
8056,
7912,
7771,
7725,
7859,
7682,
7591,
7427,
7508,
7539,
7398,
7312,
7420,
7229,
7187,
7121,
7085,
7197,
6920,
6951,
7113,
6886,
6937,
6737,
6775,
6565,
6670,
6594,
6652,
6513,
6460,
6531,
6387,
6272,
6185,
6262,
6219,
6001,
6059,
6030,
5974,
5946,
5911,
5868,
5717,
5761,
5711,
5678,
5644,
5663,
5557,
5593,
5428,
5596,
5348,
5317,
5182,
5156,
5224,
5124,
5222,
4954,
5071,
4895,
4872,
4908,
4867,
4875,
4740,
4694,
4690,
4734,
4598,
4635,
4384,
4410,
4431,
4449,
4256,
4310,
4339,
4267,
4266,
4278,
4182,
4174,
4115,
3975,
4086,
3986,
3930,
3875,
3883,
3942,
3787,
3685,
3666,
3690,
3675,
3664,
3618,
3533,
3500,
3466,
3448,
3417,
3511,
3351,
3309,
3301,
3299,
3199,
3151,
3165,
3126,
3097,
3076,
3059,
3014,
2959,
2878,
2912,
2791,
2839,
2807,
2812,
2795,
2795,
2727,
2698,
2641,
2614,
2598,
2632,
2558,
2508,
2513,
2465,
2376,
2512,
2332,
2388,
2345,
2297,
2291,
2241,
2221,
2207,
2170,
2153,
2231,
2146,
2168,
2086,
2059,
2032,
2075,
2045,
2026,
1976,
2018,
1875,
1840,
1890,
1798,
1767,
1786,
1744,
1763,
1724,
1755,
1673,
1680,
1607,
1619,
1637,
1537,
1605,
1603,
1554,
1540,
1534,
1494,
1496,
1477,
1375,
1408,
1410,
1429,
1333,
1365,
1342,
1279,
1268,
1299,
1244,
1266,
1294,
1221,
1156,
1177,
1158,
1126,
1142,
1173,
1105,
1077,
1012,
1037,
1041,
1023,
963,
998,
925,
930,
869,
952,
857,
887,
932,
857,
860,
838,
826,
821,
868,
819,
805,
747,
775,
740,
726,
736,
708,
740,
660,
671,
629,
637,
615,
605,
594,
578,
559,
571,
541,
566,
571,
525,
503,
489,
506,
487,
450,
432,
433,
440,
421,
392,
397,
398,
365,
376,
340,
328,
329,
319,
328,
315,
330,
264,
291,
293,
265,
277,
249,
226,
251,
220,
208,
214,
207,
187,
164,
157,
152,
142,
134,
122,
112,
139,
104,
78,
75,
70,
80,
54,
53,
33,
41,
29,
32,
23,
20,
26,
19,
22,
20,
23,
21,
23,
17,
23,
22,
20,
18,
24,
18,
15,
21,
15,
22,
20,
13,
11,
14,
18,
12,
21,
14,
19,
13,
16,
14,
13,
16,
19,
13,
14,
14,
13,
21,
15,
14,
18,
9,
20,
15,
12,
10,
12,
10,
11,
8,
14,
14,
9,
12,
7,
13,
4,
10,
9,
13,
8,
8,
6,
9,
10,
11,
11,
6,
9,
13,
9,
12,
9,
6,
11,
7,
2,
8,
4,
10,
6,
5,
8,
10,
7,
4,
6,
16,
6,
7,
6,
6,
8,
11,
11,
6,
2,
7,
5,
5,
4,
3,
5,
4,
5,
6,
6,
11,
5,
8,
3,
2,
8,
5,
11,
5,
3,
4,
4,
7,
5,
2,
6,
3,
5,
10,
5,
0,
5,
4,
5,
6,
2,
4,
3,
1,
4,
2,
6,
2,
5,
1,
2,
2,
2,
2,
4,
9,
5,
5,
1,
1,
2,
5,
4,
3,
4,
5,
4,
3,
4,
5,
6,
8,
5,
3,
5,
1,
3,
3,
1,
4,
1,
2,
0,
1,
5,
5,
2,
5,
5,
8,
3,
0,
3,
3,
3,
3,
4,
5,
4,
3,
1,
0,
3,
2,
2,
1,
3,
1,
3,
0,
6,
2,
4,
2,
2,
1,
1,
0,
1,
5,
3,
3,
3,
2,
2,
1,
6,
3,
0,
1,
2,
2,
1,
6,
1,
2,
0,
1,
1,
1,
4,
1,
1,
2,
2,
2,
2,
3,
1,
1,
0,
0,
2,
1,
2,
2,
1,
0,
3,
0,
0,
5,
1,
1,
2,
1,
1,
0,
1,
1,
0,
1,
2,
1,
1,
0,
1,
0,
2,
0,
2,
3,
1,
1,
0,
2,
1,
1,
3,
1,
1,
1,
0,
0,
2,
1,
0,
1,
1,
1,
0,
0,
0,
2,
0,
1,
0,
0,
0,
1,
0,
0,
0,
0,
0,
2,
0,
0,
1,
1,
0,
1,
0,
0,
0,
1,
1,
0,
0,
0,
0,
0,
0,
0,
0,
0,
1,
0,
1,
0,
0,
2,
1,
0,
0,
0,
0,
0,
0,
0,
1,
1,
0,
2,
1,
0,
0,
1,
0,
2,
0,
1,
1,
0,
0,
0,
1,
0,
0,
0,
2,
0,
1,
0,
0,
1,
0,
1,
0,
1,
0,
0,
0,
0,
0,
1,
0,
0,
0,
0,
0,
0,
0,
1,
0,
0,
0,
0,
0,
0,
0,
0,
0,
0,
0,
0,
0,
0,
0,
0,
0,
1,
0,
0,
0,
0,
0,
1,
0,
1,
0,
0,
0,
0,
1,
1,
0,
1,
0,
0,
0,
0,
0,
0,
0,
0,
1,
0,
0,
0,
0,
0,
1,
0,
1,
0,
0,
0,
0,
0,
0,
0,
0,
0,
0,
0,
0,
0,
0,
0,
0,
0,
0,
0,
0,
0,
0,
0,
1,
0,
0,
0,
0,
0,
0,
0,
0,
0,
0,
0,
0,
0,
1,
0,
0,
0,
0,
0,
1,
0,
0,
0,
1,
0,
0,
0,
0,
0,
0,
0,
0,
1,
0,
0,
0,
0,
0,
0,
0,
0,
0,
0,
0,
0,
0,
0,
0,
1,
0,
0,
0,
0,
0,
0,
0,
0,
0,
0,
0,
0,
0,
0,
0,
1,
0,
0,
0,
0,
0,
0,
0,
0,
0,
0,
0,
0,
0,
0,
0,
0,
0,
0,
0,
0,
0,
0,
0,
0,
0,
0,
0,
0,
0,
0,
0,
0,
0,
0,
0,
0,
0,
0,
0,
0,
0,
0,
0,
0,
0,
0,
0,
0,
0,
0,
0,
0,
0,
0,
0,
0,
0,
0,
0,
0,
0,
0,
0,
0,
0,
0,
0,
0,
0,
0,
0,
0,
0,
0,
0,
0,
0,
0,
0,
0,
0,
0,
0,
0,
0,
0,
0,
0,
0,
0,
0,
0,
0,
0,
0,
0,
0,
0,
0,
0,
0,
0,
0,
0,
0,
0,
0,
0,
0,
0,
0,
0,
0,
0,
0,
0,
0,
0,
0,
0,
0,
0,
0,
0,
0,
0,
0,
0,
0,
0,
0,
0,
0,
0,
0,
0,
0,
0,
0,
0,
0,
0,
0,
0,
0,
0,
0,
0,
0,
0,
0,
0,
0,
0,
0,
0,
0,
0,
0,
0,
0,
0,
0,
0,
0,
0,
0,
0,
#ENDOFDATA   :