File: N132962/Standards/20 keV/Sc std.msa
#FORMAT      : EMSA/MAS Spectral Data File
#VERSION     : 1.0
#TITLE       : Sc std
#DATE        : 20-FEB-2025
#TIME        : 16:15
#OWNER       : Unknown
#NPOINTS     : 4096
#NCOLUMNS    : 1
#XUNITS      : eV
#YUNITS      : counts
#DATATYPE    : Y
#XPERCHAN    : 9.99778
#OFFSET      : 1.69135
#BEAMKV      : 20
#SIGNALTYPE  : EDS
#ELEVANGLE   : 35
#AZIMANGLE   : 0
#LIVETIME    : 1199.48
#REALTIME    : 1320.01
#PROBECUR    : 1.04971
#TAUWIND     : 0
#TDEADLYR    : 0
#TACTLYR     : 0.045
#TALWIND     : 0.025
#CHOFFSET    : 0.0
#XLABEL      : Energy (eV)
#YLABEL      : Counts
#EDSDET      : SD
##SPECIMEN   : Sc std
##D2STDCMP   : Sc,(Sc:100.0)
##DET_HASH   : 12273538-fd48-a23f-0a19-f1e6fa85caef
##CALIB_HASH : 6abaa72c-aa41-8738-0be9-f592914732f3
##WORKING    : 15.0 mm
##SAMPLE     : <BulkSample id="1">\n<mOrientation id="2">\n<double>0.0</double>\n<double>0.0</double>\n<double>-1.0</double>\n</mOrientation>\n</BulkSample>
##MULTISPEC  : 17.6968
##DET_NAME   : EDAX All
##DET_MODE   : MediumLE
#SPECTRUM    :
146,
167,
55,
109,
674,
2829,
8362,
19027,
40122,
78340,
189875,
333445,
296050,
170811,
65552,
20855,
22007,
32562,
25693,
13268,
10769,
13885,
19608,
19954,
15745,
13466,
13732,
14801,
16568,
17314,
17399,
17803,
18716,
20176,
21579,
22272,
22265,
22651,
22941,
23790,
24689,
25466,
26208,
26847,
27118,
27656,
28329,
29114,
31799,
34029,
34906,
32762,
31504,
31097,
31148,
32077,
33593,
36242,
37956,
37322,
35253,
32750,
30770,
29475,
28961,
29351,
28887,
29090,
28872,
28805,
28827,
28574,
28556,
28711,
29172,
30832,
34823,
42962,
49048,
44766,
36011,
29400,
27300,
26889,
27035,
26658,
26742,
26538,
26439,
27326,
27569,
27582,
26338,
25823,
25101,
24761,
24467,
24552,
23909,
24042,
23720,
23521,
23247,
23001,
23145,
23227,
22883,
22712,
22527,
22782,
22518,
22229,
22458,
22324,
21983,
22340,
22233,
21815,
22178,
21798,
21690,
20971,
21047,
20668,
20208,
20221,
20373,
20962,
22268,
25446,
31212,
45888,
98912,
292003,
785273,
1569629,
2178518,
2062647,
1341483,
600095,
196300,
57599,
27557,
24943,
30987,
50932,
99546,
183213,
264922,
279786,
213992,
119196,
52379,
21681,
12423,
10241,
9925,
9865,
10070,
10180,
10074,
9890,
10055,
9922,
9871,
9676,
9868,
9543,
9906,
9708,
9769,
9902,
9825,
9769,
9608,
9732,
9678,
9767,
9717,
9889,
9991,
9673,
9617,
9539,
9554,
9404,
9351,
9528,
9301,
9200,
9389,
9251,
9181,
9196,
9093,
8940,
9329,
9194,
8905,
9021,
8891,
8924,
8936,
8537,
8675,
8880,
8580,
8806,
8713,
8832,
8905,
9288,
9691,
9984,
9737,
9265,
8771,
8294,
8145,
8192,
8107,
8155,
7973,
7873,
7877,
7788,
7798,
7794,
7769,
7833,
7836,
7571,
7882,
7638,
7712,
7545,
7475,
7496,
7421,
7333,
7268,
7270,
7290,
7218,
6916,
7055,
7024,
7098,
7719,
7443,
7337,
7030,
6858,
6759,
6679,
6571,
6568,
6575,
6463,
6661,
6552,
6245,
6495,
6286,
6186,
6314,
6281,
6393,
6679,
7208,
7869,
9163,
10220,
10340,
9662,
8488,
7180,
6550,
6142,
5776,
5777,
5887,
5956,
6348,
6487,
6496,
6574,
6246,
5905,
5631,
5456,
5301,
5354,
5414,
5307,
5195,
5207,
5220,
5117,
5284,
5248,
5127,
5065,
4827,
4986,
4872,
4743,
4799,
4837,
4703,
4787,
4766,
4574,
4660,
4643,
4548,
4556,
4663,
4405,
4493,
4479,
4423,
4511,
4383,
4340,
4380,
4292,
4276,
4358,
4180,
4071,
4209,
4147,
4133,
4004,
4120,
3943,
4007,
3920,
3947,
3856,
3846,
3840,
3829,
3787,
3743,
3727,
3773,
3697,
3638,
3648,
3719,
3497,
3686,
3448,
3494,
3436,
3441,
3472,
3375,
3398,
3283,
3214,
3298,
3264,
3315,
3234,
3167,
3207,
3157,
3078,
3156,
3126,
3158,
3031,
2945,
2971,
2989,
2839,
2903,
2840,
2913,
2895,
2781,
2854,
2838,
2687,
2759,
2620,
2699,
2650,
2624,
2654,
2670,
2586,
2521,
2596,
2487,
2536,
2531,
2439,
2480,
2315,
2394,
2409,
2327,
2234,
2360,
2257,
2245,
2265,
2258,
2172,
2154,
2124,
2149,
2167,
2127,
2119,
2131,
2078,
2141,
1994,
1966,
1963,
2020,
1967,
1928,
1862,
1861,
1829,
1831,
1839,
1896,
1884,
1780,
1743,
1808,
1667,
1745,
1750,
1732,
1635,
1652,
1655,
1686,
1588,
1712,
1616,
1538,
1574,
1570,
1549,
1487,
1484,
1416,
1451,
1444,
1380,
1390,
1389,
1366,
1280,
1400,
1318,
1325,
1279,
1291,
1250,
1305,
1302,
1325,
1249,
1212,
1195,
1096,
1245,
1142,
1213,
1162,
1155,
1115,
1106,
1084,
1071,
1118,
1120,
992,
986,
1041,
988,
1016,
979,
940,
977,
970,
887,
905,
936,
868,
863,
886,
892,
930,
854,
866,
847,
819,
850,
838,
829,
826,
801,
761,
764,
729,
738,
781,
718,
717,
697,
732,
710,
683,
686,
673,
644,
667,
619,
630,
611,
641,
648,
609,
623,
561,
548,
569,
572,
527,
581,
588,
552,
517,
539,
567,
512,
509,
463,
494,
519,
470,
467,
465,
451,
430,
460,
453,
487,
389,
435,
420,
391,
392,
358,
362,
406,
383,
385,
356,
361,
354,
353,
315,
304,
353,
344,
333,
303,
297,
292,
282,
288,
273,
256,
270,
302,
290,
229,
247,
247,
261,
213,
230,
202,
238,
228,
211,
218,
204,
184,
198,
216,
199,
199,
167,
174,
188,
170,
169,
166,
174,
139,
146,
156,
142,
144,
129,
133,
115,
127,
130,
124,
117,
117,
127,
112,
116,
99,
105,
99,
95,
92,
88,
76,
92,
75,
86,
71,
82,
69,
64,
70,
63,
55,
66,
42,
59,
45,
56,
46,
41,
35,
45,
30,
33,
34,
35,
14,
20,
17,
20,
13,
19,
13,
8,
7,
7,
18,
7,
8,
9,
7,
12,
5,
8,
5,
4,
5,
2,
7,
6,
8,
6,
7,
7,
4,
9,
2,
2,
7,
4,
3,
4,
4,
2,
4,
3,
6,
5,
5,
2,
6,
1,
8,
5,
3,
7,
2,
2,
5,
2,
3,
2,
2,
4,
2,
4,
2,
2,
2,
8,
3,
4,
2,
4,
6,
2,
3,
3,
3,
3,
3,
2,
5,
4,
3,
4,
4,
1,
3,
2,
2,
2,
2,
0,
1,
1,
2,
1,
0,
1,
0,
1,
0,
1,
2,
2,
1,
1,
0,
3,
1,
4,
5,
3,
1,
2,
0,
1,
1,
0,
0,
2,
0,
1,
2,
2,
0,
2,
2,
1,
0,
1,
2,
0,
0,
0,
1,
1,
1,
2,
0,
0,
1,
0,
0,
1,
2,
1,
1,
0,
1,
2,
0,
0,
0,
0,
1,
1,
0,
0,
0,
1,
2,
1,
0,
0,
0,
1,
0,
1,
0,
1,
1,
0,
0,
0,
1,
1,
1,
1,
0,
0,
0,
0,
0,
1,
0,
1,
0,
0,
0,
0,
0,
0,
1,
3,
1,
0,
4,
1,
0,
0,
0,
0,
1,
1,
0,
0,
0,
1,
1,
0,
0,
0,
1,
0,
1,
0,
0,
0,
1,
1,
0,
0,
0,
0,
2,
0,
0,
0,
0,
1,
0,
1,
0,
2,
1,
0,
0,
0,
0,
1,
0,
1,
0,
0,
0,
0,
0,
0,
0,
0,
1,
0,
0,
0,
0,
0,
0,
0,
0,
0,
0,
0,
0,
0,
0,
0,
0,
0,
0,
1,
0,
0,
0,
1,
0,
3,
0,
0,
0,
0,
0,
1,
0,
0,
0,
0,
0,
0,
0,
0,
1,
0,
0,
0,
0,
0,
0,
0,
1,
0,
0,
0,
0,
0,
0,
1,
1,
0,
0,
0,
0,
0,
0,
0,
0,
0,
0,
0,
0,
0,
0,
1,
0,
0,
1,
0,
0,
0,
0,
1,
0,
0,
0,
0,
0,
0,
0,
0,
0,
0,
0,
0,
0,
0,
0,
0,
0,
0,
0,
0,
0,
0,
0,
0,
0,
0,
0,
0,
0,
0,
0,
0,
0,
0,
1,
0,
0,
0,
0,
0,
0,
0,
1,
0,
0,
0,
0,
0,
1,
1,
0,
0,
0,
0,
0,
0,
0,
0,
0,
0,
0,
0,
0,
0,
0,
0,
0,
0,
0,
0,
0,
0,
0,
0,
0,
0,
0,
0,
0,
0,
0,
0,
0,
0,
0,
0,
0,
0,
0,
0,
0,
0,
0,
1,
0,
0,
0,
0,
0,
0,
0,
0,
0,
0,
1,
0,
0,
0,
0,
0,
0,
0,
0,
0,
0,
0,
0,
0,
0,
0,
0,
0,
1,
0,
0,
0,
0,
0,
0,
0,
0,
0,
0,
1,
0,
0,
0,
0,
0,
0,
0,
0,
0,
0,
0,
0,
0,
0,
0,
0,
0,
0,
0,
0,
0,
0,
0,
0,
0,
0,
0,
0,
0,
0,
0,
0,
0,
0,
0,
0,
0,
0,
0,
0,
0,
0,
0,
0,
0,
0,
0,
0,
0,
0,
0,
0,
0,
1,
0,
0,
0,
0,
0,
0,
0,
0,
0,
0,
0,
0,
0,
0,
0,
0,
0,
0,
0,
0,
0,
0,
0,
0,
0,
0,
0,
0,
0,
0,
0,
0,
0,
0,
0,
0,
0,
0,
0,
0,
0,
0,
0,
0,
0,
0,
0,
0,
0,
0,
0,
0,
0,
0,
0,
0,
0,
0,
0,
0,
0,
0,
0,
0,
0,
0,
0,
0,
0,
0,
0,
0,
0,
0,
0,
0,
0,
0,
0,
0,
0,
0,
0,
0,
0,
0,
0,
0,
0,
0,
0,
0,
0,
0,
0,
0,
0,
0,
0,
0,
0,
0,
0,
0,
0,
0,
0,
0,
0,
0,
0,
0,
0,
0,
0,
0,
0,
0,
0,
0,
0,
0,
0,
0,
0,
0,
0,
0,
0,
0,
0,
0,
0,
0,
0,
0,
0,
0,
0,
0,
0,
0,
0,
0,
0,
0,
0,
0,
0,
0,
0,
0,
0,
0,
0,
0,
0,
0,
0,
0,
0,
0,
0,
0,
0,
0,
0,
0,
0,
0,
0,
0,
0,
0,
0,
0,
0,
0,
0,
0,
0,
0,
0,
0,
0,
0,
0,
0,
0,
0,
0,
0,
0,
0,
#ENDOFDATA   :