File: N132962/Standards/20 keV/Si std.msa
#FORMAT      : EMSA/MAS Spectral Data File
#VERSION     : 1.0
#TITLE       : Si std
#DATE        : 20-FEB-2025
#TIME        : 16:09
#OWNER       : Unknown
#NPOINTS     : 4096
#NCOLUMNS    : 1
#XUNITS      : eV
#YUNITS      : counts
#DATATYPE    : Y
#XPERCHAN    : 9.99778
#OFFSET      : 1.69135
#BEAMKV      : 20
#SIGNALTYPE  : EDS
#ELEVANGLE   : 35
#AZIMANGLE   : 0
#LIVETIME    : 1201.07
#REALTIME    : 1374.47
#PROBECUR    : 1.04971
#TAUWIND     : 0
#TDEADLYR    : 0
#TACTLYR     : 0.045
#TALWIND     : 0.025
#CHOFFSET    : 0.0
#XLABEL      : Energy (eV)
#YLABEL      : Counts
#EDSDET      : SD
##SPECIMEN   : Si std
##D2STDCMP   : Si,(Si:100.0),2.95
##DET_HASH   : 12273538-fd48-a23f-0a19-f1e6fa85caef
##CALIB_HASH : 6abaa72c-aa41-8738-0be9-f592914732f3
##WORKING    : 15.0 mm
##SAMPLE     : <BulkSample id="1">\n<mOrientation id="2">\n<double>0.0</double>\n<double>0.0</double>\n<double>-1.0</double>\n</mOrientation>\n</BulkSample>
##MULTISPEC  : 1.50409
##DET_NAME   : EDAX All
##DET_MODE   : MediumLE
#SPECTRUM    :
121,
175,
395,
1062,
1163,
1709,
3645,
6968,
13204,
16142,
11540,
9520,
10103,
11104,
12126,
14189,
17598,
21671,
21404,
20180,
20822,
22186,
23969,
26206,
27605,
28808,
29845,
31940,
33130,
34156,
35049,
35552,
36924,
37275,
38300,
38755,
39163,
39381,
39827,
40026,
40482,
41021,
41701,
42256,
42676,
43915,
45099,
47560,
50920,
55547,
59846,
62119,
64598,
67753,
105005,
410141,
1789460,
4601656,
6151565,
4243187,
1647786,
534667,
226807,
86412,
25762,
10988,
9105,
8963,
9098,
9228,
9349,
9358,
9752,
9853,
10064,
10043,
10374,
10525,
10564,
10643,
10802,
10949,
10961,
10935,
11185,
11303,
11493,
11672,
11667,
11481,
11854,
11781,
11659,
11695,
11790,
11759,
11606,
11790,
11730,
11494,
11799,
11808,
11737,
11975,
11778,
11898,
11768,
11941,
11813,
11880,
12046,
12214,
13463,
18514,
31066,
48515,
56928,
48779,
32939,
21011,
15108,
12509,
11517,
10819,
10584,
10432,
10312,
10295,
10142,
10232,
10056,
10243,
10030,
9948,
10113,
9979,
9870,
9937,
9770,
9782,
9688,
9605,
9551,
9432,
9347,
9347,
9336,
9274,
9337,
9094,
9426,
9038,
8977,
9001,
8864,
8856,
8736,
8652,
8626,
8733,
8531,
8480,
8548,
8268,
8291,
8353,
8239,
8316,
8100,
8334,
8105,
8025,
8051,
8034,
7976,
8012,
7919,
7827,
7835,
7707,
7852,
7751,
7693,
7392,
7593,
7276,
7432,
7157,
7085,
6937,
7043,
7085,
6995,
7047,
6974,
6696,
6827,
6795,
6789,
6654,
6715,
6658,
6674,
6356,
6472,
6431,
6394,
6256,
6247,
6306,
6328,
6688,
7060,
7044,
7213,
6647,
6213,
6025,
5845,
5800,
5766,
5733,
5662,
5675,
5678,
5611,
5582,
5378,
5608,
5392,
5443,
5249,
5326,
5357,
5384,
5386,
5279,
5332,
5259,
5079,
5040,
4983,
4984,
4858,
5072,
4882,
5072,
4889,
4979,
5046,
5043,
4797,
4703,
4648,
4666,
4557,
4525,
4508,
4355,
4390,
4356,
4269,
4311,
4169,
4257,
4221,
4275,
4196,
4075,
4077,
4200,
4093,
4128,
3936,
3989,
3954,
3884,
3879,
3928,
3833,
3799,
3902,
3843,
3724,
3661,
3668,
3661,
3581,
3528,
3652,
3537,
3490,
3522,
3538,
3452,
3371,
3499,
3372,
3351,
3347,
3252,
3282,
3128,
3291,
3149,
3309,
3167,
3090,
3075,
3085,
3212,
3128,
3027,
2944,
2923,
2977,
2854,
2864,
2936,
2865,
2867,
2872,
2823,
2841,
2819,
2822,
2718,
2852,
2738,
2690,
2771,
2699,
2664,
2597,
2537,
2583,
2559,
2536,
2423,
2535,
2491,
2440,
2498,
2401,
2397,
2406,
2379,
2387,
2381,
2400,
2372,
2249,
2342,
2226,
2132,
2358,
2185,
2183,
2115,
2075,
2139,
2137,
2153,
2101,
2096,
2018,
1947,
1952,
1986,
1921,
2002,
1935,
1892,
1865,
1908,
1845,
1787,
1870,
1861,
1793,
1781,
1702,
1755,
1696,
1719,
1689,
1706,
1702,
1592,
1611,
1634,
1632,
1629,
1518,
1601,
1525,
1512,
1572,
1601,
1498,
1444,
1464,
1459,
1466,
1351,
1443,
1483,
1365,
1372,
1388,
1336,
1385,
1270,
1295,
1294,
1295,
1269,
1294,
1234,
1274,
1222,
1230,
1284,
1178,
1231,
1186,
1174,
1132,
1116,
1159,
1114,
1200,
1094,
1119,
1092,
1048,
1021,
1078,
1069,
1039,
1013,
1026,
949,
983,
1045,
952,
931,
994,
889,
955,
914,
894,
867,
930,
891,
844,
852,
826,
896,
833,
820,
808,
852,
808,
811,
742,
750,
801,
750,
715,
739,
747,
709,
726,
741,
682,
723,
697,
685,
671,
685,
598,
619,
662,
667,
632,
605,
588,
591,
578,
587,
567,
514,
530,
567,
554,
548,
555,
529,
555,
545,
548,
522,
529,
485,
484,
453,
470,
490,
458,
488,
463,
501,
440,
448,
451,
398,
439,
434,
440,
390,
431,
387,
375,
366,
378,
381,
386,
364,
395,
367,
318,
368,
351,
332,
329,
313,
325,
333,
298,
304,
353,
289,
277,
286,
281,
301,
275,
247,
256,
259,
251,
259,
244,
235,
263,
250,
225,
235,
210,
215,
204,
216,
223,
238,
213,
238,
216,
200,
192,
169,
176,
205,
186,
198,
172,
185,
190,
194,
174,
143,
152,
175,
154,
142,
131,
150,
137,
164,
155,
147,
143,
132,
116,
156,
111,
111,
111,
123,
108,
132,
116,
118,
104,
98,
102,
94,
106,
108,
92,
85,
86,
89,
83,
94,
81,
87,
66,
71,
74,
69,
65,
56,
64,
53,
58,
72,
56,
49,
50,
59,
62,
44,
48,
51,
45,
50,
32,
46,
35,
46,
33,
28,
25,
37,
30,
24,
34,
35,
21,
24,
23,
27,
25,
10,
15,
13,
15,
11,
12,
12,
10,
5,
9,
6,
2,
2,
5,
2,
1,
2,
1,
0,
2,
1,
0,
3,
3,
0,
5,
3,
4,
2,
0,
3,
1,
3,
0,
1,
1,
1,
1,
0,
2,
1,
2,
0,
1,
3,
2,
1,
0,
3,
1,
1,
4,
3,
0,
0,
1,
0,
1,
0,
0,
2,
1,
0,
1,
0,
0,
1,
0,
0,
2,
2,
1,
1,
0,
0,
1,
0,
0,
0,
0,
1,
0,
0,
1,
2,
0,
1,
0,
0,
0,
1,
1,
0,
0,
2,
0,
0,
0,
0,
0,
0,
1,
0,
0,
1,
1,
0,
0,
0,
0,
1,
0,
0,
0,
0,
0,
0,
0,
0,
0,
0,
0,
0,
0,
0,
0,
0,
0,
0,
0,
1,
1,
0,
0,
0,
0,
0,
1,
0,
0,
0,
0,
0,
0,
0,
0,
0,
0,
0,
0,
0,
0,
0,
0,
0,
2,
0,
0,
0,
0,
0,
0,
0,
0,
0,
0,
0,
0,
1,
0,
0,
0,
0,
0,
2,
0,
1,
0,
0,
0,
1,
0,
0,
0,
0,
0,
0,
0,
0,
1,
0,
0,
0,
1,
0,
0,
0,
0,
0,
0,
0,
0,
0,
0,
0,
0,
0,
1,
0,
0,
1,
0,
0,
0,
0,
1,
0,
0,
0,
0,
0,
0,
0,
0,
0,
1,
1,
0,
0,
0,
0,
0,
0,
0,
0,
0,
0,
0,
0,
0,
0,
0,
0,
1,
0,
0,
0,
0,
0,
0,
0,
0,
0,
0,
0,
0,
0,
0,
0,
0,
1,
0,
0,
0,
0,
1,
0,
0,
0,
0,
0,
0,
0,
0,
0,
0,
0,
0,
0,
0,
0,
0,
0,
0,
0,
0,
0,
0,
0,
1,
0,
0,
0,
0,
0,
0,
0,
0,
0,
0,
0,
0,
0,
0,
0,
0,
0,
0,
0,
0,
0,
0,
0,
0,
0,
0,
0,
1,
1,
0,
1,
0,
0,
1,
0,
0,
0,
0,
0,
0,
0,
0,
0,
0,
0,
0,
0,
0,
0,
0,
0,
0,
0,
0,
0,
0,
0,
0,
0,
0,
0,
0,
0,
0,
0,
0,
0,
0,
0,
0,
0,
0,
0,
0,
0,
0,
0,
0,
0,
0,
0,
0,
0,
0,
0,
0,
0,
0,
0,
0,
0,
0,
0,
0,
0,
0,
0,
0,
0,
0,
0,
0,
0,
0,
0,
0,
0,
0,
0,
0,
0,
0,
0,
0,
0,
0,
0,
0,
0,
0,
0,
0,
0,
0,
0,
1,
0,
0,
0,
0,
0,
0,
0,
0,
0,
0,
0,
0,
0,
0,
0,
0,
0,
0,
0,
0,
0,
0,
0,
0,
0,
0,
0,
0,
0,
0,
0,
0,
0,
0,
0,
0,
1,
0,
0,
0,
0,
0,
0,
0,
0,
0,
0,
0,
0,
0,
0,
0,
0,
0,
0,
0,
0,
0,
0,
1,
0,
0,
0,
0,
0,
0,
0,
0,
0,
0,
0,
0,
0,
0,
0,
0,
0,
0,
0,
0,
0,
0,
0,
0,
0,
0,
0,
0,
0,
0,
0,
0,
0,
0,
0,
0,
0,
0,
0,
1,
0,
0,
0,
0,
0,
0,
0,
0,
0,
0,
0,
0,
0,
0,
0,
0,
0,
0,
0,
0,
0,
0,
0,
0,
0,
0,
0,
0,
0,
0,
0,
0,
0,
0,
0,
0,
0,
0,
0,
0,
0,
0,
0,
0,
0,
0,
0,
0,
0,
0,
0,
0,
0,
0,
0,
0,
0,
0,
0,
0,
0,
0,
0,
0,
0,
0,
0,
0,
0,
0,
0,
0,
0,
0,
0,
0,
0,
0,
0,
0,
0,
0,
0,
0,
0,
0,
0,
0,
0,
0,
0,
0,
0,
0,
0,
0,
0,
0,
0,
0,
0,
0,
0,
0,
0,
0,
0,
0,
0,
0,
0,
0,
0,
0,
0,
0,
0,
0,
0,
0,
0,
0,
0,
0,
0,
0,
0,
0,
0,
0,
0,
0,
0,
0,
0,
0,
0,
0,
0,
0,
0,
0,
0,
0,
0,
0,
0,
0,
0,
0,
0,
0,
0,
0,
0,
0,
0,
0,
0,
0,
0,
0,
0,
0,
0,
0,
0,
0,
0,
0,
0,
0,
0,
0,
0,
0,
0,
0,
0,
0,
0,
0,
0,
0,
0,
0,
0,
0,
0,
0,
0,
0,
0,
0,
0,
0,
#ENDOFDATA   :