File: N132962/Standards/20 keV/SiO2 std.msa
#FORMAT      : EMSA/MAS Spectral Data File
#VERSION     : 1.0
#TITLE       : SiO2 std
#DATE        : 12-SEP-2025
#TIME        : 09:34
#OWNER       : Unknown
#NPOINTS     : 4096
#NCOLUMNS    : 1
#XUNITS      : eV
#YUNITS      : counts
#DATATYPE    : Y
#XPERCHAN    : 9.99778
#OFFSET      : 1.69135
#BEAMKV      : 20
#SIGNALTYPE  : EDS
#ELEVANGLE   : 35
#AZIMANGLE   : 0
#LIVETIME    : 1201.05
#REALTIME    : 1311.88
#PROBECUR    : 1.23853
#TAUWIND     : 0
#TDEADLYR    : 0
#TACTLYR     : 0.045
#TALWIND     : 0.025
#CHOFFSET    : 0.0
#XLABEL      : Energy (eV)
#YLABEL      : Counts
#EDSDET      : SD
##SPECIMEN   : SiO2 std
##D2STDCMP   : SiO2,(O:53.2565),(Si:46.7435),5.0
##DET_HASH   : 12273538-fd48-a23f-0a19-f1e6fa85caef
##CALIB_HASH : 6abaa72c-aa41-8738-0be9-f592914732f3
##WORKING    : 15.0 mm
##SAMPLE     : <BulkSample id="1">\n<mOrientation id="2">\n<double>0.0</double>\n<double>0.0</double>\n<double>-1.0</double>\n</mOrientation>\n</BulkSample>
##MULTISPEC  : 0.87792
##DET_NAME   : EDAX All
##DET_MODE   : MediumLE
#SPECTRUM    :
118,
127,
43,
114,
439,
1595,
4412,
11603,
28750,
36534,
21617,
14206,
16142,
21773,
43780,
172117,
670868,
1274472,
920385,
239097,
30312,
10902,
12007,
13333,
13324,
12570,
12827,
14064,
15392,
16015,
16348,
16858,
17825,
19327,
20803,
21656,
21058,
20949,
21623,
22420,
22856,
23577,
24000,
25050,
25549,
26389,
27696,
28854,
30921,
33293,
35132,
36348,
37841,
39976,
56340,
186948,
794446,
2071918,
2824238,
1986631,
781416,
246839,
98660,
40338,
17795,
12492,
11903,
11871,
12136,
11955,
12151,
12498,
13146,
15564,
19538,
22458,
21423,
17176,
14095,
13050,
12728,
12683,
12619,
12484,
12603,
12502,
12566,
12471,
12596,
12522,
12693,
12437,
12335,
12605,
12184,
12368,
12170,
12322,
12225,
12342,
12125,
12136,
11963,
11829,
11835,
11871,
11742,
11588,
11717,
11754,
11521,
11675,
11863,
12563,
15152,
18609,
20103,
18785,
15503,
12802,
11550,
10942,
10700,
10521,
10390,
10350,
10291,
10120,
10132,
9837,
9968,
9813,
9761,
9788,
9543,
9659,
9549,
9348,
9428,
9147,
9203,
9155,
9199,
9018,
9102,
8882,
8823,
8534,
8645,
8643,
8403,
8543,
8674,
8356,
8423,
8207,
8157,
8104,
8070,
7902,
7944,
7922,
7808,
7993,
7772,
7696,
7567,
7624,
7522,
7661,
7391,
7337,
7351,
7280,
7260,
7116,
7082,
7115,
7114,
6964,
6921,
6847,
6762,
6704,
6769,
6635,
6606,
6380,
6495,
6396,
6422,
6423,
6390,
6242,
6204,
6067,
5909,
6075,
6037,
5901,
5936,
5910,
5850,
5680,
5582,
5705,
5616,
5593,
5648,
5739,
5523,
5884,
6169,
6291,
6143,
5854,
5718,
5391,
5181,
5187,
5176,
5041,
4954,
4974,
4978,
4805,
4920,
4753,
4803,
4743,
4660,
4748,
4604,
4673,
4808,
4595,
4635,
4588,
4403,
4347,
4355,
4358,
4264,
4286,
4236,
4354,
4224,
4406,
4348,
4436,
4409,
4247,
4093,
4023,
3988,
3900,
3935,
3875,
3820,
3735,
3638,
3790,
3682,
3674,
3604,
3608,
3667,
3654,
3758,
3611,
3605,
3620,
3540,
3420,
3475,
3464,
3462,
3268,
3367,
3281,
3295,
3302,
3277,
3245,
3116,
3183,
3122,
3120,
3165,
2999,
2952,
2988,
3042,
3009,
2913,
2844,
2979,
2855,
2832,
2905,
2751,
2839,
2698,
2821,
2774,
2695,
2708,
2687,
2607,
2623,
2574,
2511,
2530,
2458,
2441,
2475,
2564,
2445,
2422,
2442,
2474,
2354,
2462,
2334,
2320,
2319,
2371,
2314,
2371,
2237,
2352,
2274,
2196,
2201,
2183,
2152,
2199,
2195,
2137,
2130,
2067,
2078,
2113,
2021,
1983,
1977,
1957,
2017,
1961,
1870,
1930,
1918,
1883,
1819,
1820,
1763,
1821,
1835,
1822,
1793,
1787,
1818,
1771,
1661,
1691,
1643,
1649,
1644,
1684,
1647,
1600,
1590,
1567,
1656,
1565,
1606,
1516,
1601,
1552,
1477,
1499,
1542,
1501,
1499,
1422,
1382,
1395,
1382,
1340,
1374,
1396,
1403,
1298,
1298,
1399,
1291,
1309,
1307,
1261,
1256,
1299,
1234,
1209,
1192,
1203,
1205,
1180,
1149,
1185,
1138,
1111,
1099,
1097,
1094,
1186,
1055,
1090,
1043,
1075,
1040,
1032,
967,
1044,
988,
988,
991,
994,
954,
959,
899,
880,
908,
887,
919,
849,
940,
893,
911,
869,
844,
828,
799,
841,
876,
767,
773,
790,
790,
782,
794,
764,
730,
740,
740,
731,
706,
686,
668,
682,
670,
725,
687,
630,
671,
640,
641,
628,
586,
594,
592,
595,
579,
628,
549,
593,
620,
542,
574,
540,
539,
553,
550,
520,
497,
513,
490,
514,
477,
476,
470,
459,
476,
483,
439,
439,
459,
479,
451,
421,
429,
431,
420,
401,
390,
379,
372,
403,
351,
390,
385,
327,
352,
366,
334,
335,
376,
344,
339,
324,
292,
322,
338,
313,
316,
301,
285,
269,
271,
285,
327,
281,
267,
257,
299,
257,
281,
247,
275,
214,
258,
225,
243,
249,
251,
236,
211,
220,
232,
238,
213,
196,
205,
243,
208,
197,
201,
179,
192,
172,
178,
178,
200,
201,
173,
168,
160,
165,
161,
176,
164,
142,
149,
132,
137,
141,
146,
123,
137,
114,
130,
129,
145,
130,
113,
122,
138,
121,
116,
105,
96,
106,
93,
115,
99,
92,
113,
81,
73,
100,
85,
87,
91,
71,
84,
86,
74,
63,
67,
84,
71,
70,
65,
66,
55,
54,
65,
70,
56,
44,
39,
45,
50,
51,
45,
44,
39,
39,
35,
38,
52,
36,
34,
35,
32,
37,
31,
22,
30,
29,
28,
25,
26,
23,
27,
27,
25,
20,
25,
23,
17,
17,
12,
18,
9,
7,
14,
11,
6,
4,
5,
3,
6,
7,
5,
2,
2,
6,
4,
1,
0,
1,
1,
1,
1,
0,
1,
1,
0,
1,
1,
2,
1,
2,
1,
0,
1,
0,
1,
0,
0,
2,
0,
0,
1,
0,
0,
0,
1,
2,
0,
0,
2,
1,
0,
1,
0,
0,
0,
1,
1,
0,
0,
0,
0,
1,
2,
1,
1,
0,
0,
0,
0,
1,
0,
0,
0,
0,
0,
0,
1,
2,
0,
0,
0,
0,
0,
0,
0,
0,
1,
0,
0,
0,
0,
1,
1,
0,
0,
0,
0,
0,
0,
0,
1,
0,
0,
0,
1,
0,
0,
1,
0,
0,
0,
2,
0,
0,
0,
0,
0,
0,
0,
0,
1,
0,
0,
0,
0,
0,
0,
0,
0,
0,
0,
0,
1,
0,
0,
0,
0,
1,
0,
1,
0,
0,
0,
0,
0,
0,
0,
0,
0,
0,
0,
0,
0,
0,
0,
0,
0,
1,
0,
1,
0,
0,
0,
0,
0,
0,
0,
0,
0,
0,
1,
0,
0,
0,
0,
0,
0,
0,
0,
0,
0,
0,
0,
1,
0,
0,
0,
0,
0,
0,
1,
1,
0,
1,
0,
0,
0,
0,
0,
0,
0,
0,
0,
0,
1,
0,
0,
0,
0,
0,
0,
0,
0,
0,
0,
0,
0,
0,
0,
0,
0,
0,
0,
0,
0,
0,
0,
0,
0,
0,
0,
0,
0,
0,
0,
0,
0,
0,
0,
1,
0,
0,
0,
0,
0,
0,
1,
0,
0,
0,
0,
0,
0,
0,
0,
0,
0,
0,
1,
0,
0,
0,
0,
0,
0,
0,
0,
0,
0,
0,
1,
0,
0,
0,
0,
0,
0,
0,
0,
0,
0,
0,
0,
0,
0,
0,
0,
0,
0,
0,
0,
0,
0,
1,
1,
0,
0,
0,
0,
0,
0,
0,
0,
1,
0,
0,
0,
0,
0,
1,
0,
0,
0,
0,
0,
0,
0,
0,
0,
0,
0,
0,
0,
0,
0,
0,
0,
0,
0,
0,
0,
0,
0,
0,
0,
0,
0,
0,
0,
0,
0,
0,
0,
0,
0,
0,
0,
0,
0,
0,
0,
0,
0,
0,
0,
0,
0,
0,
0,
0,
0,
0,
0,
0,
0,
0,
0,
0,
0,
0,
0,
0,
0,
0,
0,
0,
0,
0,
0,
0,
0,
1,
0,
0,
0,
1,
0,
0,
0,
0,
0,
0,
0,
0,
0,
0,
0,
0,
0,
0,
0,
0,
0,
0,
0,
0,
0,
0,
0,
0,
0,
0,
0,
0,
0,
0,
0,
0,
0,
0,
0,
0,
0,
0,
0,
0,
0,
0,
0,
0,
0,
0,
0,
0,
0,
0,
0,
0,
0,
0,
0,
0,
0,
1,
0,
0,
0,
0,
0,
0,
0,
0,
0,
0,
0,
0,
0,
0,
0,
0,
0,
0,
0,
0,
0,
0,
0,
0,
0,
0,
0,
0,
0,
0,
0,
0,
0,
0,
0,
0,
0,
0,
0,
0,
0,
0,
0,
0,
0,
0,
0,
0,
0,
0,
0,
0,
0,
0,
0,
0,
0,
0,
0,
0,
0,
0,
0,
0,
0,
0,
0,
0,
0,
0,
0,
0,
0,
0,
0,
0,
0,
0,
0,
0,
0,
0,
0,
0,
0,
0,
0,
0,
0,
0,
0,
0,
0,
0,
0,
0,
0,
0,
0,
0,
0,
0,
0,
0,
0,
0,
0,
0,
0,
0,
0,
0,
0,
0,
0,
0,
0,
0,
0,
0,
0,
0,
0,
0,
0,
0,
0,
0,
0,
0,
0,
0,
0,
0,
0,
0,
0,
0,
0,
0,
0,
0,
0,
0,
0,
0,
0,
0,
0,
0,
0,
0,
0,
0,
0,
0,
0,
0,
0,
0,
0,
0,
0,
0,
0,
0,
0,
0,
0,
0,
0,
0,
0,
0,
0,
0,
0,
0,
0,
0,
0,
0,
0,
0,
0,
0,
0,
0,
0,
0,
0,
0,
0,
0,
0,
0,
0,
0,
0,
0,
0,
0,
0,
0,
0,
0,
0,
0,
0,
0,
0,
0,
0,
0,
0,
0,
0,
0,
0,
0,
0,
0,
0,
0,
0,
0,
0,
0,
0,
0,
0,
0,
0,
0,
0,
0,
0,
0,
0,
0,
0,
0,
0,
0,
0,
0,
0,
0,
0,
0,
0,
0,
0,
0,
0,
0,
0,
0,
0,
0,
0,
0,
0,
0,
0,
0,
0,
0,
0,
#ENDOFDATA   :