File: N132962/Standards/20 keV/Sm2O3 std.msa
#FORMAT      : EMSA/MAS Spectral Data File
#VERSION     : 1.0
#TITLE       : Sm2O3 std
#DATE        : 12-SEP-2025
#TIME        : 11:18
#OWNER       : Unknown
#NPOINTS     : 4096
#NCOLUMNS    : 1
#XUNITS      : eV
#YUNITS      : counts
#DATATYPE    : Y
#XPERCHAN    : 9.99778
#OFFSET      : 1.69135
#BEAMKV      : 20
#SIGNALTYPE  : EDS
#ELEVANGLE   : 35
#AZIMANGLE   : 0
#LIVETIME    : 1200.5
#REALTIME    : 1318.22
#PROBECUR    : 1.23977
#TAUWIND     : 0
#TDEADLYR    : 0
#TACTLYR     : 0.045
#TALWIND     : 0.025
#CHOFFSET    : 0.0
#XLABEL      : Energy (eV)
#YLABEL      : Counts
#EDSDET      : SD
##SPECIMEN   : Sm2O3 std
##D2STDCMP   : Sm2O3,(O:13.7639),(Sm:86.2361),5.0
##DET_HASH   : 12273538-fd48-a23f-0a19-f1e6fa85caef
##CALIB_HASH : 6abaa72c-aa41-8738-0be9-f592914732f3
##WORKING    : 15.0 mm
##SAMPLE     : <BulkSample id="1">\n<mOrientation id="2">\n<double>0.0</double>\n<double>0.0</double>\n<double>-1.0</double>\n</mOrientation>\n</BulkSample>
##MULTISPEC  : 9.27722
##DET_NAME   : EDAX All
##DET_MODE   : MediumLE
#SPECTRUM    :
116,
143,
69,
221,
1152,
4463,
13779,
35392,
78826,
97173,
65524,
48251,
47478,
50564,
64218,
137202,
410908,
745090,
547860,
164954,
51416,
59694,
88752,
85556,
59724,
59926,
103446,
169088,
170337,
104971,
61902,
52737,
53160,
63910,
101323,
179551,
237160,
191855,
96438,
43777,
31397,
34055,
44057,
48856,
42146,
36954,
38813,
40077,
37605,
36245,
34446,
31057,
29138,
28416,
29179,
29884,
31601,
33773,
35118,
34197,
32334,
30639,
29143,
28186,
28286,
28615,
28865,
29595,
29598,
30179,
29693,
30548,
30663,
30904,
31333,
31404,
31424,
31680,
32157,
31826,
31932,
32032,
32124,
32014,
32288,
32388,
32526,
33217,
33413,
33174,
32491,
32789,
32864,
32697,
32507,
32682,
32425,
32259,
32751,
32386,
32451,
32363,
32310,
32182,
32142,
31889,
31918,
31688,
31751,
31700,
31369,
31674,
31405,
31091,
31129,
30919,
31052,
31223,
30664,
30511,
30565,
30511,
30043,
30252,
29682,
30410,
30282,
30259,
31220,
31860,
31703,
30728,
30115,
29412,
29131,
28864,
28727,
28285,
28250,
28148,
28201,
27888,
27712,
27821,
27582,
27769,
27769,
27266,
27876,
27767,
27556,
27128,
26747,
26468,
26285,
26542,
25802,
26098,
25749,
25924,
25634,
25973,
26710,
28643,
32994,
38750,
42561,
41896,
36990,
31215,
27586,
25085,
24565,
24178,
24342,
24098,
23907,
24118,
24555,
25176,
25678,
27234,
31138,
45404,
88891,
180662,
320104,
444243,
475351,
384498,
240016,
120627,
56148,
31658,
24676,
23147,
22607,
22526,
22153,
21992,
22635,
24513,
32693,
53654,
98043,
160169,
216264,
231658,
200352,
147846,
103504,
75744,
57845,
44565,
36044,
33601,
40128,
56825,
77875,
92996,
91874,
74205,
52042,
34303,
24077,
19251,
17227,
16193,
16196,
16117,
16250,
16686,
16983,
17350,
18107,
20447,
26063,
33816,
41150,
44444,
40921,
33328,
25125,
19730,
17483,
17168,
19367,
22467,
25219,
26062,
24589,
21443,
18195,
15983,
14803,
14931,
15012,
15029,
14568,
13921,
13325,
13084,
12675,
12459,
12412,
12371,
12056,
12323,
12427,
12267,
12207,
12383,
12288,
12094,
12318,
12107,
12191,
11762,
11829,
11775,
11599,
11619,
11739,
11679,
11345,
11378,
11228,
11179,
11113,
11190,
10978,
11064,
11078,
10918,
10790,
10822,
10790,
10620,
10699,
10558,
10500,
10661,
10659,
10413,
10382,
10426,
10259,
10338,
10301,
10234,
10085,
9743,
9992,
9837,
9917,
9811,
9818,
9783,
9893,
9797,
9719,
9482,
9823,
9545,
9414,
9276,
9352,
9261,
9251,
9091,
9219,
8994,
9085,
8784,
8955,
8961,
8768,
8930,
8619,
8563,
8687,
8523,
8543,
8432,
8264,
8429,
8295,
8299,
8180,
8150,
8147,
8051,
8001,
7980,
7778,
8078,
7776,
7761,
7528,
7597,
7716,
7585,
7592,
7447,
7567,
7381,
7338,
7410,
7206,
7150,
6933,
7154,
7051,
7105,
7186,
7130,
7153,
7083,
7054,
6794,
6630,
6541,
6603,
6484,
6501,
6350,
6415,
6387,
6351,
6137,
6233,
6237,
6294,
6310,
6077,
6143,
6210,
6059,
5995,
5810,
5893,
5729,
5643,
5599,
5611,
5546,
5490,
5460,
5547,
5450,
5293,
5284,
5256,
5209,
5170,
5105,
5116,
5031,
4992,
4918,
4905,
4909,
4746,
4865,
4718,
4676,
4747,
4726,
4616,
4503,
4631,
4371,
4467,
4407,
4400,
4242,
4446,
4327,
4244,
4152,
4204,
4002,
4072,
4095,
4019,
4089,
4007,
3872,
3982,
3883,
3772,
3800,
3723,
3680,
3636,
3640,
3610,
3555,
3514,
3559,
3471,
3313,
3347,
3325,
3332,
3310,
3185,
3241,
3200,
3120,
3146,
3219,
3068,
2963,
2981,
2934,
2993,
2962,
2943,
2854,
2882,
2854,
2811,
2731,
2669,
2711,
2691,
2608,
2680,
2558,
2682,
2530,
2590,
2594,
2500,
2456,
2322,
2400,
2417,
2253,
2318,
2266,
2233,
2307,
2132,
2209,
2074,
2172,
2015,
2077,
2013,
2202,
2025,
1969,
1984,
1993,
1948,
1878,
1918,
1837,
1875,
1821,
1753,
1788,
1654,
1807,
1693,
1678,
1648,
1623,
1599,
1625,
1614,
1543,
1565,
1556,
1529,
1459,
1512,
1426,
1402,
1376,
1376,
1394,
1353,
1331,
1318,
1287,
1309,
1279,
1214,
1238,
1220,
1220,
1212,
1124,
1182,
1181,
1154,
1114,
1088,
1155,
1072,
1106,
1061,
988,
960,
1038,
975,
1015,
940,
970,
926,
951,
833,
922,
828,
864,
839,
853,
832,
850,
781,
778,
744,
754,
780,
668,
704,
774,
672,
685,
623,
654,
696,
626,
608,
605,
581,
591,
540,
551,
545,
567,
518,
490,
512,
496,
489,
473,
465,
478,
470,
452,
403,
404,
376,
407,
405,
386,
385,
365,
323,
334,
323,
332,
308,
319,
319,
294,
252,
284,
246,
261,
240,
228,
216,
195,
220,
219,
184,
176,
177,
164,
156,
153,
137,
133,
134,
85,
107,
87,
105,
87,
76,
61,
58,
70,
55,
48,
30,
35,
31,
20,
34,
16,
21,
26,
17,
31,
14,
13,
14,
22,
20,
26,
14,
18,
13,
16,
15,
23,
15,
15,
16,
17,
10,
19,
21,
20,
13,
17,
18,
20,
13,
8,
15,
17,
8,
13,
15,
15,
12,
9,
15,
18,
13,
16,
18,
16,
9,
14,
14,
9,
7,
15,
14,
8,
17,
9,
11,
9,
14,
12,
10,
7,
9,
10,
6,
18,
8,
11,
6,
14,
12,
15,
6,
9,
7,
12,
7,
2,
9,
18,
7,
7,
5,
6,
6,
11,
9,
9,
5,
9,
1,
8,
8,
4,
8,
5,
4,
6,
4,
4,
5,
6,
6,
6,
8,
12,
2,
7,
12,
4,
11,
8,
10,
9,
3,
3,
12,
6,
2,
4,
5,
7,
4,
6,
2,
5,
2,
6,
1,
5,
5,
0,
0,
9,
3,
2,
2,
7,
3,
4,
3,
2,
3,
1,
2,
3,
4,
4,
1,
5,
3,
4,
5,
5,
2,
1,
5,
4,
3,
2,
2,
6,
3,
1,
4,
5,
2,
5,
4,
2,
4,
0,
5,
5,
10,
2,
3,
1,
3,
0,
6,
3,
3,
1,
4,
6,
4,
3,
3,
1,
5,
3,
1,
7,
2,
2,
1,
1,
0,
1,
1,
5,
3,
2,
3,
3,
2,
0,
2,
1,
1,
1,
1,
3,
3,
3,
1,
1,
2,
6,
1,
2,
0,
0,
3,
2,
2,
1,
1,
0,
1,
2,
3,
0,
3,
3,
1,
1,
0,
1,
1,
1,
1,
2,
0,
1,
1,
2,
0,
2,
1,
2,
1,
1,
0,
0,
1,
1,
0,
0,
1,
1,
1,
1,
3,
0,
1,
1,
2,
1,
4,
1,
0,
0,
1,
2,
1,
0,
4,
1,
0,
0,
0,
1,
0,
1,
0,
1,
1,
0,
3,
1,
1,
0,
2,
1,
1,
0,
0,
1,
2,
1,
1,
0,
1,
1,
1,
0,
0,
0,
1,
1,
0,
0,
0,
1,
0,
1,
1,
0,
0,
1,
1,
0,
0,
1,
1,
0,
0,
0,
0,
0,
0,
1,
1,
0,
1,
2,
0,
0,
0,
1,
0,
0,
0,
2,
0,
0,
0,
0,
0,
0,
0,
2,
1,
0,
1,
0,
0,
1,
1,
0,
0,
0,
0,
0,
0,
1,
0,
0,
0,
0,
0,
0,
0,
1,
0,
0,
0,
0,
0,
0,
0,
0,
0,
1,
0,
1,
0,
1,
0,
0,
0,
0,
0,
0,
0,
0,
0,
1,
0,
0,
0,
0,
0,
0,
0,
0,
0,
0,
0,
0,
0,
1,
0,
0,
1,
0,
0,
0,
0,
0,
0,
0,
0,
0,
0,
0,
0,
0,
0,
1,
0,
1,
0,
0,
0,
0,
0,
0,
0,
0,
0,
0,
0,
0,
0,
0,
0,
0,
0,
0,
0,
0,
0,
0,
0,
0,
0,
0,
0,
0,
0,
1,
0,
0,
0,
0,
0,
0,
0,
0,
0,
0,
0,
0,
0,
0,
0,
0,
0,
0,
0,
0,
0,
0,
0,
0,
0,
0,
0,
0,
0,
0,
0,
0,
0,
0,
0,
0,
0,
0,
0,
0,
0,
0,
0,
0,
0,
0,
0,
0,
0,
0,
0,
0,
0,
0,
0,
0,
0,
0,
0,
0,
0,
0,
0,
0,
0,
0,
0,
0,
0,
0,
0,
0,
0,
0,
0,
0,
0,
0,
0,
0,
0,
0,
0,
0,
0,
0,
0,
0,
0,
0,
0,
0,
0,
0,
0,
0,
0,
0,
0,
0,
0,
0,
0,
0,
0,
0,
0,
0,
0,
0,
0,
0,
0,
0,
0,
0,
0,
0,
0,
0,
0,
0,
0,
0,
0,
0,
0,
0,
0,
0,
0,
0,
0,
0,
0,
0,
0,
0,
0,
0,
0,
0,
0,
0,
0,
0,
0,
0,
0,
0,
0,
0,
0,
0,
0,
0,
0,
0,
0,
0,
1,
0,
0,
0,
0,
0,
0,
0,
0,
0,
0,
0,
0,
0,
0,
0,
0,
0,
0,
0,
0,
0,
0,
0,
0,
0,
0,
0,
0,
0,
0,
0,
0,
0,
0,
0,
0,
0,
0,
0,
0,
0,
0,
0,
0,
0,
0,
0,
0,
0,
0,
0,
0,
0,
0,
0,
0,
0,
0,
0,
0,
0,
0,
0,
0,
0,
0,
0,
0,
0,
0,
0,
0,
0,
0,
0,
0,
0,
#ENDOFDATA   :