File: N132962/Standards/20 keV/Sn std.msa
#FORMAT      : EMSA/MAS Spectral Data File
#VERSION     : 1.0
#TITLE       : G588 Sn[0][all]+G588 Sn[1][all]+G588 Sn[2][all]+G588 Sn[3][all]+G588 Sn[4][all]
#NPOINTS     : 4096
#NCOLUMNS    : 1
#XUNITS      : eV
#YUNITS      : counts
#DATATYPE    : Y
#SIGNALTYPE  : EDS
#XLABEL      : Energy (eV)
#YLABEL      : Counts
#XPERCHAN -eV: 9.99778
#OFFSET   -eV: 1.69135
#CHOFFSET    : 0
#OWNER       : Unknown
#ELEVANGLE   : 35
#BEAMKV   -kV: 20
#LIVETIME  -s: 1198.92
#REALTIME  -s: 1331.78
#PROBECUR -nA: 1.0449
##WORKING -mm: 15
##D2STDCMP   : Sn,(Sn:100.0000),5.000
#SPECTRUM    :
148,
152,
79,
408,
3188,
12278,
27201,
45414,
67723,
75234,
68689,
103484,
218082,
275000,
172422,
91747,
79845,
71226,
45360,
25520,
20979,
21896,
27198,
33039,
30599,
24959,
22008,
22041,
23161,
23105,
22173,
22474,
22845,
23724,
24694,
25394,
26299,
26613,
27531,
28492,
29576,
30331,
31624,
32484,
33274,
34037,
35275,
36175,
39901,
44323,
45219,
42238,
39927,
40001,
41877,
46531,
54994,
58647,
55521,
49549,
46505,
44094,
42426,
44356,
45594,
44770,
42929,
42254,
41339,
41138,
41470,
42079,
43103,
42847,
41978,
42066,
41768,
41997,
41848,
41665,
42232,
42097,
41737,
41726,
41353,
41432,
41292,
42069,
42086,
41414,
40911,
40963,
40941,
40158,
40662,
40786,
40410,
41245,
43471,
50857,
64167,
79063,
80363,
67778,
52528,
44951,
43563,
46768,
54058,
62064,
72255,
110824,
257722,
596724,
1018531,
1176018,
898741,
469471,
196782,
138718,
235772,
420528,
560323,
544500,
410032,
270462,
175660,
121952,
116039,
148297,
176363,
162777,
112833,
66511,
42761,
40435,
51802,
66419,
69951,
58708,
41147,
29087,
25272,
27379,
33499,
40023,
41467,
36873,
30063,
24574,
21469,
20154,
19674,
19583,
19280,
19281,
19544,
19400,
19583,
19505,
19532,
19856,
19641,
19745,
19794,
19724,
19670,
19761,
19791,
19660,
19582,
19520,
19591,
19510,
19495,
19690,
19869,
19558,
19665,
20080,
20080,
20404,
19736,
19724,
19496,
19122,
19170,
19185,
19342,
19098,
19078,
18872,
18873,
19059,
18959,
18867,
18663,
18881,
18748,
18580,
18553,
18303,
18123,
18208,
18102,
18432,
18040,
17805,
18136,
18245,
18843,
19775,
20696,
21226,
21226,
20171,
19063,
18056,
17611,
17438,
17170,
17104,
16998,
17237,
16952,
16848,
17089,
17216,
17561,
17531,
17673,
17690,
17588,
17302,
17202,
17571,
17614,
17364,
17477,
17040,
16417,
16235,
16024,
16119,
16224,
15981,
16326,
16764,
16887,
16928,
16517,
16296,
15839,
15091,
14750,
14725,
14890,
14663,
14736,
14439,
14318,
14326,
14393,
14231,
14290,
14104,
13967,
13931,
13700,
13709,
13596,
13443,
13572,
13515,
13542,
13305,
13448,
13275,
13328,
12880,
13057,
13059,
12929,
12795,
12774,
12746,
12618,
12494,
12662,
12387,
12211,
12321,
12313,
12323,
12251,
11856,
12100,
11903,
11848,
11733,
11726,
11643,
11476,
11478,
11529,
11365,
11288,
11387,
11201,
11285,
11140,
11110,
10845,
10801,
10860,
10768,
10881,
10826,
10683,
10547,
10534,
10443,
10625,
10555,
10563,
10327,
10176,
10329,
10139,
9956,
10064,
10012,
9911,
9820,
9848,
9720,
9611,
9785,
9326,
9478,
9433,
9430,
9229,
9248,
9087,
9149,
9197,
8946,
9093,
8785,
8699,
8766,
8809,
8731,
8724,
8563,
8485,
8478,
8384,
8230,
8336,
8234,
8201,
8151,
8117,
8181,
7889,
7944,
7717,
7886,
7760,
7688,
7703,
7537,
7530,
7517,
7501,
7343,
7428,
7199,
7113,
7092,
7174,
7044,
6918,
6986,
7029,
6941,
6916,
6823,
6646,
6830,
6557,
6588,
6644,
6631,
6466,
6411,
6375,
6273,
6266,
6198,
6103,
6013,
6238,
6035,
6044,
5837,
5868,
5859,
5859,
5734,
5730,
5580,
5641,
5548,
5470,
5536,
5454,
5354,
5327,
5263,
5226,
5208,
5205,
5129,
5153,
5012,
5138,
4927,
5010,
4861,
4926,
4783,
4814,
4661,
4693,
4541,
4697,
4502,
4628,
4410,
4649,
4461,
4338,
4430,
4247,
4347,
4178,
4126,
4177,
4177,
4080,
4000,
3967,
3936,
3972,
3961,
3874,
3796,
3778,
3845,
3732,
3611,
3688,
3675,
3563,
3566,
3446,
3458,
3546,
3433,
3334,
3367,
3445,
3293,
3309,
3210,
3163,
3248,
3170,
3124,
3106,
3005,
2932,
2969,
2987,
2915,
2892,
2874,
2836,
2815,
2750,
2766,
2666,
2703,
2631,
2542,
2624,
2665,
2583,
2455,
2487,
2605,
2460,
2446,
2395,
2355,
2381,
2374,
2318,
2219,
2300,
2284,
2232,
2123,
2178,
2178,
2067,
2109,
2109,
2053,
1968,
2028,
2061,
1913,
1982,
1866,
1809,
1858,
1875,
1793,
1728,
1757,
1704,
1748,
1649,
1719,
1785,
1659,
1640,
1618,
1594,
1580,
1522,
1594,
1548,
1473,
1489,
1520,
1541,
1407,
1356,
1358,
1418,
1378,
1311,
1354,
1251,
1304,
1319,
1213,
1216,
1244,
1201,
1181,
1203,
1157,
1149,
1103,
1114,
1033,
1087,
1059,
1073,
972,
992,
1033,
958,
964,
947,
953,
915,
1014,
878,
845,
887,
891,
831,
844,
848,
804,
806,
795,
729,
738,
722,
750,
669,
648,
669,
743,
660,
648,
698,
668,
635,
593,
609,
556,
558,
571,
585,
598,
516,
487,
488,
505,
490,
432,
445,
426,
461,
402,
395,
401,
411,
432,
398,
381,
338,
347,
327,
294,
297,
325,
291,
262,
276,
253,
260,
258,
225,
235,
222,
216,
229,
209,
215,
166,
196,
152,
151,
138,
131,
118,
133,
102,
112,
85,
70,
84,
62,
62,
49,
29,
40,
20,
28,
34,
22,
16,
16,
20,
23,
10,
25,
13,
23,
13,
16,
12,
22,
10,
12,
19,
22,
22,
14,
14,
22,
19,
19,
17,
12,
12,
19,
14,
22,
15,
16,
18,
20,
18,
21,
14,
16,
9,
14,
14,
9,
13,
8,
9,
15,
15,
13,
14,
16,
12,
7,
14,
11,
11,
13,
6,
15,
8,
12,
8,
9,
6,
16,
8,
2,
17,
7,
5,
10,
12,
10,
12,
8,
9,
9,
7,
6,
12,
13,
10,
4,
9,
11,
8,
7,
8,
4,
5,
5,
6,
8,
4,
7,
7,
7,
6,
3,
6,
4,
4,
6,
4,
8,
4,
5,
4,
5,
0,
3,
4,
4,
5,
5,
5,
8,
5,
7,
3,
5,
5,
4,
6,
5,
5,
2,
2,
3,
2,
3,
4,
3,
1,
1,
3,
4,
1,
4,
5,
2,
2,
1,
3,
4,
4,
4,
1,
4,
2,
6,
4,
5,
3,
6,
2,
2,
4,
4,
4,
2,
3,
4,
4,
2,
1,
1,
2,
4,
3,
4,
2,
5,
2,
3,
3,
2,
3,
3,
3,
2,
3,
4,
4,
2,
3,
4,
5,
2,
1,
4,
1,
3,
1,
5,
6,
4,
4,
3,
2,
1,
3,
1,
3,
1,
4,
1,
0,
5,
6,
1,
2,
1,
0,
6,
2,
0,
3,
2,
2,
3,
7,
2,
0,
5,
0,
1,
0,
4,
1,
0,
1,
1,
3,
3,
1,
2,
1,
1,
1,
0,
1,
1,
0,
2,
0,
2,
0,
1,
1,
3,
1,
3,
1,
1,
1,
2,
1,
0,
1,
1,
2,
0,
1,
1,
1,
2,
1,
3,
0,
1,
1,
0,
1,
2,
0,
1,
0,
0,
0,
2,
0,
1,
0,
2,
1,
1,
1,
0,
2,
2,
1,
3,
0,
2,
0,
1,
0,
1,
0,
1,
1,
1,
0,
0,
1,
1,
1,
1,
2,
0,
1,
2,
0,
0,
1,
1,
2,
0,
2,
0,
1,
0,
0,
1,
1,
0,
0,
0,
0,
0,
1,
0,
1,
1,
2,
2,
1,
1,
1,
1,
2,
0,
0,
0,
0,
0,
1,
0,
0,
0,
0,
0,
1,
0,
0,
0,
0,
1,
0,
1,
0,
1,
0,
1,
0,
0,
0,
1,
0,
1,
1,
0,
0,
0,
1,
0,
0,
0,
0,
0,
0,
0,
0,
0,
1,
0,
0,
0,
0,
1,
0,
1,
0,
1,
0,
1,
0,
0,
2,
0,
0,
1,
1,
0,
0,
0,
0,
0,
0,
0,
0,
1,
0,
0,
1,
0,
1,
0,
1,
0,
0,
0,
0,
1,
1,
0,
0,
0,
0,
0,
0,
0,
0,
0,
0,
0,
1,
0,
0,
0,
0,
0,
0,
0,
0,
0,
0,
0,
0,
0,
0,
0,
0,
0,
0,
0,
0,
0,
0,
0,
0,
0,
0,
0,
0,
1,
1,
0,
0,
0,
1,
0,
0,
0,
0,
0,
0,
0,
0,
0,
1,
0,
0,
0,
0,
0,
0,
0,
0,
0,
0,
1,
0,
0,
0,
0,
0,
0,
0,
0,
0,
0,
0,
0,
0,
0,
0,
0,
0,
0,
0,
0,
0,
0,
0,
0,
0,
0,
0,
1,
1,
0,
0,
0,
0,
0,
0,
0,
0,
0,
0,
0,
0,
0,
0,
0,
0,
0,
1,
0,
0,
0,
0,
0,
0,
0,
0,
0,
0,
0,
0,
0,
0,
0,
0,
0,
0,
0,
0,
0,
0,
0,
0,
0,
0,
0,
0,
0,
0,
0,
0,
0,
0,
0,
0,
0,
0,
0,
0,
0,
0,
0,
0,
0,
0,
0,
0,
0,
0,
0,
0,
0,
0,
0,
0,
0,
0,
0,
0,
0,
0,
0,
0,
0,
0,
0,
0,
0,
0,
0,
0,
0,
0,
0,
0,
0,
0,
0,
0,
0,
0,
0,
0,
0,
0,
0,
0,
0,
0,
0,
0,
0,
0,
0,
0,
0,
0,
0,
0,
0,
0,
0,
0,
0,
0,
0,
0,
0,
0,
0,
0,
0,
0,
0,
0,
0,
0,
0,
0,
0,
0,
0,
0,
0,
0,
0,
0,
0,
0,
0,
0,
0,
0,
0,
0,
0,
0,
0,
0,
0,
0,
0,
0,
0,
0,
0,
0,
0,
0,
0,
0,
0,
0,
0,
0,
0,
0,
#ENDOFDATA   :