File: N132962/Standards/20 keV/SrF2 std.msa
#FORMAT      : EMSA/MAS Spectral Data File
#VERSION     : 1.0
#TITLE       : SrF2 std
#DATE        : 03-MAR-2025
#TIME        : 16:45
#OWNER       : Unknown
#NPOINTS     : 4096
#NCOLUMNS    : 1
#XUNITS      : eV
#YUNITS      : counts
#DATATYPE    : Y
#XPERCHAN    : 9.99778
#OFFSET      : 1.69135
#BEAMKV      : 20
#SIGNALTYPE  : EDS
#ELEVANGLE   : 35
#AZIMANGLE   : 0
#LIVETIME    : 1197.65
#REALTIME    : 1297.93
#PROBECUR    : 1.06277
#TAUWIND     : 0
#TDEADLYR    : 0
#TACTLYR     : 0.045
#TALWIND     : 0.025
#CHOFFSET    : 0.0
#XLABEL      : Energy (eV)
#YLABEL      : Counts
#EDSDET      : SD
##SPECIMEN   : SrF2 std
##D2STDCMP   : SrF2,(F:30.2477),(Sr:69.7523)
##DET_HASH   : 12273538-fd48-a23f-0a19-f1e6fa85caef
##CALIB_HASH : 6abaa72c-aa41-8738-0be9-f592914732f3
##WORKING    : 15.01 mm
##SAMPLE     : <BulkSample id="1">\n<mOrientation id="2">\n<double>0.0</double>\n<double>0.0</double>\n<double>-1.0</double>\n</mOrientation>\n</BulkSample>
##MULTISPEC  : 1.58194
##DET_NAME   : EDAX All
##DET_MODE   : MediumLE
#SPECTRUM    :
2494,
3708,
2250,
2139,
5254,
8239,
11356,
20187,
38003,
43652,
28420,
16407,
14148,
14701,
15481,
17403,
20682,
24308,
26223,
34854,
88598,
255865,
455854,
407144,
182654,
53789,
23781,
21737,
22787,
23352,
23355,
24290,
25243,
25787,
27103,
28499,
29184,
30069,
31122,
32003,
32664,
34347,
34698,
35300,
36115,
36693,
37610,
38343,
39455,
41147,
47524,
63100,
86773,
98193,
91807,
79228,
76288,
140170,
416843,
980136,
1470892,
1438804,
1050132,
645810,
336287,
154184,
70398,
35088,
21724,
18200,
17098,
17987,
19510,
20502,
20073,
18195,
16754,
16262,
16296,
16557,
16655,
17837,
18637,
18896,
18751,
18382,
17777,
17491,
17508,
17410,
17309,
17546,
17732,
17730,
17760,
17554,
17933,
17918,
17763,
17862,
17958,
18063,
18084,
18202,
18090,
18193,
17956,
18207,
18074,
17891,
18055,
18313,
18264,
18354,
18248,
18256,
18051,
18305,
18634,
19732,
20707,
21381,
21404,
21359,
20147,
19005,
18323,
17725,
17550,
17371,
17335,
16839,
17063,
17058,
17182,
17054,
16941,
16487,
16684,
16545,
16333,
16321,
16224,
16285,
16351,
16054,
16358,
16610,
17048,
17811,
17845,
17365,
16782,
16185,
15658,
15364,
15257,
15273,
15191,
15086,
15181,
15397,
15172,
15155,
15032,
14973,
14896,
14528,
14356,
14327,
14304,
14361,
14317,
14224,
14132,
13873,
13631,
13711,
13731,
13563,
13759,
13586,
13594,
13547,
13317,
13103,
13255,
13047,
12919,
12989,
12894,
12712,
12657,
12647,
12664,
12318,
12423,
12671,
12220,
12052,
12017,
12052,
11831,
11691,
11700,
11692,
11628,
11543,
11487,
11498,
11533,
11806,
12061,
12300,
12086,
11812,
11262,
11108,
10922,
10913,
10529,
10659,
10596,
10488,
10297,
10318,
10464,
10270,
10233,
9989,
10115,
9901,
10008,
9912,
9906,
9878,
9788,
9667,
9577,
9357,
9352,
9356,
9220,
9434,
9149,
9342,
9370,
9536,
9375,
9546,
9641,
9205,
8989,
8879,
8803,
8634,
8661,
8523,
8520,
8424,
8216,
8177,
8306,
8127,
8341,
7974,
8095,
7865,
7671,
7804,
7848,
7575,
7887,
7803,
7743,
7666,
7578,
7516,
7561,
7366,
7422,
7394,
7232,
7185,
7137,
7082,
7172,
7087,
6985,
7014,
6808,
6705,
6855,
6751,
6641,
6680,
6631,
6643,
6635,
6461,
6262,
6416,
6448,
6176,
6358,
6240,
6191,
6156,
6027,
6154,
6042,
6011,
5910,
5992,
5938,
5840,
5900,
5898,
5713,
5830,
5711,
5698,
5661,
5813,
5545,
5633,
5497,
5420,
5419,
5424,
5294,
5362,
5401,
5199,
5289,
5299,
5186,
5139,
5103,
5119,
5142,
5031,
5012,
4878,
4883,
4977,
4886,
4821,
4707,
4766,
4675,
4627,
4618,
4645,
4527,
4447,
4422,
4404,
4373,
4442,
4369,
4366,
4284,
4199,
4246,
4235,
4243,
4212,
4071,
4084,
3925,
4061,
3930,
4039,
3801,
3810,
3852,
3835,
3858,
3760,
3740,
3708,
3598,
3669,
3589,
3636,
3591,
3544,
3635,
3492,
3486,
3393,
3451,
3363,
3249,
3314,
3268,
3234,
3236,
3150,
3213,
3187,
3154,
3196,
2996,
3057,
3010,
2914,
3030,
3071,
2912,
2905,
2840,
2836,
2881,
2857,
2751,
2804,
2760,
2761,
2723,
2665,
2664,
2535,
2524,
2628,
2469,
2387,
2545,
2486,
2448,
2452,
2526,
2325,
2420,
2367,
2336,
2282,
2316,
2221,
2211,
2222,
2240,
2228,
2174,
2190,
2059,
2128,
2181,
2095,
2110,
2105,
1978,
1994,
1953,
2055,
1961,
1918,
1927,
1860,
1893,
1952,
1915,
2282,
2822,
3854,
5502,
7850,
10726,
13282,
15191,
16059,
15254,
13009,
9952,
7223,
4849,
3398,
2375,
1839,
1615,
1524,
1509,
1448,
1438,
1439,
1441,
1379,
1415,
1363,
1374,
1313,
1359,
1317,
1275,
1292,
1267,
1230,
1212,
1248,
1289,
1190,
1196,
1188,
1097,
1138,
1057,
1096,
1138,
1056,
1134,
1098,
1100,
1061,
1059,
953,
1060,
967,
947,
1058,
1004,
1126,
1343,
1552,
1981,
2381,
2657,
2809,
2511,
2440,
2051,
1728,
1475,
1305,
1134,
1068,
1072,
945,
918,
856,
758,
725,
710,
683,
686,
678,
681,
632,
573,
650,
621,
586,
579,
572,
584,
593,
576,
549,
525,
553,
522,
502,
523,
512,
505,
476,
485,
496,
520,
485,
466,
484,
464,
427,
432,
436,
432,
421,
421,
436,
404,
403,
382,
394,
351,
348,
366,
381,
340,
355,
335,
334,
351,
363,
317,
333,
287,
266,
289,
266,
271,
282,
283,
260,
251,
231,
233,
222,
265,
230,
228,
200,
198,
225,
197,
207,
211,
186,
194,
184,
176,
169,
180,
179,
124,
155,
144,
150,
134,
147,
141,
122,
106,
119,
102,
126,
105,
104,
90,
93,
98,
97,
78,
62,
90,
68,
67,
59,
63,
58,
60,
65,
56,
46,
39,
50,
34,
25,
27,
23,
19,
33,
19,
11,
17,
14,
5,
4,
6,
6,
6,
7,
6,
4,
6,
3,
7,
6,
4,
1,
4,
8,
4,
6,
4,
6,
2,
7,
6,
1,
3,
4,
5,
3,
4,
4,
6,
7,
5,
3,
5,
2,
5,
4,
0,
1,
3,
4,
2,
2,
4,
5,
3,
2,
0,
3,
5,
0,
3,
3,
1,
1,
3,
2,
2,
2,
4,
5,
4,
0,
2,
1,
1,
2,
1,
4,
3,
1,
3,
2,
2,
1,
0,
3,
1,
2,
0,
2,
1,
1,
0,
2,
0,
1,
4,
2,
4,
3,
2,
1,
0,
0,
2,
0,
7,
2,
3,
2,
1,
0,
0,
1,
1,
2,
1,
2,
2,
1,
1,
3,
1,
1,
2,
1,
1,
0,
0,
1,
1,
0,
0,
3,
1,
1,
2,
2,
4,
2,
2,
0,
1,
1,
1,
0,
1,
1,
2,
1,
1,
0,
1,
0,
4,
0,
1,
1,
2,
0,
0,
1,
2,
3,
2,
1,
1,
3,
1,
3,
0,
2,
1,
2,
2,
5,
2,
0,
2,
1,
1,
4,
2,
0,
1,
1,
0,
2,
0,
2,
1,
3,
0,
0,
1,
1,
2,
0,
2,
4,
2,
1,
3,
1,
2,
0,
3,
0,
0,
0,
1,
1,
2,
2,
1,
1,
1,
0,
0,
1,
1,
0,
1,
1,
2,
0,
2,
0,
1,
0,
0,
2,
1,
1,
2,
0,
0,
0,
0,
1,
2,
1,
1,
1,
0,
1,
0,
0,
1,
0,
0,
1,
0,
1,
0,
1,
0,
1,
0,
1,
1,
1,
0,
1,
0,
0,
1,
0,
0,
0,
0,
0,
1,
0,
0,
0,
1,
0,
1,
0,
0,
2,
0,
0,
0,
0,
0,
1,
1,
1,
0,
0,
0,
1,
0,
2,
0,
0,
0,
1,
0,
1,
1,
0,
0,
0,
0,
0,
1,
0,
1,
1,
0,
0,
0,
1,
1,
0,
0,
1,
0,
0,
1,
0,
0,
0,
0,
1,
0,
0,
0,
0,
0,
0,
0,
0,
0,
0,
0,
0,
0,
0,
1,
0,
1,
0,
0,
0,
0,
0,
0,
0,
0,
0,
0,
0,
0,
0,
0,
0,
0,
0,
0,
0,
0,
0,
0,
0,
0,
0,
0,
0,
0,
0,
0,
1,
0,
0,
0,
1,
0,
0,
0,
0,
0,
0,
0,
0,
0,
0,
0,
0,
0,
0,
0,
0,
0,
0,
0,
0,
0,
0,
0,
0,
0,
0,
0,
0,
0,
0,
0,
0,
0,
0,
0,
0,
0,
0,
1,
0,
0,
0,
0,
0,
0,
0,
0,
0,
0,
0,
0,
0,
0,
0,
0,
0,
0,
0,
0,
0,
0,
0,
0,
0,
0,
1,
0,
0,
0,
1,
1,
0,
0,
0,
0,
0,
0,
0,
0,
0,
0,
0,
0,
0,
0,
0,
0,
0,
0,
0,
0,
0,
0,
0,
0,
0,
0,
0,
0,
0,
0,
0,
0,
0,
0,
0,
0,
0,
0,
0,
0,
0,
0,
0,
0,
0,
0,
0,
0,
0,
0,
0,
0,
0,
0,
0,
0,
0,
0,
0,
0,
0,
0,
0,
0,
0,
0,
0,
0,
0,
0,
0,
0,
0,
0,
0,
0,
0,
0,
0,
0,
0,
0,
0,
0,
0,
0,
0,
0,
0,
0,
0,
0,
0,
0,
0,
0,
0,
0,
0,
0,
0,
0,
0,
0,
0,
0,
0,
0,
0,
0,
0,
0,
0,
0,
0,
0,
0,
0,
0,
0,
0,
0,
0,
0,
0,
0,
0,
0,
0,
0,
0,
0,
0,
0,
0,
0,
0,
0,
0,
0,
0,
0,
0,
0,
0,
0,
0,
0,
0,
0,
0,
0,
0,
0,
0,
0,
0,
0,
0,
0,
0,
0,
0,
0,
0,
0,
0,
0,
0,
0,
0,
0,
0,
0,
0,
0,
0,
0,
0,
0,
0,
0,
0,
0,
0,
0,
0,
0,
0,
0,
0,
0,
0,
0,
0,
0,
0,
0,
0,
0,
0,
0,
0,
0,
0,
0,
0,
0,
0,
0,
0,
0,
0,
0,
0,
0,
0,
0,
0,
0,
0,
0,
0,
0,
0,
0,
0,
0,
0,
0,
0,
0,
0,
0,
0,
0,
0,
0,
0,
0,
0,
0,
0,
0,
0,
0,
0,
0,
0,
0,
0,
0,
0,
0,
0,
0,
0,
#ENDOFDATA   :