File: N132962/Standards/20 keV/SrTiO3 std.msa
#FORMAT      : EMSA/MAS Spectral Data File
#VERSION     : 1.0
#TITLE       : SrTiO3 std
#DATE        : 03-MAR-2025
#TIME        : 16:50
#OWNER       : Unknown
#NPOINTS     : 4096
#NCOLUMNS    : 1
#XUNITS      : eV
#YUNITS      : counts
#DATATYPE    : Y
#XPERCHAN    : 9.99778
#OFFSET      : 1.69135
#BEAMKV      : 20
#SIGNALTYPE  : EDS
#ELEVANGLE   : 35
#AZIMANGLE   : 0
#LIVETIME    : 1198.07
#REALTIME    : 1286.93
#PROBECUR    : 1.06277
#TAUWIND     : 0
#TDEADLYR    : 0
#TACTLYR     : 0.045
#TALWIND     : 0.025
#CHOFFSET    : 0.0
#XLABEL      : Energy (eV)
#YLABEL      : Counts
#EDSDET      : SD
##SPECIMEN   : SrTiO3 std
##D2STDCMP   : SrTiO3,(O:26.1592),(Ti:26.0877),(Sr:47.7532)
##DET_HASH   : 12273538-fd48-a23f-0a19-f1e6fa85caef
##CALIB_HASH : 6abaa72c-aa41-8738-0be9-f592914732f3
##WORKING    : 15.01 mm
##SAMPLE     : <BulkSample id="1">\n<mOrientation id="2">\n<double>0.0</double>\n<double>0.0</double>\n<double>-1.0</double>\n</mOrientation>\n</BulkSample>
##MULTISPEC  : 1.12628
##DET_NAME   : EDAX All
##DET_MODE   : MediumLE
#SPECTRUM    :
110,
151,
62,
338,
1399,
3191,
7001,
15930,
36403,
45743,
27100,
20076,
32059,
43613,
47389,
61786,
127297,
223343,
165927,
49893,
14699,
12227,
13771,
15035,
15395,
15740,
16923,
17905,
19670,
20542,
20815,
21692,
22369,
23167,
24217,
24738,
25407,
26100,
26796,
27758,
28398,
29239,
30304,
30761,
32171,
32316,
33260,
33877,
34641,
36060,
38890,
48591,
66874,
76237,
69828,
60083,
55972,
81946,
245006,
654321,
1041949,
990571,
689553,
421463,
216119,
101215,
51638,
29860,
21405,
19022,
18512,
19449,
20908,
21759,
21081,
19512,
18297,
18438,
18079,
18240,
17976,
17866,
18032,
17876,
18302,
18290,
18377,
18193,
18738,
18824,
19850,
20941,
21897,
21624,
19950,
18814,
18381,
18452,
18306,
18385,
18576,
18469,
18452,
18221,
18286,
18633,
18533,
18537,
18189,
18293,
18141,
18167,
17754,
17940,
17815,
17781,
17839,
17734,
17924,
18235,
18869,
19102,
19078,
18732,
18320,
17771,
17460,
17197,
17292,
16889,
16819,
16760,
16384,
16397,
16383,
16221,
16350,
16119,
15893,
15990,
15901,
16172,
16430,
16975,
18218,
21541,
34685,
80127,
187832,
343514,
453994,
423377,
281017,
135450,
53902,
24049,
16796,
15476,
15507,
15872,
18412,
24664,
38130,
56872,
70593,
68259,
52153,
32653,
20148,
14514,
12263,
11782,
11882,
11761,
11834,
11896,
11687,
11596,
11609,
11643,
11608,
11409,
11500,
11247,
11275,
11230,
11229,
11208,
10900,
11093,
11114,
10820,
10718,
10731,
10454,
10572,
10573,
10668,
10408,
10387,
10328,
10359,
10308,
10095,
10286,
10143,
10072,
10012,
10047,
10490,
10922,
11324,
11343,
11131,
11114,
10530,
9993,
9460,
9528,
9397,
9264,
9076,
9248,
9200,
9151,
9004,
9147,
8999,
8796,
8813,
8850,
8635,
8669,
8490,
8409,
8737,
8513,
8347,
8405,
8272,
8099,
8113,
7976,
8061,
8161,
8117,
7918,
8025,
8250,
8500,
8324,
8050,
7846,
7688,
7556,
7499,
7330,
7268,
7396,
7503,
7214,
7261,
7110,
7054,
6908,
6948,
7061,
7022,
6932,
6880,
6889,
6785,
6699,
6794,
6688,
6650,
6636,
6507,
6641,
6493,
6453,
6450,
6438,
6326,
6303,
6230,
6261,
6233,
6242,
6098,
6048,
5955,
5999,
5840,
5875,
5881,
5834,
5851,
5695,
6026,
5836,
5673,
5828,
5620,
5598,
5434,
5618,
5518,
5278,
5468,
5343,
5388,
5268,
5347,
5295,
5188,
5181,
5141,
5060,
5014,
5020,
4983,
5028,
5007,
4971,
4877,
4890,
4836,
4768,
4657,
4671,
4603,
4734,
4548,
4446,
4549,
4523,
4393,
4506,
4371,
4581,
4337,
4310,
4377,
4366,
4212,
4183,
4138,
4198,
4199,
4195,
4123,
4085,
4030,
3971,
3992,
3895,
3935,
3859,
3874,
3722,
3696,
3752,
3765,
3654,
3680,
3740,
3527,
3506,
3585,
3550,
3600,
3502,
3498,
3402,
3315,
3302,
3400,
3276,
3296,
3226,
3210,
3078,
3206,
3061,
3140,
3061,
3093,
3128,
2927,
2930,
2923,
2936,
2947,
2820,
2863,
2876,
2826,
2707,
2731,
2860,
2759,
2696,
2654,
2741,
2575,
2520,
2584,
2602,
2579,
2526,
2537,
2481,
2485,
2437,
2344,
2421,
2412,
2368,
2401,
2327,
2300,
2244,
2259,
2264,
2192,
2262,
2038,
2208,
2144,
2064,
2095,
2193,
1991,
2055,
2001,
1979,
1986,
1886,
2017,
1895,
1794,
1957,
1915,
1859,
1875,
1841,
1809,
1767,
1768,
1858,
1715,
1767,
1672,
1672,
1670,
1580,
1672,
1625,
1744,
1659,
1624,
1750,
1804,
2197,
2801,
3888,
5514,
7379,
9224,
10543,
11218,
10564,
9130,
6973,
5043,
3484,
2413,
1907,
1578,
1353,
1311,
1362,
1207,
1256,
1241,
1255,
1158,
1153,
1182,
1104,
1108,
1150,
1059,
1073,
1022,
1086,
1023,
1033,
1045,
1032,
1023,
1076,
965,
1007,
1001,
956,
976,
910,
888,
901,
894,
865,
876,
879,
889,
891,
879,
890,
880,
903,
993,
1028,
1254,
1516,
1692,
1957,
2085,
1961,
1847,
1584,
1316,
1137,
990,
890,
861,
794,
791,
740,
709,
651,
611,
603,
603,
600,
593,
514,
565,
561,
538,
516,
548,
506,
465,
507,
498,
472,
439,
496,
441,
481,
441,
452,
449,
433,
407,
416,
394,
397,
411,
417,
375,
405,
383,
388,
369,
370,
354,
357,
337,
311,
348,
320,
341,
319,
304,
293,
301,
287,
286,
277,
286,
266,
267,
286,
247,
264,
262,
227,
228,
235,
227,
202,
215,
214,
209,
222,
215,
217,
188,
184,
168,
183,
189,
196,
193,
181,
173,
161,
156,
143,
164,
172,
151,
139,
123,
129,
126,
108,
136,
115,
96,
99,
103,
91,
93,
108,
92,
89,
90,
84,
85,
78,
70,
74,
60,
68,
52,
53,
49,
44,
44,
46,
47,
34,
44,
30,
34,
24,
25,
17,
21,
19,
16,
10,
15,
13,
9,
9,
8,
4,
3,
2,
7,
5,
4,
4,
8,
8,
3,
4,
5,
7,
9,
6,
5,
3,
7,
6,
2,
3,
5,
3,
4,
5,
3,
6,
3,
2,
2,
4,
3,
7,
3,
4,
3,
3,
0,
2,
4,
3,
3,
7,
2,
3,
4,
2,
4,
0,
2,
8,
2,
0,
2,
1,
3,
2,
2,
3,
1,
3,
1,
2,
4,
1,
0,
1,
0,
3,
2,
1,
5,
1,
7,
0,
1,
4,
2,
1,
3,
2,
4,
3,
1,
1,
0,
1,
1,
2,
0,
1,
2,
1,
1,
1,
3,
2,
3,
3,
0,
0,
0,
3,
3,
0,
1,
1,
3,
1,
1,
1,
1,
1,
1,
2,
3,
4,
1,
0,
2,
1,
0,
2,
1,
0,
2,
1,
0,
1,
1,
4,
0,
1,
3,
0,
2,
0,
0,
0,
0,
1,
0,
1,
1,
0,
1,
2,
0,
1,
1,
2,
0,
1,
1,
2,
2,
0,
1,
1,
3,
0,
2,
2,
2,
0,
1,
1,
3,
2,
1,
0,
1,
1,
1,
0,
0,
1,
1,
0,
0,
0,
0,
1,
1,
0,
0,
1,
2,
0,
0,
0,
0,
0,
0,
0,
0,
0,
1,
1,
0,
1,
0,
0,
1,
0,
2,
2,
0,
0,
1,
1,
0,
0,
0,
1,
1,
2,
2,
1,
0,
0,
0,
1,
0,
0,
2,
0,
0,
2,
0,
0,
0,
0,
0,
0,
0,
0,
0,
0,
1,
1,
0,
2,
0,
0,
0,
1,
0,
1,
1,
1,
0,
1,
2,
0,
1,
1,
1,
0,
0,
0,
0,
0,
1,
1,
0,
0,
0,
0,
0,
2,
0,
0,
0,
0,
0,
0,
2,
1,
1,
0,
1,
0,
0,
1,
0,
0,
0,
1,
0,
0,
1,
0,
0,
0,
1,
0,
0,
1,
1,
1,
1,
0,
0,
0,
0,
0,
0,
1,
0,
0,
0,
0,
1,
0,
0,
0,
1,
0,
0,
0,
0,
0,
0,
0,
0,
0,
1,
0,
0,
0,
0,
0,
0,
0,
0,
0,
1,
0,
0,
0,
0,
0,
1,
0,
0,
0,
1,
0,
0,
0,
0,
0,
0,
0,
0,
0,
0,
0,
0,
0,
0,
0,
0,
0,
0,
0,
0,
0,
1,
0,
0,
0,
0,
0,
0,
0,
0,
0,
0,
0,
0,
0,
0,
0,
0,
0,
0,
0,
1,
0,
0,
0,
0,
0,
0,
0,
0,
0,
0,
0,
0,
0,
1,
0,
0,
0,
0,
0,
0,
0,
0,
0,
0,
0,
0,
0,
0,
0,
0,
0,
0,
0,
0,
0,
1,
0,
0,
0,
0,
0,
0,
0,
1,
0,
0,
0,
0,
0,
0,
0,
0,
0,
0,
0,
0,
0,
0,
0,
0,
0,
0,
0,
0,
0,
0,
0,
0,
0,
0,
0,
0,
0,
1,
0,
0,
0,
0,
0,
0,
0,
0,
0,
0,
0,
0,
0,
0,
0,
0,
0,
0,
0,
0,
0,
0,
0,
0,
0,
0,
0,
0,
0,
0,
0,
0,
0,
0,
0,
0,
0,
0,
0,
0,
0,
0,
0,
0,
0,
0,
0,
0,
0,
0,
0,
0,
0,
0,
0,
0,
0,
0,
0,
0,
0,
0,
0,
0,
0,
0,
0,
0,
0,
0,
0,
0,
0,
0,
0,
0,
0,
0,
0,
0,
0,
0,
0,
0,
0,
0,
0,
0,
0,
0,
0,
0,
0,
0,
0,
0,
0,
0,
0,
0,
0,
0,
0,
0,
0,
0,
0,
0,
0,
0,
0,
0,
0,
0,
0,
0,
0,
0,
0,
0,
0,
0,
0,
0,
0,
0,
0,
0,
0,
0,
0,
0,
0,
0,
0,
0,
0,
0,
0,
0,
0,
0,
0,
0,
0,
0,
0,
0,
0,
0,
0,
0,
0,
0,
0,
0,
0,
0,
0,
0,
0,
0,
0,
0,
0,
0,
0,
0,
0,
0,
0,
0,
0,
0,
0,
0,
0,
0,
0,
0,
0,
0,
0,
0,
0,
0,
0,
0,
0,
0,
0,
0,
0,
0,
0,
0,
0,
0,
0,
0,
0,
0,
0,
0,
0,
0,
0,
0,
0,
0,
0,
0,
0,
0,
0,
0,
0,
0,
0,
0,
0,
0,
0,
0,
0,
0,
0,
0,
0,
0,
0,
0,
#ENDOFDATA   :