File: N132962/Standards/20 keV/Ta std.msa
#FORMAT      : EMSA/MAS Spectral Data File
#VERSION     : 1.0
#TITLE       : Ta std
#DATE        : 20-FEB-2025
#TIME        : 13:38
#OWNER       : Unknown
#NPOINTS     : 4096
#NCOLUMNS    : 1
#XUNITS      : eV
#YUNITS      : counts
#DATATYPE    : Y
#XPERCHAN    : 9.99778
#OFFSET      : 1.69135
#BEAMKV      : 20
#SIGNALTYPE  : EDS
#ELEVANGLE   : 35
#AZIMANGLE   : 0
#LIVETIME    : 959.9758
#REALTIME    : 1094.31
#PROBECUR    : 1.04693
#TAUWIND     : 0
#TDEADLYR    : 0
#TACTLYR     : 0.045
#TALWIND     : 0.025
#CHOFFSET    : 0.0
#XLABEL      : Energy (eV)
#YLABEL      : Counts
#EDSDET      : SD
##SPECIMEN   : Ta std
##D2STDCMP   : Ta,(Ta:100.0)
##DET_HASH   : 12273538-fd48-a23f-0a19-f1e6fa85caef
##CALIB_HASH : 6abaa72c-aa41-8738-0be9-f592914732f3
##WORKING    : 15.0 mm
##SAMPLE     : <BulkSample id="1">\n<mOrientation id="2">\n<double>0.0</double>\n<double>0.0</double>\n<double>-1.0</double>\n</mOrientation>\n</BulkSample>
##MULTISPEC  : 1.07566
##DET_NAME   : EDAX All
##DET_MODE   : MediumLE
#SPECTRUM    :
108,
141,
56,
161,
940,
4399,
12908,
23050,
35104,
40386,
29278,
22462,
22046,
22291,
22494,
26008,
35368,
46817,
41411,
30559,
29153,
31112,
33932,
36696,
37037,
37182,
37299,
39944,
42378,
43509,
43166,
44410,
45563,
47019,
47992,
49401,
50428,
51296,
51958,
53666,
54600,
58856,
73898,
114942,
158251,
145614,
99694,
72001,
63538,
62712,
62583,
64033,
69210,
87414,
170771,
505054,
1214794,
1722201,
1461926,
863697,
391282,
132826,
45314,
32904,
39576,
47848,
45339,
34586,
26685,
24038,
24100,
24840,
26103,
28049,
30474,
29670,
27383,
25274,
24250,
23395,
22923,
22973,
22831,
22582,
22729,
22812,
22766,
23468,
24128,
24101,
24074,
23404,
23437,
23511,
23871,
23930,
23908,
24108,
24213,
25414,
25052,
25352,
25271,
25509,
25305,
25406,
25666,
25433,
25621,
25441,
25978,
26496,
27681,
28959,
30512,
31021,
29609,
28168,
27038,
26663,
26175,
26351,
26080,
26195,
26577,
26304,
26082,
26115,
26068,
25881,
26046,
25999,
25607,
25978,
25849,
25963,
25607,
26003,
25855,
25865,
25633,
25766,
25750,
25669,
25694,
25583,
25761,
25590,
25520,
25621,
25364,
25520,
25579,
25272,
25151,
25084,
25135,
25246,
25226,
24819,
25028,
24917,
24866,
24896,
24592,
24482,
24355,
24346,
24060,
24309,
24034,
23910,
24046,
23787,
23827,
23937,
23836,
23668,
24044,
24147,
24326,
24375,
23634,
23739,
23232,
22978,
23206,
22904,
22628,
22798,
22845,
22753,
22346,
22149,
22266,
22229,
22076,
22166,
21733,
21988,
21824,
21670,
21614,
21603,
21559,
21376,
21124,
21294,
21327,
21078,
21965,
23117,
24437,
25770,
25253,
23587,
21975,
21049,
20107,
19915,
19764,
19686,
19684,
19685,
19510,
19250,
19238,
19416,
19255,
19109,
19093,
19090,
19422,
19400,
20099,
21042,
22651,
25210,
27482,
28570,
27656,
24895,
21992,
19640,
19043,
18191,
18361,
18659,
18978,
19246,
18813,
18498,
18027,
17564,
17258,
17126,
17193,
16947,
16734,
17200,
17039,
16896,
17144,
17496,
18953,
22486,
31999,
52484,
90394,
144129,
198583,
230373,
221508,
175641,
116363,
67618,
37705,
24166,
19226,
17658,
17437,
17689,
17105,
16236,
15810,
15254,
14651,
14453,
14433,
14461,
14278,
14175,
14179,
14087,
14094,
13894,
14001,
13962,
13866,
13935,
14017,
14009,
14526,
16051,
18309,
22174,
27705,
36652,
50330,
68234,
85046,
94704,
91104,
76526,
59035,
44408,
36097,
33102,
34156,
39018,
45878,
50398,
49273,
43178,
33973,
25036,
19044,
15878,
14647,
13690,
12991,
12478,
11523,
11036,
10813,
10258,
9938,
9960,
10057,
9891,
9820,
9769,
9824,
9739,
9806,
9558,
9644,
9549,
9579,
9665,
9587,
9927,
9535,
9857,
9481,
9558,
9779,
10109,
10780,
12598,
15163,
18321,
20723,
21521,
20104,
17783,
14802,
12389,
10841,
10241,
10276,
10706,
11164,
11641,
12133,
12031,
11588,
10914,
10045,
9172,
8590,
8160,
7761,
7759,
7727,
7869,
7840,
7966,
8058,
7726,
7557,
7352,
7113,
7030,
7028,
6750,
6772,
6738,
6864,
6632,
6788,
6573,
6366,
6502,
6581,
6392,
6443,
6365,
6501,
6246,
6151,
6242,
6198,
6021,
6137,
6084,
5912,
5998,
5852,
5901,
5844,
5905,
5879,
5885,
5723,
5522,
5750,
5451,
5541,
5436,
5526,
5374,
5255,
5340,
5354,
5243,
5298,
5004,
5100,
5119,
5036,
4969,
4949,
4797,
4895,
4838,
4703,
4652,
4554,
4639,
4648,
4638,
4652,
4422,
4414,
4420,
4371,
4366,
4467,
4277,
4101,
4230,
4157,
4191,
4174,
4202,
4150,
4048,
4016,
4032,
3851,
3881,
3815,
3827,
3748,
3752,
3918,
3637,
3694,
3585,
3650,
3594,
3517,
3490,
3523,
3450,
3480,
3385,
3350,
3316,
3381,
3218,
3268,
3095,
3130,
3236,
3066,
3033,
3059,
3084,
2978,
3034,
2902,
2865,
2928,
2870,
2799,
2819,
2734,
2784,
2791,
2764,
2683,
2636,
2613,
2543,
2528,
2424,
2491,
2384,
2536,
2376,
2456,
2307,
2406,
2310,
2212,
2341,
2249,
2154,
2153,
2131,
2195,
2036,
2090,
2071,
2142,
2025,
2080,
1997,
1972,
1990,
2057,
1928,
1927,
1932,
1850,
1810,
1800,
1759,
1797,
1727,
1695,
1645,
1622,
1676,
1592,
1654,
1626,
1538,
1594,
1564,
1556,
1519,
1472,
1458,
1498,
1484,
1480,
1418,
1408,
1368,
1324,
1413,
1253,
1297,
1326,
1357,
1335,
1290,
1296,
1286,
1248,
1258,
1187,
1169,
1146,
1155,
1131,
1141,
1118,
1084,
1052,
1028,
1043,
1035,
966,
922,
910,
909,
873,
891,
878,
840,
863,
870,
792,
776,
802,
772,
809,
734,
737,
768,
720,
655,
695,
662,
698,
623,
619,
615,
557,
611,
569,
549,
538,
572,
532,
533,
510,
521,
469,
483,
445,
424,
448,
439,
454,
394,
394,
337,
317,
332,
297,
323,
304,
277,
287,
247,
261,
259,
207,
224,
198,
203,
181,
159,
190,
145,
142,
121,
117,
116,
73,
70,
68,
45,
47,
36,
51,
46,
47,
39,
37,
44,
42,
42,
35,
36,
44,
30,
31,
42,
43,
34,
27,
38,
40,
34,
30,
29,
38,
35,
30,
34,
30,
23,
31,
37,
24,
27,
25,
29,
22,
22,
21,
24,
23,
31,
18,
28,
23,
26,
24,
22,
22,
17,
17,
15,
24,
25,
22,
25,
26,
15,
22,
13,
29,
22,
15,
19,
20,
20,
20,
22,
17,
20,
18,
16,
12,
20,
16,
13,
17,
15,
25,
15,
15,
15,
13,
26,
12,
18,
16,
9,
17,
14,
13,
19,
11,
13,
19,
18,
9,
16,
17,
22,
18,
9,
13,
10,
11,
15,
13,
11,
17,
14,
7,
13,
16,
16,
13,
7,
10,
8,
12,
9,
12,
15,
14,
13,
15,
8,
10,
14,
9,
8,
11,
13,
4,
9,
9,
13,
10,
10,
7,
7,
8,
9,
4,
11,
8,
12,
10,
9,
13,
9,
9,
14,
15,
16,
9,
7,
15,
8,
16,
15,
13,
15,
5,
8,
11,
10,
11,
13,
7,
9,
13,
12,
9,
6,
12,
9,
4,
8,
4,
12,
6,
14,
7,
8,
4,
7,
6,
10,
5,
7,
8,
7,
6,
13,
7,
6,
14,
9,
8,
3,
4,
5,
3,
7,
4,
5,
2,
9,
4,
4,
4,
8,
4,
3,
4,
3,
2,
4,
11,
7,
8,
3,
5,
4,
4,
7,
4,
5,
6,
3,
5,
7,
3,
1,
7,
4,
2,
7,
4,
3,
5,
1,
3,
2,
2,
4,
4,
2,
5,
3,
6,
4,
4,
1,
5,
2,
2,
2,
3,
2,
4,
1,
1,
3,
2,
2,
2,
7,
3,
1,
5,
3,
3,
2,
0,
1,
4,
4,
1,
1,
5,
3,
4,
1,
0,
1,
3,
4,
0,
1,
1,
0,
2,
2,
2,
1,
3,
0,
0,
1,
1,
0,
2,
1,
1,
1,
2,
1,
0,
2,
2,
0,
0,
1,
0,
0,
0,
0,
0,
0,
1,
2,
3,
2,
0,
2,
1,
0,
2,
1,
1,
0,
1,
2,
0,
2,
3,
1,
1,
1,
0,
1,
0,
0,
1,
0,
1,
0,
0,
3,
1,
2,
0,
1,
1,
1,
1,
2,
1,
0,
2,
0,
0,
1,
0,
2,
0,
1,
0,
0,
2,
1,
1,
0,
1,
2,
1,
0,
1,
0,
0,
0,
0,
0,
0,
1,
0,
2,
0,
0,
1,
0,
0,
0,
2,
0,
0,
0,
3,
0,
1,
0,
0,
1,
0,
1,
0,
0,
0,
0,
0,
1,
1,
1,
0,
0,
2,
2,
0,
0,
2,
0,
0,
0,
0,
0,
0,
0,
0,
0,
0,
0,
1,
1,
0,
0,
0,
1,
0,
0,
0,
0,
1,
0,
1,
0,
0,
0,
0,
0,
0,
0,
0,
0,
0,
0,
0,
0,
0,
0,
0,
1,
0,
1,
1,
0,
1,
0,
0,
1,
1,
0,
0,
1,
0,
0,
0,
1,
1,
0,
2,
0,
1,
1,
0,
0,
0,
0,
0,
0,
0,
0,
1,
0,
0,
0,
1,
0,
0,
0,
0,
0,
0,
0,
0,
0,
0,
0,
0,
1,
0,
0,
0,
0,
0,
0,
0,
0,
0,
0,
0,
0,
0,
0,
0,
0,
0,
1,
0,
0,
0,
0,
0,
0,
0,
0,
0,
0,
0,
0,
0,
0,
0,
0,
0,
0,
0,
0,
0,
0,
0,
0,
0,
0,
0,
0,
0,
0,
0,
0,
0,
0,
0,
0,
0,
0,
0,
0,
0,
0,
0,
0,
0,
0,
0,
0,
0,
0,
0,
0,
0,
0,
0,
0,
0,
0,
0,
0,
0,
0,
0,
0,
0,
0,
0,
0,
0,
0,
0,
0,
0,
0,
0,
0,
0,
0,
0,
0,
0,
0,
0,
0,
0,
0,
0,
0,
0,
0,
0,
0,
0,
0,
0,
0,
0,
0,
0,
0,
0,
0,
0,
0,
0,
0,
0,
0,
0,
0,
0,
0,
0,
0,
0,
0,
0,
0,
0,
0,
0,
0,
0,
0,
0,
0,
0,
0,
0,
0,
0,
0,
0,
0,
0,
0,
0,
0,
0,
0,
0,
0,
0,
0,
0,
0,
0,
0,
0,
0,
0,
0,
0,
0,
0,
0,
0,
0,
0,
0,
0,
0,
0,
0,
0,
0,
0,
0,
0,
0,
#ENDOFDATA   :