File: N132962/Standards/20 keV/Tb std.msa
#FORMAT      : EMSA/MAS Spectral Data File
#VERSION     : 1.0
#TITLE       : Tb std
#DATE        : 20-FEB-2025
#TIME        : 13:20
#OWNER       : Unknown
#NPOINTS     : 4096
#NCOLUMNS    : 1
#XUNITS      : eV
#YUNITS      : counts
#DATATYPE    : Y
#XPERCHAN    : 9.99778
#OFFSET      : 1.69135
#BEAMKV      : 20
#SIGNALTYPE  : EDS
#ELEVANGLE   : 35
#AZIMANGLE   : 0
#LIVETIME    : 1200.44
#REALTIME    : 1328.65
#PROBECUR    : 1.04644
#TAUWIND     : 0
#TDEADLYR    : 0
#TACTLYR     : 0.045
#TALWIND     : 0.025
#CHOFFSET    : 0.0
#XLABEL      : Energy (eV)
#YLABEL      : Counts
#EDSDET      : SD
##SPECIMEN   : Tb std
##D2STDCMP   : Tb,(Tb:100.0)
##DET_HASH   : 12273538-fd48-a23f-0a19-f1e6fa85caef
##CALIB_HASH : 6abaa72c-aa41-8738-0be9-f592914732f3
##WORKING    : 15.0 mm
##SAMPLE     : <BulkSample id="1">\n<mOrientation id="2">\n<double>0.0</double>\n<double>0.0</double>\n<double>-1.0</double>\n</mOrientation>\n</BulkSample>
##MULTISPEC  : 1.25029
##DET_NAME   : EDAX All
##DET_MODE   : MediumLE
#SPECTRUM    :
159,
178,
71,
221,
1253,
3934,
10285,
22747,
44225,
55280,
43324,
37065,
38803,
39321,
40996,
50624,
83043,
120394,
99626,
60176,
53569,
70841,
99195,
95936,
69476,
58156,
58161,
61080,
67978,
82918,
134213,
232344,
266762,
182657,
102201,
76409,
71405,
74370,
86444,
129670,
239564,
370749,
381614,
239580,
97814,
42446,
33856,
40777,
51352,
52523,
43127,
35873,
36246,
39016,
39233,
36469,
34747,
34211,
33906,
32716,
30711,
29202,
27759,
27255,
27938,
27521,
27930,
27514,
27949,
27997,
28602,
29137,
29410,
29820,
30176,
30225,
30667,
30827,
31253,
31354,
31451,
31992,
31757,
32250,
32440,
32594,
32722,
33183,
33137,
32989,
33074,
33181,
33587,
32995,
33717,
33561,
33976,
34096,
33737,
34280,
34692,
34294,
34429,
34538,
34471,
34668,
34397,
34406,
34599,
34556,
34479,
34587,
34729,
34482,
34323,
34639,
34353,
34260,
34337,
33998,
33899,
34148,
34325,
34181,
34175,
34295,
33892,
33989,
34244,
33828,
33730,
33318,
33376,
33303,
32876,
32983,
33311,
32973,
32827,
32633,
32676,
32535,
32318,
32590,
32396,
32256,
32415,
32331,
32467,
33180,
33747,
33467,
33237,
32238,
31640,
31382,
31061,
30518,
30869,
30863,
30415,
30347,
30515,
30335,
29702,
29733,
29492,
29801,
29585,
29630,
29152,
29055,
29380,
29283,
29480,
29314,
29190,
28952,
29259,
29815,
30453,
31832,
34603,
39459,
45010,
47912,
45903,
39882,
33625,
30185,
28457,
27635,
27570,
27462,
26725,
27006,
27301,
26747,
27225,
27218,
27298,
27383,
28862,
33589,
48475,
90498,
181568,
318848,
456773,
514664,
455001,
314262,
177162,
89350,
48496,
33008,
27900,
25660,
24918,
24257,
24012,
23783,
24014,
23553,
24026,
24479,
25551,
31015,
45702,
77917,
131495,
193578,
236908,
238051,
197894,
146431,
104891,
77434,
57783,
44363,
36188,
36465,
46341,
66286,
87963,
102520,
98981,
81598,
59189,
40893,
29351,
23508,
20035,
18333,
17277,
16962,
16968,
16682,
16955,
17009,
17618,
17636,
18178,
17971,
18456,
20592,
24374,
31427,
40096,
46175,
47054,
41548,
33789,
26206,
21146,
18964,
18739,
20336,
22506,
25066,
26042,
24689,
22411,
19684,
17292,
15548,
15455,
15423,
15634,
15514,
15568,
14726,
14410,
13827,
13779,
13347,
13264,
13313,
13178,
13014,
13077,
12923,
13048,
12796,
12682,
12761,
12817,
12583,
12672,
12699,
12758,
12420,
12565,
12426,
12296,
12325,
12358,
12463,
12356,
12083,
11941,
12038,
12035,
12070,
11885,
11702,
11664,
11757,
11740,
11368,
11570,
11570,
11379,
11346,
11221,
11074,
11377,
11041,
11322,
11011,
10822,
10905,
10947,
10763,
10607,
10655,
10689,
10519,
10556,
10428,
10403,
10327,
10231,
10097,
10113,
9957,
9984,
9996,
9753,
9960,
9964,
9648,
9552,
9845,
9768,
9667,
9358,
9357,
9282,
9177,
9237,
9270,
9137,
9099,
9017,
8911,
8750,
8828,
8926,
8907,
8615,
8673,
8548,
8543,
8419,
8449,
8427,
8239,
8193,
7993,
8070,
8137,
7966,
8048,
7915,
8023,
7763,
7688,
7573,
7798,
7719,
7604,
7583,
7498,
7431,
7248,
7307,
7372,
7157,
7153,
7049,
7003,
6909,
7102,
6922,
6890,
7003,
7008,
6939,
6988,
6902,
6701,
6475,
6429,
6402,
6353,
6355,
6150,
6324,
6099,
6102,
6053,
6093,
5935,
5991,
5809,
5932,
5834,
5841,
5830,
5813,
5878,
5853,
5682,
5689,
5557,
5462,
5240,
5386,
5293,
5090,
5162,
5131,
5233,
5200,
5074,
4997,
4858,
4886,
4846,
4870,
4734,
4683,
4665,
4566,
4636,
4502,
4559,
4523,
4444,
4425,
4419,
4189,
4243,
4202,
4228,
4195,
4125,
4216,
4057,
4012,
4093,
3887,
3956,
3802,
3830,
3732,
3893,
3762,
3673,
3592,
3523,
3620,
3519,
3360,
3457,
3388,
3379,
3328,
3305,
3252,
3269,
3162,
3274,
3127,
3071,
3094,
3003,
2997,
3015,
2873,
2817,
2852,
2853,
2844,
2761,
2764,
2774,
2689,
2637,
2791,
2715,
2483,
2569,
2456,
2520,
2415,
2481,
2389,
2374,
2342,
2280,
2364,
2228,
2277,
2257,
2283,
2227,
2094,
2132,
2148,
2160,
2106,
2062,
2032,
2011,
1963,
1958,
1894,
1905,
1819,
1880,
1855,
1778,
1848,
1821,
1783,
1725,
1693,
1666,
1624,
1630,
1657,
1625,
1561,
1516,
1583,
1480,
1611,
1500,
1455,
1484,
1501,
1444,
1428,
1386,
1303,
1312,
1334,
1256,
1303,
1259,
1199,
1179,
1185,
1242,
1216,
1158,
1151,
1177,
1091,
1081,
1121,
1007,
1059,
1033,
1006,
993,
969,
894,
963,
844,
889,
850,
877,
822,
857,
806,
779,
809,
816,
739,
721,
688,
761,
685,
705,
716,
692,
656,
598,
614,
562,
575,
563,
556,
535,
523,
507,
457,
503,
498,
433,
457,
417,
426,
398,
398,
393,
375,
379,
350,
327,
291,
256,
316,
239,
255,
214,
255,
234,
212,
240,
204,
189,
167,
151,
155,
152,
127,
110,
100,
82,
79,
54,
65,
56,
44,
41,
32,
30,
41,
39,
24,
23,
30,
35,
35,
32,
26,
35,
39,
27,
26,
28,
27,
32,
19,
22,
25,
23,
27,
29,
24,
26,
18,
31,
23,
17,
34,
25,
25,
25,
21,
28,
21,
18,
23,
27,
19,
23,
32,
27,
22,
26,
26,
32,
25,
25,
23,
22,
18,
18,
23,
14,
20,
17,
31,
21,
17,
19,
24,
19,
20,
15,
17,
14,
15,
13,
26,
22,
15,
11,
13,
17,
24,
17,
14,
15,
21,
18,
14,
14,
12,
17,
18,
11,
10,
15,
19,
18,
17,
13,
18,
9,
13,
19,
6,
13,
12,
12,
13,
13,
15,
13,
14,
11,
7,
12,
9,
8,
10,
14,
11,
11,
7,
11,
12,
15,
7,
13,
10,
6,
9,
6,
10,
12,
8,
11,
6,
9,
18,
7,
10,
5,
8,
8,
9,
9,
13,
11,
10,
7,
8,
10,
4,
7,
4,
7,
15,
8,
10,
5,
9,
8,
10,
9,
10,
12,
10,
6,
9,
10,
12,
8,
9,
4,
16,
12,
6,
13,
3,
5,
7,
4,
3,
1,
7,
6,
7,
5,
7,
7,
6,
7,
7,
9,
8,
6,
4,
3,
7,
6,
4,
4,
2,
6,
3,
6,
3,
3,
2,
5,
3,
5,
7,
3,
2,
2,
4,
5,
5,
4,
8,
4,
2,
2,
4,
3,
8,
7,
0,
6,
3,
6,
4,
3,
2,
5,
4,
3,
3,
3,
2,
4,
7,
0,
4,
1,
6,
5,
2,
1,
2,
1,
3,
1,
1,
4,
0,
0,
1,
2,
1,
2,
1,
3,
1,
1,
1,
3,
1,
1,
1,
1,
3,
1,
1,
2,
3,
1,
2,
0,
3,
0,
3,
0,
1,
3,
1,
3,
1,
1,
1,
1,
1,
1,
1,
0,
2,
1,
2,
2,
1,
3,
1,
4,
2,
0,
2,
2,
0,
1,
2,
2,
1,
0,
2,
1,
0,
2,
0,
0,
1,
1,
0,
2,
1,
1,
0,
0,
0,
1,
0,
1,
1,
0,
0,
0,
0,
1,
0,
0,
0,
1,
0,
0,
6,
2,
0,
0,
0,
1,
0,
0,
0,
1,
1,
0,
0,
0,
0,
0,
0,
2,
2,
0,
0,
0,
0,
1,
0,
0,
1,
2,
1,
1,
0,
0,
0,
1,
2,
0,
1,
0,
1,
2,
0,
1,
0,
0,
1,
0,
0,
0,
0,
0,
0,
1,
2,
0,
0,
0,
0,
0,
0,
1,
1,
1,
0,
1,
0,
0,
0,
2,
0,
0,
1,
0,
0,
1,
1,
1,
1,
0,
1,
1,
0,
0,
1,
0,
0,
0,
0,
0,
0,
0,
0,
0,
0,
0,
0,
0,
1,
0,
0,
1,
0,
0,
0,
0,
1,
0,
0,
0,
0,
0,
0,
0,
0,
0,
1,
0,
0,
0,
0,
0,
0,
0,
0,
0,
0,
0,
0,
0,
1,
1,
0,
0,
0,
0,
1,
0,
0,
0,
0,
0,
0,
0,
0,
0,
0,
0,
0,
0,
0,
0,
0,
0,
0,
0,
0,
0,
0,
0,
0,
0,
0,
0,
0,
0,
1,
0,
0,
0,
0,
0,
0,
0,
0,
0,
0,
0,
0,
0,
0,
0,
0,
0,
0,
1,
0,
0,
0,
0,
0,
0,
0,
0,
0,
0,
0,
0,
0,
0,
0,
0,
0,
0,
0,
0,
0,
0,
0,
0,
0,
0,
0,
0,
0,
0,
0,
0,
0,
0,
0,
0,
0,
0,
0,
0,
0,
0,
0,
0,
0,
0,
0,
0,
0,
0,
0,
0,
0,
0,
0,
0,
0,
0,
0,
0,
0,
0,
0,
0,
0,
0,
0,
0,
0,
0,
0,
0,
0,
0,
0,
0,
0,
0,
0,
0,
0,
0,
0,
0,
0,
0,
0,
0,
0,
0,
0,
0,
0,
0,
0,
0,
0,
0,
0,
0,
0,
0,
0,
0,
0,
0,
0,
0,
0,
0,
0,
0,
0,
0,
0,
0,
0,
0,
0,
0,
0,
0,
0,
0,
0,
0,
0,
0,
0,
0,
0,
0,
0,
0,
0,
0,
0,
0,
0,
0,
0,
0,
0,
0,
0,
0,
0,
0,
0,
0,
0,
0,
0,
0,
0,
0,
0,
0,
0,
0,
0,
0,
0,
0,
0,
0,
0,
0,
0,
0,
0,
0,
0,
0,
0,
#ENDOFDATA   :