File: N132962/Standards/20 keV/Te std.msa
#FORMAT      : EMSA/MAS Spectral Data File
#VERSION     : 1.0
#TITLE       : Te std
#DATE        : 20-FEB-2025
#TIME        : 13:02
#OWNER       : Unknown
#NPOINTS     : 4096
#NCOLUMNS    : 1
#XUNITS      : eV
#YUNITS      : counts
#DATATYPE    : Y
#XPERCHAN    : 9.99778
#OFFSET      : 1.69135
#BEAMKV      : 20
#SIGNALTYPE  : EDS
#ELEVANGLE   : 35
#AZIMANGLE   : 0
#LIVETIME    : 1193.24
#REALTIME    : 1322.52
#PROBECUR    : 1.04644
#TAUWIND     : 0
#TDEADLYR    : 0
#TACTLYR     : 0.045
#TALWIND     : 0.025
#CHOFFSET    : 0.0
#XLABEL      : Energy (eV)
#YLABEL      : Counts
#EDSDET      : SD
##SPECIMEN   : Te std
##D2STDCMP   : Te,(Te:100.0),5.0
##DET_HASH   : 12273538-fd48-a23f-0a19-f1e6fa85caef
##CALIB_HASH : 6abaa72c-aa41-8738-0be9-f592914732f3
##WORKING    : 15.0 mm
##SAMPLE     : <BulkSample id="1">\n<mOrientation id="2">\n<double>0.0</double>\n<double>0.0</double>\n<double>-1.0</double>\n</mOrientation>\n</BulkSample>
##MULTISPEC  : 1.25918
##DET_NAME   : EDAX All
##DET_MODE   : MediumLE
#SPECTRUM    :
133,
137,
69,
365,
3369,
13789,
30810,
48356,
69372,
76318,
60839,
53530,
58945,
94241,
196738,
278009,
202512,
108033,
82771,
73051,
47891,
28740,
25870,
27400,
28163,
30397,
34065,
33160,
30626,
27055,
23865,
22309,
22018,
22570,
23096,
23807,
24267,
24973,
26042,
26808,
27719,
28172,
29019,
29633,
30569,
31185,
31912,
32731,
33705,
35468,
36244,
36440,
36276,
36240,
37190,
37632,
39230,
42428,
44345,
44179,
42442,
40386,
38273,
37778,
38311,
39589,
43473,
47639,
48517,
44604,
41181,
41193,
43534,
46703,
47783,
48202,
49132,
47407,
43696,
41665,
40453,
39882,
39954,
40247,
40546,
40979,
40845,
40200,
39566,
39370,
39448,
39189,
39154,
39124,
39335,
39250,
38780,
38608,
38521,
38142,
37941,
38362,
38102,
38156,
38017,
37991,
38118,
38845,
41840,
50311,
63382,
72749,
69928,
57094,
45513,
39536,
38239,
39481,
42647,
49609,
56529,
70502,
120315,
281018,
600691,
939149,
1006496,
734530,
374849,
152280,
77058,
93382,
185565,
345482,
488610,
508618,
407714,
278327,
183425,
119429,
87880,
93682,
130883,
167244,
165731,
122781,
74305,
43785,
32517,
32536,
41573,
57002,
69842,
68333,
53686,
37199,
27378,
24794,
27878,
34952,
41093,
42248,
37662,
30215,
25140,
22464,
20725,
19753,
19247,
18877,
18995,
18993,
19021,
18884,
19005,
18963,
18884,
19142,
19417,
19904,
20406,
20398,
19920,
19185,
18928,
18985,
18695,
18599,
18465,
18679,
18863,
18490,
18319,
18591,
18449,
18636,
18420,
18480,
18446,
18362,
18539,
18193,
17872,
17751,
17782,
17823,
18006,
17855,
18056,
18278,
18871,
20921,
22245,
23577,
23015,
21377,
19538,
17984,
17636,
16973,
16854,
16814,
16974,
16886,
16778,
16567,
16781,
16587,
16327,
16399,
16522,
16360,
16686,
16794,
16945,
16876,
16635,
16567,
16077,
16023,
15929,
15838,
15379,
15620,
15715,
15723,
16069,
16595,
17128,
17199,
17240,
16811,
16192,
15781,
15315,
14937,
14709,
14903,
14959,
15230,
15297,
15281,
15169,
14879,
14883,
14343,
14681,
14633,
14324,
14460,
14381,
14059,
14028,
13711,
13818,
13672,
13561,
13514,
13579,
13254,
13093,
13323,
13137,
13212,
12797,
12936,
12715,
12799,
12696,
12556,
12578,
12564,
12543,
12455,
12220,
12150,
11985,
11965,
12024,
11835,
11793,
11672,
11825,
11654,
11597,
11314,
11350,
11671,
11270,
11258,
11020,
11245,
11118,
11071,
10895,
10854,
11068,
10972,
10832,
10771,
10676,
10556,
10656,
10459,
10541,
10401,
10324,
10420,
10365,
10428,
10722,
10369,
10478,
10521,
10366,
10418,
9969,
9898,
9531,
9989,
9938,
9538,
9529,
9628,
9317,
9276,
9258,
9146,
9106,
8796,
8920,
8690,
8909,
8914,
8649,
8726,
8466,
8435,
8664,
8519,
8481,
8212,
8427,
8259,
8170,
8342,
8012,
7930,
8055,
8067,
7800,
7872,
7867,
7744,
7602,
7588,
7546,
7520,
7517,
7318,
7398,
7411,
7189,
7255,
7152,
7185,
7217,
7055,
7128,
6858,
6945,
6927,
6858,
6899,
6903,
6913,
6714,
6795,
6567,
6638,
6394,
6373,
6253,
6197,
6242,
6241,
6014,
6228,
6039,
6017,
5918,
5887,
5797,
5958,
5836,
5690,
5663,
5525,
5619,
5471,
5389,
5419,
5398,
5310,
5217,
5241,
5225,
5142,
5203,
5187,
4996,
5050,
5017,
4896,
4945,
4879,
4942,
4829,
4616,
4712,
4625,
4615,
4545,
4516,
4496,
4268,
4439,
4316,
4427,
4273,
4337,
4295,
4101,
4058,
4146,
4108,
3990,
4090,
3931,
4018,
3908,
3893,
3717,
3845,
3798,
3785,
3711,
3651,
3612,
3602,
3489,
3396,
3432,
3470,
3415,
3408,
3365,
3386,
3222,
3252,
3334,
3153,
3287,
3208,
3162,
3078,
3049,
3046,
3029,
2868,
2837,
2831,
2966,
2883,
2858,
2838,
2777,
2722,
2675,
2728,
2706,
2614,
2576,
2517,
2515,
2551,
2536,
2413,
2368,
2384,
2260,
2307,
2314,
2268,
2291,
2188,
2223,
2307,
2160,
2147,
2167,
2066,
2055,
2105,
2008,
1989,
2068,
1916,
1904,
1857,
1880,
1901,
1798,
1901,
1811,
1761,
1828,
1701,
1736,
1654,
1691,
1601,
1613,
1676,
1572,
1569,
1537,
1519,
1565,
1482,
1430,
1506,
1442,
1422,
1411,
1412,
1364,
1362,
1383,
1308,
1293,
1319,
1291,
1278,
1291,
1295,
1200,
1232,
1134,
1122,
1202,
1129,
1091,
1117,
1091,
1095,
1108,
1096,
977,
1010,
1004,
1051,
948,
903,
967,
892,
974,
889,
927,
886,
828,
932,
849,
808,
813,
845,
797,
753,
729,
721,
755,
726,
703,
691,
681,
644,
599,
668,
605,
613,
595,
568,
555,
555,
558,
546,
512,
485,
483,
488,
509,
466,
504,
450,
461,
441,
421,
408,
418,
388,
390,
345,
381,
338,
317,
324,
304,
283,
294,
291,
267,
262,
246,
259,
233,
227,
202,
198,
194,
172,
169,
153,
159,
166,
145,
139,
136,
127,
109,
104,
78,
91,
58,
52,
52,
48,
35,
49,
32,
23,
26,
28,
21,
18,
21,
21,
21,
19,
16,
21,
19,
17,
23,
19,
24,
14,
18,
11,
24,
26,
15,
22,
14,
9,
8,
19,
23,
15,
21,
11,
13,
15,
14,
12,
16,
13,
16,
8,
17,
16,
10,
8,
12,
9,
11,
16,
18,
12,
11,
14,
11,
9,
14,
15,
8,
14,
2,
10,
10,
6,
10,
16,
7,
10,
12,
11,
8,
12,
16,
14,
6,
10,
12,
11,
9,
7,
5,
10,
5,
4,
9,
8,
5,
12,
15,
11,
8,
5,
4,
12,
12,
5,
7,
9,
8,
6,
8,
5,
8,
9,
1,
8,
9,
6,
7,
8,
7,
3,
5,
2,
9,
7,
2,
4,
4,
7,
6,
3,
3,
5,
3,
0,
5,
2,
4,
2,
4,
5,
2,
6,
3,
4,
4,
7,
4,
3,
4,
5,
1,
7,
1,
3,
2,
4,
2,
5,
3,
4,
3,
2,
5,
6,
4,
5,
2,
3,
2,
4,
2,
6,
1,
4,
6,
3,
4,
4,
5,
2,
4,
2,
2,
3,
1,
2,
4,
6,
3,
7,
2,
2,
2,
2,
5,
1,
6,
3,
4,
2,
2,
2,
1,
1,
3,
3,
2,
2,
2,
3,
2,
0,
1,
1,
0,
5,
1,
1,
4,
1,
1,
3,
1,
4,
1,
0,
2,
2,
2,
1,
0,
0,
2,
1,
1,
1,
0,
2,
2,
3,
3,
1,
3,
0,
1,
1,
2,
2,
2,
1,
1,
2,
2,
0,
2,
0,
1,
0,
3,
1,
2,
1,
1,
0,
0,
0,
3,
4,
4,
2,
4,
0,
2,
2,
0,
1,
2,
3,
1,
0,
2,
0,
2,
2,
1,
1,
1,
0,
2,
2,
1,
0,
0,
1,
0,
2,
0,
2,
2,
0,
1,
1,
3,
1,
0,
0,
1,
1,
0,
0,
0,
1,
1,
1,
1,
1,
0,
0,
0,
0,
2,
0,
2,
1,
3,
1,
1,
0,
0,
1,
1,
3,
2,
1,
0,
0,
1,
6,
0,
1,
0,
0,
0,
1,
1,
1,
0,
0,
0,
2,
0,
0,
0,
0,
0,
0,
0,
1,
0,
0,
0,
0,
1,
2,
1,
0,
0,
0,
0,
0,
0,
2,
0,
0,
0,
1,
1,
1,
0,
0,
0,
0,
1,
0,
1,
0,
0,
1,
0,
1,
0,
0,
1,
1,
0,
0,
1,
0,
2,
0,
1,
0,
1,
0,
0,
0,
1,
0,
0,
0,
0,
0,
0,
0,
0,
0,
0,
0,
1,
1,
0,
0,
0,
0,
1,
1,
1,
0,
0,
0,
0,
0,
0,
0,
0,
0,
0,
0,
0,
1,
0,
0,
0,
0,
0,
0,
0,
0,
0,
0,
0,
0,
0,
0,
0,
0,
0,
0,
0,
0,
0,
0,
0,
1,
0,
0,
0,
0,
0,
0,
0,
0,
0,
0,
0,
0,
0,
0,
0,
0,
0,
0,
0,
0,
0,
0,
0,
0,
1,
0,
0,
0,
0,
0,
0,
0,
0,
0,
0,
0,
0,
0,
0,
0,
1,
0,
0,
0,
0,
0,
0,
0,
0,
0,
0,
0,
0,
0,
0,
0,
0,
0,
0,
0,
0,
0,
0,
0,
0,
0,
0,
0,
0,
0,
0,
0,
0,
0,
1,
0,
0,
0,
0,
0,
0,
0,
0,
0,
1,
0,
0,
0,
0,
0,
0,
0,
0,
0,
0,
0,
0,
0,
0,
0,
0,
0,
0,
0,
0,
0,
0,
0,
0,
0,
0,
0,
0,
0,
0,
0,
0,
0,
0,
0,
0,
0,
0,
0,
0,
0,
0,
0,
0,
0,
0,
0,
0,
0,
0,
0,
0,
0,
0,
0,
0,
0,
0,
0,
0,
0,
0,
0,
0,
0,
0,
0,
0,
0,
0,
0,
0,
0,
0,
0,
0,
0,
0,
0,
0,
0,
0,
0,
0,
0,
0,
0,
0,
0,
0,
0,
1,
0,
0,
0,
0,
0,
0,
0,
0,
0,
0,
0,
0,
0,
0,
0,
0,
0,
0,
0,
0,
0,
0,
0,
0,
0,
0,
0,
0,
0,
0,
0,
0,
0,
0,
0,
0,
0,
0,
0,
0,
0,
0,
0,
0,
0,
0,
0,
0,
0,
0,
0,
0,
0,
0,
0,
0,
0,
0,
0,
0,
0,
0,
0,
0,
0,
0,
0,
#ENDOFDATA   :