File: N132962/Standards/20 keV/ThF4 std.msa
#FORMAT      : EMSA/MAS Spectral Data File
#VERSION     : 1.0
#TITLE       : ThF4 std
#DATE        : 12-SEP-2025
#TIME        : 11:40
#OWNER       : Unknown
#NPOINTS     : 4096
#NCOLUMNS    : 1
#XUNITS      : eV
#YUNITS      : counts
#DATATYPE    : Y
#XPERCHAN    : 9.99778
#OFFSET      : 1.69135
#BEAMKV      : 20
#SIGNALTYPE  : EDS
#ELEVANGLE   : 35
#AZIMANGLE   : 0
#LIVETIME    : 961.448
#REALTIME    : 1075.79
#PROBECUR    : 1.24145
#TAUWIND     : 0
#TDEADLYR    : 0
#TACTLYR     : 0.045
#TALWIND     : 0.025
#CHOFFSET    : 0.0
#XLABEL      : Energy (eV)
#YLABEL      : Counts
#EDSDET      : SD
##SPECIMEN   : ThF4 std
##D2STDCMP   : ThF4,(F:24.6703),(Th:75.3297)
##DET_HASH   : 12273538-fd48-a23f-0a19-f1e6fa85caef
##CALIB_HASH : 6abaa72c-aa41-8738-0be9-f592914732f3
##WORKING    : 15.0 mm
##SAMPLE     : <BulkSample id="1">\n<mOrientation id="2">\n<double>0.0</double>\n<double>0.0</double>\n<double>-1.0</double>\n</mOrientation>\n</BulkSample>
##MULTISPEC  : 1.78054
##DET_NAME   : EDAX All
##DET_MODE   : MediumLE
#SPECTRUM    :
102,
131,
49,
198,
1382,
7739,
38612,
140652,
243149,
196343,
123870,
109694,
94857,
65141,
44590,
40588,
46231,
52609,
45179,
38697,
59164,
149557,
286390,
250409,
96508,
30761,
22103,
23226,
25848,
27115,
26559,
25556,
25321,
25754,
27119,
28010,
29065,
29389,
30452,
31434,
34628,
40577,
43531,
40069,
37506,
37722,
40899,
41770,
39859,
38704,
37910,
38158,
37706,
38125,
38862,
39194,
40675,
43046,
45085,
44642,
43037,
41274,
38714,
37336,
37368,
37606,
37923,
38020,
38634,
37907,
38155,
38824,
39287,
39491,
41019,
44466,
53366,
64454,
73622,
70286,
59022,
47346,
42403,
41486,
41314,
40872,
40799,
40716,
42421,
46008,
50056,
51123,
47850,
45207,
44567,
50788,
70612,
142901,
333116,
614019,
758625,
614990,
380501,
310528,
410001,
471887,
373868,
208379,
97866,
59434,
56533,
65378,
72994,
67721,
52420,
38668,
31114,
27544,
25864,
24535,
24050,
24737,
25407,
25954,
26871,
27089,
26264,
25533,
24667,
25540,
27929,
31680,
34079,
34244,
31571,
29216,
28423,
28285,
27934,
26504,
25041,
23913,
23334,
22722,
22712,
22287,
22547,
22830,
23723,
24985,
25687,
25462,
24494,
23101,
22988,
22762,
23094,
23677,
23676,
23042,
22871,
22130,
22284,
22355,
22704,
22661,
22572,
22513,
21900,
21658,
21573,
21342,
21561,
21475,
21177,
21488,
20954,
21093,
21086,
21007,
21106,
21043,
20647,
20691,
20623,
20587,
20602,
20309,
20426,
20118,
20359,
20338,
19994,
20118,
20067,
20048,
20162,
20119,
20067,
20268,
20149,
20176,
19975,
20203,
19958,
19976,
20129,
19643,
19670,
19573,
19714,
20272,
21129,
21493,
20707,
20088,
19330,
19036,
18739,
18609,
18307,
18242,
18139,
18098,
17964,
18079,
17857,
17693,
17538,
17656,
17451,
17550,
17473,
17666,
17659,
17681,
17466,
16944,
16907,
16885,
16788,
16744,
16787,
16493,
16541,
16711,
17047,
17051,
17496,
17365,
17348,
16639,
16428,
16109,
16060,
15710,
15617,
15682,
15499,
15553,
15455,
15496,
15246,
15226,
15021,
15077,
14852,
14833,
14804,
14888,
14712,
15008,
14823,
14616,
14488,
14367,
14437,
14377,
14150,
14396,
14013,
13797,
13940,
13772,
13860,
13489,
13596,
13572,
13819,
13462,
13445,
13177,
13247,
12941,
13177,
13060,
13269,
12900,
12800,
12874,
12953,
12720,
12633,
12483,
12564,
12605,
12256,
12187,
12219,
12047,
12002,
11661,
12059,
11908,
11836,
11793,
12018,
11855,
11496,
11640,
11491,
11463,
11304,
11360,
11325,
11191,
11321,
11184,
11121,
10810,
11043,
10928,
10769,
10799,
10546,
10594,
10546,
10568,
10647,
10329,
10332,
10220,
10214,
10183,
9947,
9945,
9956,
9887,
9850,
9540,
9553,
9456,
9532,
9355,
9440,
9346,
9445,
9355,
9206,
9226,
9165,
9107,
8979,
8976,
8821,
8909,
9062,
9067,
9272,
9415,
9360,
9349,
9225,
8983,
8517,
8402,
8257,
8148,
8145,
8175,
7946,
7950,
7997,
7829,
7837,
7630,
7649,
7663,
7526,
7475,
7465,
7429,
7285,
7131,
7234,
7185,
7269,
7100,
7132,
7011,
6780,
6958,
6908,
6803,
6774,
6820,
6467,
6667,
6531,
6445,
6468,
6411,
6425,
6365,
6089,
6291,
6196,
6244,
6175,
5913,
6090,
6033,
6211,
6465,
6836,
7430,
8029,
9186,
10851,
12893,
15307,
17051,
17170,
16183,
13765,
10861,
8662,
7041,
5965,
5539,
5384,
5087,
5066,
5004,
4972,
4750,
4865,
4920,
4623,
4683,
4665,
4760,
4541,
4582,
4527,
4478,
4412,
4439,
4332,
4176,
4265,
4192,
4053,
4131,
4204,
4069,
4115,
3850,
3933,
3990,
3958,
3860,
3788,
3798,
3833,
3732,
3658,
3738,
3622,
3580,
3579,
3510,
3526,
3433,
3399,
3511,
3436,
3365,
3266,
3272,
3128,
3293,
3089,
3155,
3179,
3193,
3094,
3188,
3055,
3041,
2940,
3017,
2920,
2958,
2783,
2797,
2753,
2750,
2730,
2668,
2542,
2535,
2628,
2652,
2790,
2878,
3055,
3449,
3999,
4137,
4280,
4147,
3792,
3418,
3090,
2639,
2575,
2294,
2210,
2227,
2213,
2146,
2151,
2159,
2210,
2052,
2097,
2288,
2253,
2249,
2210,
2173,
2021,
1971,
1838,
1847,
1734,
1608,
1724,
1689,
1598,
1532,
1664,
1538,
1488,
1593,
1496,
1548,
1444,
1393,
1417,
1392,
1406,
1350,
1373,
1345,
1369,
1253,
1297,
1273,
1196,
1252,
1235,
1165,
1108,
1114,
1121,
1207,
1103,
1129,
1087,
1088,
1067,
1040,
1025,
960,
983,
984,
1008,
999,
978,
885,
977,
824,
903,
922,
866,
860,
845,
861,
796,
824,
785,
775,
735,
707,
719,
671,
707,
686,
650,
660,
616,
645,
598,
622,
564,
560,
589,
513,
522,
524,
500,
460,
475,
446,
465,
439,
436,
428,
444,
418,
373,
398,
369,
362,
382,
311,
333,
299,
247,
298,
302,
267,
242,
261,
233,
207,
222,
208,
193,
188,
159,
170,
159,
139,
121,
113,
115,
91,
96,
76,
73,
69,
48,
54,
46,
36,
41,
39,
22,
30,
21,
19,
28,
27,
24,
22,
23,
22,
24,
20,
24,
21,
16,
25,
21,
25,
25,
19,
15,
20,
19,
23,
11,
21,
18,
18,
19,
28,
18,
7,
15,
20,
24,
19,
13,
14,
18,
19,
14,
8,
17,
9,
17,
17,
18,
16,
14,
12,
17,
12,
11,
15,
11,
15,
7,
12,
12,
21,
19,
13,
14,
10,
12,
17,
20,
14,
13,
10,
12,
11,
5,
18,
17,
13,
17,
9,
8,
5,
12,
8,
13,
10,
14,
11,
14,
10,
7,
6,
9,
8,
11,
11,
9,
14,
13,
10,
8,
11,
6,
11,
6,
7,
5,
5,
3,
2,
7,
3,
9,
7,
10,
6,
6,
7,
11,
6,
7,
6,
8,
7,
5,
5,
5,
10,
3,
6,
8,
4,
7,
9,
4,
1,
10,
12,
10,
7,
1,
6,
6,
5,
2,
8,
6,
9,
10,
4,
5,
8,
7,
7,
8,
8,
11,
8,
8,
4,
3,
10,
5,
9,
5,
7,
7,
5,
5,
9,
6,
2,
7,
7,
9,
5,
5,
10,
4,
5,
5,
8,
5,
5,
7,
6,
2,
8,
4,
8,
3,
7,
4,
9,
2,
9,
7,
8,
6,
2,
2,
9,
3,
5,
6,
7,
3,
6,
4,
4,
6,
6,
1,
3,
5,
5,
4,
1,
1,
3,
3,
3,
7,
7,
5,
5,
3,
4,
1,
6,
10,
4,
4,
1,
2,
4,
2,
4,
2,
3,
0,
3,
7,
3,
2,
1,
4,
3,
4,
4,
5,
1,
1,
3,
5,
4,
1,
2,
6,
2,
3,
3,
2,
3,
2,
1,
5,
2,
1,
2,
1,
3,
2,
2,
0,
5,
2,
1,
1,
5,
4,
1,
4,
3,
1,
1,
0,
3,
1,
4,
2,
3,
3,
2,
2,
4,
5,
1,
0,
1,
1,
3,
2,
1,
1,
2,
2,
1,
1,
2,
0,
0,
0,
0,
0,
1,
2,
1,
1,
1,
1,
1,
0,
1,
0,
0,
0,
2,
0,
0,
1,
0,
2,
2,
1,
0,
0,
1,
0,
4,
1,
2,
1,
0,
1,
0,
0,
0,
0,
0,
0,
1,
0,
0,
2,
1,
1,
0,
1,
0,
0,
0,
1,
0,
0,
0,
0,
2,
1,
1,
1,
0,
1,
0,
1,
0,
1,
1,
1,
1,
0,
0,
0,
0,
0,
1,
1,
0,
0,
0,
0,
0,
1,
0,
0,
0,
0,
0,
0,
1,
0,
0,
0,
0,
0,
1,
0,
0,
0,
1,
0,
0,
0,
0,
1,
0,
0,
0,
1,
1,
0,
3,
0,
0,
0,
1,
0,
0,
1,
0,
0,
0,
0,
0,
0,
0,
0,
0,
0,
1,
0,
0,
0,
0,
1,
0,
1,
0,
0,
0,
0,
2,
0,
0,
0,
0,
0,
1,
1,
0,
0,
0,
1,
0,
0,
0,
0,
0,
0,
0,
0,
0,
0,
0,
0,
1,
0,
0,
0,
0,
0,
0,
0,
0,
0,
0,
0,
0,
0,
0,
0,
0,
0,
0,
0,
0,
0,
0,
0,
0,
0,
0,
0,
0,
0,
0,
0,
0,
0,
0,
0,
0,
0,
0,
0,
0,
0,
0,
0,
0,
0,
0,
0,
1,
0,
0,
0,
0,
0,
0,
0,
0,
0,
0,
0,
0,
0,
0,
0,
0,
0,
0,
0,
0,
0,
0,
0,
1,
0,
0,
0,
1,
0,
0,
0,
0,
0,
0,
0,
0,
0,
0,
0,
0,
0,
0,
0,
0,
0,
0,
0,
0,
0,
0,
0,
0,
0,
0,
0,
0,
0,
0,
0,
0,
0,
0,
0,
0,
0,
0,
0,
0,
0,
0,
0,
0,
0,
0,
0,
0,
0,
0,
0,
0,
0,
0,
0,
0,
0,
0,
0,
0,
0,
0,
0,
0,
0,
0,
0,
0,
0,
0,
0,
0,
0,
0,
0,
0,
0,
0,
0,
0,
0,
0,
0,
0,
0,
0,
0,
0,
0,
0,
0,
0,
0,
0,
0,
0,
0,
0,
0,
0,
0,
0,
0,
0,
0,
0,
0,
0,
0,
0,
0,
0,
0,
0,
0,
0,
0,
0,
0,
0,
0,
0,
0,
0,
0,
0,
0,
0,
0,
0,
0,
0,
0,
0,
0,
0,
0,
0,
0,
0,
0,
0,
0,
0,
0,
0,
#ENDOFDATA   :