File: N132962/Standards/20 keV/Ti std.msa
#FORMAT      : EMSA/MAS Spectral Data File
#VERSION     : 1.0
#TITLE       : Ti std
#DATE        : 20-FEB-2025
#TIME        : 16:38
#OWNER       : Unknown
#NPOINTS     : 4096
#NCOLUMNS    : 1
#XUNITS      : eV
#YUNITS      : counts
#DATATYPE    : Y
#XPERCHAN    : 9.99778
#OFFSET      : 1.69135
#BEAMKV      : 20
#SIGNALTYPE  : EDS
#ELEVANGLE   : 35
#AZIMANGLE   : 0
#LIVETIME    : 1198.46
#REALTIME    : 1316.81
#PROBECUR    : 1.04967
#TAUWIND     : 0
#TDEADLYR    : 0
#TACTLYR     : 0.045
#TALWIND     : 0.025
#CHOFFSET    : 0.0
#XLABEL      : Energy (eV)
#YLABEL      : Counts
#EDSDET      : SD
##SPECIMEN   : Ti std
##D2STDCMP   : Ti,(Ti:100.0),5.0
##DET_HASH   : 12273538-fd48-a23f-0a19-f1e6fa85caef
##CALIB_HASH : 6abaa72c-aa41-8738-0be9-f592914732f3
##WORKING    : 15.0 mm
##SAMPLE     : <BulkSample id="1">\n<mOrientation id="2">\n<double>0.0</double>\n<double>0.0</double>\n<double>-1.0</double>\n</mOrientation>\n</BulkSample>
##MULTISPEC  : 1.401
##DET_NAME   : EDAX All
##DET_MODE   : MediumLE
#SPECTRUM    :
145,
149,
49,
101,
638,
2743,
7488,
16591,
32149,
42814,
48327,
110692,
288620,
401689,
338719,
239791,
109161,
53892,
33462,
14545,
9452,
9556,
10809,
12566,
12360,
12301,
12660,
13672,
15389,
15774,
16088,
16265,
17211,
18118,
18970,
19865,
20750,
21035,
22230,
22633,
23031,
24243,
24793,
25289,
25639,
26059,
26644,
27388,
28524,
30382,
30864,
30096,
29367,
29272,
29738,
30351,
31784,
33980,
35458,
35282,
33695,
32085,
29923,
28568,
28558,
28701,
28862,
28925,
28387,
28413,
28649,
28529,
28481,
28496,
28300,
28427,
28345,
28083,
28125,
27764,
27359,
27333,
27437,
27031,
27046,
26637,
26749,
26763,
27240,
28281,
31698,
37269,
40928,
38574,
31811,
27045,
25266,
24859,
24721,
24534,
24320,
24380,
24053,
23954,
24202,
24384,
24691,
24446,
23788,
23236,
22558,
22553,
22348,
21928,
21796,
21668,
21801,
21719,
21479,
21260,
21050,
21174,
21016,
21053,
21065,
20758,
20697,
20766,
20407,
20569,
20693,
20268,
19835,
19547,
19207,
19037,
18600,
18661,
18797,
18574,
19083,
19946,
21450,
24653,
29726,
44719,
102936,
299936,
763073,
1443408,
1942325,
1830758,
1212048,
570135,
197653,
60403,
26009,
20177,
21210,
24567,
34705,
62001,
119084,
198134,
253961,
243090,
173083,
92026,
40497,
18641,
11651,
10084,
9689,
9704,
9597,
9693,
9836,
9974,
9959,
10091,
10193,
10126,
9753,
9645,
9668,
9545,
9457,
9419,
9406,
9370,
9270,
9375,
9309,
9352,
9217,
9289,
9184,
9368,
9314,
9140,
9013,
9024,
8996,
8919,
8959,
9004,
8859,
8800,
8965,
8990,
9278,
9561,
10114,
10347,
10135,
9732,
9170,
8915,
8554,
8436,
8335,
8322,
8204,
8291,
8214,
8073,
8102,
7948,
8140,
7962,
7902,
7957,
7955,
7844,
7946,
7956,
7901,
7780,
7572,
7674,
7649,
7495,
7547,
7493,
7505,
7426,
7431,
7707,
7726,
7752,
7601,
7555,
7296,
6953,
7035,
7126,
6836,
6826,
6824,
6688,
6816,
6696,
6743,
6569,
6527,
6546,
6612,
6423,
6390,
6236,
6303,
6348,
6246,
6318,
6275,
6344,
6243,
6229,
6169,
6142,
5960,
6032,
5906,
5766,
5971,
5829,
5725,
5813,
5638,
5529,
5789,
5631,
5542,
5572,
5724,
5722,
5908,
6330,
6898,
7774,
8297,
8595,
8005,
7211,
6195,
5725,
5426,
5065,
5261,
5145,
5063,
5195,
5286,
5576,
5529,
5749,
5735,
5525,
5189,
5068,
4840,
4758,
4626,
4632,
4761,
4660,
4557,
4698,
4664,
4504,
4452,
4516,
4394,
4223,
4372,
4231,
4236,
4456,
4125,
3995,
4057,
3992,
4047,
4016,
3972,
3945,
3906,
3894,
3843,
3956,
3975,
3864,
3788,
3673,
3750,
3641,
3753,
3649,
3724,
3579,
3615,
3542,
3560,
3508,
3510,
3403,
3453,
3342,
3350,
3380,
3421,
3396,
3404,
3197,
3214,
3219,
3152,
3173,
3138,
3116,
3089,
3079,
2956,
3022,
2941,
2954,
2896,
2959,
2868,
2943,
2918,
2851,
2843,
2661,
2791,
2736,
2688,
2728,
2759,
2761,
2683,
2646,
2642,
2553,
2488,
2441,
2503,
2497,
2370,
2379,
2373,
2477,
2424,
2387,
2272,
2360,
2241,
2244,
2335,
2187,
2201,
2190,
2144,
2094,
2070,
2125,
2089,
2093,
1934,
2008,
2016,
2026,
2008,
2000,
1935,
2018,
1907,
1858,
1861,
1837,
1850,
1759,
1861,
1769,
1754,
1763,
1740,
1704,
1689,
1661,
1727,
1624,
1629,
1710,
1674,
1589,
1529,
1490,
1540,
1556,
1522,
1510,
1505,
1462,
1527,
1497,
1429,
1375,
1382,
1357,
1401,
1315,
1409,
1275,
1337,
1349,
1239,
1284,
1226,
1200,
1218,
1150,
1195,
1186,
1127,
1159,
1204,
1122,
1138,
1112,
1145,
1116,
1062,
1033,
1052,
1024,
1024,
995,
946,
1002,
976,
981,
957,
941,
853,
937,
959,
912,
828,
861,
890,
841,
875,
849,
812,
838,
824,
765,
830,
756,
775,
762,
771,
751,
732,
675,
709,
676,
646,
686,
656,
664,
661,
623,
617,
630,
601,
625,
617,
567,
566,
636,
573,
554,
577,
546,
559,
534,
544,
548,
531,
480,
505,
494,
463,
451,
487,
473,
456,
473,
450,
448,
421,
455,
491,
391,
410,
383,
416,
396,
381,
371,
385,
375,
348,
357,
317,
333,
315,
351,
309,
295,
337,
300,
251,
284,
302,
288,
262,
262,
277,
267,
248,
263,
240,
247,
244,
254,
239,
210,
222,
238,
198,
213,
197,
180,
203,
194,
187,
171,
170,
181,
185,
146,
146,
181,
171,
157,
136,
146,
138,
142,
118,
134,
126,
120,
115,
123,
119,
90,
110,
106,
103,
105,
94,
99,
98,
83,
89,
77,
79,
72,
71,
58,
61,
66,
59,
61,
48,
74,
49,
43,
50,
40,
41,
36,
37,
26,
36,
17,
12,
21,
17,
21,
13,
13,
6,
14,
11,
8,
10,
6,
8,
11,
14,
6,
5,
9,
15,
6,
10,
10,
4,
8,
3,
6,
5,
8,
8,
6,
7,
3,
10,
10,
4,
7,
5,
7,
6,
9,
6,
8,
5,
8,
2,
5,
2,
6,
2,
4,
4,
4,
3,
3,
2,
6,
3,
4,
8,
2,
2,
6,
5,
6,
1,
0,
5,
5,
3,
4,
2,
1,
4,
3,
4,
4,
5,
1,
3,
5,
7,
5,
3,
0,
2,
5,
2,
3,
2,
6,
3,
2,
2,
0,
0,
0,
2,
0,
0,
0,
2,
2,
1,
2,
0,
1,
1,
0,
1,
4,
2,
0,
1,
1,
3,
1,
4,
2,
3,
0,
2,
1,
4,
1,
0,
2,
2,
4,
1,
0,
0,
1,
3,
2,
2,
1,
3,
0,
2,
1,
0,
0,
1,
0,
0,
1,
2,
1,
2,
3,
0,
0,
0,
0,
0,
0,
0,
0,
0,
1,
1,
1,
0,
1,
1,
0,
1,
1,
0,
1,
0,
0,
0,
0,
1,
1,
1,
1,
1,
2,
1,
1,
0,
1,
2,
0,
0,
0,
0,
2,
0,
0,
0,
1,
1,
0,
0,
0,
1,
1,
1,
0,
0,
1,
0,
0,
0,
0,
2,
0,
0,
0,
0,
1,
0,
0,
0,
0,
0,
0,
0,
2,
1,
1,
1,
1,
3,
0,
0,
2,
0,
2,
0,
0,
0,
0,
0,
0,
1,
0,
0,
0,
0,
1,
0,
0,
0,
0,
0,
0,
0,
1,
0,
0,
1,
2,
0,
0,
1,
0,
0,
0,
0,
0,
0,
0,
0,
0,
2,
1,
0,
0,
1,
0,
0,
1,
0,
0,
0,
0,
0,
0,
0,
0,
0,
0,
0,
0,
0,
0,
0,
0,
0,
0,
0,
0,
0,
0,
0,
0,
0,
0,
0,
0,
0,
0,
0,
0,
0,
0,
0,
0,
0,
0,
0,
0,
0,
0,
0,
0,
0,
0,
0,
0,
0,
0,
0,
0,
0,
0,
0,
0,
0,
0,
0,
0,
0,
0,
0,
0,
0,
0,
0,
0,
0,
0,
0,
0,
0,
0,
0,
0,
0,
0,
0,
0,
0,
0,
0,
0,
0,
0,
0,
0,
0,
0,
0,
0,
0,
0,
0,
0,
0,
0,
0,
0,
0,
0,
0,
0,
0,
0,
0,
0,
0,
0,
0,
0,
0,
0,
0,
1,
0,
0,
0,
0,
0,
0,
0,
0,
0,
0,
0,
0,
0,
0,
0,
0,
0,
0,
0,
0,
0,
0,
0,
0,
0,
0,
0,
0,
0,
0,
0,
0,
0,
0,
0,
0,
0,
0,
0,
0,
0,
0,
0,
0,
0,
0,
0,
0,
0,
0,
0,
0,
0,
0,
0,
0,
0,
0,
0,
0,
0,
0,
0,
0,
0,
0,
0,
0,
0,
0,
0,
0,
0,
0,
0,
0,
0,
0,
0,
0,
0,
0,
0,
0,
0,
0,
0,
0,
0,
0,
0,
0,
0,
0,
0,
0,
0,
0,
0,
0,
0,
0,
0,
0,
0,
0,
0,
0,
0,
0,
0,
0,
0,
0,
0,
0,
0,
0,
0,
0,
0,
0,
0,
0,
0,
0,
0,
0,
0,
0,
0,
0,
0,
0,
0,
0,
0,
0,
0,
0,
0,
0,
0,
0,
0,
0,
0,
0,
0,
0,
0,
0,
0,
0,
0,
0,
0,
0,
0,
0,
0,
0,
0,
0,
0,
0,
0,
0,
0,
0,
0,
0,
0,
0,
0,
0,
0,
0,
0,
0,
0,
0,
0,
0,
0,
0,
0,
0,
0,
0,
0,
0,
0,
0,
0,
0,
0,
0,
0,
0,
0,
0,
0,
0,
0,
0,
0,
0,
0,
0,
0,
0,
0,
0,
0,
0,
0,
0,
0,
0,
0,
0,
0,
0,
0,
0,
0,
0,
0,
0,
0,
0,
0,
0,
0,
0,
0,
0,
0,
0,
0,
0,
0,
0,
0,
0,
0,
0,
0,
0,
0,
0,
0,
0,
0,
0,
0,
0,
0,
0,
0,
0,
0,
0,
0,
0,
0,
0,
0,
0,
0,
0,
0,
0,
0,
0,
0,
0,
0,
0,
0,
0,
0,
0,
0,
0,
0,
0,
0,
0,
0,
0,
0,
0,
0,
0,
0,
0,
0,
0,
0,
0,
0,
0,
0,
0,
0,
0,
0,
0,
0,
0,
0,
0,
#ENDOFDATA   :