File: N132962/Standards/20 keV/Tm std.msa
#FORMAT      : EMSA/MAS Spectral Data File
#VERSION     : 1.0
#TITLE       : Tm std
#DATE        : 20-FEB-2025
#TIME        : 13:50
#OWNER       : Unknown
#NPOINTS     : 4096
#NCOLUMNS    : 1
#XUNITS      : eV
#YUNITS      : counts
#DATATYPE    : Y
#XPERCHAN    : 9.99778
#OFFSET      : 1.69135
#BEAMKV      : 20
#SIGNALTYPE  : EDS
#ELEVANGLE   : 35
#AZIMANGLE   : 0
#LIVETIME    : 960.613
#REALTIME    : 1070.12
#PROBECUR    : 1.04692
#TAUWIND     : 0
#TDEADLYR    : 0
#TACTLYR     : 0.045
#TALWIND     : 0.025
#CHOFFSET    : 0.0
#XLABEL      : Energy (eV)
#YLABEL      : Counts
#EDSDET      : SD
##SPECIMEN   : Tm std
##D2STDCMP   : Tm,(Tm:100.0),5.0
##DET_HASH   : 12273538-fd48-a23f-0a19-f1e6fa85caef
##CALIB_HASH : 6abaa72c-aa41-8738-0be9-f592914732f3
##WORKING    : 15.0 mm
##SAMPLE     : <BulkSample id="1">\n<mOrientation id="2">\n<double>0.0</double>\n<double>0.0</double>\n<double>-1.0</double>\n</mOrientation>\n</BulkSample>
##MULTISPEC  : 2.95556
##DET_NAME   : EDAX All
##DET_MODE   : MediumLE
#SPECTRUM    :
125,
128,
50,
171,
1038,
4254,
9533,
17211,
32019,
40437,
29800,
24016,
24269,
25064,
27002,
30230,
41268,
55076,
49259,
38036,
36176,
41208,
49357,
51298,
46021,
43111,
43761,
45772,
48993,
49631,
49812,
50703,
51781,
53235,
56337,
65593,
100587,
165208,
189722,
136709,
83920,
64643,
61344,
62018,
65382,
75611,
113086,
239824,
489639,
687747,
613082,
350664,
132472,
46454,
31147,
37543,
50328,
54159,
45491,
35495,
29910,
28278,
28372,
28859,
28386,
26461,
24384,
23494,
22414,
22093,
21452,
21740,
22029,
22546,
22677,
23401,
23536,
23968,
23317,
23215,
23278,
23508,
23935,
24160,
24346,
24691,
24836,
25002,
25526,
25341,
25187,
24973,
25624,
25413,
25833,
25763,
26181,
26393,
26632,
26630,
26801,
26559,
26527,
26585,
26580,
26739,
26765,
26373,
26688,
26894,
26413,
26769,
27182,
26815,
26980,
26704,
26664,
26775,
26775,
26442,
26723,
27035,
27147,
26944,
26956,
26818,
26774,
26774,
26828,
27071,
26744,
26480,
26783,
26711,
26578,
26723,
26823,
26399,
26467,
26268,
26473,
25982,
26051,
25917,
25914,
25956,
25984,
26050,
25788,
25514,
25733,
25232,
25728,
25464,
25293,
25287,
25243,
25237,
24971,
25200,
25026,
24684,
24788,
24422,
24474,
24350,
24469,
24022,
24363,
23975,
23724,
24216,
23866,
23786,
23866,
23564,
23727,
23726,
24003,
24515,
24834,
25029,
24416,
23326,
22938,
22573,
22450,
22457,
22449,
22306,
22425,
22030,
21792,
21477,
21873,
21918,
21898,
21560,
21721,
21421,
21632,
21206,
21304,
21600,
20758,
21076,
21291,
22187,
23996,
27961,
32253,
35962,
36568,
34088,
30222,
25766,
22786,
21093,
20404,
19981,
19830,
19280,
19483,
19493,
19446,
19480,
19196,
19144,
19047,
19198,
19512,
19871,
21284,
25145,
36640,
64163,
118698,
197649,
275271,
313966,
289123,
214698,
131469,
72124,
39891,
26327,
21370,
19655,
19195,
18838,
18579,
17908,
17516,
16870,
16587,
16599,
16554,
16478,
16288,
16603,
16351,
16524,
17172,
18616,
22901,
31205,
47712,
73776,
104412,
131535,
141718,
130447,
104367,
77427,
56908,
43088,
34092,
29319,
29205,
36241,
47930,
59474,
64773,
60774,
49165,
36357,
25711,
19240,
16528,
14720,
13634,
13105,
12388,
11962,
11793,
11687,
11760,
11713,
11546,
11686,
11747,
11598,
11973,
12095,
12244,
12130,
12227,
12011,
12672,
13661,
16175,
19498,
24004,
28672,
29782,
28214,
24068,
19413,
15722,
13460,
12624,
12702,
13914,
14946,
16000,
16664,
16097,
14837,
13203,
11996,
10882,
10440,
10052,
10191,
10278,
10335,
10163,
10410,
9670,
9604,
9393,
9137,
8784,
8987,
8692,
9160,
8787,
8783,
8706,
8729,
8622,
8661,
8532,
8541,
8583,
8258,
8339,
8328,
8319,
8241,
8336,
8352,
8117,
8150,
7960,
8247,
7955,
7953,
7821,
7728,
7867,
7776,
7751,
7511,
7626,
7509,
7623,
7535,
7592,
7165,
7403,
7176,
7222,
7298,
7133,
6938,
6966,
6951,
7043,
6764,
6955,
6707,
6793,
6772,
6829,
6615,
6591,
6451,
6528,
6379,
6310,
6498,
6374,
6339,
6329,
6248,
6171,
6176,
5928,
6109,
6123,
5924,
5948,
5920,
5827,
5853,
5842,
5671,
5496,
5646,
5677,
5520,
5590,
5465,
5279,
5376,
5418,
5364,
5173,
5205,
5211,
5206,
5215,
5010,
5125,
4949,
4905,
4933,
5036,
4913,
4887,
4810,
4616,
4657,
4681,
4616,
4577,
4540,
4526,
4517,
4523,
4322,
4423,
4328,
4201,
4309,
4233,
4143,
4185,
4100,
4002,
3960,
3934,
3959,
3845,
3864,
3920,
3801,
3841,
3802,
3799,
3719,
3587,
3662,
3619,
3713,
3577,
3693,
3645,
3621,
3497,
3388,
3496,
3377,
3291,
3299,
3280,
3236,
3179,
3273,
3101,
3057,
3149,
3065,
2961,
3061,
2876,
2940,
2969,
2829,
2770,
2764,
2787,
2759,
2771,
2742,
2715,
2724,
2769,
2711,
2654,
2616,
2596,
2495,
2550,
2502,
2500,
2389,
2265,
2399,
2428,
2282,
2362,
2241,
2272,
2260,
2150,
2136,
2171,
2125,
2015,
2025,
2055,
2051,
1926,
2029,
1948,
1953,
1896,
1954,
1917,
1862,
1850,
1764,
1714,
1752,
1667,
1759,
1700,
1632,
1589,
1634,
1660,
1605,
1599,
1590,
1458,
1556,
1540,
1514,
1394,
1468,
1417,
1421,
1403,
1350,
1371,
1390,
1346,
1408,
1240,
1250,
1196,
1194,
1230,
1176,
1151,
1199,
1183,
1187,
1133,
1149,
1104,
1069,
1116,
1086,
988,
974,
988,
1011,
974,
964,
933,
1014,
948,
899,
863,
896,
835,
856,
848,
817,
807,
761,
813,
768,
733,
697,
695,
728,
733,
751,
624,
643,
640,
674,
592,
590,
572,
547,
581,
522,
504,
499,
487,
541,
486,
480,
437,
449,
443,
471,
418,
391,
422,
387,
378,
367,
333,
319,
344,
299,
323,
299,
265,
293,
264,
291,
252,
198,
195,
212,
201,
155,
190,
178,
152,
136,
131,
129,
120,
93,
96,
66,
55,
65,
46,
64,
40,
29,
35,
28,
27,
25,
30,
38,
29,
26,
26,
31,
23,
30,
26,
28,
36,
27,
25,
36,
24,
23,
16,
21,
15,
29,
22,
25,
26,
29,
29,
19,
25,
20,
23,
29,
18,
22,
23,
27,
24,
24,
15,
23,
25,
27,
21,
20,
21,
15,
19,
20,
24,
18,
18,
22,
27,
18,
12,
27,
20,
10,
20,
19,
20,
18,
23,
20,
10,
18,
20,
16,
18,
20,
22,
8,
14,
20,
11,
18,
22,
14,
17,
18,
12,
16,
8,
11,
13,
12,
8,
11,
17,
15,
13,
10,
13,
9,
16,
9,
17,
11,
11,
11,
13,
11,
13,
17,
9,
9,
7,
7,
11,
17,
6,
13,
17,
17,
10,
10,
11,
8,
9,
9,
7,
12,
10,
6,
12,
6,
16,
5,
12,
8,
16,
12,
14,
9,
9,
12,
6,
3,
9,
5,
9,
12,
6,
4,
11,
9,
7,
4,
9,
15,
11,
12,
9,
14,
6,
6,
15,
10,
12,
8,
13,
7,
4,
8,
5,
7,
2,
6,
12,
6,
9,
10,
9,
6,
13,
4,
6,
6,
5,
4,
5,
7,
10,
4,
5,
5,
5,
6,
5,
7,
3,
8,
6,
3,
3,
2,
2,
5,
8,
9,
11,
5,
5,
4,
6,
1,
3,
4,
4,
0,
0,
4,
9,
5,
4,
2,
4,
3,
4,
4,
4,
3,
2,
5,
2,
1,
3,
2,
3,
6,
3,
2,
2,
2,
4,
2,
6,
2,
4,
2,
3,
4,
7,
0,
1,
3,
2,
2,
4,
1,
3,
2,
1,
1,
3,
0,
1,
3,
2,
2,
2,
0,
2,
3,
2,
2,
1,
1,
2,
0,
0,
0,
1,
3,
6,
0,
1,
2,
3,
1,
2,
2,
1,
1,
1,
6,
3,
1,
1,
3,
2,
0,
1,
0,
1,
0,
0,
0,
0,
0,
3,
0,
0,
0,
1,
1,
1,
0,
3,
2,
3,
1,
1,
4,
1,
0,
2,
1,
1,
0,
1,
1,
0,
0,
1,
0,
1,
0,
0,
2,
0,
2,
1,
0,
1,
1,
1,
0,
1,
0,
0,
0,
0,
0,
1,
0,
0,
0,
0,
0,
1,
0,
0,
0,
0,
0,
1,
1,
0,
1,
1,
2,
2,
1,
1,
0,
1,
0,
0,
0,
0,
0,
0,
0,
0,
3,
0,
0,
1,
0,
0,
0,
0,
0,
0,
0,
0,
0,
0,
0,
0,
0,
0,
1,
0,
1,
1,
1,
0,
1,
1,
0,
0,
1,
0,
0,
0,
0,
0,
0,
1,
0,
0,
0,
2,
0,
0,
1,
0,
0,
0,
0,
1,
0,
1,
0,
0,
0,
0,
0,
0,
0,
0,
0,
1,
0,
1,
0,
0,
0,
0,
0,
0,
0,
0,
1,
1,
0,
0,
0,
0,
0,
0,
1,
0,
0,
0,
1,
0,
0,
0,
0,
0,
0,
0,
1,
0,
0,
1,
0,
0,
0,
0,
0,
1,
0,
0,
0,
0,
0,
0,
0,
0,
0,
0,
0,
1,
0,
0,
0,
0,
0,
0,
0,
0,
0,
0,
0,
0,
0,
0,
0,
1,
0,
0,
0,
0,
0,
0,
0,
0,
0,
0,
0,
0,
0,
0,
0,
0,
0,
0,
1,
0,
0,
0,
0,
0,
0,
0,
0,
0,
0,
0,
0,
0,
0,
0,
0,
1,
1,
0,
0,
0,
0,
0,
0,
0,
0,
0,
0,
0,
0,
0,
0,
0,
0,
0,
0,
0,
0,
0,
0,
0,
0,
0,
0,
1,
0,
0,
0,
0,
0,
0,
0,
0,
0,
0,
0,
0,
0,
0,
0,
0,
0,
0,
0,
0,
0,
0,
0,
0,
0,
0,
0,
0,
0,
0,
0,
0,
0,
0,
0,
0,
0,
0,
0,
0,
0,
0,
0,
0,
0,
0,
0,
0,
0,
0,
0,
0,
0,
0,
0,
0,
0,
0,
0,
0,
0,
0,
0,
0,
0,
0,
0,
0,
0,
0,
0,
0,
0,
0,
0,
0,
0,
0,
0,
0,
0,
0,
0,
0,
0,
0,
0,
0,
0,
0,
0,
0,
0,
0,
0,
0,
0,
0,
0,
0,
0,
0,
0,
0,
0,
0,
0,
0,
0,
0,
0,
0,
0,
0,
0,
0,
0,
0,
0,
0,
0,
0,
0,
0,
0,
0,
0,
#ENDOFDATA   :