File: N132962/Standards/20 keV/V std.msa
#FORMAT      : EMSA/MAS Spectral Data File
#VERSION     : 1.0
#TITLE       : V std
#DATE        : 20-FEB-2025
#TIME        : 16:44
#OWNER       : Unknown
#NPOINTS     : 4096
#NCOLUMNS    : 1
#XUNITS      : eV
#YUNITS      : counts
#DATATYPE    : Y
#XPERCHAN    : 9.99778
#OFFSET      : 1.69135
#BEAMKV      : 20
#SIGNALTYPE  : EDS
#ELEVANGLE   : 35
#AZIMANGLE   : 0
#LIVETIME    : 959.57
#REALTIME    : 1052.52
#PROBECUR    : 1.04967
#TAUWIND     : 0
#TDEADLYR    : 0
#TACTLYR     : 0.045
#TALWIND     : 0.025
#CHOFFSET    : 0.0
#XLABEL      : Energy (eV)
#YLABEL      : Counts
#EDSDET      : SD
##SPECIMEN   : V std
##D2STDCMP   : V,(V:100.0)
##DET_HASH   : 12273538-fd48-a23f-0a19-f1e6fa85caef
##CALIB_HASH : 6abaa72c-aa41-8738-0be9-f592914732f3
##WORKING    : 15.0 mm
##SAMPLE     : <BulkSample id="1">\n<mOrientation id="2">\n<double>0.0</double>\n<double>0.0</double>\n<double>-1.0</double>\n</mOrientation>\n</BulkSample>
##MULTISPEC  : 1.20227
##DET_NAME   : EDAX All
##DET_MODE   : MediumLE
#SPECTRUM    :
101,
146,
43,
84,
499,
2049,
5918,
12813,
24046,
31266,
27775,
30144,
49078,
123697,
272436,
340147,
348602,
316699,
138245,
30692,
10269,
7944,
8167,
9196,
9292,
8959,
9306,
10211,
11455,
11897,
12259,
12499,
12995,
13658,
14090,
14859,
15721,
16034,
16396,
16986,
17655,
17964,
18799,
19028,
19454,
19993,
20493,
20857,
22006,
22788,
23221,
22859,
22549,
22536,
22659,
23455,
24576,
26661,
27706,
27456,
26168,
24669,
23146,
22422,
22460,
22712,
22912,
22925,
22668,
22828,
22780,
22767,
22503,
22754,
22604,
22690,
22811,
22724,
22489,
22308,
21935,
22097,
21832,
21790,
21694,
21701,
21431,
21616,
21287,
20915,
21029,
20672,
20663,
20441,
20294,
20546,
19949,
20046,
19695,
19836,
19362,
20041,
20009,
20004,
21375,
23725,
26812,
27682,
25228,
21442,
19419,
18712,
18086,
17890,
17738,
17587,
17793,
17487,
17455,
17474,
17334,
17636,
17961,
18025,
17386,
17067,
16632,
16348,
16329,
16110,
16070,
15794,
15948,
15600,
15764,
15932,
15717,
15860,
15873,
15457,
15708,
15304,
15343,
15380,
15104,
14865,
14660,
14363,
14195,
13949,
13783,
13890,
14113,
14340,
14475,
14735,
15506,
16831,
19077,
24583,
44420,
117789,
323597,
716696,
1171434,
1386157,
1181379,
724541,
324791,
112269,
36641,
17732,
14265,
14236,
14965,
16848,
22006,
35862,
67654,
118074,
168775,
184482,
152520,
96395,
48843,
21838,
11326,
8211,
7715,
7570,
7355,
7529,
7522,
7555,
7504,
7732,
7820,
7892,
7551,
7494,
7474,
7351,
7252,
7171,
7174,
7109,
7237,
7172,
7282,
7249,
7509,
7698,
8042,
8420,
8261,
7887,
7367,
7195,
6925,
6807,
6950,
6912,
6756,
6769,
6864,
6814,
6783,
6702,
6787,
6706,
6473,
6509,
6650,
6616,
6437,
6582,
6541,
6493,
6300,
6264,
6364,
6294,
6187,
6132,
6186,
6154,
6230,
6463,
6371,
6456,
6269,
6167,
5930,
5942,
5771,
5857,
5812,
5698,
5722,
5716,
5610,
5695,
5550,
5442,
5518,
5338,
5393,
5446,
5341,
5379,
5344,
5294,
5252,
5405,
5272,
5321,
5270,
5134,
5066,
5049,
5053,
5069,
4829,
5036,
4854,
4934,
4935,
4862,
4762,
4786,
4669,
4795,
4685,
4637,
4698,
4658,
4664,
4650,
4564,
4507,
4455,
4527,
4553,
4425,
4396,
4238,
4347,
4257,
4225,
4238,
4283,
4105,
4089,
4161,
4102,
4088,
3973,
4100,
4018,
4082,
3924,
3888,
3900,
4012,
3952,
4149,
4338,
4945,
5483,
6156,
6594,
6277,
5726,
4909,
4348,
3950,
3814,
3645,
3539,
3430,
3622,
3642,
3620,
3820,
3894,
3888,
3985,
4022,
3915,
3619,
3387,
3363,
3310,
3139,
3074,
3147,
3144,
3015,
3132,
3120,
2974,
3077,
2998,
3047,
3097,
2944,
2967,
2921,
2900,
2753,
2842,
2770,
2788,
2686,
2708,
2696,
2731,
2651,
2635,
2602,
2543,
2627,
2627,
2401,
2475,
2440,
2484,
2471,
2442,
2399,
2434,
2435,
2383,
2448,
2326,
2161,
2255,
2382,
2305,
2200,
2145,
2252,
2292,
2129,
2207,
2138,
2061,
2065,
2043,
2055,
2052,
2011,
1997,
1989,
1986,
1935,
1899,
1957,
1870,
1973,
1893,
1780,
1803,
1776,
1875,
1753,
1812,
1866,
1734,
1664,
1696,
1685,
1672,
1647,
1628,
1640,
1614,
1539,
1618,
1563,
1534,
1435,
1521,
1478,
1511,
1539,
1429,
1491,
1360,
1406,
1463,
1422,
1345,
1405,
1387,
1260,
1384,
1294,
1366,
1289,
1259,
1286,
1222,
1236,
1223,
1226,
1178,
1187,
1196,
1160,
1188,
1210,
1099,
1129,
1083,
1076,
1047,
1106,
1075,
1080,
1049,
1048,
1018,
1020,
993,
955,
973,
1014,
964,
937,
912,
894,
878,
899,
892,
887,
838,
898,
864,
851,
824,
863,
855,
774,
796,
815,
745,
755,
738,
719,
716,
699,
717,
720,
684,
721,
678,
665,
708,
683,
655,
639,
649,
646,
541,
568,
608,
649,
608,
595,
591,
571,
566,
547,
519,
554,
518,
479,
531,
505,
521,
538,
455,
450,
440,
490,
408,
427,
443,
488,
428,
407,
425,
402,
422,
360,
408,
442,
395,
385,
358,
350,
384,
371,
343,
370,
364,
334,
378,
347,
335,
318,
309,
324,
290,
318,
278,
287,
295,
320,
279,
281,
281,
294,
281,
261,
241,
241,
251,
225,
230,
219,
231,
214,
206,
192,
195,
199,
197,
197,
223,
172,
196,
205,
191,
168,
167,
164,
162,
170,
158,
145,
142,
138,
159,
133,
134,
136,
131,
142,
141,
113,
129,
122,
113,
105,
109,
94,
83,
85,
93,
86,
83,
83,
89,
82,
76,
71,
64,
58,
71,
73,
59,
60,
58,
61,
34,
35,
33,
48,
39,
35,
34,
35,
32,
26,
20,
18,
15,
24,
28,
27,
17,
14,
17,
8,
6,
9,
6,
7,
11,
11,
6,
7,
6,
7,
7,
2,
10,
7,
6,
4,
11,
5,
5,
4,
2,
8,
5,
6,
8,
5,
6,
4,
7,
6,
8,
1,
5,
3,
3,
3,
4,
4,
2,
4,
3,
8,
1,
2,
2,
6,
6,
3,
2,
3,
5,
4,
4,
7,
3,
3,
1,
3,
5,
2,
4,
4,
6,
2,
4,
3,
1,
1,
3,
3,
3,
2,
4,
5,
1,
1,
4,
2,
5,
2,
4,
2,
2,
2,
4,
2,
5,
2,
2,
3,
0,
0,
0,
3,
8,
2,
3,
0,
0,
1,
1,
3,
2,
3,
0,
1,
0,
1,
3,
3,
1,
0,
2,
4,
0,
1,
1,
1,
0,
1,
1,
0,
0,
1,
2,
0,
2,
3,
1,
1,
1,
0,
2,
1,
0,
0,
2,
3,
1,
0,
0,
1,
0,
0,
0,
0,
0,
0,
0,
0,
0,
0,
1,
0,
0,
0,
0,
2,
1,
0,
1,
1,
1,
0,
0,
0,
0,
1,
0,
0,
1,
1,
0,
2,
0,
0,
0,
0,
0,
0,
0,
1,
1,
0,
2,
1,
1,
0,
0,
1,
0,
2,
0,
1,
1,
0,
1,
1,
0,
0,
0,
0,
0,
0,
0,
1,
0,
1,
2,
1,
1,
0,
0,
0,
0,
2,
0,
0,
0,
1,
0,
1,
0,
0,
1,
1,
0,
1,
0,
0,
1,
0,
0,
0,
1,
1,
0,
0,
0,
0,
0,
0,
1,
1,
1,
1,
0,
0,
0,
0,
0,
0,
0,
1,
1,
0,
0,
0,
1,
0,
0,
0,
0,
0,
0,
0,
0,
1,
0,
0,
0,
0,
0,
0,
1,
0,
0,
0,
0,
1,
0,
0,
0,
1,
1,
0,
0,
0,
0,
0,
0,
0,
0,
0,
1,
0,
0,
0,
0,
0,
0,
0,
0,
0,
0,
0,
0,
0,
0,
0,
0,
0,
0,
0,
0,
0,
0,
0,
0,
0,
0,
0,
0,
0,
0,
0,
0,
1,
0,
0,
0,
0,
0,
0,
0,
0,
0,
0,
0,
0,
1,
0,
0,
0,
0,
0,
0,
0,
0,
0,
0,
0,
0,
0,
0,
0,
0,
0,
0,
0,
0,
0,
0,
0,
1,
1,
0,
1,
0,
0,
0,
0,
0,
0,
0,
0,
0,
0,
0,
0,
0,
0,
1,
0,
0,
0,
0,
0,
0,
0,
0,
0,
0,
0,
0,
0,
0,
0,
0,
0,
0,
0,
0,
0,
0,
0,
0,
0,
0,
0,
0,
0,
0,
0,
0,
0,
0,
0,
0,
0,
0,
0,
0,
1,
0,
1,
0,
0,
0,
0,
0,
0,
0,
0,
0,
0,
0,
0,
0,
0,
0,
0,
0,
0,
1,
0,
0,
0,
0,
0,
0,
0,
0,
0,
0,
0,
0,
0,
0,
0,
0,
0,
0,
0,
0,
0,
0,
0,
0,
0,
0,
0,
0,
0,
0,
0,
0,
0,
0,
0,
0,
0,
0,
0,
0,
0,
1,
1,
0,
0,
0,
0,
0,
0,
0,
0,
0,
0,
0,
0,
0,
0,
0,
0,
0,
0,
0,
0,
0,
0,
0,
0,
0,
0,
0,
0,
0,
0,
0,
0,
0,
0,
0,
0,
0,
0,
0,
0,
0,
0,
0,
0,
0,
0,
0,
0,
0,
0,
0,
0,
0,
0,
0,
0,
0,
0,
0,
0,
0,
0,
0,
0,
0,
0,
0,
0,
0,
0,
0,
0,
0,
0,
0,
0,
0,
0,
0,
0,
0,
0,
0,
0,
0,
0,
0,
0,
0,
0,
0,
0,
0,
0,
0,
0,
0,
0,
0,
0,
0,
0,
0,
0,
0,
0,
0,
0,
0,
0,
0,
0,
0,
0,
0,
0,
0,
0,
0,
0,
0,
0,
0,
0,
0,
0,
0,
0,
0,
0,
0,
0,
0,
0,
0,
0,
0,
0,
0,
0,
0,
0,
0,
0,
0,
0,
0,
0,
0,
0,
0,
0,
0,
0,
0,
0,
0,
0,
0,
0,
0,
0,
0,
0,
0,
0,
0,
0,
0,
0,
0,
0,
0,
0,
0,
0,
0,
0,
0,
0,
0,
0,
0,
0,
0,
0,
0,
0,
0,
0,
0,
0,
0,
0,
0,
0,
0,
0,
0,
0,
0,
0,
0,
0,
0,
0,
0,
0,
0,
0,
0,
0,
#ENDOFDATA   :