File: N132962/Standards/20 keV/W std.msa
#FORMAT      : EMSA/MAS Spectral Data File
#VERSION     : 1.0
#TITLE       : W std
#DATE        : 20-FEB-2025
#TIME        : 17:08
#OWNER       : Unknown
#NPOINTS     : 4096
#NCOLUMNS    : 1
#XUNITS      : eV
#YUNITS      : counts
#DATATYPE    : Y
#XPERCHAN    : 9.99778
#OFFSET      : 1.69135
#BEAMKV      : 20
#SIGNALTYPE  : EDS
#ELEVANGLE   : 35
#AZIMANGLE   : 0
#LIVETIME    : 1188.81
#REALTIME    : 1350.53
#PROBECUR    : 1.04992
#TAUWIND     : 0
#TDEADLYR    : 0
#TACTLYR     : 0.045
#TALWIND     : 0.025
#CHOFFSET    : 0.0
#XLABEL      : Energy (eV)
#YLABEL      : Counts
#EDSDET      : SD
##SPECIMEN   : W std
##D2STDCMP   : W,(W:100.0),5.0
##DET_HASH   : 12273538-fd48-a23f-0a19-f1e6fa85caef
##CALIB_HASH : 6abaa72c-aa41-8738-0be9-f592914732f3
##WORKING    : 15.0 mm
##SAMPLE     : <BulkSample id="1">\n<mOrientation id="2">\n<double>0.0</double>\n<double>0.0</double>\n<double>-1.0</double>\n</mOrientation>\n</BulkSample>
##MULTISPEC  : 1.27787
##DET_NAME   : EDAX All
##DET_MODE   : MediumLE
#SPECTRUM    :
136,
176,
85,
296,
1311,
5250,
15295,
29977,
45656,
51695,
36681,
28125,
28305,
28226,
27873,
30722,
40371,
52309,
47054,
36342,
34472,
36321,
39542,
43590,
43994,
42862,
44139,
45786,
49688,
51126,
51103,
51739,
53060,
55101,
56838,
57675,
58046,
59793,
61512,
62432,
64229,
64940,
66360,
73043,
97698,
150833,
186722,
155742,
106730,
83335,
75807,
72789,
72328,
74349,
81674,
101596,
176059,
494282,
1258271,
1971828,
1876400,
1257806,
658131,
252543,
78379,
40805,
44442,
56269,
58401,
47622,
35758,
29920,
28768,
29786,
30670,
32318,
34848,
37385,
36291,
33051,
30392,
29220,
28085,
27899,
27764,
27785,
27685,
27712,
27639,
27724,
28350,
28421,
28919,
28915,
28636,
28712,
28359,
28622,
28737,
28591,
28824,
28796,
29266,
29753,
29966,
30494,
30655,
30253,
30207,
30581,
30373,
30159,
30232,
30417,
30602,
31409,
32074,
33926,
35336,
36596,
36399,
34545,
33295,
31662,
31535,
31170,
30977,
30966,
31140,
31025,
30906,
30817,
30629,
30888,
30710,
31048,
31092,
31243,
30902,
30550,
30936,
30653,
30775,
31257,
30474,
30644,
30418,
30421,
30187,
30300,
30462,
30063,
30125,
29873,
30123,
30262,
30173,
29739,
29927,
29649,
30138,
29440,
29475,
29415,
29315,
29155,
29409,
29160,
29412,
29055,
28955,
29005,
28680,
28905,
28787,
28782,
28375,
29012,
29438,
29942,
30670,
30010,
29392,
28612,
28220,
27506,
27548,
27518,
27347,
27277,
26979,
26649,
27094,
26824,
26852,
26930,
27291,
26915,
26319,
26454,
26108,
26211,
26084,
25704,
25635,
25512,
25355,
25418,
25496,
25967,
27210,
29067,
31691,
33045,
32458,
29960,
27308,
25833,
24682,
24541,
24416,
24416,
24241,
24101,
23690,
23728,
23239,
23149,
22938,
22873,
23154,
22923,
23152,
23442,
23544,
23713,
23401,
23032,
22709,
22340,
22343,
22492,
23637,
25555,
28375,
31538,
33369,
33209,
30743,
28086,
25114,
23212,
21844,
21371,
20830,
20619,
20322,
20366,
20241,
20393,
20264,
20022,
19787,
19737,
19853,
20107,
19877,
19832,
19756,
19699,
19674,
20128,
21302,
24668,
32804,
51547,
86534,
139302,
201128,
245819,
252953,
215307,
154407,
94504,
53395,
31800,
22841,
20065,
19460,
19635,
19660,
19462,
19135,
18423,
17903,
17214,
16981,
16805,
16622,
16380,
16307,
16305,
16196,
16071,
16147,
16020,
15914,
15971,
15825,
15826,
15703,
15820,
16421,
17490,
18818,
21638,
25883,
31785,
41134,
55549,
73364,
90865,
100226,
95212,
80170,
62252,
48091,
41222,
39852,
44175,
51321,
56837,
56812,
51412,
41811,
31254,
23766,
19339,
17049,
15979,
15597,
14928,
13956,
13208,
12503,
12104,
11810,
11457,
11511,
11400,
11257,
11172,
11083,
11169,
11282,
11073,
11021,
10863,
10882,
10945,
10955,
10589,
10963,
11013,
11021,
11025,
10862,
10933,
10745,
10754,
11148,
12231,
13967,
16971,
19861,
22556,
23121,
22047,
19199,
16233,
13452,
11964,
11398,
11234,
11505,
12171,
12677,
12820,
13112,
12517,
11853,
10816,
10032,
9533,
8872,
8688,
8522,
8393,
8616,
8695,
8589,
8675,
8676,
8364,
8342,
7988,
7766,
7714,
7660,
7574,
7447,
7430,
7411,
7318,
7394,
7335,
7024,
7207,
7042,
7031,
7066,
7031,
6853,
6932,
6791,
6744,
6754,
6540,
6525,
6588,
6528,
6560,
6504,
6482,
6273,
6370,
6269,
6309,
6214,
6104,
6102,
6099,
5970,
5980,
5887,
5642,
5817,
5713,
5675,
5770,
5643,
5571,
5577,
5506,
5340,
5347,
5253,
5169,
5173,
5209,
5218,
5162,
5108,
5257,
4982,
4917,
4847,
4928,
4800,
4673,
4607,
4726,
4716,
4561,
4523,
4558,
4540,
4458,
4329,
4319,
4338,
4352,
4382,
4209,
4190,
4187,
4129,
4064,
3994,
3945,
3917,
3977,
3941,
3935,
3875,
3787,
3858,
3691,
3728,
3540,
3625,
3513,
3602,
3559,
3404,
3496,
3362,
3417,
3356,
3282,
3163,
3204,
3118,
3157,
3192,
3056,
3029,
3033,
2967,
2963,
2871,
3005,
2931,
2851,
2927,
2787,
2864,
2729,
2651,
2672,
2616,
2599,
2573,
2551,
2569,
2494,
2495,
2466,
2452,
2323,
2291,
2336,
2357,
2319,
2242,
2251,
2263,
2154,
2139,
2096,
2098,
2168,
2165,
1998,
1993,
2099,
2021,
1965,
1961,
1985,
1970,
1997,
1986,
1871,
1842,
1774,
1774,
1781,
1778,
1713,
1715,
1701,
1629,
1614,
1652,
1657,
1562,
1533,
1536,
1490,
1499,
1406,
1424,
1472,
1361,
1421,
1357,
1322,
1258,
1269,
1282,
1223,
1266,
1214,
1248,
1181,
1193,
1178,
1141,
1251,
1087,
1189,
1119,
1061,
1062,
998,
990,
998,
1005,
994,
925,
948,
890,
892,
828,
812,
809,
796,
815,
768,
715,
741,
689,
754,
642,
679,
632,
652,
593,
546,
532,
574,
569,
561,
529,
556,
486,
510,
495,
447,
443,
428,
410,
414,
375,
395,
408,
373,
328,
318,
293,
337,
282,
254,
263,
260,
238,
217,
193,
176,
189,
180,
163,
104,
105,
108,
84,
69,
61,
61,
44,
48,
40,
48,
40,
46,
35,
45,
46,
34,
40,
32,
26,
35,
30,
44,
42,
34,
37,
44,
40,
37,
33,
33,
38,
36,
35,
48,
48,
37,
29,
36,
33,
29,
23,
28,
29,
26,
41,
33,
23,
26,
28,
29,
23,
23,
31,
33,
24,
25,
19,
14,
22,
28,
25,
19,
21,
21,
20,
26,
27,
25,
21,
27,
19,
24,
26,
22,
15,
35,
22,
17,
18,
20,
20,
16,
14,
14,
18,
19,
15,
16,
22,
14,
16,
14,
24,
27,
16,
20,
10,
17,
17,
17,
14,
18,
17,
21,
14,
11,
12,
12,
18,
12,
15,
25,
18,
9,
12,
18,
20,
8,
19,
15,
10,
16,
8,
14,
13,
11,
15,
18,
13,
13,
15,
9,
16,
7,
9,
14,
9,
10,
14,
11,
18,
13,
10,
17,
13,
8,
9,
8,
6,
11,
10,
9,
11,
8,
5,
8,
8,
12,
12,
18,
14,
10,
11,
11,
14,
17,
14,
14,
12,
11,
13,
16,
9,
15,
7,
12,
15,
4,
8,
14,
14,
8,
7,
10,
9,
10,
15,
10,
7,
11,
11,
11,
8,
8,
11,
8,
8,
12,
11,
12,
10,
13,
6,
8,
9,
5,
6,
6,
7,
10,
8,
6,
4,
5,
7,
3,
7,
3,
8,
9,
10,
7,
6,
3,
8,
7,
4,
7,
6,
4,
8,
8,
4,
6,
6,
8,
2,
4,
4,
8,
4,
4,
6,
2,
4,
7,
4,
9,
5,
9,
6,
6,
4,
9,
11,
5,
3,
4,
7,
4,
5,
2,
5,
3,
5,
3,
1,
5,
1,
1,
6,
0,
3,
2,
4,
2,
2,
3,
2,
5,
2,
2,
0,
5,
3,
2,
4,
4,
4,
2,
0,
2,
1,
1,
2,
0,
1,
2,
0,
4,
1,
3,
2,
0,
1,
1,
1,
3,
2,
3,
3,
1,
1,
2,
2,
1,
1,
1,
3,
1,
0,
0,
1,
0,
0,
1,
3,
1,
1,
2,
1,
0,
0,
1,
2,
2,
1,
0,
2,
2,
1,
2,
1,
0,
2,
0,
0,
0,
0,
0,
0,
2,
1,
0,
0,
0,
2,
0,
0,
1,
2,
0,
0,
0,
1,
0,
0,
0,
0,
0,
0,
0,
1,
2,
2,
2,
1,
1,
1,
0,
0,
1,
1,
0,
1,
0,
1,
1,
1,
0,
0,
0,
0,
0,
0,
2,
1,
0,
1,
0,
0,
0,
0,
0,
2,
0,
0,
1,
0,
1,
0,
0,
0,
0,
2,
0,
0,
1,
0,
2,
0,
2,
0,
0,
1,
0,
1,
0,
0,
1,
0,
0,
0,
2,
0,
0,
0,
1,
1,
0,
1,
1,
0,
0,
0,
0,
0,
0,
1,
0,
1,
1,
0,
1,
1,
0,
0,
1,
0,
0,
0,
0,
0,
0,
0,
0,
0,
0,
0,
1,
0,
0,
0,
0,
0,
0,
0,
0,
1,
0,
0,
0,
1,
0,
0,
0,
1,
0,
1,
0,
0,
0,
1,
0,
0,
0,
0,
0,
0,
0,
0,
0,
1,
1,
0,
0,
0,
0,
0,
0,
0,
0,
0,
0,
0,
0,
0,
0,
0,
0,
0,
0,
0,
0,
0,
0,
0,
0,
0,
0,
0,
0,
0,
1,
0,
0,
0,
0,
0,
0,
0,
1,
0,
1,
0,
0,
0,
0,
0,
0,
0,
0,
1,
0,
0,
0,
0,
0,
0,
0,
0,
0,
0,
0,
0,
0,
0,
0,
0,
0,
0,
0,
0,
0,
0,
0,
0,
0,
0,
0,
0,
0,
0,
0,
0,
0,
0,
0,
0,
0,
0,
0,
0,
0,
0,
0,
0,
0,
0,
0,
0,
0,
0,
0,
0,
0,
0,
0,
0,
0,
1,
0,
0,
0,
0,
0,
0,
0,
0,
0,
0,
0,
0,
0,
0,
0,
0,
0,
0,
0,
0,
0,
0,
0,
0,
0,
0,
0,
1,
0,
0,
0,
0,
0,
0,
0,
0,
0,
0,
0,
0,
0,
0,
0,
0,
0,
0,
0,
0,
0,
0,
0,
0,
0,
0,
0,
0,
0,
0,
0,
0,
0,
0,
0,
0,
0,
0,
0,
0,
0,
0,
0,
0,
0,
0,
0,
0,
0,
0,
0,
0,
0,
0,
0,
0,
0,
0,
0,
0,
0,
0,
0,
#ENDOFDATA   :