File: N132962/Standards/20 keV/Y std.msa
#FORMAT      : EMSA/MAS Spectral Data File
#VERSION     : 1.0
#TITLE       : G588 Y[0][all]+G588 Y[1][all]+G588 Y[2][all]+G588 Y[3][all]+G588 Y[4][all]
#NPOINTS     : 4096
#NCOLUMNS    : 1
#XUNITS      : eV
#YUNITS      : counts
#DATATYPE    : Y
#SIGNALTYPE  : EDS
#XLABEL      : Energy (eV)
#YLABEL      : Counts
#XPERCHAN -eV: 9.99778
#OFFSET   -eV: 1.69135
#CHOFFSET    : 0
#OWNER       : Unknown
#ELEVANGLE   : 35
#BEAMKV   -kV: 20
#LIVETIME  -s: 1199.75
#REALTIME  -s: 1334.55
#PROBECUR -nA: 0.83562
##WORKING -mm: 15
##D2STDCMP   : Y,(Y:100.0000)
#SPECTRUM    :
136,
184,
195,
1934,
9333,
22882,
36986,
37259,
54186,
55655,
31534,
19722,
17934,
17581,
18774,
25072,
47927,
76377,
62508,
33097,
26890,
34876,
48439,
48791,
37110,
31626,
32273,
34231,
37238,
38329,
38634,
39523,
40754,
42110,
44054,
44825,
45476,
46314,
47376,
47822,
49158,
50295,
51395,
52554,
53343,
54394,
54891,
55877,
57834,
59071,
59704,
59184,
59384,
63033,
79536,
119804,
159555,
159402,
139426,
128611,
148566,
271832,
692939,
1516815,
2124101,
1925569,
1429901,
1006981,
589182,
291098,
142933,
68335,
36696,
26083,
22018,
21201,
22117,
24714,
26827,
25864,
22403,
20015,
19402,
19408,
19509,
19951,
19994,
20122,
20398,
20394,
20454,
20720,
20750,
21045,
21245,
21180,
21293,
21454,
21774,
22047,
22349,
21967,
22065,
22149,
22250,
22336,
22331,
22370,
22491,
22639,
22659,
22657,
22471,
22563,
22648,
22835,
22524,
22963,
22789,
22955,
23196,
23697,
23669,
23781,
24002,
24344,
25090,
26861,
28155,
29080,
28790,
27902,
26180,
25322,
24127,
23118,
22601,
22173,
22345,
22028,
21530,
21750,
21619,
21836,
21694,
21360,
21628,
21338,
21528,
21207,
20968,
20879,
21003,
20888,
20901,
20521,
20669,
20662,
20510,
20501,
20613,
20154,
20026,
20022,
20153,
20284,
19689,
19663,
19748,
19408,
19706,
19473,
19479,
19541,
19384,
19089,
19072,
19258,
19542,
19307,
19248,
19205,
18914,
18592,
18331,
18274,
18201,
18140,
17942,
17837,
17623,
17766,
17456,
17664,
17529,
17533,
17426,
17656,
17234,
17245,
16850,
17005,
16616,
16680,
16443,
16410,
16417,
16344,
16219,
16341,
16725,
17665,
18547,
19113,
18726,
17956,
16709,
16036,
15728,
15253,
15372,
15083,
14827,
15012,
14977,
14853,
14829,
14758,
14618,
14704,
14406,
14446,
14581,
14471,
14306,
14562,
14445,
14203,
14182,
13938,
13873,
13674,
13579,
13501,
13613,
13372,
13533,
13807,
13973,
13915,
14146,
13450,
13145,
12651,
12689,
12645,
12395,
12647,
12218,
12319,
11971,
12091,
12025,
11923,
11864,
11783,
11669,
11613,
11716,
11861,
11866,
12007,
11804,
11873,
11749,
11411,
11313,
11223,
11011,
10967,
10803,
10649,
10745,
10619,
10514,
10621,
10500,
10331,
10171,
10144,
10296,
10124,
10100,
9989,
9974,
9922,
9905,
9746,
9920,
9729,
9480,
9722,
9522,
9636,
9555,
9276,
9264,
9372,
9388,
9260,
9227,
9253,
9185,
9060,
8929,
9021,
8827,
8776,
8657,
8716,
8706,
8666,
8727,
8514,
8479,
8413,
8380,
8146,
8167,
8200,
7943,
8105,
7730,
7809,
7822,
7683,
7809,
7700,
7708,
7605,
7572,
7525,
7437,
7302,
7498,
7368,
7328,
7172,
7259,
7048,
7089,
7038,
6858,
6834,
6684,
6747,
6815,
6759,
6683,
6562,
6576,
6503,
6618,
6528,
6410,
6402,
6277,
6183,
6352,
6193,
6038,
6054,
6118,
5997,
5940,
6076,
5736,
5874,
5730,
5814,
5790,
5637,
5671,
5517,
5523,
5430,
5518,
5418,
5367,
5266,
5228,
5300,
5233,
5117,
5075,
5073,
4911,
5018,
5030,
4894,
4957,
4887,
4859,
4834,
4594,
4741,
4631,
4672,
4580,
4469,
4396,
4545,
4449,
4405,
4368,
4176,
4295,
4220,
4211,
4084,
4143,
4019,
4016,
4109,
4105,
4004,
3925,
3916,
3765,
3785,
3850,
3701,
3701,
3629,
3757,
3598,
3653,
3583,
3518,
3578,
3460,
3330,
3457,
3403,
3344,
3348,
3323,
3282,
3194,
3112,
3103,
3114,
3119,
3088,
3016,
3051,
2950,
2941,
2982,
2962,
2896,
2859,
2830,
2786,
2824,
2789,
2719,
2750,
2707,
2723,
2537,
2610,
2500,
2599,
2532,
2497,
2508,
2445,
2413,
2489,
2394,
2394,
2370,
2306,
2353,
2379,
2310,
2376,
2290,
2586,
2965,
3695,
4956,
6773,
9035,
11189,
13192,
14367,
14019,
12483,
10260,
7713,
5523,
3938,
3044,
2310,
1900,
1922,
1837,
1787,
1659,
1777,
1653,
1752,
1541,
1574,
1589,
1630,
1529,
1522,
1486,
1508,
1544,
1461,
1459,
1480,
1365,
1393,
1438,
1375,
1275,
1383,
1409,
1286,
1281,
1315,
1269,
1267,
1259,
1199,
1225,
1218,
1245,
1193,
1181,
1214,
1119,
1146,
1137,
1117,
1113,
1184,
1415,
1669,
1942,
2201,
2462,
2587,
2447,
2298,
2051,
1768,
1549,
1238,
1216,
1138,
1132,
1070,
980,
1011,
851,
813,
766,
779,
710,
721,
691,
648,
640,
653,
638,
626,
660,
645,
602,
559,
581,
592,
580,
599,
554,
524,
601,
575,
529,
505,
504,
456,
500,
486,
447,
466,
485,
423,
445,
494,
444,
391,
401,
391,
381,
356,
393,
388,
378,
348,
354,
337,
327,
306,
303,
317,
307,
274,
255,
260,
270,
244,
245,
241,
264,
217,
226,
203,
205,
209,
201,
175,
157,
163,
166,
145,
149,
143,
148,
147,
144,
117,
111,
112,
93,
104,
98,
93,
77,
78,
70,
68,
57,
52,
52,
42,
34,
35,
38,
18,
16,
15,
15,
8,
19,
15,
19,
13,
20,
10,
13,
8,
8,
8,
7,
8,
8,
10,
13,
8,
6,
14,
10,
16,
5,
12,
9,
14,
12,
12,
8,
5,
12,
10,
6,
7,
9,
12,
7,
6,
7,
7,
11,
7,
12,
10,
8,
3,
7,
8,
5,
3,
5,
9,
2,
4,
12,
4,
6,
7,
6,
8,
2,
2,
7,
9,
8,
6,
4,
6,
2,
5,
4,
3,
8,
8,
7,
3,
2,
6,
6,
10,
3,
8,
4,
3,
3,
5,
4,
6,
8,
2,
4,
3,
3,
4,
5,
4,
4,
2,
4,
4,
3,
5,
3,
4,
6,
4,
4,
3,
3,
6,
3,
4,
1,
6,
6,
2,
4,
4,
3,
4,
1,
1,
3,
4,
3,
5,
1,
4,
2,
2,
3,
2,
0,
1,
0,
3,
1,
3,
2,
1,
2,
2,
2,
0,
1,
3,
4,
2,
3,
2,
2,
4,
1,
2,
4,
0,
1,
6,
1,
2,
2,
4,
1,
3,
3,
1,
1,
5,
4,
3,
3,
4,
2,
2,
1,
1,
2,
4,
3,
2,
2,
2,
4,
3,
0,
0,
0,
2,
1,
5,
4,
0,
6,
2,
2,
1,
0,
1,
0,
0,
0,
4,
1,
4,
1,
1,
0,
0,
2,
3,
1,
0,
1,
0,
1,
2,
4,
3,
5,
0,
7,
1,
0,
2,
1,
1,
0,
2,
3,
0,
0,
3,
1,
2,
0,
0,
0,
1,
1,
0,
1,
0,
1,
1,
2,
1,
2,
1,
2,
0,
1,
2,
1,
0,
1,
2,
5,
0,
2,
0,
4,
2,
1,
1,
2,
0,
0,
0,
1,
1,
2,
1,
0,
0,
0,
1,
1,
0,
1,
1,
3,
1,
1,
1,
1,
1,
0,
0,
1,
0,
0,
1,
0,
0,
0,
0,
0,
0,
0,
0,
0,
1,
0,
0,
1,
1,
0,
0,
3,
0,
0,
0,
1,
0,
0,
1,
0,
1,
0,
0,
0,
0,
0,
2,
1,
2,
0,
0,
1,
0,
1,
1,
0,
1,
0,
0,
1,
0,
0,
0,
0,
0,
0,
1,
2,
0,
0,
0,
0,
1,
0,
0,
1,
0,
0,
0,
1,
0,
0,
0,
0,
0,
1,
0,
0,
0,
1,
1,
2,
0,
0,
1,
0,
0,
0,
0,
0,
0,
0,
0,
0,
1,
0,
0,
0,
0,
0,
0,
0,
1,
1,
0,
0,
0,
0,
0,
0,
0,
0,
0,
0,
0,
0,
0,
0,
0,
0,
0,
0,
0,
0,
0,
0,
0,
0,
1,
1,
0,
0,
0,
0,
0,
1,
0,
0,
1,
0,
2,
0,
0,
0,
0,
0,
0,
0,
0,
0,
0,
0,
0,
0,
1,
1,
1,
0,
0,
0,
0,
0,
1,
1,
0,
0,
0,
0,
0,
0,
0,
1,
0,
0,
0,
0,
0,
0,
0,
0,
0,
0,
0,
0,
0,
0,
0,
0,
0,
0,
1,
0,
0,
0,
0,
0,
0,
0,
1,
0,
0,
0,
0,
0,
0,
0,
0,
0,
0,
0,
0,
0,
0,
0,
0,
0,
0,
0,
0,
0,
0,
0,
0,
0,
0,
0,
0,
0,
0,
0,
0,
0,
0,
0,
0,
0,
0,
0,
0,
0,
0,
0,
0,
0,
0,
0,
0,
0,
0,
0,
0,
0,
0,
0,
0,
0,
0,
0,
0,
0,
0,
0,
0,
0,
0,
0,
0,
0,
0,
0,
0,
0,
0,
0,
0,
0,
0,
0,
0,
0,
0,
0,
0,
0,
0,
0,
0,
0,
0,
0,
0,
0,
0,
0,
0,
0,
0,
0,
0,
0,
0,
0,
0,
0,
0,
0,
0,
0,
0,
0,
0,
0,
0,
0,
0,
0,
0,
0,
0,
0,
0,
0,
0,
0,
0,
0,
0,
0,
0,
0,
0,
0,
0,
0,
0,
0,
0,
0,
0,
0,
0,
0,
0,
0,
0,
0,
0,
0,
0,
0,
0,
0,
0,
0,
0,
0,
0,
0,
0,
0,
0,
0,
0,
0,
0,
0,
0,
0,
0,
0,
0,
0,
0,
0,
0,
0,
0,
0,
0,
0,
0,
0,
0,
0,
0,
0,
0,
0,
0,
0,
0,
0,
0,
0,
0,
0,
0,
0,
0,
0,
0,
0,
0,
0,
0,
0,
0,
0,
0,
0,
0,
#ENDOFDATA   :