File: N132962/Standards/20 keV/Zn std.msa
#FORMAT      : EMSA/MAS Spectral Data File
#VERSION     : 1.0
#TITLE       : Zn std
#DATE        : 21-FEB-2025
#TIME        : 09:27
#OWNER       : Unknown
#NPOINTS     : 4096
#NCOLUMNS    : 1
#XUNITS      : eV
#YUNITS      : counts
#DATATYPE    : Y
#XPERCHAN    : 9.99778
#OFFSET      : 1.69135
#BEAMKV      : 20
#SIGNALTYPE  : EDS
#ELEVANGLE   : 35
#AZIMANGLE   : 0
#LIVETIME    : 958.995
#REALTIME    : 1074.96
#PROBECUR    : 1.05789
#TAUWIND     : 0
#TDEADLYR    : 0
#TACTLYR     : 0.045
#TALWIND     : 0.025
#CHOFFSET    : 0.0
#XLABEL      : Energy (eV)
#YLABEL      : Counts
#EDSDET      : SD
##SPECIMEN   : Zn std
##D2STDCMP   : Zn,(Zn:100.0)
##DET_HASH   : 12273538-fd48-a23f-0a19-f1e6fa85caef
##CALIB_HASH : 6abaa72c-aa41-8738-0be9-f592914732f3
##WORKING    : 15.0 mm
##SAMPLE     : <BulkSample id="1">\n<mOrientation id="2">\n<double>0.0</double>\n<double>0.0</double>\n<double>-1.0</double>\n</mOrientation>\n</BulkSample>
##MULTISPEC  : 2.37943
##DET_NAME   : EDAX All
##DET_MODE   : MediumLE
#SPECTRUM    :
111,
116,
43,
114,
574,
2176,
5626,
13656,
31140,
40235,
25173,
16836,
17817,
19282,
21120,
24819,
34145,
44950,
41592,
34049,
33619,
36980,
40313,
44470,
46610,
49722,
55263,
75591,
138378,
230522,
248097,
293352,
876043,
2170403,
2541438,
1332663,
333378,
58224,
20096,
13898,
12507,
12271,
12475,
12435,
12822,
13126,
13703,
13981,
14827,
15673,
16193,
16463,
16449,
16553,
17071,
17506,
18624,
19892,
21073,
21125,
20890,
20224,
20102,
20066,
20663,
21533,
25306,
30161,
30234,
25536,
21475,
19597,
19579,
19858,
19658,
19879,
20161,
20379,
20005,
20358,
20130,
20438,
20377,
20622,
20696,
20560,
21087,
21535,
21491,
20945,
20921,
20771,
20536,
20829,
20852,
20663,
20529,
20525,
20426,
20392,
20316,
20177,
20186,
20340,
20109,
20202,
19983,
20101,
20117,
19909,
19806,
19967,
19751,
19416,
19453,
19001,
19328,
19119,
19202,
19261,
18977,
19021,
18837,
18736,
18750,
18474,
18553,
18362,
18195,
18112,
17997,
18039,
17885,
17479,
17739,
17493,
17401,
17595,
17374,
16978,
17397,
17198,
17098,
16913,
16632,
16810,
16504,
16507,
16260,
16219,
16140,
16003,
16047,
15890,
15812,
15637,
15637,
15470,
15535,
15141,
15211,
14917,
15292,
15028,
14820,
14935,
14676,
14569,
14401,
14252,
14391,
14009,
14228,
13901,
13987,
13866,
13866,
13865,
14091,
14292,
14022,
14125,
13635,
13496,
13087,
13224,
13060,
12749,
12848,
12539,
12360,
12513,
12541,
12239,
12294,
12222,
12200,
12170,
12290,
12038,
11920,
11760,
11819,
11790,
11772,
11418,
11480,
11387,
11109,
11493,
11940,
12359,
13267,
13767,
13463,
12655,
11668,
11031,
10888,
10656,
10467,
10473,
10300,
10183,
10037,
10124,
10452,
10244,
10556,
10445,
10443,
10429,
10226,
10097,
10052,
9779,
9719,
9821,
9481,
9388,
9009,
9291,
9162,
9131,
9177,
9359,
9326,
9680,
9616,
9748,
9632,
9210,
8721,
8685,
8637,
8574,
8285,
8438,
8122,
8367,
8355,
8320,
8108,
8117,
8212,
7996,
8013,
7978,
8187,
8083,
8006,
7956,
8179,
7950,
8081,
8214,
8178,
8358,
8482,
8860,
9975,
13665,
24910,
53622,
111186,
201027,
303403,
374461,
380113,
313900,
213547,
120039,
57530,
25711,
12924,
8485,
7490,
6967,
6977,
6725,
6665,
6715,
6564,
6337,
6463,
6469,
6583,
6609,
6775,
6597,
6839,
6922,
7631,
9170,
12495,
19101,
29755,
43171,
53825,
57661,
52597,
41360,
28239,
17737,
11141,
7552,
5663,
5163,
4552,
4584,
4701,
4589,
4537,
4538,
4569,
4567,
4502,
4421,
4415,
4402,
4372,
4280,
4336,
4285,
4312,
4273,
4228,
4336,
4330,
4270,
4314,
4421,
4456,
4304,
4387,
4285,
4195,
4043,
4017,
3941,
3923,
3845,
3858,
3842,
3762,
3690,
3683,
3823,
3690,
3683,
3709,
3701,
3605,
3607,
3587,
3383,
3469,
3470,
3464,
3368,
3399,
3344,
3354,
3388,
3330,
3364,
3278,
3289,
3237,
3238,
3200,
3109,
3170,
3186,
3073,
3157,
3164,
2911,
2992,
2897,
2931,
2888,
2868,
2847,
2857,
2882,
2767,
2754,
2808,
2807,
2701,
2672,
2623,
2712,
2656,
2576,
2546,
2612,
2538,
2441,
2561,
2539,
2469,
2427,
2417,
2437,
2365,
2317,
2283,
2311,
2310,
2369,
2318,
2233,
2284,
2151,
2217,
2180,
2197,
2118,
2156,
2102,
2093,
2016,
2053,
2035,
2016,
1985,
1911,
1969,
1953,
1856,
1965,
1922,
1838,
1851,
1850,
1773,
1835,
1764,
1732,
1804,
1788,
1675,
1645,
1722,
1638,
1634,
1596,
1637,
1603,
1571,
1574,
1479,
1600,
1581,
1453,
1455,
1471,
1435,
1478,
1380,
1414,
1403,
1343,
1375,
1342,
1326,
1332,
1342,
1250,
1310,
1266,
1182,
1207,
1294,
1174,
1168,
1206,
1154,
1162,
1113,
1100,
1093,
1116,
1073,
1090,
1050,
1051,
1006,
1046,
1031,
960,
1019,
977,
966,
980,
943,
912,
1008,
868,
1012,
926,
912,
877,
850,
848,
801,
792,
856,
855,
816,
790,
814,
817,
784,
829,
721,
750,
747,
734,
705,
703,
714,
664,
723,
663,
662,
633,
631,
654,
629,
655,
577,
565,
594,
537,
525,
518,
530,
533,
509,
575,
567,
553,
519,
480,
519,
564,
502,
563,
589,
599,
654,
683,
728,
667,
656,
592,
525,
520,
434,
414,
390,
350,
387,
385,
362,
352,
351,
329,
351,
349,
299,
331,
305,
334,
303,
302,
314,
319,
292,
300,
307,
314,
339,
325,
312,
314,
280,
269,
252,
226,
223,
224,
228,
226,
183,
170,
206,
193,
171,
167,
170,
156,
166,
179,
169,
161,
159,
142,
137,
130,
118,
133,
125,
130,
113,
112,
119,
128,
93,
114,
111,
100,
77,
74,
84,
74,
71,
76,
61,
60,
54,
57,
53,
46,
47,
43,
37,
42,
32,
30,
19,
26,
17,
12,
18,
9,
19,
12,
16,
10,
7,
10,
6,
18,
11,
10,
14,
14,
9,
8,
10,
8,
8,
8,
8,
8,
11,
8,
4,
9,
7,
6,
3,
10,
11,
6,
9,
6,
9,
13,
7,
7,
3,
2,
8,
9,
10,
7,
12,
6,
7,
2,
4,
7,
11,
4,
6,
7,
7,
12,
3,
8,
5,
3,
9,
5,
9,
7,
8,
5,
5,
8,
3,
5,
7,
6,
3,
3,
4,
9,
4,
6,
4,
8,
8,
10,
4,
2,
4,
3,
6,
4,
2,
4,
10,
1,
4,
5,
3,
2,
1,
7,
8,
3,
7,
11,
4,
4,
2,
5,
3,
4,
4,
4,
3,
2,
3,
2,
4,
3,
1,
2,
3,
1,
2,
5,
5,
6,
0,
1,
3,
6,
5,
6,
4,
0,
2,
2,
2,
4,
3,
2,
1,
2,
3,
4,
3,
2,
6,
1,
2,
4,
3,
2,
2,
0,
3,
4,
1,
3,
3,
4,
3,
2,
6,
0,
1,
8,
3,
5,
1,
3,
0,
3,
2,
2,
2,
3,
4,
4,
6,
2,
4,
4,
2,
2,
3,
2,
3,
2,
2,
1,
3,
2,
2,
3,
5,
1,
0,
1,
1,
2,
4,
2,
3,
2,
0,
0,
2,
1,
1,
4,
3,
0,
0,
2,
0,
1,
0,
2,
1,
1,
2,
0,
1,
2,
0,
3,
0,
1,
0,
0,
1,
0,
1,
0,
1,
1,
1,
1,
3,
1,
0,
1,
1,
0,
0,
0,
0,
0,
0,
2,
0,
1,
0,
0,
0,
0,
0,
1,
0,
1,
0,
1,
0,
3,
0,
1,
1,
0,
0,
2,
0,
1,
0,
1,
1,
0,
1,
0,
1,
0,
0,
0,
0,
1,
0,
0,
0,
0,
2,
0,
1,
0,
1,
1,
1,
1,
0,
0,
0,
0,
0,
1,
0,
0,
0,
1,
0,
0,
0,
0,
0,
1,
0,
0,
0,
1,
0,
1,
0,
0,
1,
0,
1,
0,
2,
0,
0,
0,
0,
0,
0,
0,
0,
0,
0,
0,
0,
0,
0,
0,
0,
0,
0,
0,
0,
0,
1,
0,
0,
0,
1,
0,
0,
0,
0,
0,
2,
0,
0,
0,
1,
0,
1,
0,
0,
0,
0,
0,
0,
0,
0,
0,
0,
0,
0,
1,
0,
1,
0,
0,
0,
0,
0,
0,
1,
0,
0,
0,
0,
0,
0,
0,
0,
0,
1,
0,
0,
0,
0,
0,
0,
0,
0,
0,
0,
0,
0,
0,
0,
0,
0,
0,
0,
0,
0,
0,
0,
0,
0,
0,
1,
0,
0,
0,
0,
0,
0,
0,
0,
0,
0,
0,
0,
0,
0,
0,
1,
0,
0,
0,
0,
0,
0,
0,
0,
0,
0,
0,
0,
0,
0,
0,
0,
0,
0,
0,
0,
0,
0,
0,
0,
0,
0,
1,
0,
0,
0,
0,
0,
0,
0,
0,
0,
0,
0,
0,
0,
0,
0,
0,
0,
0,
0,
0,
0,
0,
0,
0,
0,
0,
0,
0,
0,
0,
0,
0,
0,
0,
0,
0,
0,
0,
0,
0,
0,
0,
0,
0,
0,
0,
0,
0,
0,
0,
0,
0,
0,
0,
0,
0,
0,
0,
0,
0,
0,
0,
0,
0,
0,
0,
0,
0,
0,
0,
0,
0,
0,
0,
0,
0,
0,
0,
0,
0,
0,
0,
0,
0,
0,
0,
0,
0,
0,
0,
0,
0,
0,
0,
0,
0,
0,
0,
0,
0,
0,
0,
0,
0,
0,
0,
0,
0,
0,
0,
0,
0,
0,
0,
0,
0,
0,
0,
0,
0,
0,
0,
0,
0,
0,
0,
0,
0,
0,
0,
0,
0,
0,
0,
0,
0,
0,
0,
0,
0,
0,
0,
0,
0,
0,
0,
0,
0,
0,
0,
0,
0,
0,
0,
0,
0,
0,
0,
0,
0,
0,
0,
0,
0,
0,
0,
0,
0,
0,
0,
0,
0,
0,
0,
0,
0,
0,
0,
0,
0,
0,
0,
0,
0,
0,
0,
0,
0,
0,
0,
0,
0,
0,
0,
0,
0,
0,
0,
0,
0,
0,
0,
0,
0,
0,
0,
0,
0,
0,
0,
0,
0,
0,
0,
0,
0,
0,
0,
0,
0,
0,
0,
0,
0,
0,
0,
0,
0,
0,
0,
0,
0,
0,
0,
0,
0,
0,
#ENDOFDATA   :