File: N132962/Standards/20 keV/ZnS std.msa
#FORMAT      : EMSA/MAS Spectral Data File
#VERSION     : 1.0
#TITLE       : ZnS std
#DATE        : 19-MAR-2025
#TIME        : 19:42
#OWNER       : Unknown
#NPOINTS     : 4096
#NCOLUMNS    : 1
#XUNITS      : eV
#YUNITS      : counts
#DATATYPE    : Y
#XPERCHAN    : 9.99778
#OFFSET      : 1.69135
#BEAMKV      : 20
#SIGNALTYPE  : EDS
#ELEVANGLE   : 35
#AZIMANGLE   : 0
#LIVETIME    : 1918.45
#REALTIME    : 2111.09
#PROBECUR    : 1.03407
#TAUWIND     : 0
#TDEADLYR    : 0
#TACTLYR     : 0.045
#TALWIND     : 0.025
#CHOFFSET    : 0.0
#XLABEL      : Energy (eV)
#YLABEL      : Counts
#EDSDET      : SD
##SPECIMEN   : ZnS std
##D2STDCMP   : ZnS,(S:32.896),(Zn:67.104)
##DET_HASH   : 12273538-fd48-a23f-0a19-f1e6fa85caef
##CALIB_HASH : 6abaa72c-aa41-8738-0be9-f592914732f3
##WORKING    : 15.0 mm
##SAMPLE     : <BulkSample id="1">\n<mOrientation id="2">\n<double>0.0</double>\n<double>0.0</double>\n<double>-1.0</double>\n</mOrientation>\n</BulkSample>
##MULTISPEC  : 1.03951
##DET_NAME   : EDAX All
##DET_MODE   : MediumLE
#SPECTRUM    :
194,
191,
68,
268,
1517,
4338,
8656,
19729,
47721,
60418,
36069,
22336,
22476,
24192,
26850,
31742,
38664,
50019,
68374,
74660,
60512,
52729,
56191,
62375,
67583,
71340,
78092,
99611,
167629,
269604,
291432,
343977,
974485,
2417617,
2910943,
1587580,
428696,
91052,
39109,
29342,
27242,
27017,
27612,
28329,
29530,
30078,
30936,
32392,
33748,
34872,
35611,
36221,
35977,
36820,
37114,
37932,
39798,
42223,
44922,
45236,
43798,
41941,
40287,
39687,
40200,
41571,
44972,
47947,
49122,
46561,
44720,
46965,
60503,
100092,
230978,
620971,
1266021,
1589076,
1158475,
509869,
186873,
137817,
154481,
131653,
80846,
45381,
33129,
30369,
29857,
29919,
30051,
30028,
30310,
30073,
30356,
30057,
30376,
30181,
30388,
30469,
30397,
30239,
30406,
30746,
30137,
30503,
30794,
31342,
32219,
34183,
36752,
37155,
35075,
32467,
30403,
29809,
29894,
29639,
29257,
28883,
28697,
28664,
28564,
28735,
28198,
28270,
27939,
27922,
28043,
27690,
27285,
27300,
27250,
27404,
26967,
26921,
26926,
26850,
26646,
26527,
26220,
26122,
26015,
25855,
25898,
25728,
25729,
25484,
25320,
25147,
25100,
25315,
25436,
25639,
26372,
25933,
25301,
24586,
24222,
24075,
23841,
23590,
23449,
23100,
23152,
22936,
22612,
22597,
22418,
22551,
22271,
22022,
22113,
21783,
21670,
21549,
21351,
20958,
21235,
21242,
20911,
20750,
20695,
20563,
20595,
20152,
20298,
20013,
19940,
19830,
19953,
19545,
19466,
19451,
19231,
19302,
19126,
18962,
18669,
18548,
18612,
18169,
18245,
18128,
18173,
17846,
17869,
17762,
17568,
17611,
17943,
18309,
18788,
18736,
18683,
18121,
17454,
17004,
16870,
16581,
16446,
16185,
16219,
16325,
16104,
16050,
15966,
16128,
16414,
16525,
16214,
15966,
15562,
15650,
15125,
15317,
15178,
14907,
14775,
14481,
14589,
14500,
14346,
14662,
14349,
14276,
14400,
14715,
14789,
15028,
14682,
14234,
13907,
13639,
13491,
13101,
13101,
13219,
13062,
12932,
12868,
12937,
12689,
12785,
12634,
12613,
12652,
12883,
12764,
12846,
12504,
12425,
12290,
12344,
12433,
12496,
12478,
12580,
12834,
13197,
14153,
18683,
32292,
66653,
135518,
244107,
367791,
458586,
464977,
386523,
262834,
149568,
73350,
33862,
17778,
12785,
11084,
10623,
10462,
10178,
10285,
10094,
9904,
10021,
10094,
9904,
10075,
10152,
9921,
10235,
10182,
10557,
11072,
12874,
17091,
24925,
37493,
53355,
66278,
70925,
63956,
50221,
34994,
22340,
14294,
10526,
8645,
7939,
7570,
7408,
7463,
7381,
7376,
7137,
7162,
7198,
7032,
7155,
7053,
7123,
6999,
7000,
6882,
6913,
6956,
6846,
6672,
6841,
6792,
6695,
6729,
6726,
6946,
6718,
6802,
6657,
6412,
6391,
6307,
6403,
6380,
6478,
6767,
6992,
6833,
6980,
6833,
6546,
6258,
6012,
5972,
5790,
5760,
5605,
5622,
5518,
5521,
5498,
5359,
5319,
5339,
5335,
5349,
5318,
5196,
5022,
5080,
5041,
5071,
4966,
4965,
4938,
4775,
5049,
5011,
4844,
4755,
4825,
4960,
4657,
4731,
4520,
4537,
4508,
4489,
4337,
4381,
4380,
4184,
4198,
4254,
4245,
4183,
4033,
3976,
4032,
4075,
4062,
3968,
3826,
3769,
3889,
3800,
3745,
3839,
3661,
3810,
3611,
3579,
3688,
3520,
3540,
3466,
3465,
3431,
3452,
3308,
3273,
3329,
3275,
3220,
3240,
3194,
3106,
3097,
3032,
3016,
3039,
2971,
2980,
2967,
2958,
2864,
2869,
2799,
2880,
2797,
2768,
2782,
2659,
2701,
2738,
2673,
2614,
2604,
2521,
2592,
2589,
2505,
2548,
2415,
2435,
2344,
2389,
2292,
2310,
2294,
2310,
2266,
2145,
2084,
2126,
2118,
2099,
2162,
2099,
2058,
2038,
1983,
1917,
1924,
1905,
1911,
1943,
1888,
1836,
1842,
1768,
1770,
1769,
1724,
1804,
1688,
1721,
1708,
1666,
1607,
1661,
1584,
1591,
1540,
1580,
1568,
1546,
1513,
1453,
1468,
1456,
1408,
1375,
1460,
1400,
1321,
1267,
1290,
1316,
1242,
1289,
1265,
1207,
1251,
1226,
1218,
1215,
1194,
1164,
1157,
1117,
1123,
1106,
1028,
1046,
1064,
1080,
1028,
1043,
956,
995,
974,
996,
939,
929,
876,
857,
886,
895,
886,
857,
871,
885,
802,
773,
820,
780,
797,
798,
731,
815,
747,
750,
793,
753,
821,
798,
862,
845,
841,
812,
729,
731,
668,
641,
624,
545,
586,
568,
538,
545,
520,
562,
526,
507,
488,
460,
509,
457,
431,
433,
456,
414,
406,
428,
428,
403,
382,
394,
417,
402,
365,
391,
366,
355,
305,
365,
313,
296,
268,
294,
284,
269,
274,
265,
251,
225,
225,
213,
243,
214,
238,
193,
189,
213,
185,
201,
187,
167,
172,
149,
146,
166,
143,
139,
152,
131,
123,
115,
117,
121,
108,
113,
109,
67,
84,
74,
72,
72,
59,
60,
43,
47,
65,
36,
40,
38,
30,
27,
14,
22,
15,
16,
11,
12,
6,
10,
12,
15,
18,
11,
12,
17,
12,
14,
11,
14,
7,
12,
8,
8,
6,
11,
6,
18,
13,
8,
10,
5,
11,
8,
7,
8,
12,
4,
10,
10,
10,
7,
12,
7,
9,
11,
8,
9,
9,
9,
7,
3,
4,
15,
5,
8,
12,
8,
0,
11,
13,
8,
5,
6,
8,
9,
5,
9,
8,
4,
6,
4,
11,
5,
3,
1,
6,
4,
8,
4,
8,
6,
8,
5,
3,
7,
5,
4,
7,
3,
3,
7,
9,
4,
5,
6,
2,
5,
5,
8,
2,
2,
3,
3,
2,
3,
6,
4,
8,
4,
2,
2,
0,
2,
4,
3,
6,
4,
2,
2,
6,
10,
2,
2,
3,
1,
3,
2,
3,
1,
0,
0,
6,
2,
4,
3,
2,
4,
4,
2,
6,
2,
3,
1,
4,
4,
0,
1,
5,
3,
3,
2,
4,
1,
0,
5,
2,
1,
2,
1,
5,
4,
5,
3,
4,
4,
2,
2,
2,
3,
4,
2,
7,
7,
4,
2,
3,
6,
1,
4,
3,
0,
4,
3,
2,
8,
4,
4,
4,
1,
0,
3,
1,
1,
1,
1,
0,
0,
1,
0,
1,
5,
0,
1,
0,
0,
1,
1,
0,
3,
1,
2,
3,
0,
1,
1,
1,
2,
2,
6,
0,
0,
1,
0,
1,
0,
1,
5,
1,
3,
2,
1,
1,
0,
2,
2,
1,
0,
0,
1,
0,
0,
0,
0,
1,
0,
2,
0,
2,
0,
0,
0,
1,
0,
0,
1,
0,
0,
0,
0,
1,
0,
1,
0,
0,
3,
0,
3,
0,
0,
1,
1,
0,
0,
0,
0,
2,
0,
1,
1,
2,
0,
1,
0,
4,
0,
0,
0,
0,
0,
2,
0,
0,
1,
0,
0,
0,
1,
0,
0,
0,
0,
0,
0,
0,
0,
0,
0,
1,
2,
0,
1,
0,
0,
1,
0,
0,
0,
0,
1,
0,
1,
0,
0,
0,
0,
0,
0,
0,
0,
0,
0,
0,
0,
0,
2,
0,
0,
0,
0,
1,
0,
1,
0,
0,
0,
0,
0,
0,
0,
0,
1,
1,
0,
0,
0,
0,
0,
0,
0,
0,
0,
0,
1,
0,
0,
0,
0,
0,
1,
0,
0,
0,
0,
0,
1,
0,
0,
0,
0,
1,
0,
0,
1,
0,
0,
0,
0,
0,
0,
0,
0,
1,
0,
0,
0,
0,
0,
0,
0,
0,
0,
0,
0,
0,
1,
0,
1,
0,
0,
0,
0,
0,
0,
0,
0,
0,
0,
0,
0,
0,
0,
0,
0,
0,
0,
0,
0,
0,
0,
0,
0,
0,
0,
0,
0,
0,
0,
0,
0,
0,
0,
0,
0,
0,
0,
0,
0,
0,
0,
0,
0,
0,
0,
0,
0,
0,
0,
0,
0,
0,
0,
0,
0,
0,
0,
0,
0,
0,
0,
0,
0,
0,
0,
0,
0,
0,
0,
0,
1,
0,
0,
0,
0,
0,
0,
0,
0,
0,
0,
0,
0,
0,
0,
0,
0,
0,
0,
0,
0,
0,
0,
0,
0,
0,
0,
0,
0,
0,
0,
0,
0,
0,
1,
0,
0,
0,
0,
0,
0,
0,
0,
1,
0,
0,
0,
0,
0,
0,
0,
0,
0,
0,
0,
0,
0,
0,
0,
1,
0,
0,
0,
0,
0,
0,
0,
0,
0,
0,
0,
0,
0,
0,
0,
0,
0,
0,
0,
0,
0,
0,
0,
0,
0,
0,
0,
0,
0,
0,
0,
0,
0,
0,
0,
0,
0,
0,
0,
0,
0,
0,
0,
0,
0,
0,
0,
0,
0,
0,
0,
0,
0,
0,
0,
0,
0,
0,
0,
0,
0,
0,
0,
0,
0,
0,
0,
0,
0,
0,
0,
0,
0,
0,
0,
0,
0,
0,
0,
0,
0,
0,
0,
0,
0,
0,
0,
0,
0,
0,
0,
0,
0,
0,
0,
0,
0,
0,
0,
0,
0,
0,
0,
0,
0,
0,
0,
0,
0,
0,
0,
0,
0,
0,
0,
0,
0,
0,
0,
0,
0,
0,
0,
0,
0,
0,
0,
0,
0,
0,
0,
0,
0,
0,
0,
0,
0,
0,
0,
0,
0,
0,
0,
0,
0,
0,
0,
0,
0,
0,
0,
0,
0,
0,
0,
0,
0,
0,
0,
0,
0,
0,
0,
#ENDOFDATA   :