File: N132962/Standards/20 keV/Zr std.msa
#FORMAT      : EMSA/MAS Spectral Data File
#VERSION     : 1.0
#TITLE       : G588 Zr[0][all]+G588 Zr[1][all]+G588 Zr[2][all]+G588 Zr[3][all]+G588 Zr[4][all]
#NPOINTS     : 4096
#NCOLUMNS    : 1
#XUNITS      : eV
#YUNITS      : counts
#DATATYPE    : Y
#SIGNALTYPE  : EDS
#XLABEL      : Energy (eV)
#YLABEL      : Counts
#XPERCHAN -eV: 9.99778
#OFFSET   -eV: 1.69135
#CHOFFSET    : 0
#OWNER       : Unknown
#ELEVANGLE   : 35
#BEAMKV   -kV: 20
#LIVETIME  -s: 1196.38
#REALTIME  -s: 1330.81
#PROBECUR -nA: 0.83562
##WORKING -mm: 15
##D2STDCMP   : Zr,(Zr:100.0000),5.000
#SPECTRUM    :
155,
160,
188,
2599,
17925,
40441,
33721,
24038,
37297,
65608,
70329,
42614,
33799,
33445,
24702,
24123,
34890,
48379,
40936,
26514,
23315,
25630,
28972,
31800,
31189,
30052,
30679,
32960,
35522,
36479,
36593,
37733,
39157,
40295,
41655,
42908,
43788,
44561,
45746,
46280,
47572,
48280,
49369,
49926,
51030,
51412,
52291,
53386,
54937,
57835,
57635,
57221,
55325,
55611,
55993,
57073,
60505,
70952,
99287,
141343,
155052,
130953,
104944,
100941,
130249,
258462,
672165,
1459342,
2026146,
1807534,
1334694,
1023322,
686233,
381873,
204903,
106586,
56621,
36602,
27550,
23014,
21326,
22023,
24850,
27871,
27425,
24243,
20758,
19645,
19257,
19230,
19516,
19526,
19844,
19975,
20207,
20243,
20763,
20385,
20951,
21083,
21578,
21515,
21340,
21348,
21304,
21564,
21595,
21903,
21707,
21869,
22214,
22113,
22228,
22165,
22125,
22163,
21972,
22133,
22311,
22270,
22323,
22131,
22660,
23071,
22757,
22908,
22533,
22725,
22987,
23069,
22717,
22691,
22904,
23453,
24586,
25830,
27363,
27890,
27562,
26966,
25958,
24611,
23450,
22795,
22370,
21779,
21712,
21402,
21209,
21126,
21363,
21076,
20737,
20773,
20835,
20796,
20717,
20639,
20622,
20500,
20332,
20391,
20152,
20261,
20264,
20060,
20027,
19989,
19737,
19653,
19555,
19560,
19674,
19451,
19349,
19255,
19206,
19279,
19573,
19731,
19902,
19696,
19326,
18994,
18717,
18513,
18535,
18366,
18093,
18189,
18018,
18021,
17820,
18047,
17788,
17563,
17721,
17816,
17753,
17329,
17090,
16899,
16736,
16897,
16572,
16803,
16722,
16594,
16420,
16677,
17325,
18745,
19966,
20694,
20394,
19206,
17444,
16582,
15812,
15639,
15502,
15260,
15531,
15283,
15032,
15210,
14891,
14841,
14871,
14716,
14806,
14730,
14590,
14833,
14788,
14994,
14517,
14180,
14082,
13940,
13839,
14122,
13785,
13464,
13754,
13581,
13876,
13968,
14308,
14557,
13930,
13755,
13387,
13155,
12833,
12770,
12643,
12807,
12534,
12457,
12432,
12314,
12369,
12155,
11965,
12138,
12096,
11892,
12166,
11685,
11781,
11729,
11593,
11495,
11565,
11564,
11458,
11410,
11227,
11157,
11178,
10990,
10837,
11096,
11014,
10783,
10946,
10591,
10800,
10573,
10314,
10402,
10268,
10364,
10248,
10229,
10090,
9883,
9936,
9949,
9940,
9872,
9670,
9633,
9661,
9690,
9664,
9566,
9410,
9486,
9376,
9135,
9214,
9151,
9029,
9111,
9026,
8738,
8786,
8846,
8743,
8909,
8765,
8689,
8565,
8591,
8316,
8299,
8473,
8114,
8264,
8296,
8206,
8012,
8093,
8055,
7789,
7840,
7856,
8090,
7692,
7713,
7793,
7472,
7558,
7492,
7430,
7174,
7234,
7412,
7245,
7123,
7135,
6953,
7028,
7023,
7024,
6791,
6979,
6829,
6662,
6733,
6613,
6571,
6555,
6543,
6509,
6343,
6507,
6386,
6341,
6247,
6254,
6334,
6106,
5944,
6026,
5857,
5924,
5996,
5841,
5766,
5724,
5574,
5663,
5581,
5781,
5419,
5457,
5451,
5406,
5260,
5355,
5383,
5221,
5321,
5128,
5156,
5196,
5013,
5247,
4935,
4972,
4909,
4778,
4820,
4785,
4906,
4793,
4511,
4672,
4524,
4521,
4467,
4486,
4366,
4446,
4377,
4205,
4295,
4364,
4180,
4221,
4075,
4279,
3997,
4083,
4080,
4019,
3870,
3948,
3805,
3921,
3808,
3785,
3802,
3600,
3743,
3801,
3536,
3555,
3518,
3626,
3474,
3437,
3516,
3477,
3330,
3341,
3347,
3309,
3222,
3219,
3203,
3145,
3215,
3027,
3004,
2989,
3029,
2928,
3052,
2874,
2887,
2743,
2877,
2790,
2817,
2737,
2711,
2727,
2665,
2601,
2634,
2623,
2557,
2555,
2467,
2512,
2383,
2361,
2450,
2455,
2367,
2360,
2391,
2366,
2279,
2279,
2286,
2220,
2238,
2232,
2226,
2072,
2101,
2042,
2041,
2095,
2009,
2007,
1976,
1958,
1898,
1933,
1859,
1848,
1872,
1784,
1740,
1831,
1751,
1699,
1753,
1681,
1814,
1875,
2030,
2376,
2953,
3609,
4636,
5360,
6244,
6646,
6566,
5960,
5143,
4103,
3167,
2411,
1964,
1647,
1461,
1418,
1246,
1334,
1273,
1286,
1246,
1297,
1231,
1177,
1214,
1208,
1171,
1142,
1173,
1073,
1145,
1104,
1083,
1044,
1032,
1033,
1021,
970,
987,
1001,
980,
975,
926,
954,
900,
899,
961,
870,
883,
865,
910,
838,
802,
810,
809,
813,
825,
724,
745,
737,
726,
712,
763,
786,
839,
922,
1142,
1169,
1341,
1395,
1286,
1104,
1040,
914,
849,
703,
724,
647,
642,
619,
596,
556,
578,
479,
504,
440,
426,
449,
456,
432,
444,
392,
393,
375,
379,
336,
371,
350,
353,
346,
330,
307,
315,
327,
263,
263,
282,
252,
287,
255,
244,
244,
230,
226,
256,
222,
213,
214,
195,
190,
184,
181,
158,
171,
151,
141,
145,
133,
125,
134,
109,
105,
124,
90,
89,
81,
75,
85,
78,
70,
65,
45,
41,
43,
33,
42,
39,
26,
19,
15,
17,
14,
11,
13,
10,
9,
6,
15,
10,
5,
13,
15,
9,
9,
15,
11,
12,
13,
10,
9,
9,
13,
8,
5,
12,
13,
8,
14,
7,
10,
10,
4,
8,
6,
9,
8,
8,
11,
9,
10,
4,
7,
11,
10,
8,
5,
10,
9,
1,
6,
5,
4,
7,
7,
8,
7,
6,
5,
3,
5,
3,
3,
5,
7,
4,
5,
6,
4,
3,
3,
3,
7,
6,
10,
5,
7,
3,
3,
2,
3,
2,
4,
5,
7,
4,
2,
2,
6,
6,
0,
5,
5,
4,
5,
2,
4,
4,
2,
2,
4,
3,
2,
1,
5,
4,
3,
3,
5,
4,
3,
3,
1,
6,
1,
5,
3,
7,
0,
3,
4,
1,
5,
4,
0,
2,
6,
1,
4,
2,
2,
3,
0,
2,
2,
4,
5,
2,
3,
4,
6,
0,
1,
1,
0,
3,
0,
2,
2,
1,
2,
1,
0,
0,
8,
2,
2,
2,
2,
0,
4,
2,
0,
3,
1,
1,
3,
3,
1,
1,
2,
1,
7,
3,
1,
3,
3,
1,
3,
3,
4,
0,
1,
1,
1,
2,
4,
3,
1,
0,
1,
2,
2,
2,
3,
3,
1,
5,
1,
1,
2,
0,
2,
1,
2,
0,
4,
2,
2,
3,
3,
1,
0,
2,
1,
2,
0,
2,
0,
1,
0,
1,
1,
0,
1,
2,
0,
0,
3,
1,
0,
1,
3,
1,
0,
4,
1,
0,
2,
1,
0,
0,
0,
1,
2,
1,
0,
0,
2,
0,
2,
1,
1,
1,
2,
1,
3,
0,
1,
1,
2,
1,
2,
0,
1,
2,
1,
1,
0,
1,
2,
0,
0,
0,
1,
1,
0,
1,
0,
1,
0,
0,
2,
0,
0,
0,
0,
1,
2,
3,
0,
0,
0,
1,
0,
0,
0,
0,
0,
0,
0,
0,
0,
4,
2,
0,
1,
0,
1,
1,
2,
0,
0,
1,
1,
1,
0,
0,
0,
0,
1,
0,
1,
1,
0,
0,
0,
1,
0,
1,
0,
0,
0,
0,
0,
1,
1,
0,
1,
0,
1,
1,
0,
1,
2,
0,
0,
1,
0,
0,
0,
0,
0,
1,
1,
0,
1,
0,
0,
0,
0,
3,
1,
0,
2,
0,
0,
0,
0,
0,
0,
1,
0,
0,
0,
0,
0,
0,
0,
0,
0,
0,
0,
1,
0,
0,
0,
0,
0,
0,
1,
0,
0,
0,
1,
0,
0,
0,
0,
0,
0,
0,
0,
0,
0,
0,
0,
0,
1,
1,
0,
1,
0,
0,
0,
0,
0,
0,
0,
0,
0,
1,
0,
0,
0,
2,
1,
0,
0,
1,
0,
0,
0,
0,
0,
0,
0,
0,
0,
0,
0,
0,
0,
0,
0,
0,
0,
0,
0,
0,
0,
0,
0,
0,
0,
0,
0,
0,
0,
0,
0,
0,
0,
0,
0,
0,
0,
0,
0,
0,
0,
0,
0,
0,
0,
0,
0,
0,
0,
0,
0,
0,
0,
0,
0,
0,
0,
0,
0,
0,
0,
0,
0,
0,
0,
0,
0,
1,
0,
0,
0,
0,
0,
0,
0,
0,
0,
0,
0,
0,
0,
0,
0,
0,
0,
1,
0,
0,
0,
0,
0,
0,
0,
0,
0,
0,
0,
0,
0,
0,
0,
0,
0,
0,
0,
0,
0,
0,
0,
0,
0,
0,
0,
0,
0,
0,
0,
0,
0,
0,
0,
0,
0,
0,
0,
0,
0,
0,
0,
1,
0,
0,
0,
0,
0,
0,
0,
0,
0,
0,
0,
0,
0,
0,
0,
0,
0,
0,
0,
0,
0,
0,
0,
0,
0,
0,
0,
0,
0,
0,
0,
0,
0,
0,
0,
0,
0,
0,
0,
0,
0,
0,
0,
0,
0,
0,
0,
0,
0,
0,
0,
0,
1,
0,
0,
0,
0,
0,
0,
0,
0,
0,
0,
0,
0,
0,
0,
0,
0,
0,
0,
0,
0,
0,
0,
0,
0,
0,
0,
0,
0,
0,
0,
0,
0,
0,
0,
0,
0,
0,
0,
0,
0,
0,
0,
0,
0,
0,
0,
0,
0,
0,
0,
0,
0,
0,
0,
0,
0,
0,
0,
0,
0,
0,
0,
0,
0,
0,
0,
0,
0,
0,
0,
0,
0,
0,
0,
0,
0,
0,
0,
0,
0,
0,
0,
0,
0,
0,
#ENDOFDATA   :